"success","timeout","failed_images","failed_audio","failed_video","trial_type","trial_index","time_elapsed","internal_node_id","subject_id","study_id","session_id","task","rt","stimulus","response","item","answer","correct","spm_correct","spm_rt","view_history","mouse_click","stim_duration","block_duration","timing_post_trial","current_position","tol_num_moves_made","tol_target","tol_problem_id","tol_rt","key_press","possible_responses","tol_correct","preplanning","tol_rt_per_trial","tol_min_moves","fiar_detect_rt","fiar_detect_correct","total_correct_fiar_detect","post_trial_gap","choices"
"true","false","[]","[]","[]","preload","0","1526","0.0-0.0","5e84c817507cd3066a527e5e","D2","batch4","","","","","","","","","","","","","","","","","","","","","","","","","","","","","",""
"true","","","","","fullscreen","1","6696","0.0-1.0-0.0","5e84c817507cd3066a527e5e","D2","batch4","","","","","","","","","","","","","","","","","","","","","","","","","","","","","",""
"true","","","","","fullscreen","2","12936","0.0-2.0-0.0","5e84c817507cd3066a527e5e","D2","batch4","spm_fullscreen","","","","","","","","","","","","","","","","","","","","","","","","","","","","",""
"","","","","","html-button-response","3","18975","0.0-2.0-1.0","5e84c817507cd3066a527e5e","D2","batch4","","6035.600000023842","<p class = block-text><b>Instructions</b> <br>This is a widely used intelligence test in research. <br>In this test, a figure with a missing piece will be presented.<br>Below the figure are alternative pieces to complete the figure, only one of which is correct.<br> Different figures might involve different principles for obtaining the missing piece<br>Your job is to select the most logical piece to complete the figure.</p>","0","","","","","","","","","","","","","","","","","","","","","","","","","",""
"","","","","","html-keyboard-response","4","19784","0.0-2.0-2.0-0.0","5e84c817507cd3066a527e5e","D2","batch4","spm_show_trial_num","null","<p class=block-text>Trial 1 out of 60</p>","null","","","","","","","","","","","","","","","","","","","","","","","","","",""
"","","","","","image-button-response","5","30610","0.0-2.0-2.0-1.0","5e84c817507cd3066a527e5e","D2","batch4","spm_respsonse","10792.199999988079","img/question_1_1.jpeg","3","mat_01","4","1","1","10792.199999988079","","","","","","","","","","","","","","","","","","","","",""
"","","","","","html-keyboard-response","6","31672","0.0-2.0-2.0-0.1","5e84c817507cd3066a527e5e","D2","batch4","spm_show_trial_num","null","<p class=block-text>Trial 2 out of 60</p>","null","","","","","","","","","","","","","","","","","","","","","","","","","",""
"","","","","","image-button-response","7","34251","0.0-2.0-2.0-1.1","5e84c817507cd3066a527e5e","D2","batch4","spm_respsonse","2575.899999976158","img/question_1_2.jpeg","4","mat_02","5","1","1","2575.899999976158","","","","","","","","","","","","","","","","","","","","",""
"","","","","","html-keyboard-response","8","35312","0.0-2.0-2.0-0.2","5e84c817507cd3066a527e5e","D2","batch4","spm_show_trial_num","null","<p class=block-text>Trial 3 out of 60</p>","null","","","","","","","","","","","","","","","","","","","","","","","","","",""
"","","","","","image-button-response","9","37243","0.0-2.0-2.0-1.2","5e84c817507cd3066a527e5e","D2","batch4","spm_respsonse","1928","img/question_1_3.jpeg","0","mat_03","1","1","1","1928","","","","","","","","","","","","","","","","","","","","",""
"","","","","","html-keyboard-response","10","38304","0.0-2.0-2.0-0.3","5e84c817507cd3066a527e5e","D2","batch4","spm_show_trial_num","null","<p class=block-text>Trial 4 out of 60</p>","null","","","","","","","","","","","","","","","","","","","","","","","","","",""
"","","","","","image-button-response","11","41394","0.0-2.0-2.0-1.3","5e84c817507cd3066a527e5e","D2","batch4","spm_respsonse","3087.199999988079","img/question_1_4.jpeg","1","mat_04","2","1","1","3087.199999988079","","","","","","","","","","","","","","","","","","","","",""
"","","","","","html-keyboard-response","12","42456","0.0-2.0-2.0-0.4","5e84c817507cd3066a527e5e","D2","batch4","spm_show_trial_num","null","<p class=block-text>Trial 5 out of 60</p>","null","","","","","","","","","","","","","","","","","","","","","","","","","",""
"","","","","","image-button-response","13","47608","0.0-2.0-2.0-1.4","5e84c817507cd3066a527e5e","D2","batch4","spm_respsonse","5148","img/question_1_5.jpeg","5","mat_05","6","1","1","5148","","","","","","","","","","","","","","","","","","","","",""
"","","","","","html-keyboard-response","14","48672","0.0-2.0-2.0-0.5","5e84c817507cd3066a527e5e","D2","batch4","spm_show_trial_num","null","<p class=block-text>Trial 6 out of 60</p>","null","","","","","","","","","","","","","","","","","","","","","","","","","",""
"","","","","","image-button-response","15","51639","0.0-2.0-2.0-1.5","5e84c817507cd3066a527e5e","D2","batch4","spm_respsonse","2963.5","img/question_1_6.jpeg","2","mat_06","3","1","1","2963.5","","","","","","","","","","","","","","","","","","","","",""
"","","","","","html-keyboard-response","16","52704","0.0-2.0-2.0-0.6","5e84c817507cd3066a527e5e","D2","batch4","spm_show_trial_num","null","<p class=block-text>Trial 7 out of 60</p>","null","","","","","","","","","","","","","","","","","","","","","","","","","",""
"","","","","","image-button-response","17","55441","0.0-2.0-2.0-1.6","5e84c817507cd3066a527e5e","D2","batch4","spm_respsonse","2733.800000011921","img/question_1_7.jpeg","0","mat_07","6","0","0","2733.800000011921","","","","","","","","","","","","","","","","","","","","",""
"","","","","","html-keyboard-response","18","56504","0.0-2.0-2.0-0.7","5e84c817507cd3066a527e5e","D2","batch4","spm_show_trial_num","null","<p class=block-text>Trial 8 out of 60</p>","null","","","","","","","","","","","","","","","","","","","","","","","","","",""
"","","","","","image-button-response","19","63144","0.0-2.0-2.0-1.7","5e84c817507cd3066a527e5e","D2","batch4","spm_respsonse","6636.899999976158","img/question_1_8.jpeg","1","mat_08","2","1","1","6636.899999976158","","","","","","","","","","","","","","","","","","","","",""
"","","","","","html-keyboard-response","20","64208","0.0-2.0-2.0-0.8","5e84c817507cd3066a527e5e","D2","batch4","spm_show_trial_num","null","<p class=block-text>Trial 9 out of 60</p>","null","","","","","","","","","","","","","","","","","","","","","","","","","",""
"","","","","","image-button-response","21","67096","0.0-2.0-2.0-1.8","5e84c817507cd3066a527e5e","D2","batch4","spm_respsonse","2886","img/question_1_9.jpeg","0","mat_09","1","1","1","2886","","","","","","","","","","","","","","","","","","","","",""
"","","","","","html-keyboard-response","22","68160","0.0-2.0-2.0-0.9","5e84c817507cd3066a527e5e","D2","batch4","spm_show_trial_num","null","<p class=block-text>Trial 10 out of 60</p>","null","","","","","","","","","","","","","","","","","","","","","","","","","",""
"","","","","","image-button-response","23","72669","0.0-2.0-2.0-1.9","5e84c817507cd3066a527e5e","D2","batch4","spm_respsonse","4504.5999999940395","img/question_1_10.jpeg","2","mat_10","3","1","1","4504.5999999940395","","","","","","","","","","","","","","","","","","","","",""
"","","","","","html-keyboard-response","24","73728","0.0-2.0-2.0-0.10","5e84c817507cd3066a527e5e","D2","batch4","spm_show_trial_num","null","<p class=block-text>Trial 11 out of 60</p>","null","","","","","","","","","","","","","","","","","","","","","","","","","",""
"","","","","","image-button-response","25","83163","0.0-2.0-2.0-1.10","5e84c817507cd3066a527e5e","D2","batch4","spm_respsonse","9431.200000017881","img/question_1_11.jpeg","3","mat_11","4","1","1","9431.200000017881","","","","","","","","","","","","","","","","","","","","",""
"","","","","","html-keyboard-response","26","84224","0.0-2.0-2.0-0.11","5e84c817507cd3066a527e5e","D2","batch4","spm_show_trial_num","null","<p class=block-text>Trial 12 out of 60</p>","null","","","","","","","","","","","","","","","","","","","","","","","","","",""
"","","","","","image-button-response","27","104109","0.0-2.0-2.0-1.11","5e84c817507cd3066a527e5e","D2","batch4","spm_respsonse","19881.30000001192","img/question_1_12.jpeg","4","mat_12","5","1","1","19881.30000001192","","","","","","","","","","","","","","","","","","","","",""
"","","","","","html-keyboard-response","28","105176","0.0-2.0-2.0-0.12","5e84c817507cd3066a527e5e","D2","batch4","spm_show_trial_num","null","<p class=block-text>Trial 13 out of 60</p>","null","","","","","","","","","","","","","","","","","","","","","","","","","",""
"","","","","","image-button-response","29","109191","0.0-2.0-2.0-1.12","5e84c817507cd3066a527e5e","D2","batch4","spm_respsonse","4013.5","img/question_2_1.jpeg","1","mat_13","2","1","1","4013.5","","","","","","","","","","","","","","","","","","","","",""
"","","","","","html-keyboard-response","30","110255","0.0-2.0-2.0-0.13","5e84c817507cd3066a527e5e","D2","batch4","spm_show_trial_num","null","<p class=block-text>Trial 14 out of 60</p>","null","","","","","","","","","","","","","","","","","","","","","","","","","",""
"","","","","","image-button-response","31","120056","0.0-2.0-2.0-1.13","5e84c817507cd3066a527e5e","D2","batch4","spm_respsonse","9798.800000011921","img/question_2_2.jpeg","5","mat_14","6","1","1","9798.800000011921","","","","","","","","","","","","","","","","","","","","",""
"","","","","","html-keyboard-response","32","121119","0.0-2.0-2.0-0.14","5e84c817507cd3066a527e5e","D2","batch4","spm_show_trial_num","null","<p class=block-text>Trial 15 out of 60</p>","null","","","","","","","","","","","","","","","","","","","","","","","","","",""
"","","","","","image-button-response","33","139124","0.0-2.0-2.0-1.14","5e84c817507cd3066a527e5e","D2","batch4","spm_respsonse","18003","img/question_2_3.jpeg","0","mat_15","1","1","1","18003","","","","","","","","","","","","","","","","","","","","",""
"","","","","","html-keyboard-response","34","140183","0.0-2.0-2.0-0.15","5e84c817507cd3066a527e5e","D2","batch4","spm_show_trial_num","null","<p class=block-text>Trial 16 out of 60</p>","null","","","","","","","","","","","","","","","","","","","","","","","","","",""
"","","","","","image-button-response","35","142348","0.0-2.0-2.0-1.15","5e84c817507cd3066a527e5e","D2","batch4","spm_respsonse","2162.2999999821186","img/question_2_4.jpeg","1","mat_16","2","1","1","2162.2999999821186","","","","","","","","","","","","","","","","","","","","",""
"","","","","","html-keyboard-response","36","143407","0.0-2.0-2.0-0.16","5e84c817507cd3066a527e5e","D2","batch4","spm_show_trial_num","null","<p class=block-text>Trial 17 out of 60</p>","null","","","","","","","","","","","","","","","","","","","","","","","","","",""
"","","","","","image-button-response","37","149399","0.0-2.0-2.0-1.16","5e84c817507cd3066a527e5e","D2","batch4","spm_respsonse","5989.5999999940395","img/question_2_5.jpeg","0","mat_17","1","1","1","5989.5999999940395","","","","","","","","","","","","","","","","","","","","",""
"","","","","","html-keyboard-response","38","150463","0.0-2.0-2.0-0.17","5e84c817507cd3066a527e5e","D2","batch4","spm_show_trial_num","null","<p class=block-text>Trial 18 out of 60</p>","null","","","","","","","","","","","","","","","","","","","","","","","","","",""
"","","","","","image-button-response","39","156462","0.0-2.0-2.0-1.17","5e84c817507cd3066a527e5e","D2","batch4","spm_respsonse","5997","img/question_2_6.jpeg","2","mat_18","3","1","1","5997","","","","","","","","","","","","","","","","","","","","",""
"","","","","","html-keyboard-response","40","157527","0.0-2.0-2.0-0.18","5e84c817507cd3066a527e5e","D2","batch4","spm_show_trial_num","null","<p class=block-text>Trial 19 out of 60</p>","null","","","","","","","","","","","","","","","","","","","","","","","","","",""
"","","","","","image-button-response","41","161525","0.0-2.0-2.0-1.18","5e84c817507cd3066a527e5e","D2","batch4","spm_respsonse","3995.7999999821186","img/question_2_7.jpeg","4","mat_19","5","1","1","3995.7999999821186","","","","","","","","","","","","","","","","","","","","",""
"","","","","","html-keyboard-response","42","162583","0.0-2.0-2.0-0.19","5e84c817507cd3066a527e5e","D2","batch4","spm_show_trial_num","null","<p class=block-text>Trial 20 out of 60</p>","null","","","","","","","","","","","","","","","","","","","","","","","","","",""
"","","","","","image-button-response","43","171352","0.0-2.0-2.0-1.19","5e84c817507cd3066a527e5e","D2","batch4","spm_respsonse","8766.59999999404","img/question_2_8.jpeg","5","mat_20","6","1","1","8766.59999999404","","","","","","","","","","","","","","","","","","","","",""
"","","","","","html-keyboard-response","44","172415","0.0-2.0-2.0-0.20","5e84c817507cd3066a527e5e","D2","batch4","spm_show_trial_num","null","<p class=block-text>Trial 21 out of 60</p>","null","","","","","","","","","","","","","","","","","","","","","","","","","",""
"","","","","","image-button-response","45","177431","0.0-2.0-2.0-1.20","5e84c817507cd3066a527e5e","D2","batch4","spm_respsonse","5014.100000023842","img/question_2_9.jpeg","3","mat_21","4","1","1","5014.100000023842","","","","","","","","","","","","","","","","","","","","",""
"","","","","","html-keyboard-response","46","178496","0.0-2.0-2.0-0.21","5e84c817507cd3066a527e5e","D2","batch4","spm_show_trial_num","null","<p class=block-text>Trial 22 out of 60</p>","null","","","","","","","","","","","","","","","","","","","","","","","","","",""
"","","","","","image-button-response","47","199316","0.0-2.0-2.0-1.21","5e84c817507cd3066a527e5e","D2","batch4","spm_respsonse","20818.40000000596","img/question_2_10.jpeg","2","mat_22","3","1","1","20818.40000000596","","","","","","","","","","","","","","","","","","","","",""
"","","","","","html-keyboard-response","48","200376","0.0-2.0-2.0-0.22","5e84c817507cd3066a527e5e","D2","batch4","spm_show_trial_num","null","<p class=block-text>Trial 23 out of 60</p>","null","","","","","","","","","","","","","","","","","","","","","","","","","",""
"","","","","","image-button-response","49","210567","0.0-2.0-2.0-1.22","5e84c817507cd3066a527e5e","D2","batch4","spm_respsonse","10185.59999999404","img/question_2_11.jpeg","3","mat_23","4","1","1","10185.59999999404","","","","","","","","","","","","","","","","","","","","",""
"","","","","","html-keyboard-response","50","211631","0.0-2.0-2.0-0.23","5e84c817507cd3066a527e5e","D2","batch4","spm_show_trial_num","null","<p class=block-text>Trial 24 out of 60</p>","null","","","","","","","","","","","","","","","","","","","","","","","","","",""
"","","","","","image-button-response","51","231055","0.0-2.0-2.0-1.23","5e84c817507cd3066a527e5e","D2","batch4","spm_respsonse","19420.90000000596","img/question_2_12.jpeg","4","mat_24","5","1","1","19420.90000000596","","","","","","","","","","","","","","","","","","","","",""
"","","","","","html-button-response","52","233647","0.0-2.0-3.0","5e84c817507cd3066a527e5e","D2","batch4","attention_check","2335","<p class = block-text>Attention check: Please choose 1<br></p>","0","","","true","","","","","","","","","","","","","","","","","","","","","","",""
"","","","","","html-keyboard-response","53","234455","0.0-2.0-4.0-0.0","5e84c817507cd3066a527e5e","D2","batch4","spm_show_trial_num","null","<p class=block-text>Trial 25 out of 60</p>","null","","","","","","","","","","","","","","","","","","","","","","","","","",""
"","","","","","image-button-response","54","244641","0.0-2.0-4.0-1.0","5e84c817507cd3066a527e5e","D2","batch4","spm_respsonse","10184.09999999404","img/question_3_1.jpeg","7","mat_25","8","1","1","10184.09999999404","","","","","","","","","","","","","","","","","","","","",""
"","","","","","html-keyboard-response","55","245703","0.0-2.0-4.0-0.1","5e84c817507cd3066a527e5e","D2","batch4","spm_show_trial_num","null","<p class=block-text>Trial 26 out of 60</p>","null","","","","","","","","","","","","","","","","","","","","","","","","","",""
"","","","","","image-button-response","56","252946","0.0-2.0-4.0-1.1","5e84c817507cd3066a527e5e","D2","batch4","spm_respsonse","7240.699999988079","img/question_3_2.jpeg","1","mat_26","2","1","1","7240.699999988079","","","","","","","","","","","","","","","","","","","","",""
"","","","","","html-keyboard-response","57","254024","0.0-2.0-4.0-0.2","5e84c817507cd3066a527e5e","D2","batch4","spm_show_trial_num","null","<p class=block-text>Trial 27 out of 60</p>","null","","","","","","","","","","","","","","","","","","","","","","","","","",""
"","","","","","image-button-response","58","261550","0.0-2.0-4.0-1.2","5e84c817507cd3066a527e5e","D2","batch4","spm_respsonse","7521.199999988079","img/question_3_3.jpeg","2","mat_27","3","1","1","7521.199999988079","","","","","","","","","","","","","","","","","","","","",""
"","","","","","html-keyboard-response","59","262615","0.0-2.0-4.0-0.3","5e84c817507cd3066a527e5e","D2","batch4","spm_show_trial_num","null","<p class=block-text>Trial 28 out of 60</p>","null","","","","","","","","","","","","","","","","","","","","","","","","","",""
"","","","","","image-button-response","60","274708","0.0-2.0-4.0-1.3","5e84c817507cd3066a527e5e","D2","batch4","spm_respsonse","12089.299999982119","img/question_3_4.jpeg","7","mat_28","8","1","1","12089.299999982119","","","","","","","","","","","","","","","","","","","","",""
"","","","","","html-keyboard-response","61","275768","0.0-2.0-4.0-0.4","5e84c817507cd3066a527e5e","D2","batch4","spm_show_trial_num","null","<p class=block-text>Trial 29 out of 60</p>","null","","","","","","","","","","","","","","","","","","","","","","","","","",""
"","","","","","image-button-response","62","284842","0.0-2.0-4.0-1.4","5e84c817507cd3066a527e5e","D2","batch4","spm_respsonse","9070.199999988079","img/question_3_5.jpeg","4","mat_29","7","0","0","9070.199999988079","","","","","","","","","","","","","","","","","","","","",""
"","","","","","html-keyboard-response","63","285904","0.0-2.0-4.0-0.5","5e84c817507cd3066a527e5e","D2","batch4","spm_show_trial_num","null","<p class=block-text>Trial 30 out of 60</p>","null","","","","","","","","","","","","","","","","","","","","","","","","","",""
"","","","","","image-button-response","64","291575","0.0-2.0-4.0-1.5","5e84c817507cd3066a527e5e","D2","batch4","spm_respsonse","5667.200000017881","img/question_3_6.jpeg","3","mat_30","4","1","1","5667.200000017881","","","","","","","","","","","","","","","","","","","","",""
"","","","","","html-keyboard-response","65","292640","0.0-2.0-4.0-0.6","5e84c817507cd3066a527e5e","D2","batch4","spm_show_trial_num","null","<p class=block-text>Trial 31 out of 60</p>","null","","","","","","","","","","","","","","","","","","","","","","","","","",""
"","","","","","image-button-response","66","300629","0.0-2.0-4.0-1.6","5e84c817507cd3066a527e5e","D2","batch4","spm_respsonse","7984.9000000059605","img/question_3_7.jpeg","4","mat_31","5","1","1","7984.9000000059605","","","","","","","","","","","","","","","","","","","","",""
"","","","","","html-keyboard-response","67","301688","0.0-2.0-4.0-0.7","5e84c817507cd3066a527e5e","D2","batch4","spm_show_trial_num","null","<p class=block-text>Trial 32 out of 60</p>","null","","","","","","","","","","","","","","","","","","","","","","","","","",""
"","","","","","image-button-response","68","359185","0.0-2.0-4.0-1.7","5e84c817507cd3066a527e5e","D2","batch4","spm_respsonse","57493.59999999404","img/question_3_8.jpeg","0","mat_32","1","1","1","57493.59999999404","","","","","","","","","","","","","","","","","","","","",""
"","","","","","html-keyboard-response","69","360248","0.0-2.0-4.0-0.8","5e84c817507cd3066a527e5e","D2","batch4","spm_show_trial_num","null","<p class=block-text>Trial 33 out of 60</p>","null","","","","","","","","","","","","","","","","","","","","","","","","","",""
"","","","","","image-button-response","70","408877","0.0-2.0-4.0-1.8","5e84c817507cd3066a527e5e","D2","batch4","spm_respsonse","48625.09999999404","img/question_3_9.jpeg","6","mat_33","7","1","1","48625.09999999404","","","","","","","","","","","","","","","","","","","","",""
"","","","","","html-keyboard-response","71","409944","0.0-2.0-4.0-0.9","5e84c817507cd3066a527e5e","D2","batch4","spm_show_trial_num","null","<p class=block-text>Trial 34 out of 60</p>","null","","","","","","","","","","","","","","","","","","","","","","","","","",""
"","","","","","image-button-response","72","431538","0.0-2.0-4.0-1.9","5e84c817507cd3066a527e5e","D2","batch4","spm_respsonse","21589.5","img/question_3_10.jpeg","7","mat_34","6","0","0","21589.5","","","","","","","","","","","","","","","","","","","","",""
"","","","","","html-keyboard-response","73","432600","0.0-2.0-4.0-0.10","5e84c817507cd3066a527e5e","D2","batch4","spm_show_trial_num","null","<p class=block-text>Trial 35 out of 60</p>","null","","","","","","","","","","","","","","","","","","","","","","","","","",""
"","","","","","image-button-response","74","464452","0.0-2.0-4.0-1.10","5e84c817507cd3066a527e5e","D2","batch4","spm_respsonse","31847.600000023842","img/question_3_11.jpeg","0","mat_35","1","1","1","31847.600000023842","","","","","","","","","","","","","","","","","","","","",""
"","","","","","html-keyboard-response","75","465512","0.0-2.0-4.0-0.11","5e84c817507cd3066a527e5e","D2","batch4","spm_show_trial_num","null","<p class=block-text>Trial 36 out of 60</p>","null","","","","","","","","","","","","","","","","","","","","","","","","","",""
"","","","","","image-button-response","76","521177","0.0-2.0-4.0-1.11","5e84c817507cd3066a527e5e","D2","batch4","spm_respsonse","55663.30000001192","img/question_3_12.jpeg","5","mat_36","2","0","0","55663.30000001192","","","","","","","","","","","","","","","","","","","","",""
"","","","","","html-keyboard-response","77","522240","0.0-2.0-4.0-0.12","5e84c817507cd3066a527e5e","D2","batch4","spm_show_trial_num","null","<p class=block-text>Trial 37 out of 60</p>","null","","","","","","","","","","","","","","","","","","","","","","","","","",""
"","","","","","image-button-response","78","527810","0.0-2.0-4.0-1.12","5e84c817507cd3066a527e5e","D2","batch4","spm_respsonse","5565.9000000059605","img/question_4_1.jpeg","2","mat_37","3","1","1","5565.9000000059605","","","","","","","","","","","","","","","","","","","","",""
"","","","","","html-keyboard-response","79","528872","0.0-2.0-4.0-0.13","5e84c817507cd3066a527e5e","D2","batch4","spm_show_trial_num","null","<p class=block-text>Trial 38 out of 60</p>","null","","","","","","","","","","","","","","","","","","","","","","","","","",""
"","","","","","image-button-response","80","539765","0.0-2.0-4.0-1.13","5e84c817507cd3066a527e5e","D2","batch4","spm_respsonse","10888.800000011921","img/question_4_2.jpeg","3","mat_38","4","1","1","10888.800000011921","","","","","","","","","","","","","","","","","","","","",""
"","","","","","html-keyboard-response","81","540832","0.0-2.0-4.0-0.14","5e84c817507cd3066a527e5e","D2","batch4","spm_show_trial_num","null","<p class=block-text>Trial 39 out of 60</p>","null","","","","","","","","","","","","","","","","","","","","","","","","","",""
"","","","","","image-button-response","82","608656","0.0-2.0-4.0-1.14","5e84c817507cd3066a527e5e","D2","batch4","spm_respsonse","67820","img/question_4_3.jpeg","2","mat_39","3","1","1","67820","","","","","","","","","","","","","","","","","","","","",""
"","","","","","html-keyboard-response","83","609720","0.0-2.0-4.0-0.15","5e84c817507cd3066a527e5e","D2","batch4","spm_show_trial_num","null","<p class=block-text>Trial 40 out of 60</p>","null","","","","","","","","","","","","","","","","","","","","","","","","","",""
"","","","","","image-button-response","84","626573","0.0-2.0-4.0-1.15","5e84c817507cd3066a527e5e","D2","batch4","spm_respsonse","16849.19999998808","img/question_4_4.jpeg","2","mat_40","7","0","0","16849.19999998808","","","","","","","","","","","","","","","","","","","","",""
"","","","","","html-keyboard-response","85","627640","0.0-2.0-4.0-0.16","5e84c817507cd3066a527e5e","D2","batch4","spm_show_trial_num","null","<p class=block-text>Trial 41 out of 60</p>","null","","","","","","","","","","","","","","","","","","","","","","","","","",""
"","","","","","image-button-response","86","640259","0.0-2.0-4.0-1.16","5e84c817507cd3066a527e5e","D2","batch4","spm_respsonse","12615.09999999404","img/question_4_5.jpeg","7","mat_41","8","1","1","12615.09999999404","","","","","","","","","","","","","","","","","","","","",""
"","","","","","html-keyboard-response","87","641320","0.0-2.0-4.0-0.17","5e84c817507cd3066a527e5e","D2","batch4","spm_show_trial_num","null","<p class=block-text>Trial 42 out of 60</p>","null","","","","","","","","","","","","","","","","","","","","","","","","","",""
"","","","","","image-button-response","88","686920","0.0-2.0-4.0-1.17","5e84c817507cd3066a527e5e","D2","batch4","spm_respsonse","45596.20000001788","img/question_4_6.jpeg","5","mat_42","6","1","1","45596.20000001788","","","","","","","","","","","","","","","","","","","","",""
"","","","","","html-keyboard-response","89","687984","0.0-2.0-4.0-0.18","5e84c817507cd3066a527e5e","D2","batch4","spm_show_trial_num","null","<p class=block-text>Trial 43 out of 60</p>","null","","","","","","","","","","","","","","","","","","","","","","","","","",""
"","","","","","image-button-response","90","706559","0.0-2.0-4.0-1.18","5e84c817507cd3066a527e5e","D2","batch4","spm_respsonse","18570.5","img/question_4_7.jpeg","4","mat_43","5","1","1","18570.5","","","","","","","","","","","","","","","","","","","","",""
"","","","","","html-keyboard-response","91","707624","0.0-2.0-4.0-0.19","5e84c817507cd3066a527e5e","D2","batch4","spm_show_trial_num","null","<p class=block-text>Trial 44 out of 60</p>","null","","","","","","","","","","","","","","","","","","","","","","","","","",""
"","","","","","image-button-response","92","722816","0.0-2.0-4.0-1.19","5e84c817507cd3066a527e5e","D2","batch4","spm_respsonse","15188.40000000596","img/question_4_8.jpeg","3","mat_44","4","1","1","15188.40000000596","","","","","","","","","","","","","","","","","","","","",""
"","","","","","html-keyboard-response","93","723880","0.0-2.0-4.0-0.20","5e84c817507cd3066a527e5e","D2","batch4","spm_show_trial_num","null","<p class=block-text>Trial 45 out of 60</p>","null","","","","","","","","","","","","","","","","","","","","","","","","","",""
"","","","","","image-button-response","94","754991","0.0-2.0-4.0-1.20","5e84c817507cd3066a527e5e","D2","batch4","spm_respsonse","31108","img/question_4_9.jpeg","1","mat_45","1","0","0","31108","","","","","","","","","","","","","","","","","","","","",""
"","","","","","html-keyboard-response","95","756056","0.0-2.0-4.0-0.21","5e84c817507cd3066a527e5e","D2","batch4","spm_show_trial_num","null","<p class=block-text>Trial 46 out of 60</p>","null","","","","","","","","","","","","","","","","","","","","","","","","","",""
"","","","","","image-button-response","96","780871","0.0-2.0-4.0-1.21","5e84c817507cd3066a527e5e","D2","batch4","spm_respsonse","24811.100000023842","img/question_4_10.jpeg","1","mat_46","2","1","1","24811.100000023842","","","","","","","","","","","","","","","","","","","","",""
"","","","","","html-keyboard-response","97","781936","0.0-2.0-4.0-0.22","5e84c817507cd3066a527e5e","D2","batch4","spm_show_trial_num","null","<p class=block-text>Trial 47 out of 60</p>","null","","","","","","","","","","","","","","","","","","","","","","","","","",""
"","","","","","image-button-response","98","819699","0.0-2.0-4.0-1.22","5e84c817507cd3066a527e5e","D2","batch4","spm_respsonse","37759.19999998808","img/question_4_11.jpeg","4","mat_47","5","1","1","37759.19999998808","","","","","","","","","","","","","","","","","","","","",""
"","","","","","html-keyboard-response","99","820760","0.0-2.0-4.0-0.23","5e84c817507cd3066a527e5e","D2","batch4","spm_show_trial_num","null","<p class=block-text>Trial 48 out of 60</p>","null","","","","","","","","","","","","","","","","","","","","","","","","","",""
"","","","","","image-button-response","100","889213","0.0-2.0-4.0-1.23","5e84c817507cd3066a527e5e","D2","batch4","spm_respsonse","68449.40000000596","img/question_4_12.jpeg","6","mat_48","6","0","0","68449.40000000596","","","","","","","","","","","","","","","","","","","","",""
"","","","","","html-keyboard-response","101","890280","0.0-2.0-4.0-0.24","5e84c817507cd3066a527e5e","D2","batch4","spm_show_trial_num","null","<p class=block-text>Trial 49 out of 60</p>","null","","","","","","","","","","","","","","","","","","","","","","","","","",""
"","","","","","image-button-response","102","933088","0.0-2.0-4.0-1.24","5e84c817507cd3066a527e5e","D2","batch4","spm_respsonse","42803.79999998212","img/question_5_1.jpeg","6","mat_49","7","1","1","42803.79999998212","","","","","","","","","","","","","","","","","","","","",""
"","","","","","html-keyboard-response","103","934152","0.0-2.0-4.0-0.25","5e84c817507cd3066a527e5e","D2","batch4","spm_show_trial_num","null","<p class=block-text>Trial 50 out of 60</p>","null","","","","","","","","","","","","","","","","","","","","","","","","","",""
"","","","","","image-button-response","104","976492","0.0-2.0-4.0-1.25","5e84c817507cd3066a527e5e","D2","batch4","spm_respsonse","42335.69999998808","img/question_5_2.jpeg","5","mat_50","6","1","1","42335.69999998808","","","","","","","","","","","","","","","","","","","","",""
"","","","","","html-keyboard-response","105","977552","0.0-2.0-4.0-0.26","5e84c817507cd3066a527e5e","D2","batch4","spm_show_trial_num","null","<p class=block-text>Trial 51 out of 60</p>","null","","","","","","","","","","","","","","","","","","","","","","","","","",""
"","","","","","image-button-response","106","1026413","0.0-2.0-4.0-1.26","5e84c817507cd3066a527e5e","D2","batch4","spm_respsonse","48857.20000001788","img/question_5_3.jpeg","7","mat_51","8","1","1","48857.20000001788","","","","","","","","","","","","","","","","","","","","",""
"","","","","","html-keyboard-response","107","1027480","0.0-2.0-4.0-0.27","5e84c817507cd3066a527e5e","D2","batch4","spm_show_trial_num","null","<p class=block-text>Trial 52 out of 60</p>","null","","","","","","","","","","","","","","","","","","","","","","","","","",""
"","","","","","image-button-response","108","1066762","0.0-2.0-4.0-1.27","5e84c817507cd3066a527e5e","D2","batch4","spm_respsonse","39277.69999998808","img/question_5_4.jpeg","2","mat_52","2","0","0","39277.69999998808","","","","","","","","","","","","","","","","","","","","",""
"","","","","","html-keyboard-response","109","1067824","0.0-2.0-4.0-0.28","5e84c817507cd3066a527e5e","D2","batch4","spm_show_trial_num","null","<p class=block-text>Trial 53 out of 60</p>","null","","","","","","","","","","","","","","","","","","","","","","","","","",""
"","","","","","image-button-response","110","1094034","0.0-2.0-4.0-1.28","5e84c817507cd3066a527e5e","D2","batch4","spm_respsonse","26205.59999999404","img/question_5_5.jpeg","6","mat_53","1","0","0","26205.59999999404","","","","","","","","","","","","","","","","","","","","",""
"","","","","","html-keyboard-response","111","1095095","0.0-2.0-4.0-0.29","5e84c817507cd3066a527e5e","D2","batch4","spm_show_trial_num","null","<p class=block-text>Trial 54 out of 60</p>","null","","","","","","","","","","","","","","","","","","","","","","","","","",""
"","","","","","image-button-response","112","1174879","0.0-2.0-4.0-1.29","5e84c817507cd3066a527e5e","D2","batch4","spm_respsonse","79780.80000001192","img/question_5_6.jpeg","4","mat_54","5","1","1","79780.80000001192","","","","","","","","","","","","","","","","","","","","",""
"","","","","","html-keyboard-response","113","1175944","0.0-2.0-4.0-0.30","5e84c817507cd3066a527e5e","D2","batch4","spm_show_trial_num","null","<p class=block-text>Trial 55 out of 60</p>","null","","","","","","","","","","","","","","","","","","","","","","","","","",""
"","","","","","image-button-response","114","1264869","0.0-2.0-4.0-1.30","5e84c817507cd3066a527e5e","D2","batch4","spm_respsonse","88920.90000000596","img/question_5_7.jpeg","3","mat_55","1","0","0","88920.90000000596","","","","","","","","","","","","","","","","","","","","",""
"","","","","","html-keyboard-response","115","1265936","0.0-2.0-4.0-0.31","5e84c817507cd3066a527e5e","D2","batch4","spm_show_trial_num","null","<p class=block-text>Trial 56 out of 60</p>","null","","","","","","","","","","","","","","","","","","","","","","","","","",""
"","","","","","image-button-response","116","1312891","0.0-2.0-4.0-1.31","5e84c817507cd3066a527e5e","D2","batch4","spm_respsonse","46951.30000001192","img/question_5_8.jpeg","5","mat_56","6","1","1","46951.30000001192","","","","","","","","","","","","","","","","","","","","",""
"","","","","","html-keyboard-response","117","1313952","0.0-2.0-4.0-0.32","5e84c817507cd3066a527e5e","D2","batch4","spm_show_trial_num","null","<p class=block-text>Trial 57 out of 60</p>","null","","","","","","","","","","","","","","","","","","","","","","","","","",""
"","","","","","image-button-response","118","1690098","0.0-2.0-4.0-1.32","5e84c817507cd3066a527e5e","D2","batch4","spm_respsonse","376142.59999999404","img/question_5_9.jpeg","2","mat_57","3","1","1","376142.59999999404","","","","","","","","","","","","","","","","","","","","",""
"","","","","","html-keyboard-response","119","1691160","0.0-2.0-4.0-0.33","5e84c817507cd3066a527e5e","D2","batch4","spm_show_trial_num","null","<p class=block-text>Trial 58 out of 60</p>","null","","","","","","","","","","","","","","","","","","","","","","","","","",""
"","","","","","image-button-response","120","1858453","0.0-2.0-4.0-1.33","5e84c817507cd3066a527e5e","D2","batch4","spm_respsonse","167288.79999998212","img/question_5_10.jpeg","0","mat_58","2","0","0","167288.79999998212","","","","","","","","","","","","","","","","","","","","",""
"","","","","","html-keyboard-response","121","1859520","0.0-2.0-4.0-0.34","5e84c817507cd3066a527e5e","D2","batch4","spm_show_trial_num","null","<p class=block-text>Trial 59 out of 60</p>","null","","","","","","","","","","","","","","","","","","","","","","","","","",""
"","","","","","image-button-response","122","1898930","0.0-2.0-4.0-1.34","5e84c817507cd3066a527e5e","D2","batch4","spm_respsonse","39405.89999997616","img/question_5_11.jpeg","6","mat_59","4","0","0","39405.89999997616","","","","","","","","","","","","","","","","","","","","",""
"","","","","","html-keyboard-response","123","1899992","0.0-2.0-4.0-0.35","5e84c817507cd3066a527e5e","D2","batch4","spm_show_trial_num","null","<p class=block-text>Trial 60 out of 60</p>","null","","","","","","","","","","","","","","","","","","","","","","","","","",""
"","","","","","image-button-response","124","1965170","0.0-2.0-4.0-1.35","5e84c817507cd3066a527e5e","D2","batch4","spm_respsonse","65173.90000000596","img/question_5_12.jpeg","2","mat_60","5","0","0","65173.90000000596","","","","","","","","","","","","","","","","","","","","",""
"","","","","","html-button-response","125","1967550","0.0-2.0-5.0","5e84c817507cd3066a527e5e","D2","batch4","spm_goodbye","2124.7999999821186","<p class= block-text>This concludes the Standard Progressive Matrix game. Thank you for your responses!<br> When you are ready, click the button continue</p>","0","","","","","","","","","","","","","","","","","","","","","","","","","",""
"true","","","","","fullscreen","126","1970760","0.0-3.0-0.0","5e84c817507cd3066a527e5e","D2","batch4","","","","","","","","","","","","","","","","","","","","","","","","","","","","","",""
"","","","","","instructions","127","3132473","0.0-3.0-1.0-0.0-0.0","5e84c817507cd3066a527e5e","D2","batch4","tol-instructions","1161710.6000000238","","","","","","","","[{""page_index"":0,""viewing_time"":384236.60000002384},{""page_index"":1,""viewing_time"":738006},{""page_index"":2,""viewing_time"":10044.09999999404},{""page_index"":3,""viewing_time"":16147.5},{""page_index"":4,""viewing_time"":5842.0999999940395},{""page_index"":5,""viewing_time"":3491.9000000059605},{""page_index"":6,""viewing_time"":3941.699999988079}]","","","","","","","","","","","","","","","","","","","",""
"","","","","","html-button-response","128","3133643","0.0-3.0-1.0-1.0-0.0","5e84c817507cd3066a527e5e","D2","batch4","tol_enter_quiz","1168.4000000059605","<p class=block-text> Let's answer a few questions <br>","0","","","","","","","","","","","","","","","","","","","","","","","","","",""
"","","","","","html-button-response","129","3145799","0.0-3.0-1.0-1.0-1.0","5e84c817507cd3066a527e5e","D2","batch4","tol_quiz","12153.699999988079","<p class = block-text>True or False: You can only move the ball on top of a peg. <br></p>","0","","","true","","","","","","","","","","","","","","","","","","","","","","",""
"","","","","","html-button-response","130","3146839","0.0-3.0-1.0-1.0-2.0","5e84c817507cd3066a527e5e","D2","batch4","tol_quiz_feedback","1036.5999999940395","<p class = block-text>Correct! You can only move the ball on top of a peg.</p>","0","","","","","","","","","","","","","","","","","","","","","","","","","",""
"","","","","","html-button-response","131","3149730","0.0-3.0-1.0-1.0-3.0","5e84c817507cd3066a527e5e","D2","batch4","tol_quiz","2889.0999999940395","<p class = block-text>True or False: You should try to match your board with the target board with fewest moves possible. <br></p>","0","","","true","","","","","","","","","","","","","","","","","","","","","","",""
"","","","","","html-button-response","132","3150601","0.0-3.0-1.0-1.0-4.0","5e84c817507cd3066a527e5e","D2","batch4","tol_quiz_feedback","868.6000000238419","<p class = block-text>Correct! </p>","0","","","","","","","","","","","","","","","","","","","","","","","","","",""
"","","","","","html-button-response","133","3152131","0.0-3.0-2.0","5e84c817507cd3066a527e5e","D2","batch4","","1527.5999999940395","<p class=block-text> Now that you've understood the game, let's practice a few easier examples before we start!<br> <br>","0","","","","","","","","","","","","","","","","","","","","","","","","","",""
"","","","","","single-stim-button","134","3156507","0.0-3.0-3.0-0.0","5e84c817507cd3066a527e5e","D2","batch4","tol_practice","4372","","","","","","","","","tol_peg_2","4372","4372","0","[[1,2,0],[0,0],[0]]","1","[[1,2,0],[0,0],[3]]","practice","4372","","","","","","","","","","",""
"","","","","","single-stim-button","135","3157992","0.0-3.0-3.0-1.0","5e84c817507cd3066a527e5e","D2","batch4","tol_practice","1484","","","","","","","","","tol_peg_3","1484","1484","0","[[1,2,0],[0,0],[3]]","1","[[1,2,0],[0,0],[3]]","practice","1484","","","","","","","","","","",""
"","","","","","poldrack-single-stim","136","3159001","0.0-3.0-4.0","5e84c817507cd3066a527e5e","D2","batch4","tol_feedback","-1","","","","","true","","","","","1000","1000","500","","","","","","-1","none","true","","0","","","","","",""
"","","","","","single-stim-button","137","3162986","0.0-3.0-5.0-0.0","5e84c817507cd3066a527e5e","D2","batch4","tol_practice","3984","","","","","","","","","tol_peg_2","3984","3984","0","[[1,2,0],[0,0],[0]]","2","[[0,0,0],[3,1],[2]]","practice","3984","","","","","","","","","","",""
"","","","","","single-stim-button","138","3171679","0.0-3.0-5.0-1.0","5e84c817507cd3066a527e5e","D2","batch4","tol_practice","8691","","","","","","","","","tol_peg_2","8691","8691","0","[[1,2,0],[3,0],[0]]","2","[[0,0,0],[3,1],[2]]","practice","8691","","","","","","","","","","",""
"","","","","","single-stim-button","139","3172570","0.0-3.0-5.1-0.1","5e84c817507cd3066a527e5e","D2","batch4","tol_practice","890","","","","","","","","","tol_peg_1","890","890","0","[[1,0,0],[3,0],[0]]","3","[[0,0,0],[3,1],[2]]","practice","890","","","","","","","","","","",""
"","","","","","single-stim-button","140","3173470","0.0-3.0-5.1-1.1","5e84c817507cd3066a527e5e","D2","batch4","tol_practice","898","","","","","","","","","tol_peg_3","898","898","0","[[1,0,0],[3,0],[2]]","3","[[0,0,0],[3,1],[2]]","practice","898","","","","","","","","","","",""
"","","","","","single-stim-button","141","3176022","0.0-3.0-5.2-0.2","5e84c817507cd3066a527e5e","D2","batch4","tol_practice","2550","","","","","","","","","tol_peg_1","2550","2550","0","[[0,0,0],[3,0],[2]]","4","[[0,0,0],[3,1],[2]]","practice","2550","","","","","","","","","","",""
"","","","","","single-stim-button","142","3176992","0.0-3.0-5.2-1.2","5e84c817507cd3066a527e5e","D2","batch4","tol_practice","968","","","","","","","","","tol_peg_2","968","968","0","[[0,0,0],[3,1],[2]]","4","[[0,0,0],[3,1],[2]]","practice","968","","","","","","","","","","",""
"","","","","","poldrack-single-stim","143","3178000","0.0-3.0-6.0","5e84c817507cd3066a527e5e","D2","batch4","tol_feedback","-1","","","","","true","","","","","1000","1000","500","","","","","","-1","none","true","","0","","","","","",""
"","","","","","single-stim-button","144","3181614","0.0-3.0-7.0-0.0","5e84c817507cd3066a527e5e","D2","batch4","tol_practice","3612","","","","","","","","","tol_peg_2","3612","3612","0","[[1,2,0],[0,0],[0]]","5","[[1,0,0],[2,0],[3]]","practice","3612","","","","","","","","","","",""
"","","","","","single-stim-button","145","3182084","0.0-3.0-7.0-1.0","5e84c817507cd3066a527e5e","D2","batch4","tol_practice","469","","","","","","","","","tol_peg_3","469","469","0","[[1,2,0],[0,0],[3]]","5","[[1,0,0],[2,0],[3]]","practice","469","","","","","","","","","","",""
"","","","","","single-stim-button","146","3183311","0.0-3.0-7.1-0.1","5e84c817507cd3066a527e5e","D2","batch4","tol_practice","1225","","","","","","","","","tol_peg_1","1225","1225","0","[[1,0,0],[0,0],[3]]","6","[[1,0,0],[2,0],[3]]","practice","1225","","","","","","","","","","",""
"","","","","","single-stim-button","147","3183765","0.0-3.0-7.1-1.1","5e84c817507cd3066a527e5e","D2","batch4","tol_practice","453","","","","","","","","","tol_peg_2","453","453","0","[[1,0,0],[2,0],[3]]","6","[[1,0,0],[2,0],[3]]","practice","453","","","","","","","","","","",""
"","","","","","poldrack-single-stim","148","3184768","0.0-3.0-8.0","5e84c817507cd3066a527e5e","D2","batch4","tol_feedback","-1","","","","","true","","","","","1000","1000","500","","","","","","-1","none","true","","0","","","","","",""
"","","","","","html-button-response","149","3185786","0.0-3.0-9.0","5e84c817507cd3066a527e5e","D2","batch4","tol_instruction","1016.9000000059605","<div class = centerbox><p class = center-block-text>Great job! You are done with practice trials<br>You are about to start official trials.<br> <br> Problem <strong>1</strong> out of 25 problems</p></div>","0","","","","","","","","","","","","","","","","","","","","","","","","","",""
"","","","","","single-stim-button","150","3206766","0.0-3.0-10.0-0.0","5e84c817507cd3066a527e5e","D2","batch4","tol_tohand","19972","","","","","","","","","tol_peg_2","19972","19972","0","[[1,2,0],[0,0],[0]]","1","[[1,3,0],[2,0],[0]]","0","0","","","","","","3","","","","",""
"","","","","","single-stim-button","151","3210967","0.0-3.0-10.0-1.0","5e84c817507cd3066a527e5e","D2","batch4","tol_toboard","4200","","","","","","","","","tol_peg_3","4200","4200","0","[[1,2,0],[0,0],[3]]","1","[[1,3,0],[2,0],[0]]","0","0","","","","","","3","","","","",""
"","","","","","single-stim-button","152","3212038","0.0-3.0-10.1-0.1","5e84c817507cd3066a527e5e","D2","batch4","tol_tohand","1068","","","","","","","","","tol_peg_1","1068","1068","0","[[1,0,0],[0,0],[3]]","2","[[1,3,0],[2,0],[0]]","0","0","","","","","","3","","","","",""
"","","","","","single-stim-button","153","3212917","0.0-3.0-10.1-1.1","5e84c817507cd3066a527e5e","D2","batch4","tol_toboard","878","","","","","","","","","tol_peg_2","878","878","0","[[1,0,0],[2,0],[3]]","2","[[1,3,0],[2,0],[0]]","0","0","","","","","","3","","","","",""
"","","","","","single-stim-button","154","3213588","0.0-3.0-10.2-0.2","5e84c817507cd3066a527e5e","D2","batch4","tol_tohand","670","","","","","","","","","tol_peg_3","670","670","0","[[1,0,0],[2,0],[0]]","3","[[1,3,0],[2,0],[0]]","0","0","","","","","","3","","","","",""
"","","","","","single-stim-button","155","3214078","0.0-3.0-10.2-1.2","5e84c817507cd3066a527e5e","D2","batch4","tol_toboard","489","","","","","","","","","tol_peg_1","489","489","0","[[1,3,0],[2,0],[0]]","3","[[1,3,0],[2,0],[0]]","0","0","","","","","","3","","","","",""
"","","","","","poldrack-single-stim","156","3215088","0.0-3.0-11.0","5e84c817507cd3066a527e5e","D2","batch4","tol_feedback","-1","","","","","true","","","","","1000","1000","500","","","","","","-1","none","true","19972","21710","","","","","",""
"","","","","","html-button-response","157","3215800","0.0-3.0-12.0","5e84c817507cd3066a527e5e","D2","batch4","tol_trial_num","709.4000000059605","<div class = centerbox><p class = center-block-text>problem <strong>2</strong> out of 25 problems</p></div>","0","","","","","","","","","","","","","","","","","","","","","","","","","",""
"","","","","","single-stim-button","158","3227024","0.0-3.0-13.0-0.0","5e84c817507cd3066a527e5e","D2","batch4","tol_tohand","11223","","","","","","","","","tol_peg_1","11223","11223","0","[[1,0,0],[3,0],[0]]","1","[[2,1,3],[0,0],[0]]","1","0","","","","","","5","","","","",""
"","","","","","single-stim-button","159","3228145","0.0-3.0-13.0-1.0","5e84c817507cd3066a527e5e","D2","batch4","tol_toboard","1119","","","","","","","","","tol_peg_3","1119","1119","0","[[1,0,0],[3,0],[2]]","1","[[2,1,3],[0,0],[0]]","1","0","","","","","","5","","","","",""
"","","","","","single-stim-button","160","3231756","0.0-3.0-13.1-0.1","5e84c817507cd3066a527e5e","D2","batch4","tol_tohand","3610","","","","","","","","","tol_peg_1","3610","3610","0","[[0,0,0],[3,0],[2]]","2","[[2,1,3],[0,0],[0]]","1","0","","","","","","5","","","","",""
"","","","","","single-stim-button","161","3237339","0.0-3.0-13.1-1.1","5e84c817507cd3066a527e5e","D2","batch4","tol_toboard","5581","","","","","","","","","tol_peg_1","5581","5581","0","[[1,0,0],[3,0],[2]]","2","[[2,1,3],[0,0],[0]]","1","0","","","","","","5","","","","",""
"","","","","","single-stim-button","162","3246890","0.0-3.0-13.2-0.2","5e84c817507cd3066a527e5e","D2","batch4","tol_tohand","9550","","","","","","","","","tol_peg_3","9550","9550","0","[[1,0,0],[3,0],[0]]","3","[[2,1,3],[0,0],[0]]","1","0","","","","","","5","","","","",""
"","","","","","single-stim-button","163","3247433","0.0-3.0-13.2-1.2","5e84c817507cd3066a527e5e","D2","batch4","tol_toboard","543","","","","","","","","","tol_peg_1","543","543","0","[[1,2,0],[3,0],[0]]","3","[[2,1,3],[0,0],[0]]","1","0","","","","","","5","","","","",""
"","","","","","single-stim-button","164","3248124","0.0-3.0-13.3-0.3","5e84c817507cd3066a527e5e","D2","batch4","tol_tohand","689","","","","","","","","","tol_peg_2","689","689","0","[[1,2,0],[0,0],[0]]","4","[[2,1,3],[0,0],[0]]","1","0","","","","","","5","","","","",""
"","","","","","single-stim-button","165","3248533","0.0-3.0-13.3-1.3","5e84c817507cd3066a527e5e","D2","batch4","tol_toboard","409","","","","","","","","","tol_peg_3","409","409","0","[[1,2,0],[0,0],[3]]","4","[[2,1,3],[0,0],[0]]","1","0","","","","","","5","","","","",""
"","","","","","single-stim-button","166","3250585","0.0-3.0-13.4-0.4","5e84c817507cd3066a527e5e","D2","batch4","tol_tohand","2049","","","","","","","","","tol_peg_1","2049","2049","0","[[1,0,0],[0,0],[3]]","5","[[2,1,3],[0,0],[0]]","1","0","","","","","","5","","","","",""
"","","","","","single-stim-button","167","3252343","0.0-3.0-13.4-1.4","5e84c817507cd3066a527e5e","D2","batch4","tol_toboard","1757","","","","","","","","","tol_peg_2","1757","1757","0","[[1,0,0],[2,0],[3]]","5","[[2,1,3],[0,0],[0]]","1","0","","","","","","5","","","","",""
"","","","","","single-stim-button","168","3267302","0.0-3.0-13.5-0.5","5e84c817507cd3066a527e5e","D2","batch4","tol_tohand","14959","","","","","","","","","tol_peg_1","14959","14959","0","[[0,0,0],[2,0],[3]]","6","[[2,1,3],[0,0],[0]]","1","0","","","","","","5","","","","",""
"","","","","","single-stim-button","169","3268782","0.0-3.0-13.5-1.5","5e84c817507cd3066a527e5e","D2","batch4","tol_toboard","1478","","","","","","","","","tol_peg_2","1478","1478","0","[[0,0,0],[2,1],[3]]","6","[[2,1,3],[0,0],[0]]","1","0","","","","","","5","","","","",""
"","","","","","single-stim-button","170","3269782","0.0-3.0-13.6-0.6","5e84c817507cd3066a527e5e","D2","batch4","tol_tohand","999","","","","","","","","","tol_peg_3","999","999","0","[[0,0,0],[2,1],[0]]","7","[[2,1,3],[0,0],[0]]","1","0","","","","","","5","","","","",""
"","","","","","single-stim-button","171","3270543","0.0-3.0-13.6-1.6","5e84c817507cd3066a527e5e","D2","batch4","tol_toboard","760","","","","","","","","","tol_peg_1","760","760","0","[[3,0,0],[2,1],[0]]","7","[[2,1,3],[0,0],[0]]","1","0","","","","","","5","","","","",""
"","","","","","single-stim-button","172","3271214","0.0-3.0-13.7-0.7","5e84c817507cd3066a527e5e","D2","batch4","tol_tohand","669","","","","","","","","","tol_peg_2","669","669","0","[[3,0,0],[2,0],[0]]","8","[[2,1,3],[0,0],[0]]","1","0","","","","","","5","","","","",""
"","","","","","single-stim-button","173","3271634","0.0-3.0-13.7-1.7","5e84c817507cd3066a527e5e","D2","batch4","tol_toboard","419","","","","","","","","","tol_peg_3","419","419","0","[[3,0,0],[2,0],[1]]","8","[[2,1,3],[0,0],[0]]","1","0","","","","","","5","","","","",""
"","","","","","single-stim-button","174","3277317","0.0-3.0-13.8-0.8","5e84c817507cd3066a527e5e","D2","batch4","tol_tohand","5681","","","","","","","","","tol_peg_3","5681","5681","0","[[3,0,0],[2,0],[0]]","9","[[2,1,3],[0,0],[0]]","1","0","","","","","","5","","","","",""
"","","","","","single-stim-button","175","3278977","0.0-3.0-13.8-1.8","5e84c817507cd3066a527e5e","D2","batch4","tol_toboard","1658","","","","","","","","","tol_peg_1","1658","1658","0","[[3,1,0],[2,0],[0]]","9","[[2,1,3],[0,0],[0]]","1","0","","","","","","5","","","","",""
"","","","","","single-stim-button","176","3279527","0.0-3.0-13.9-0.9","5e84c817507cd3066a527e5e","D2","batch4","tol_tohand","549","","","","","","","","","tol_peg_2","549","549","0","[[3,1,0],[0,0],[0]]","10","[[2,1,3],[0,0],[0]]","1","0","","","","","","5","","","","",""
"","","","","","single-stim-button","177","3279908","0.0-3.0-13.9-1.9","5e84c817507cd3066a527e5e","D2","batch4","tol_toboard","379","","","","","","","","","tol_peg_3","379","379","0","[[3,1,0],[0,0],[2]]","10","[[2,1,3],[0,0],[0]]","1","0","","","","","","5","","","","",""
"","","","","","single-stim-button","178","3282819","0.0-3.0-13.10-0.10","5e84c817507cd3066a527e5e","D2","batch4","tol_tohand","2909","","","","","","","","","tol_peg_1","2909","2909","0","[[3,0,0],[0,0],[2]]","11","[[2,1,3],[0,0],[0]]","1","0","","","","","","5","","","","",""
"","","","","","single-stim-button","179","3283239","0.0-3.0-13.10-1.10","5e84c817507cd3066a527e5e","D2","batch4","tol_toboard","418","","","","","","","","","tol_peg_2","418","418","0","[[3,0,0],[1,0],[2]]","11","[[2,1,3],[0,0],[0]]","1","0","","","","","","5","","","","",""
"","","","","","single-stim-button","180","3284290","0.0-3.0-13.11-0.11","5e84c817507cd3066a527e5e","D2","batch4","tol_tohand","1049","","","","","","","","","tol_peg_1","1049","1049","0","[[0,0,0],[1,0],[2]]","12","[[2,1,3],[0,0],[0]]","1","0","","","","","","5","","","","",""
"","","","","","single-stim-button","181","3284669","0.0-3.0-13.11-1.11","5e84c817507cd3066a527e5e","D2","batch4","tol_toboard","379","","","","","","","","","tol_peg_2","379","379","0","[[0,0,0],[1,3],[2]]","12","[[2,1,3],[0,0],[0]]","1","0","","","","","","5","","","","",""
"","","","","","single-stim-button","182","3285260","0.0-3.0-13.12-0.12","5e84c817507cd3066a527e5e","D2","batch4","tol_tohand","590","","","","","","","","","tol_peg_3","590","590","0","[[0,0,0],[1,3],[0]]","13","[[2,1,3],[0,0],[0]]","1","0","","","","","","5","","","","",""
"","","","","","single-stim-button","183","3286460","0.0-3.0-13.12-1.12","5e84c817507cd3066a527e5e","D2","batch4","tol_toboard","1199","","","","","","","","","tol_peg_1","1199","1199","0","[[2,0,0],[1,3],[0]]","13","[[2,1,3],[0,0],[0]]","1","0","","","","","","5","","","","",""
"","","","","","single-stim-button","184","3287352","0.0-3.0-13.13-0.13","5e84c817507cd3066a527e5e","D2","batch4","tol_tohand","890","","","","","","","","","tol_peg_2","890","890","0","[[2,0,0],[1,0],[0]]","14","[[2,1,3],[0,0],[0]]","1","0","","","","","","5","","","","",""
"","","","","","single-stim-button","185","3287681","0.0-3.0-13.13-1.13","5e84c817507cd3066a527e5e","D2","batch4","tol_toboard","328","","","","","","","","","tol_peg_3","328","328","0","[[2,0,0],[1,0],[3]]","14","[[2,1,3],[0,0],[0]]","1","0","","","","","","5","","","","",""
"","","","","","single-stim-button","186","3288221","0.0-3.0-13.14-0.14","5e84c817507cd3066a527e5e","D2","batch4","tol_tohand","539","","","","","","","","","tol_peg_2","539","539","0","[[2,0,0],[0,0],[3]]","15","[[2,1,3],[0,0],[0]]","1","0","","","","","","5","","","","",""
"","","","","","single-stim-button","187","3288741","0.0-3.0-13.14-1.14","5e84c817507cd3066a527e5e","D2","batch4","tol_toboard","519","","","","","","","","","tol_peg_1","519","519","0","[[2,1,0],[0,0],[3]]","15","[[2,1,3],[0,0],[0]]","1","0","","","","","","5","","","","",""
"","","","","","single-stim-button","188","3289271","0.0-3.0-13.15-0.15","5e84c817507cd3066a527e5e","D2","batch4","tol_tohand","529","","","","","","","","","tol_peg_3","529","529","0","[[2,1,0],[0,0],[0]]","16","[[2,1,3],[0,0],[0]]","1","0","","","","","","5","","","","",""
"","","","","","single-stim-button","189","3289752","0.0-3.0-13.15-1.15","5e84c817507cd3066a527e5e","D2","batch4","tol_toboard","480","","","","","","","","","tol_peg_1","480","480","0","[[2,1,3],[0,0],[0]]","16","[[2,1,3],[0,0],[0]]","1","0","","","","","","5","","","","",""
"","","","","","poldrack-single-stim","190","3290760","0.0-3.0-14.0","5e84c817507cd3066a527e5e","D2","batch4","tol_feedback","-1","","","","","true","","","","","1000","1000","500","","","","","","-1","none","true","11223","56484","","","","","",""
"","","","","","html-button-response","191","3291683","0.0-3.0-15.0","5e84c817507cd3066a527e5e","D2","batch4","tol_trial_num","920.1999999880791","<div class = centerbox><p class = center-block-text>problem <strong>3</strong> out of 25 problems</p></div>","0","","","","","","","","","","","","","","","","","","","","","","","","","",""
"","","","","","single-stim-button","192","3298517","0.0-3.0-16.0-0.0","5e84c817507cd3066a527e5e","D2","batch4","tol_tohand","6832","","","","","","","","","tol_peg_1","6832","6832","0","[[2,0,0],[0,0],[1]]","1","[[1,2,0],[3,0],[0]]","2","0","","","","","","4","","","","",""
"","","","","","single-stim-button","193","3298995","0.0-3.0-16.0-1.0","5e84c817507cd3066a527e5e","D2","batch4","tol_toboard","477","","","","","","","","","tol_peg_2","477","477","0","[[2,0,0],[3,0],[1]]","1","[[1,2,0],[3,0],[0]]","2","0","","","","","","4","","","","",""
"","","","","","single-stim-button","194","3304123","0.0-3.0-16.1-0.1","5e84c817507cd3066a527e5e","D2","batch4","tol_tohand","5127","","","","","","","","","tol_peg_1","5127","5127","0","[[0,0,0],[3,0],[1]]","2","[[1,2,0],[3,0],[0]]","2","0","","","","","","4","","","","",""
"","","","","","single-stim-button","195","3304513","0.0-3.0-16.1-1.1","5e84c817507cd3066a527e5e","D2","batch4","tol_toboard","389","","","","","","","","","tol_peg_2","389","389","0","[[0,0,0],[3,2],[1]]","2","[[1,2,0],[3,0],[0]]","2","0","","","","","","4","","","","",""
"","","","","","single-stim-button","196","3304964","0.0-3.0-16.2-0.2","5e84c817507cd3066a527e5e","D2","batch4","tol_tohand","449","","","","","","","","","tol_peg_3","449","449","0","[[0,0,0],[3,2],[0]]","3","[[1,2,0],[3,0],[0]]","2","0","","","","","","4","","","","",""
"","","","","","single-stim-button","197","3305552","0.0-3.0-16.2-1.2","5e84c817507cd3066a527e5e","D2","batch4","tol_toboard","587","","","","","","","","","tol_peg_1","587","587","0","[[1,0,0],[3,2],[0]]","3","[[1,2,0],[3,0],[0]]","2","0","","","","","","4","","","","",""
"","","","","","single-stim-button","198","3306195","0.0-3.0-16.3-0.3","5e84c817507cd3066a527e5e","D2","batch4","tol_tohand","642","","","","","","","","","tol_peg_2","642","642","0","[[1,0,0],[3,0],[0]]","4","[[1,2,0],[3,0],[0]]","2","0","","","","","","4","","","","",""
"","","","","","single-stim-button","199","3306504","0.0-3.0-16.3-1.3","5e84c817507cd3066a527e5e","D2","batch4","tol_toboard","309","","","","","","","","","tol_peg_1","309","309","0","[[1,2,0],[3,0],[0]]","4","[[1,2,0],[3,0],[0]]","2","0","","","","","","4","","","","",""
"","","","","","poldrack-single-stim","200","3307512","0.0-3.0-17.0","5e84c817507cd3066a527e5e","D2","batch4","tol_feedback","-1","","","","","true","","","","","1000","1000","500","","","","","","-1","none","true","6832","13050","","","","","",""
"","","","","","html-button-response","201","3308306","0.0-3.0-18.0","5e84c817507cd3066a527e5e","D2","batch4","tol_trial_num","792","<div class = centerbox><p class = center-block-text>problem <strong>4</strong> out of 25 problems</p></div>","0","","","","","","","","","","","","","","","","","","","","","","","","","",""
"","","","","","single-stim-button","202","3314408","0.0-3.0-19.0-0.0","5e84c817507cd3066a527e5e","D2","batch4","tol_tohand","6101","","","","","","","","","tol_peg_2","6101","6101","0","[[3,0,0],[2,0],[0]]","1","[[3,0,0],[1,0],[2]]","3","0","","","","","","3","","","","",""
"","","","","","single-stim-button","203","3314719","0.0-3.0-19.0-1.0","5e84c817507cd3066a527e5e","D2","batch4","tol_toboard","308","","","","","","","","","tol_peg_1","308","308","0","[[3,1,0],[2,0],[0]]","1","[[3,0,0],[1,0],[2]]","3","0","","","","","","3","","","","",""
"","","","","","single-stim-button","204","3315319","0.0-3.0-19.1-0.1","5e84c817507cd3066a527e5e","D2","batch4","tol_tohand","599","","","","","","","","","tol_peg_2","599","599","0","[[3,1,0],[0,0],[0]]","2","[[3,0,0],[1,0],[2]]","3","0","","","","","","3","","","","",""
"","","","","","single-stim-button","205","3315949","0.0-3.0-19.1-1.1","5e84c817507cd3066a527e5e","D2","batch4","tol_toboard","628","","","","","","","","","tol_peg_3","628","628","0","[[3,1,0],[0,0],[2]]","2","[[3,0,0],[1,0],[2]]","3","0","","","","","","3","","","","",""
"","","","","","single-stim-button","206","3316729","0.0-3.0-19.2-0.2","5e84c817507cd3066a527e5e","D2","batch4","tol_tohand","780","","","","","","","","","tol_peg_1","780","780","0","[[3,0,0],[0,0],[2]]","3","[[3,0,0],[1,0],[2]]","3","0","","","","","","3","","","","",""
"","","","","","single-stim-button","207","3317049","0.0-3.0-19.2-1.2","5e84c817507cd3066a527e5e","D2","batch4","tol_toboard","319","","","","","","","","","tol_peg_2","319","319","0","[[3,0,0],[1,0],[2]]","3","[[3,0,0],[1,0],[2]]","3","0","","","","","","3","","","","",""
"","","","","","poldrack-single-stim","208","3318056","0.0-3.0-20.0","5e84c817507cd3066a527e5e","D2","batch4","tol_feedback","-1","","","","","true","","","","","1000","1000","500","","","","","","-1","none","true","6101","7480","","","","","",""
"","","","","","html-button-response","209","3318731","0.0-3.0-21.0","5e84c817507cd3066a527e5e","D2","batch4","tol_trial_num","673","<div class = centerbox><p class = center-block-text>problem <strong>5</strong> out of 25 problems</p></div>","0","","","","","","","","","","","","","","","","","","","","","","","","","",""
"","","","","","single-stim-button","210","3324622","0.0-3.0-22.0-0.0","5e84c817507cd3066a527e5e","D2","batch4","tol_tohand","5889","","","","","","","","","tol_peg_3","5889","5889","0","[[1,0,0],[2,0],[0]]","1","[[0,0,0],[1,2],[3]]","4","0","","","","","","7","","","","",""
"","","","","","single-stim-button","211","3324933","0.0-3.0-22.0-1.0","5e84c817507cd3066a527e5e","D2","batch4","tol_toboard","309","","","","","","","","","tol_peg_2","309","309","0","[[1,0,0],[2,3],[0]]","1","[[0,0,0],[1,2],[3]]","4","0","","","","","","7","","","","",""
"","","","","","single-stim-button","212","3325413","0.0-3.0-22.1-0.1","5e84c817507cd3066a527e5e","D2","batch4","tol_tohand","480","","","","","","","","","tol_peg_1","480","480","0","[[0,0,0],[2,3],[0]]","2","[[0,0,0],[1,2],[3]]","4","0","","","","","","7","","","","",""
"","","","","","single-stim-button","213","3325814","0.0-3.0-22.1-1.1","5e84c817507cd3066a527e5e","D2","batch4","tol_toboard","399","","","","","","","","","tol_peg_3","399","399","0","[[0,0,0],[2,3],[1]]","2","[[0,0,0],[1,2],[3]]","4","0","","","","","","7","","","","",""
"","","","","","single-stim-button","214","3327253","0.0-3.0-22.2-0.2","5e84c817507cd3066a527e5e","D2","batch4","tol_tohand","1438","","","","","","","","","tol_peg_2","1438","1438","0","[[0,0,0],[2,0],[1]]","3","[[0,0,0],[1,2],[3]]","4","0","","","","","","7","","","","",""
"","","","","","single-stim-button","215","3327564","0.0-3.0-22.2-1.2","5e84c817507cd3066a527e5e","D2","batch4","tol_toboard","309","","","","","","","","","tol_peg_1","309","309","0","[[3,0,0],[2,0],[1]]","3","[[0,0,0],[1,2],[3]]","4","0","","","","","","7","","","","",""
"","","","","","single-stim-button","216","3328734","0.0-3.0-22.3-0.3","5e84c817507cd3066a527e5e","D2","batch4","tol_tohand","1168","","","","","","","","","tol_peg_2","1168","1168","0","[[3,0,0],[0,0],[1]]","4","[[0,0,0],[1,2],[3]]","4","0","","","","","","7","","","","",""
"","","","","","single-stim-button","217","3329034","0.0-3.0-22.3-1.3","5e84c817507cd3066a527e5e","D2","batch4","tol_toboard","298","","","","","","","","","tol_peg_1","298","298","0","[[3,2,0],[0,0],[1]]","4","[[0,0,0],[1,2],[3]]","4","0","","","","","","7","","","","",""
"","","","","","single-stim-button","218","3330324","0.0-3.0-22.4-0.4","5e84c817507cd3066a527e5e","D2","batch4","tol_tohand","1288","","","","","","","","","tol_peg_3","1288","1288","0","[[3,2,0],[0,0],[0]]","5","[[0,0,0],[1,2],[3]]","4","0","","","","","","7","","","","",""
"","","","","","single-stim-button","219","3330610","0.0-3.0-22.4-1.4","5e84c817507cd3066a527e5e","D2","batch4","tol_toboard","284","","","","","","","","","tol_peg_2","284","284","0","[[3,2,0],[1,0],[0]]","5","[[0,0,0],[1,2],[3]]","4","0","","","","","","7","","","","",""
"","","","","","single-stim-button","220","3331129","0.0-3.0-22.5-0.5","5e84c817507cd3066a527e5e","D2","batch4","tol_tohand","518","","","","","","","","","tol_peg_1","518","518","0","[[3,0,0],[1,0],[0]]","6","[[0,0,0],[1,2],[3]]","4","0","","","","","","7","","","","",""
"","","","","","single-stim-button","221","3331769","0.0-3.0-22.5-1.5","5e84c817507cd3066a527e5e","D2","batch4","tol_toboard","639","","","","","","","","","tol_peg_2","639","639","0","[[3,0,0],[1,2],[0]]","6","[[0,0,0],[1,2],[3]]","4","0","","","","","","7","","","","",""
"","","","","","single-stim-button","222","3332129","0.0-3.0-22.6-0.6","5e84c817507cd3066a527e5e","D2","batch4","tol_tohand","360","","","","","","","","","tol_peg_1","360","360","0","[[0,0,0],[1,2],[0]]","7","[[0,0,0],[1,2],[3]]","4","0","","","","","","7","","","","",""
"","","","","","single-stim-button","223","3332537","0.0-3.0-22.6-1.6","5e84c817507cd3066a527e5e","D2","batch4","tol_toboard","406","","","","","","","","","tol_peg_3","406","406","0","[[0,0,0],[1,2],[3]]","7","[[0,0,0],[1,2],[3]]","4","0","","","","","","7","","","","",""
"","","","","","poldrack-single-stim","224","3333544","0.0-3.0-23.0","5e84c817507cd3066a527e5e","D2","batch4","tol_feedback","-1","","","","","true","","","","","1000","1000","500","","","","","","-1","none","true","5889","11141","","","","","",""
"","","","","","html-button-response","225","3334540","0.0-3.0-24.0","5e84c817507cd3066a527e5e","D2","batch4","tol_trial_num","994.3999999761581","<div class = centerbox><p class = center-block-text>problem <strong>6</strong> out of 25 problems</p></div>","0","","","","","","","","","","","","","","","","","","","","","","","","","",""
"","","","","","single-stim-button","226","3344864","0.0-3.0-25.0-0.0","5e84c817507cd3066a527e5e","D2","batch4","tol_tohand","10323","","","","","","","","","tol_peg_2","10323","10323","0","[[0,0,0],[1,0],[3]]","1","[[1,0,0],[2,3],[0]]","5","0","","","","","","6","","","","",""
"","","","","","single-stim-button","227","3345285","0.0-3.0-25.0-1.0","5e84c817507cd3066a527e5e","D2","batch4","tol_toboard","419","","","","","","","","","tol_peg_1","419","419","0","[[2,0,0],[1,0],[3]]","1","[[1,0,0],[2,3],[0]]","5","0","","","","","","6","","","","",""
"","","","","","single-stim-button","228","3347266","0.0-3.0-25.1-0.1","5e84c817507cd3066a527e5e","D2","batch4","tol_tohand","1980","","","","","","","","","tol_peg_2","1980","1980","0","[[2,0,0],[0,0],[3]]","2","[[1,0,0],[2,3],[0]]","5","0","","","","","","6","","","","",""
"","","","","","single-stim-button","229","3347675","0.0-3.0-25.1-1.1","5e84c817507cd3066a527e5e","D2","batch4","tol_toboard","408","","","","","","","","","tol_peg_1","408","408","0","[[2,1,0],[0,0],[3]]","2","[[1,0,0],[2,3],[0]]","5","0","","","","","","6","","","","",""
"","","","","","single-stim-button","230","3379139","0.0-3.0-25.2-0.2","5e84c817507cd3066a527e5e","D2","batch4","tol_tohand","31463","","","","","","","","","tol_peg_3","31463","31463","0","[[2,1,0],[0,0],[0]]","3","[[1,0,0],[2,3],[0]]","5","0","","","","","","6","","","","",""
"","","","","","single-stim-button","231","3379560","0.0-3.0-25.2-1.2","5e84c817507cd3066a527e5e","D2","batch4","tol_toboard","418","","","","","","","","","tol_peg_2","418","418","0","[[2,1,0],[3,0],[0]]","3","[[1,0,0],[2,3],[0]]","5","0","","","","","","6","","","","",""
"","","","","","single-stim-button","232","3382952","0.0-3.0-25.3-0.3","5e84c817507cd3066a527e5e","D2","batch4","tol_tohand","3390","","","","","","","","","tol_peg_1","3390","3390","0","[[2,0,0],[3,0],[0]]","4","[[1,0,0],[2,3],[0]]","5","0","","","","","","6","","","","",""
"","","","","","single-stim-button","233","3383271","0.0-3.0-25.3-1.3","5e84c817507cd3066a527e5e","D2","batch4","tol_toboard","319","","","","","","","","","tol_peg_2","319","319","0","[[2,0,0],[3,1],[0]]","4","[[1,0,0],[2,3],[0]]","5","0","","","","","","6","","","","",""
"","","","","","single-stim-button","234","3383762","0.0-3.0-25.4-0.4","5e84c817507cd3066a527e5e","D2","batch4","tol_tohand","489","","","","","","","","","tol_peg_1","489","489","0","[[0,0,0],[3,1],[0]]","5","[[1,0,0],[2,3],[0]]","5","0","","","","","","6","","","","",""
"","","","","","single-stim-button","235","3384212","0.0-3.0-25.4-1.4","5e84c817507cd3066a527e5e","D2","batch4","tol_toboard","449","","","","","","","","","tol_peg_3","449","449","0","[[0,0,0],[3,1],[2]]","5","[[1,0,0],[2,3],[0]]","5","0","","","","","","6","","","","",""
"","","","","","single-stim-button","236","3385302","0.0-3.0-25.5-0.5","5e84c817507cd3066a527e5e","D2","batch4","tol_tohand","1089","","","","","","","","","tol_peg_2","1089","1089","0","[[0,0,0],[3,0],[2]]","6","[[1,0,0],[2,3],[0]]","5","0","","","","","","6","","","","",""
"","","","","","single-stim-button","237","3385552","0.0-3.0-25.5-1.5","5e84c817507cd3066a527e5e","D2","batch4","tol_toboard","249","","","","","","","","","tol_peg_1","249","249","0","[[1,0,0],[3,0],[2]]","6","[[1,0,0],[2,3],[0]]","5","0","","","","","","6","","","","",""
"","","","","","single-stim-button","238","3386533","0.0-3.0-25.6-0.6","5e84c817507cd3066a527e5e","D2","batch4","tol_tohand","980","","","","","","","","","tol_peg_3","980","980","0","[[1,0,0],[3,0],[0]]","7","[[1,0,0],[2,3],[0]]","5","0","","","","","","6","","","","",""
"","","","","","single-stim-button","239","3386964","0.0-3.0-25.6-1.6","5e84c817507cd3066a527e5e","D2","batch4","tol_toboard","429","","","","","","","","","tol_peg_1","429","429","0","[[1,2,0],[3,0],[0]]","7","[[1,0,0],[2,3],[0]]","5","0","","","","","","6","","","","",""
"","","","","","single-stim-button","240","3387783","0.0-3.0-25.7-0.7","5e84c817507cd3066a527e5e","D2","batch4","tol_tohand","819","","","","","","","","","tol_peg_2","819","819","0","[[1,2,0],[0,0],[0]]","8","[[1,0,0],[2,3],[0]]","5","0","","","","","","6","","","","",""
"","","","","","single-stim-button","241","3388083","0.0-3.0-25.7-1.7","5e84c817507cd3066a527e5e","D2","batch4","tol_toboard","298","","","","","","","","","tol_peg_3","298","298","0","[[1,2,0],[0,0],[3]]","8","[[1,0,0],[2,3],[0]]","5","0","","","","","","6","","","","",""
"","","","","","single-stim-button","242","3389292","0.0-3.0-25.8-0.8","5e84c817507cd3066a527e5e","D2","batch4","tol_tohand","1207","","","","","","","","","tol_peg_1","1207","1207","0","[[1,0,0],[0,0],[3]]","9","[[1,0,0],[2,3],[0]]","5","0","","","","","","6","","","","",""
"","","","","","single-stim-button","243","3389654","0.0-3.0-25.8-1.8","5e84c817507cd3066a527e5e","D2","batch4","tol_toboard","362","","","","","","","","","tol_peg_2","362","362","0","[[1,0,0],[2,0],[3]]","9","[[1,0,0],[2,3],[0]]","5","0","","","","","","6","","","","",""
"","","","","","single-stim-button","244","3389975","0.0-3.0-25.9-0.9","5e84c817507cd3066a527e5e","D2","batch4","tol_tohand","319","","","","","","","","","tol_peg_3","319","319","0","[[1,0,0],[2,0],[0]]","10","[[1,0,0],[2,3],[0]]","5","0","","","","","","6","","","","",""
"","","","","","single-stim-button","245","3390355","0.0-3.0-25.9-1.9","5e84c817507cd3066a527e5e","D2","batch4","tol_toboard","378","","","","","","","","","tol_peg_2","378","378","0","[[1,0,0],[2,3],[0]]","10","[[1,0,0],[2,3],[0]]","5","0","","","","","","6","","","","",""
"","","","","","poldrack-single-stim","246","3391360","0.0-3.0-26.0","5e84c817507cd3066a527e5e","D2","batch4","tol_feedback","-1","","","","","true","","","","","1000","1000","500","","","","","","-1","none","true","10323","52059","","","","","",""
"","","","","","html-button-response","247","3392086","0.0-3.0-27.0","5e84c817507cd3066a527e5e","D2","batch4","tol_trial_num","724.0999999940395","<div class = centerbox><p class = center-block-text>problem <strong>7</strong> out of 25 problems</p></div>","0","","","","","","","","","","","","","","","","","","","","","","","","","",""
"","","","","","single-stim-button","248","3397148","0.0-3.0-28.0-0.0","5e84c817507cd3066a527e5e","D2","batch4","tol_tohand","5060","","","","","","","","","tol_peg_3","5060","5060","0","[[2,1,0],[0,0],[0]]","1","[[1,2,0],[3,0],[0]]","6","0","","","","","","5","","","","",""
"","","","","","single-stim-button","249","3397428","0.0-3.0-28.0-1.0","5e84c817507cd3066a527e5e","D2","batch4","tol_toboard","278","","","","","","","","","tol_peg_2","278","278","0","[[2,1,0],[3,0],[0]]","1","[[1,2,0],[3,0],[0]]","6","0","","","","","","5","","","","",""
"","","","","","single-stim-button","250","3398069","0.0-3.0-28.1-0.1","5e84c817507cd3066a527e5e","D2","batch4","tol_tohand","639","","","","","","","","","tol_peg_1","639","639","0","[[2,0,0],[3,0],[0]]","2","[[1,2,0],[3,0],[0]]","6","0","","","","","","5","","","","",""
"","","","","","single-stim-button","251","3400369","0.0-3.0-28.1-1.1","5e84c817507cd3066a527e5e","D2","batch4","tol_toboard","2300","","","","","","","","","tol_peg_3","2300","2300","0","[[2,0,0],[3,0],[1]]","2","[[1,2,0],[3,0],[0]]","6","0","","","","","","5","","","","",""
"","","","","","single-stim-button","252","3400869","0.0-3.0-28.2-0.2","5e84c817507cd3066a527e5e","D2","batch4","tol_tohand","499","","","","","","","","","tol_peg_1","499","499","0","[[0,0,0],[3,0],[1]]","3","[[1,2,0],[3,0],[0]]","6","0","","","","","","5","","","","",""
"","","","","","single-stim-button","253","3401209","0.0-3.0-28.2-1.2","5e84c817507cd3066a527e5e","D2","batch4","tol_toboard","339","","","","","","","","","tol_peg_2","339","339","0","[[0,0,0],[3,2],[1]]","3","[[1,2,0],[3,0],[0]]","6","0","","","","","","5","","","","",""
"","","","","","single-stim-button","254","3401560","0.0-3.0-28.3-0.3","5e84c817507cd3066a527e5e","D2","batch4","tol_tohand","349","","","","","","","","","tol_peg_3","349","349","0","[[0,0,0],[3,2],[0]]","4","[[1,2,0],[3,0],[0]]","6","0","","","","","","5","","","","",""
"","","","","","single-stim-button","255","3402150","0.0-3.0-28.3-1.3","5e84c817507cd3066a527e5e","D2","batch4","tol_toboard","589","","","","","","","","","tol_peg_1","589","589","0","[[1,0,0],[3,2],[0]]","4","[[1,2,0],[3,0],[0]]","6","0","","","","","","5","","","","",""
"","","","","","single-stim-button","256","3402480","0.0-3.0-28.4-0.4","5e84c817507cd3066a527e5e","D2","batch4","tol_tohand","328","","","","","","","","","tol_peg_2","328","328","0","[[1,0,0],[3,0],[0]]","5","[[1,2,0],[3,0],[0]]","6","0","","","","","","5","","","","",""
"","","","","","single-stim-button","257","3402780","0.0-3.0-28.4-1.4","5e84c817507cd3066a527e5e","D2","batch4","tol_toboard","299","","","","","","","","","tol_peg_1","299","299","0","[[1,2,0],[3,0],[0]]","5","[[1,2,0],[3,0],[0]]","6","0","","","","","","5","","","","",""
"","","","","","poldrack-single-stim","258","3403784","0.0-3.0-29.0","5e84c817507cd3066a527e5e","D2","batch4","tol_feedback","-1","","","","","true","","","","","1000","1000","500","","","","","","-1","none","true","5060","6875","","","","","",""
"","","","","","html-button-response","259","3404412","0.0-3.0-30.0","5e84c817507cd3066a527e5e","D2","batch4","tol_trial_num","625.9000000059605","<div class = centerbox><p class = center-block-text>problem <strong>8</strong> out of 25 problems</p></div>","0","","","","","","","","","","","","","","","","","","","","","","","","","",""
"","","","","","single-stim-button","260","3408013","0.0-3.0-31.0-0.0","5e84c817507cd3066a527e5e","D2","batch4","tol_tohand","3599","","","","","","","","","tol_peg_3","3599","3599","0","[[0,0,0],[2,3],[0]]","1","[[1,2,0],[3,0],[0]]","7","0","","","","","","4","","","","",""
"","","","","","single-stim-button","261","3408393","0.0-3.0-31.0-1.0","5e84c817507cd3066a527e5e","D2","batch4","tol_toboard","379","","","","","","","","","tol_peg_1","379","379","0","[[1,0,0],[2,3],[0]]","1","[[1,2,0],[3,0],[0]]","7","0","","","","","","4","","","","",""
"","","","","","single-stim-button","262","3410284","0.0-3.0-31.1-0.1","5e84c817507cd3066a527e5e","D2","batch4","tol_tohand","1889","","","","","","","","","tol_peg_2","1889","1889","0","[[1,0,0],[2,0],[0]]","2","[[1,2,0],[3,0],[0]]","7","0","","","","","","4","","","","",""
"","","","","","single-stim-button","263","3410644","0.0-3.0-31.1-1.1","5e84c817507cd3066a527e5e","D2","batch4","tol_toboard","359","","","","","","","","","tol_peg_3","359","359","0","[[1,0,0],[2,0],[3]]","2","[[1,2,0],[3,0],[0]]","7","0","","","","","","4","","","","",""
"","","","","","single-stim-button","264","3410924","0.0-3.0-31.2-0.2","5e84c817507cd3066a527e5e","D2","batch4","tol_tohand","278","","","","","","","","","tol_peg_2","278","278","0","[[1,0,0],[0,0],[3]]","3","[[1,2,0],[3,0],[0]]","7","0","","","","","","4","","","","",""
"","","","","","single-stim-button","265","3411193","0.0-3.0-31.2-1.2","5e84c817507cd3066a527e5e","D2","batch4","tol_toboard","269","","","","","","","","","tol_peg_1","269","269","0","[[1,2,0],[0,0],[3]]","3","[[1,2,0],[3,0],[0]]","7","0","","","","","","4","","","","",""
"","","","","","single-stim-button","266","3411564","0.0-3.0-31.3-0.3","5e84c817507cd3066a527e5e","D2","batch4","tol_tohand","370","","","","","","","","","tol_peg_3","370","370","0","[[1,2,0],[0,0],[0]]","4","[[1,2,0],[3,0],[0]]","7","0","","","","","","4","","","","",""
"","","","","","single-stim-button","267","3411924","0.0-3.0-31.3-1.3","5e84c817507cd3066a527e5e","D2","batch4","tol_toboard","359","","","","","","","","","tol_peg_2","359","359","0","[[1,2,0],[3,0],[0]]","4","[[1,2,0],[3,0],[0]]","7","0","","","","","","4","","","","",""
"","","","","","poldrack-single-stim","268","3412928","0.0-3.0-32.0","5e84c817507cd3066a527e5e","D2","batch4","tol_feedback","-1","","","","","true","","","","","1000","1000","500","","","","","","-1","none","true","3599","6136","","","","","",""
"","","","","","html-button-response","269","3413565","0.0-3.0-33.0","5e84c817507cd3066a527e5e","D2","batch4","tol_trial_num","635.1999999880791","<div class = centerbox><p class = center-block-text>problem <strong>9</strong> out of 25 problems</p></div>","0","","","","","","","","","","","","","","","","","","","","","","","","","",""
"","","","","","single-stim-button","270","3419937","0.0-3.0-34.0-0.0","5e84c817507cd3066a527e5e","D2","batch4","tol_tohand","6371","","","","","","","","","tol_peg_3","6371","6371","0","[[3,2,0],[0,0],[0]]","1","[[2,1,0],[3,0],[0]]","8","0","","","","","","6","","","","",""
"","","","","","single-stim-button","271","3420188","0.0-3.0-34.0-1.0","5e84c817507cd3066a527e5e","D2","batch4","tol_toboard","249","","","","","","","","","tol_peg_2","249","249","0","[[3,2,0],[1,0],[0]]","1","[[2,1,0],[3,0],[0]]","8","0","","","","","","6","","","","",""
"","","","","","single-stim-button","272","3420766","0.0-3.0-34.1-0.1","5e84c817507cd3066a527e5e","D2","batch4","tol_tohand","577","","","","","","","","","tol_peg_1","577","577","0","[[3,0,0],[1,0],[0]]","2","[[2,1,0],[3,0],[0]]","8","0","","","","","","6","","","","",""
"","","","","","single-stim-button","273","3421188","0.0-3.0-34.1-1.1","5e84c817507cd3066a527e5e","D2","batch4","tol_toboard","421","","","","","","","","","tol_peg_3","421","421","0","[[3,0,0],[1,0],[2]]","2","[[2,1,0],[3,0],[0]]","8","0","","","","","","6","","","","",""
"","","","","","single-stim-button","274","3429092","0.0-3.0-34.2-0.2","5e84c817507cd3066a527e5e","D2","batch4","tol_tohand","7903","","","","","","","","","tol_peg_1","7903","7903","0","[[0,0,0],[1,0],[2]]","3","[[2,1,0],[3,0],[0]]","8","0","","","","","","6","","","","",""
"","","","","","single-stim-button","275","3429421","0.0-3.0-34.2-1.2","5e84c817507cd3066a527e5e","D2","batch4","tol_toboard","328","","","","","","","","","tol_peg_2","328","328","0","[[0,0,0],[1,3],[2]]","3","[[2,1,0],[3,0],[0]]","8","0","","","","","","6","","","","",""
"","","","","","single-stim-button","276","3429822","0.0-3.0-34.3-0.3","5e84c817507cd3066a527e5e","D2","batch4","tol_tohand","400","","","","","","","","","tol_peg_3","400","400","0","[[0,0,0],[1,3],[0]]","4","[[2,1,0],[3,0],[0]]","8","0","","","","","","6","","","","",""
"","","","","","single-stim-button","277","3430272","0.0-3.0-34.3-1.3","5e84c817507cd3066a527e5e","D2","batch4","tol_toboard","449","","","","","","","","","tol_peg_1","449","449","0","[[2,0,0],[1,3],[0]]","4","[[2,1,0],[3,0],[0]]","8","0","","","","","","6","","","","",""
"","","","","","single-stim-button","278","3432014","0.0-3.0-34.4-0.4","5e84c817507cd3066a527e5e","D2","batch4","tol_tohand","1740","","","","","","","","","tol_peg_2","1740","1740","0","[[2,0,0],[1,0],[0]]","5","[[2,1,0],[3,0],[0]]","8","0","","","","","","6","","","","",""
"","","","","","single-stim-button","279","3432333","0.0-3.0-34.4-1.4","5e84c817507cd3066a527e5e","D2","batch4","tol_toboard","319","","","","","","","","","tol_peg_3","319","319","0","[[2,0,0],[1,0],[3]]","5","[[2,1,0],[3,0],[0]]","8","0","","","","","","6","","","","",""
"","","","","","single-stim-button","280","3432723","0.0-3.0-34.5-0.5","5e84c817507cd3066a527e5e","D2","batch4","tol_tohand","389","","","","","","","","","tol_peg_2","389","389","0","[[2,0,0],[0,0],[3]]","6","[[2,1,0],[3,0],[0]]","8","0","","","","","","6","","","","",""
"","","","","","single-stim-button","281","3433054","0.0-3.0-34.5-1.5","5e84c817507cd3066a527e5e","D2","batch4","tol_toboard","329","","","","","","","","","tol_peg_1","329","329","0","[[2,1,0],[0,0],[3]]","6","[[2,1,0],[3,0],[0]]","8","0","","","","","","6","","","","",""
"","","","","","single-stim-button","282","3433664","0.0-3.0-34.6-0.6","5e84c817507cd3066a527e5e","D2","batch4","tol_tohand","609","","","","","","","","","tol_peg_3","609","609","0","[[2,1,0],[0,0],[0]]","7","[[2,1,0],[3,0],[0]]","8","0","","","","","","6","","","","",""
"","","","","","single-stim-button","283","3433994","0.0-3.0-34.6-1.6","5e84c817507cd3066a527e5e","D2","batch4","tol_toboard","328","","","","","","","","","tol_peg_2","328","328","0","[[2,1,0],[3,0],[0]]","7","[[2,1,0],[3,0],[0]]","8","0","","","","","","6","","","","",""
"","","","","","poldrack-single-stim","284","3435000","0.0-3.0-35.0","5e84c817507cd3066a527e5e","D2","batch4","tol_feedback","-1","","","","","true","","","","","1000","1000","500","","","","","","-1","none","true","6371","17989","","","","","",""
"","","","","","html-button-response","285","3437346","0.0-3.0-36.0","5e84c817507cd3066a527e5e","D2","batch4","tol_trial_num","2344.100000023842","<div class = centerbox><p class = center-block-text>problem <strong>10</strong> out of 25 problems</p></div>","0","","","","","","","","","","","","","","","","","","","","","","","","","",""
"","","","","","single-stim-button","286","3451637","0.0-3.0-37.0-0.0","5e84c817507cd3066a527e5e","D2","batch4","tol_tohand","14290","","","","","","","","","tol_peg_2","14290","14290","0","[[3,0,0],[0,0],[2]]","1","[[3,0,0],[2,1],[0]]","9","0","","","","","","3","","","","",""
"","","","","","single-stim-button","287","3451917","0.0-3.0-37.0-1.0","5e84c817507cd3066a527e5e","D2","batch4","tol_toboard","279","","","","","","","","","tol_peg_1","279","279","0","[[3,1,0],[0,0],[2]]","1","[[3,0,0],[2,1],[0]]","9","0","","","","","","3","","","","",""
"","","","","","single-stim-button","288","3453108","0.0-3.0-37.1-0.1","5e84c817507cd3066a527e5e","D2","batch4","tol_tohand","1189","","","","","","","","","tol_peg_3","1189","1189","0","[[3,1,0],[0,0],[0]]","2","[[3,0,0],[2,1],[0]]","9","0","","","","","","3","","","","",""
"","","","","","single-stim-button","289","3453368","0.0-3.0-37.1-1.1","5e84c817507cd3066a527e5e","D2","batch4","tol_toboard","259","","","","","","","","","tol_peg_2","259","259","0","[[3,1,0],[2,0],[0]]","2","[[3,0,0],[2,1],[0]]","9","0","","","","","","3","","","","",""
"","","","","","single-stim-button","290","3453818","0.0-3.0-37.2-0.2","5e84c817507cd3066a527e5e","D2","batch4","tol_tohand","449","","","","","","","","","tol_peg_1","449","449","0","[[3,0,0],[2,0],[0]]","3","[[3,0,0],[2,1],[0]]","9","0","","","","","","3","","","","",""
"","","","","","single-stim-button","291","3454189","0.0-3.0-37.2-1.2","5e84c817507cd3066a527e5e","D2","batch4","tol_toboard","369","","","","","","","","","tol_peg_2","369","369","0","[[3,0,0],[2,1],[0]]","3","[[3,0,0],[2,1],[0]]","9","0","","","","","","3","","","","",""
"","","","","","poldrack-single-stim","292","3455199","0.0-3.0-38.0","5e84c817507cd3066a527e5e","D2","batch4","tol_feedback","-1","","","","","true","","","","","1000","1000","500","","","","","","-1","none","true","14290","15928","","","","","",""
"","","","","","html-button-response","293","3456999","0.0-3.0-39.0","5e84c817507cd3066a527e5e","D2","batch4","tol_trial_num","1798.5","<div class = centerbox><p class = center-block-text>problem <strong>11</strong> out of 25 problems</p></div>","0","","","","","","","","","","","","","","","","","","","","","","","","","",""
"","","","","","single-stim-button","294","3469414","0.0-3.0-40.0-0.0","5e84c817507cd3066a527e5e","D2","batch4","tol_tohand","12413","","","","","","","","","tol_peg_1","12413","12413","0","[[1,0,0],[3,0],[0]]","1","[[2,0,0],[1,3],[0]]","10","0","","","","","","6","","","","",""
"","","","","","single-stim-button","295","3469884","0.0-3.0-40.0-1.0","5e84c817507cd3066a527e5e","D2","batch4","tol_toboard","468","","","","","","","","","tol_peg_3","468","468","0","[[1,0,0],[3,0],[2]]","1","[[2,0,0],[1,3],[0]]","10","0","","","","","","6","","","","",""
"","","","","","single-stim-button","296","3470345","0.0-3.0-40.1-0.1","5e84c817507cd3066a527e5e","D2","batch4","tol_tohand","459","","","","","","","","","tol_peg_1","459","459","0","[[0,0,0],[3,0],[2]]","2","[[2,0,0],[1,3],[0]]","10","0","","","","","","6","","","","",""
"","","","","","single-stim-button","297","3470665","0.0-3.0-40.1-1.1","5e84c817507cd3066a527e5e","D2","batch4","tol_toboard","319","","","","","","","","","tol_peg_2","319","319","0","[[0,0,0],[3,1],[2]]","2","[[2,0,0],[1,3],[0]]","10","0","","","","","","6","","","","",""
"","","","","","single-stim-button","298","3471105","0.0-3.0-40.2-0.2","5e84c817507cd3066a527e5e","D2","batch4","tol_tohand","439","","","","","","","","","tol_peg_3","439","439","0","[[0,0,0],[3,1],[0]]","3","[[2,0,0],[1,3],[0]]","10","0","","","","","","6","","","","",""
"","","","","","single-stim-button","299","3472139","0.0-3.0-40.2-1.2","5e84c817507cd3066a527e5e","D2","batch4","tol_toboard","1033","","","","","","","","","tol_peg_1","1033","1033","0","[[2,0,0],[3,1],[0]]","3","[[2,0,0],[1,3],[0]]","10","0","","","","","","6","","","","",""
"","","","","","single-stim-button","300","3474578","0.0-3.0-40.3-0.3","5e84c817507cd3066a527e5e","D2","batch4","tol_tohand","2437","","","","","","","","","tol_peg_2","2437","2437","0","[[2,0,0],[3,0],[0]]","4","[[2,0,0],[1,3],[0]]","10","0","","","","","","6","","","","",""
"","","","","","single-stim-button","301","3475271","0.0-3.0-40.3-1.3","5e84c817507cd3066a527e5e","D2","batch4","tol_toboard","692","","","","","","","","","tol_peg_3","692","692","0","[[2,0,0],[3,0],[1]]","4","[[2,0,0],[1,3],[0]]","10","0","","","","","","6","","","","",""
"","","","","","single-stim-button","302","3475561","0.0-3.0-40.4-0.4","5e84c817507cd3066a527e5e","D2","batch4","tol_tohand","288","","","","","","","","","tol_peg_2","288","288","0","[[2,0,0],[0,0],[1]]","5","[[2,0,0],[1,3],[0]]","10","0","","","","","","6","","","","",""
"","","","","","single-stim-button","303","3476281","0.0-3.0-40.4-1.4","5e84c817507cd3066a527e5e","D2","batch4","tol_toboard","719","","","","","","","","","tol_peg_1","719","719","0","[[2,3,0],[0,0],[1]]","5","[[2,0,0],[1,3],[0]]","10","0","","","","","","6","","","","",""
"","","","","","single-stim-button","304","3476732","0.0-3.0-40.5-0.5","5e84c817507cd3066a527e5e","D2","batch4","tol_tohand","449","","","","","","","","","tol_peg_3","449","449","0","[[2,3,0],[0,0],[0]]","6","[[2,0,0],[1,3],[0]]","10","0","","","","","","6","","","","",""
"","","","","","single-stim-button","305","3477001","0.0-3.0-40.5-1.5","5e84c817507cd3066a527e5e","D2","batch4","tol_toboard","269","","","","","","","","","tol_peg_2","269","269","0","[[2,3,0],[1,0],[0]]","6","[[2,0,0],[1,3],[0]]","10","0","","","","","","6","","","","",""
"","","","","","single-stim-button","306","3477332","0.0-3.0-40.6-0.6","5e84c817507cd3066a527e5e","D2","batch4","tol_tohand","329","","","","","","","","","tol_peg_1","329","329","0","[[2,0,0],[1,0],[0]]","7","[[2,0,0],[1,3],[0]]","10","0","","","","","","6","","","","",""
"","","","","","single-stim-button","307","3477722","0.0-3.0-40.6-1.6","5e84c817507cd3066a527e5e","D2","batch4","tol_toboard","389","","","","","","","","","tol_peg_2","389","389","0","[[2,0,0],[1,3],[0]]","7","[[2,0,0],[1,3],[0]]","10","0","","","","","","6","","","","",""
"","","","","","poldrack-single-stim","308","3478728","0.0-3.0-41.0","5e84c817507cd3066a527e5e","D2","batch4","tol_feedback","-1","","","","","true","","","","","1000","1000","500","","","","","","-1","none","true","12413","16814","","","","","",""
"","","","","","html-button-response","309","3479893","0.0-3.0-42.0","5e84c817507cd3066a527e5e","D2","batch4","tol_trial_num","1163.5","<div class = centerbox><p class = center-block-text>problem <strong>12</strong> out of 25 problems</p></div>","0","","","","","","","","","","","","","","","","","","","","","","","","","",""
"","","","","","single-stim-button","310","3484625","0.0-3.0-43.0-0.0","5e84c817507cd3066a527e5e","D2","batch4","tol_tohand","4730","","","","","","","","","tol_peg_1","4730","4730","0","[[1,0,0],[3,0],[0]]","1","[[2,3,0],[0,0],[1]]","11","0","","","","","","4","","","","",""
"","","","","","single-stim-button","311","3484922","0.0-3.0-43.0-1.0","5e84c817507cd3066a527e5e","D2","batch4","tol_toboard","296","","","","","","","","","tol_peg_2","296","296","0","[[1,0,0],[3,2],[0]]","1","[[2,3,0],[0,0],[1]]","11","0","","","","","","4","","","","",""
"","","","","","single-stim-button","312","3485245","0.0-3.0-43.1-0.1","5e84c817507cd3066a527e5e","D2","batch4","tol_tohand","322","","","","","","","","","tol_peg_1","322","322","0","[[0,0,0],[3,2],[0]]","2","[[2,3,0],[0,0],[1]]","11","0","","","","","","4","","","","",""
"","","","","","single-stim-button","313","3486135","0.0-3.0-43.1-1.1","5e84c817507cd3066a527e5e","D2","batch4","tol_toboard","888","","","","","","","","","tol_peg_3","888","888","0","[[0,0,0],[3,2],[1]]","2","[[2,3,0],[0,0],[1]]","11","0","","","","","","4","","","","",""
"","","","","","single-stim-button","314","3492799","0.0-3.0-43.2-0.2","5e84c817507cd3066a527e5e","D2","batch4","tol_tohand","6662","","","","","","","","","tol_peg_3","6662","6662","0","[[0,0,0],[3,2],[0]]","3","[[2,3,0],[0,0],[1]]","11","0","","","","","","4","","","","",""
"","","","","","single-stim-button","315","3494649","0.0-3.0-43.2-1.2","5e84c817507cd3066a527e5e","D2","batch4","tol_toboard","1849","","","","","","","","","tol_peg_1","1849","1849","0","[[1,0,0],[3,2],[0]]","3","[[2,3,0],[0,0],[1]]","11","0","","","","","","4","","","","",""
"","","","","","single-stim-button","316","3494959","0.0-3.0-43.3-0.3","5e84c817507cd3066a527e5e","D2","batch4","tol_tohand","309","","","","","","","","","tol_peg_2","309","309","0","[[1,0,0],[3,0],[0]]","4","[[2,3,0],[0,0],[1]]","11","0","","","","","","4","","","","",""
"","","","","","single-stim-button","317","3495289","0.0-3.0-43.3-1.3","5e84c817507cd3066a527e5e","D2","batch4","tol_toboard","329","","","","","","","","","tol_peg_3","329","329","0","[[1,0,0],[3,0],[2]]","4","[[2,3,0],[0,0],[1]]","11","0","","","","","","4","","","","",""
"","","","","","single-stim-button","318","3503083","0.0-3.0-43.4-0.4","5e84c817507cd3066a527e5e","D2","batch4","tol_tohand","7793","","","","","","","","","tol_peg_2","7793","7793","0","[[1,0,0],[0,0],[2]]","5","[[2,3,0],[0,0],[1]]","11","0","","","","","","4","","","","",""
"","","","","","single-stim-button","319","3504053","0.0-3.0-43.4-1.4","5e84c817507cd3066a527e5e","D2","batch4","tol_toboard","969","","","","","","","","","tol_peg_2","969","969","0","[[1,0,0],[3,0],[2]]","5","[[2,3,0],[0,0],[1]]","11","0","","","","","","4","","","","",""
"","","","","","single-stim-button","320","3504434","0.0-3.0-43.5-0.5","5e84c817507cd3066a527e5e","D2","batch4","tol_tohand","379","","","","","","","","","tol_peg_1","379","379","0","[[0,0,0],[3,0],[2]]","6","[[2,3,0],[0,0],[1]]","11","0","","","","","","4","","","","",""
"","","","","","single-stim-button","321","3504744","0.0-3.0-43.5-1.5","5e84c817507cd3066a527e5e","D2","batch4","tol_toboard","310","","","","","","","","","tol_peg_2","310","310","0","[[0,0,0],[3,1],[2]]","6","[[2,3,0],[0,0],[1]]","11","0","","","","","","4","","","","",""
"","","","","","single-stim-button","322","3505955","0.0-3.0-43.6-0.6","5e84c817507cd3066a527e5e","D2","batch4","tol_tohand","1209","","","","","","","","","tol_peg_3","1209","1209","0","[[0,0,0],[3,1],[0]]","7","[[2,3,0],[0,0],[1]]","11","0","","","","","","4","","","","",""
"","","","","","single-stim-button","323","3506365","0.0-3.0-43.6-1.6","5e84c817507cd3066a527e5e","D2","batch4","tol_toboard","408","","","","","","","","","tol_peg_1","408","408","0","[[2,0,0],[3,1],[0]]","7","[[2,3,0],[0,0],[1]]","11","0","","","","","","4","","","","",""
"","","","","","single-stim-button","324","3508116","0.0-3.0-43.7-0.7","5e84c817507cd3066a527e5e","D2","batch4","tol_tohand","1749","","","","","","","","","tol_peg_2","1749","1749","0","[[2,0,0],[3,0],[0]]","8","[[2,3,0],[0,0],[1]]","11","0","","","","","","4","","","","",""
"","","","","","single-stim-button","325","3508526","0.0-3.0-43.7-1.7","5e84c817507cd3066a527e5e","D2","batch4","tol_toboard","409","","","","","","","","","tol_peg_3","409","409","0","[[2,0,0],[3,0],[1]]","8","[[2,3,0],[0,0],[1]]","11","0","","","","","","4","","","","",""
"","","","","","single-stim-button","326","3508795","0.0-3.0-43.8-0.8","5e84c817507cd3066a527e5e","D2","batch4","tol_tohand","268","","","","","","","","","tol_peg_2","268","268","0","[[2,0,0],[0,0],[1]]","9","[[2,3,0],[0,0],[1]]","11","0","","","","","","4","","","","",""
"","","","","","single-stim-button","327","3509106","0.0-3.0-43.8-1.8","5e84c817507cd3066a527e5e","D2","batch4","tol_toboard","309","","","","","","","","","tol_peg_1","309","309","0","[[2,3,0],[0,0],[1]]","9","[[2,3,0],[0,0],[1]]","11","0","","","","","","4","","","","",""
"","","","","","poldrack-single-stim","328","3510112","0.0-3.0-44.0","5e84c817507cd3066a527e5e","D2","batch4","tol_feedback","-1","","","","","true","","","","","1000","1000","500","","","","","","-1","none","true","4730","23421","","","","","",""
"","","","","","html-button-response","329","3510867","0.0-3.0-45.0","5e84c817507cd3066a527e5e","D2","batch4","tol_trial_num","753.1999999880791","<div class = centerbox><p class = center-block-text>problem <strong>13</strong> out of 25 problems</p></div>","0","","","","","","","","","","","","","","","","","","","","","","","","","",""
"","","","","","single-stim-button","330","3514338","0.0-3.0-46.0-0.0","5e84c817507cd3066a527e5e","D2","batch4","tol_tohand","3470","","","","","","","","","tol_peg_1","3470","3470","0","[[1,0,0],[3,0],[0]]","1","[[0,0,0],[2,3],[1]]","12","0","","","","","","4","","","","",""
"","","","","","single-stim-button","331","3514628","0.0-3.0-46.0-1.0","5e84c817507cd3066a527e5e","D2","batch4","tol_toboard","289","","","","","","","","","tol_peg_2","289","289","0","[[1,0,0],[3,2],[0]]","1","[[0,0,0],[2,3],[1]]","12","0","","","","","","4","","","","",""
"","","","","","single-stim-button","332","3516189","0.0-3.0-46.1-0.1","5e84c817507cd3066a527e5e","D2","batch4","tol_tohand","1560","","","","","","","","","tol_peg_1","1560","1560","0","[[0,0,0],[3,2],[0]]","2","[[0,0,0],[2,3],[1]]","12","0","","","","","","4","","","","",""
"","","","","","single-stim-button","333","3516599","0.0-3.0-46.1-1.1","5e84c817507cd3066a527e5e","D2","batch4","tol_toboard","409","","","","","","","","","tol_peg_3","409","409","0","[[0,0,0],[3,2],[1]]","2","[[0,0,0],[2,3],[1]]","12","0","","","","","","4","","","","",""
"","","","","","single-stim-button","334","3517659","0.0-3.0-46.2-0.2","5e84c817507cd3066a527e5e","D2","batch4","tol_tohand","1059","","","","","","","","","tol_peg_2","1059","1059","0","[[0,0,0],[3,0],[1]]","3","[[0,0,0],[2,3],[1]]","12","0","","","","","","4","","","","",""
"","","","","","single-stim-button","335","3523822","0.0-3.0-46.2-1.2","5e84c817507cd3066a527e5e","D2","batch4","tol_toboard","6162","","","","","","","","","tol_peg_2","6162","6162","0","[[0,0,0],[3,2],[1]]","3","[[0,0,0],[2,3],[1]]","12","0","","","","","","4","","","","",""
"","","","","","single-stim-button","336","3524362","0.0-3.0-46.3-0.3","5e84c817507cd3066a527e5e","D2","batch4","tol_tohand","537","","","","","","","","","tol_peg_3","537","537","0","[[0,0,0],[3,2],[0]]","4","[[0,0,0],[2,3],[1]]","12","0","","","","","","4","","","","",""
"","","","","","single-stim-button","337","3524733","0.0-3.0-46.3-1.3","5e84c817507cd3066a527e5e","D2","batch4","tol_toboard","370","","","","","","","","","tol_peg_1","370","370","0","[[1,0,0],[3,2],[0]]","4","[[0,0,0],[2,3],[1]]","12","0","","","","","","4","","","","",""
"","","","","","single-stim-button","338","3525203","0.0-3.0-46.4-0.4","5e84c817507cd3066a527e5e","D2","batch4","tol_tohand","469","","","","","","","","","tol_peg_2","469","469","0","[[1,0,0],[3,0],[0]]","5","[[0,0,0],[2,3],[1]]","12","0","","","","","","4","","","","",""
"","","","","","single-stim-button","339","3526153","0.0-3.0-46.4-1.4","5e84c817507cd3066a527e5e","D2","batch4","tol_toboard","949","","","","","","","","","tol_peg_3","949","949","0","[[1,0,0],[3,0],[2]]","5","[[0,0,0],[2,3],[1]]","12","0","","","","","","4","","","","",""
"","","","","","single-stim-button","340","3527944","0.0-3.0-46.5-0.5","5e84c817507cd3066a527e5e","D2","batch4","tol_tohand","1790","","","","","","","","","tol_peg_2","1790","1790","0","[[1,0,0],[0,0],[2]]","6","[[0,0,0],[2,3],[1]]","12","0","","","","","","4","","","","",""
"","","","","","single-stim-button","341","3528234","0.0-3.0-46.5-1.5","5e84c817507cd3066a527e5e","D2","batch4","tol_toboard","289","","","","","","","","","tol_peg_1","289","289","0","[[1,3,0],[0,0],[2]]","6","[[0,0,0],[2,3],[1]]","12","0","","","","","","4","","","","",""
"","","","","","single-stim-button","342","3528674","0.0-3.0-46.6-0.6","5e84c817507cd3066a527e5e","D2","batch4","tol_tohand","439","","","","","","","","","tol_peg_3","439","439","0","[[1,3,0],[0,0],[0]]","7","[[0,0,0],[2,3],[1]]","12","0","","","","","","4","","","","",""
"","","","","","single-stim-button","343","3528964","0.0-3.0-46.6-1.6","5e84c817507cd3066a527e5e","D2","batch4","tol_toboard","288","","","","","","","","","tol_peg_2","288","288","0","[[1,3,0],[2,0],[0]]","7","[[0,0,0],[2,3],[1]]","12","0","","","","","","4","","","","",""
"","","","","","single-stim-button","344","3529335","0.0-3.0-46.7-0.7","5e84c817507cd3066a527e5e","D2","batch4","tol_tohand","369","","","","","","","","","tol_peg_1","369","369","0","[[1,0,0],[2,0],[0]]","8","[[0,0,0],[2,3],[1]]","12","0","","","","","","4","","","","",""
"","","","","","single-stim-button","345","3529635","0.0-3.0-46.7-1.7","5e84c817507cd3066a527e5e","D2","batch4","tol_toboard","299","","","","","","","","","tol_peg_2","299","299","0","[[1,0,0],[2,3],[0]]","8","[[0,0,0],[2,3],[1]]","12","0","","","","","","4","","","","",""
"","","","","","single-stim-button","346","3530055","0.0-3.0-46.8-0.8","5e84c817507cd3066a527e5e","D2","batch4","tol_tohand","419","","","","","","","","","tol_peg_1","419","419","0","[[0,0,0],[2,3],[0]]","9","[[0,0,0],[2,3],[1]]","12","0","","","","","","4","","","","",""
"","","","","","single-stim-button","347","3530415","0.0-3.0-46.8-1.8","5e84c817507cd3066a527e5e","D2","batch4","tol_toboard","358","","","","","","","","","tol_peg_3","358","358","0","[[0,0,0],[2,3],[1]]","9","[[0,0,0],[2,3],[1]]","12","0","","","","","","4","","","","",""
"","","","","","poldrack-single-stim","348","3531424","0.0-3.0-47.0","5e84c817507cd3066a527e5e","D2","batch4","tol_feedback","-1","","","","","true","","","","","1000","1000","500","","","","","","-1","none","true","3470","10112","","","","","",""
"","","","","","html-button-response","349","3534609","0.0-3.0-48.0","5e84c817507cd3066a527e5e","D2","batch4","attention_check","3183.2999999821186","<p class = block-text>How many balls are in your board<br></p>","1","","","true","","","","","","","","","","","","","","","","","","","","","","",""
"","","","","","html-button-response","350","3535730","0.0-3.0-49.0","5e84c817507cd3066a527e5e","D2","batch4","tol_trial_num","1121.0999999940395","<div class = centerbox><p class = center-block-text>problem <strong>14</strong> out of 25 problems</p></div>","0","","","","","","","","","","","","","","","","","","","","","","","","","",""
"","","","","","single-stim-button","351","3540344","0.0-3.0-50.0-0.0","5e84c817507cd3066a527e5e","D2","batch4","tol_tohand","4612","","","","","","","","","tol_peg_1","4612","4612","0","[[2,0,0],[3,0],[0]]","1","[[1,2,0],[3,0],[0]]","13","0","","","","","","4","","","","",""
"","","","","","single-stim-button","352","3540764","0.0-3.0-50.0-1.0","5e84c817507cd3066a527e5e","D2","batch4","tol_toboard","419","","","","","","","","","tol_peg_3","419","419","0","[[2,0,0],[3,0],[1]]","1","[[1,2,0],[3,0],[0]]","13","0","","","","","","4","","","","",""
"","","","","","single-stim-button","353","3541125","0.0-3.0-50.1-0.1","5e84c817507cd3066a527e5e","D2","batch4","tol_tohand","359","","","","","","","","","tol_peg_1","359","359","0","[[0,0,0],[3,0],[1]]","2","[[1,2,0],[3,0],[0]]","13","0","","","","","","4","","","","",""
"","","","","","single-stim-button","354","3541414","0.0-3.0-50.1-1.1","5e84c817507cd3066a527e5e","D2","batch4","tol_toboard","288","","","","","","","","","tol_peg_2","288","288","0","[[0,0,0],[3,2],[1]]","2","[[1,2,0],[3,0],[0]]","13","0","","","","","","4","","","","",""
