"success","timeout","failed_images","failed_audio","failed_video","trial_type","trial_index","time_elapsed","internal_node_id","subject_id","study_id","session_id","view_history","rt","task","stimulus","response","correct","mouse_click","stim_duration","block_duration","timing_post_trial","current_position","tol_num_moves_made","tol_target","tol_problem_id","tol_rt","key_press","possible_responses","tol_correct","preplanning","tol_rt_per_trial","tol_min_moves","item","answer","spm_correct","spm_rt","fiar_detect_rt","fiar_detect_correct","total_correct_fiar_detect","post_trial_gap","choices"
"true","false","[]","[]","[]","preload","0","644","0.0-0.0","5e850b0e390e520ec806b084","C3","batch3","","","","","","","","","","","","","","","","","","","","","","","","","","","","","",""
"true","","","","","fullscreen","1","8892","0.0-1.0-0.0","5e850b0e390e520ec806b084","C3","batch3","","","","","","","","","","","","","","","","","","","","","","","","","","","","","",""
"true","","","","","fullscreen","2","12278","0.0-2.0-0.0","5e850b0e390e520ec806b084","C3","batch3","","","","","","","","","","","","","","","","","","","","","","","","","","","","","",""
"","","","","","instructions","3","43476","0.0-2.0-1.0-0.0-0.0","5e850b0e390e520ec806b084","C3","batch3","[{""page_index"":0,""viewing_time"":8888.200000047684},{""page_index"":1,""viewing_time"":5099.900000095367},{""page_index"":2,""viewing_time"":1900.0999999046326},{""page_index"":3,""viewing_time"":4702},{""page_index"":4,""viewing_time"":2838.9000000953674},{""page_index"":5,""viewing_time"":5118.099999904633},{""page_index"":6,""viewing_time"":2649.9000000953674}]","31197.300000190735","tol-instructions","","","","","","","","","","","","","","","","","","","","","","","","","","",""
"","","","","","html-button-response","4","44377","0.0-2.0-1.0-1.0-0.0","5e850b0e390e520ec806b084","C3","batch3","","900.5999999046326","tol_enter_quiz","<p class=block-text> Let's answer a few questions <br>","0","","","","","","","","","","","","","","","","","","","","","","","","",""
"","","","","","html-button-response","5","48190","0.0-2.0-1.0-1.0-1.0","5e850b0e390e520ec806b084","C3","batch3","","3812.100000143051","tol_quiz","<p class = block-text>True or False: You can only move the ball on top of a peg. <br></p>","0","true","","","","","","","","","","","","","","","","","","","","","","","",""
"","","","","","html-button-response","6","49130","0.0-2.0-1.0-1.0-2.0","5e850b0e390e520ec806b084","C3","batch3","","939.3999998569489","tol_quiz_feedback","<p class = block-text>Correct! You can only move the ball on top of a peg.</p>","0","","","","","","","","","","","","","","","","","","","","","","","","",""
"","","","","","html-button-response","7","51838","0.0-2.0-1.0-1.0-3.0","5e850b0e390e520ec806b084","C3","batch3","","2707.2999999523163","tol_quiz","<p class = block-text>True or False: You should try to match your board with the target board with fewest moves possible. <br></p>","0","true","","","","","","","","","","","","","","","","","","","","","","","",""
"","","","","","html-button-response","8","52363","0.0-2.0-1.0-1.0-4.0","5e850b0e390e520ec806b084","C3","batch3","","524.5","tol_quiz_feedback","<p class = block-text>Correct! </p>","0","","","","","","","","","","","","","","","","","","","","","","","","",""
"","","","","","html-button-response","9","53303","0.0-2.0-2.0","5e850b0e390e520ec806b084","C3","batch3","","939.2999999523163","","<p class=block-text> Now that you've understood the game, let's practice a few easier examples before we start!<br> <br>","0","","","","","","","","","","","","","","","","","","","","","","","","",""
"","","","","","single-stim-button","10","54956","0.0-2.0-3.0-0.0","5e850b0e390e520ec806b084","C3","batch3","","1653","tol_practice","","","","tol_peg_2","1653","1653","0","[[1,2,0],[0,0],[0]]","1","[[1,2,0],[0,0],[3]]","practice","1653","","","","","","","","","","","","","","",""
"","","","","","single-stim-button","11","55512","0.0-2.0-3.0-1.0","5e850b0e390e520ec806b084","C3","batch3","","555","tol_practice","","","","tol_peg_3","555","555","0","[[1,2,0],[0,0],[3]]","1","[[1,2,0],[0,0],[3]]","practice","555","","","","","","","","","","","","","","",""
"","","","","","poldrack-single-stim","12","56514","0.0-2.0-4.0","5e850b0e390e520ec806b084","C3","batch3","","-1","tol_feedback","","","true","","1000","1000","500","","","","","","-1","none","true","","0","","","","","","","","","",""
"","","","","","single-stim-button","13","67288","0.0-2.0-5.0-0.0","5e850b0e390e520ec806b084","C3","batch3","","10773","tol_practice","","","","tol_peg_1","10773","10773","0","[[1,0,0],[3,0],[0]]","2","[[0,0,0],[3,1],[2]]","practice","10773","","","","","","","","","","","","","","",""
"","","","","","single-stim-button","14","67989","0.0-2.0-5.0-1.0","5e850b0e390e520ec806b084","C3","batch3","","701","tol_practice","","","","tol_peg_3","701","701","0","[[1,0,0],[3,0],[2]]","2","[[0,0,0],[3,1],[2]]","practice","701","","","","","","","","","","","","","","",""
"","","","","","single-stim-button","15","68574","0.0-2.0-5.1-0.1","5e850b0e390e520ec806b084","C3","batch3","","584","tol_practice","","","","tol_peg_1","584","584","0","[[0,0,0],[3,0],[2]]","3","[[0,0,0],[3,1],[2]]","practice","584","","","","","","","","","","","","","","",""
"","","","","","single-stim-button","16","69112","0.0-2.0-5.1-1.1","5e850b0e390e520ec806b084","C3","batch3","","538","tol_practice","","","","tol_peg_2","538","538","0","[[0,0,0],[3,1],[2]]","3","[[0,0,0],[3,1],[2]]","practice","538","","","","","","","","","","","","","","",""
"","","","","","poldrack-single-stim","17","70114","0.0-2.0-6.0","5e850b0e390e520ec806b084","C3","batch3","","-1","tol_feedback","","","true","","1000","1000","500","","","","","","-1","none","true","","0","","","","","","","","","",""
"","","","","","single-stim-button","18","73839","0.0-2.0-7.0-0.0","5e850b0e390e520ec806b084","C3","batch3","","3724","tol_practice","","","","tol_peg_2","3724","3724","0","[[1,2,0],[0,0],[0]]","4","[[1,0,0],[2,0],[3]]","practice","3724","","","","","","","","","","","","","","",""
"","","","","","single-stim-button","19","74836","0.0-2.0-7.0-1.0","5e850b0e390e520ec806b084","C3","batch3","","997","tol_practice","","","","tol_peg_3","997","997","0","[[1,2,0],[0,0],[3]]","4","[[1,0,0],[2,0],[3]]","practice","997","","","","","","","","","","","","","","",""
"","","","","","single-stim-button","20","75440","0.0-2.0-7.1-0.1","5e850b0e390e520ec806b084","C3","batch3","","604","tol_practice","","","","tol_peg_1","604","604","0","[[1,0,0],[0,0],[3]]","5","[[1,0,0],[2,0],[3]]","practice","604","","","","","","","","","","","","","","",""
"","","","","","single-stim-button","21","75995","0.0-2.0-7.1-1.1","5e850b0e390e520ec806b084","C3","batch3","","555","tol_practice","","","","tol_peg_2","555","555","0","[[1,0,0],[2,0],[3]]","5","[[1,0,0],[2,0],[3]]","practice","555","","","","","","","","","","","","","","",""
"","","","","","poldrack-single-stim","22","76998","0.0-2.0-8.0","5e850b0e390e520ec806b084","C3","batch3","","-1","tol_feedback","","","true","","1000","1000","500","","","","","","-1","none","true","","0","","","","","","","","","",""
"","","","","","html-button-response","23","82968","0.0-2.0-9.0","5e850b0e390e520ec806b084","C3","batch3","","5970","tol_instruction","<div class = centerbox><p class = center-block-text>Great job! You are done with practice trials<br>You are about to start official trials.<br> <br> Problem <strong>1</strong> out of 25 problems</p></div>","0","","","","","","","","","","","","","","","","","","","","","","","","",""
"","","","","","single-stim-button","24","87530","0.0-2.0-10.0-0.0","5e850b0e390e520ec806b084","C3","batch3","","3560","tol_tohand","","","","tol_peg_2","3560","3560","0","[[1,2,0],[0,0],[0]]","1","[[1,3,0],[2,0],[0]]","0","0","","","","","","3","","","","","","","","",""
"","","","","","single-stim-button","25","88146","0.0-2.0-10.0-1.0","5e850b0e390e520ec806b084","C3","batch3","","615","tol_toboard","","","","tol_peg_3","615","615","0","[[1,2,0],[0,0],[3]]","1","[[1,3,0],[2,0],[0]]","0","0","","","","","","3","","","","","","","","",""
"","","","","","single-stim-button","26","88614","0.0-2.0-10.1-0.1","5e850b0e390e520ec806b084","C3","batch3","","468","tol_tohand","","","","tol_peg_1","468","468","0","[[1,0,0],[0,0],[3]]","2","[[1,3,0],[2,0],[0]]","0","0","","","","","","3","","","","","","","","",""
"","","","","","single-stim-button","27","89242","0.0-2.0-10.1-1.1","5e850b0e390e520ec806b084","C3","batch3","","628","tol_toboard","","","","tol_peg_2","628","628","0","[[1,0,0],[2,0],[3]]","2","[[1,3,0],[2,0],[0]]","0","0","","","","","","3","","","","","","","","",""
"","","","","","single-stim-button","28","89749","0.0-2.0-10.2-0.2","5e850b0e390e520ec806b084","C3","batch3","","507","tol_tohand","","","","tol_peg_3","507","507","0","[[1,0,0],[2,0],[0]]","3","[[1,3,0],[2,0],[0]]","0","0","","","","","","3","","","","","","","","",""
"","","","","","single-stim-button","29","90440","0.0-2.0-10.2-1.2","5e850b0e390e520ec806b084","C3","batch3","","690","tol_toboard","","","","tol_peg_1","690","690","0","[[1,3,0],[2,0],[0]]","3","[[1,3,0],[2,0],[0]]","0","0","","","","","","3","","","","","","","","",""
"","","","","","poldrack-single-stim","30","91442","0.0-2.0-11.0","5e850b0e390e520ec806b084","C3","batch3","","-1","tol_feedback","","","true","","1000","1000","500","","","","","","-1","none","true","3560","4535","","","","","","","","","",""
"","","","","","html-button-response","31","92562","0.0-2.0-12.0","5e850b0e390e520ec806b084","C3","batch3","","1119.9000000953674","tol_trial_num","<div class = centerbox><p class = center-block-text>problem <strong>2</strong> out of 25 problems</p></div>","0","","","","","","","","","","","","","","","","","","","","","","","","",""
"","","","","","single-stim-button","32","99967","0.0-2.0-13.0-0.0","5e850b0e390e520ec806b084","C3","batch3","","7404","tol_tohand","","","","tol_peg_1","7404","7404","0","[[1,0,0],[3,0],[0]]","1","[[2,1,3],[0,0],[0]]","1","0","","","","","","5","","","","","","","","",""
"","","","","","single-stim-button","33","100411","0.0-2.0-13.0-1.0","5e850b0e390e520ec806b084","C3","batch3","","444","tol_toboard","","","","tol_peg_2","444","444","0","[[1,0,0],[3,2],[0]]","1","[[2,1,3],[0,0],[0]]","1","0","","","","","","5","","","","","","","","",""
"","","","","","single-stim-button","34","100871","0.0-2.0-13.1-0.1","5e850b0e390e520ec806b084","C3","batch3","","460","tol_tohand","","","","tol_peg_1","460","460","0","[[0,0,0],[3,2],[0]]","2","[[2,1,3],[0,0],[0]]","1","0","","","","","","5","","","","","","","","",""
"","","","","","single-stim-button","35","101630","0.0-2.0-13.1-1.1","5e850b0e390e520ec806b084","C3","batch3","","759","tol_toboard","","","","tol_peg_3","759","759","0","[[0,0,0],[3,2],[1]]","2","[[2,1,3],[0,0],[0]]","1","0","","","","","","5","","","","","","","","",""
"","","","","","single-stim-button","36","102107","0.0-2.0-13.2-0.2","5e850b0e390e520ec806b084","C3","batch3","","477","tol_tohand","","","","tol_peg_2","477","477","0","[[0,0,0],[3,0],[1]]","3","[[2,1,3],[0,0],[0]]","1","0","","","","","","5","","","","","","","","",""
"","","","","","single-stim-button","37","102710","0.0-2.0-13.2-1.2","5e850b0e390e520ec806b084","C3","batch3","","603","tol_toboard","","","","tol_peg_1","603","603","0","[[2,0,0],[3,0],[1]]","3","[[2,1,3],[0,0],[0]]","1","0","","","","","","5","","","","","","","","",""
"","","","","","single-stim-button","38","103229","0.0-2.0-13.3-0.3","5e850b0e390e520ec806b084","C3","batch3","","519","tol_tohand","","","","tol_peg_3","519","519","0","[[2,0,0],[3,0],[0]]","4","[[2,1,3],[0,0],[0]]","1","0","","","","","","5","","","","","","","","",""
"","","","","","single-stim-button","39","104022","0.0-2.0-13.3-1.3","5e850b0e390e520ec806b084","C3","batch3","","793","tol_toboard","","","","tol_peg_1","793","793","0","[[2,1,0],[3,0],[0]]","4","[[2,1,3],[0,0],[0]]","1","0","","","","","","5","","","","","","","","",""
"","","","","","single-stim-button","40","104458","0.0-2.0-13.4-0.4","5e850b0e390e520ec806b084","C3","batch3","","436","tol_tohand","","","","tol_peg_2","436","436","0","[[2,1,0],[0,0],[0]]","5","[[2,1,3],[0,0],[0]]","1","0","","","","","","5","","","","","","","","",""
"","","","","","single-stim-button","41","105166","0.0-2.0-13.4-1.4","5e850b0e390e520ec806b084","C3","batch3","","708","tol_toboard","","","","tol_peg_1","708","708","0","[[2,1,3],[0,0],[0]]","5","[[2,1,3],[0,0],[0]]","1","0","","","","","","5","","","","","","","","",""
"","","","","","poldrack-single-stim","42","106167","0.0-2.0-14.0","5e850b0e390e520ec806b084","C3","batch3","","-1","tol_feedback","","","true","","1000","1000","500","","","","","","-1","none","true","7404","9296","","","","","","","","","",""
"","","","","","html-button-response","43","115190","0.0-2.0-15.0","5e850b0e390e520ec806b084","C3","batch3","","9022.299999952316","tol_trial_num","<div class = centerbox><p class = center-block-text>problem <strong>3</strong> out of 25 problems</p></div>","0","","","","","","","","","","","","","","","","","","","","","","","","",""
"","","","","","single-stim-button","44","119113","0.0-2.0-16.0-0.0","5e850b0e390e520ec806b084","C3","batch3","","3922","tol_tohand","","","","tol_peg_1","3922","3922","0","[[2,0,0],[0,0],[1]]","1","[[1,2,0],[3,0],[0]]","2","0","","","","","","4","","","","","","","","",""
"","","","","","single-stim-button","45","120742","0.0-2.0-16.0-1.0","5e850b0e390e520ec806b084","C3","batch3","","1628","tol_toboard","","","","tol_peg_2","1628","1628","0","[[2,0,0],[3,0],[1]]","1","[[1,2,0],[3,0],[0]]","2","0","","","","","","4","","","","","","","","",""
"","","","","","single-stim-button","46","121129","0.0-2.0-16.1-0.1","5e850b0e390e520ec806b084","C3","batch3","","387","tol_tohand","","","","tol_peg_1","387","387","0","[[0,0,0],[3,0],[1]]","2","[[1,2,0],[3,0],[0]]","2","0","","","","","","4","","","","","","","","",""
"","","","","","single-stim-button","47","121660","0.0-2.0-16.1-1.1","5e850b0e390e520ec806b084","C3","batch3","","530","tol_toboard","","","","tol_peg_2","530","530","0","[[0,0,0],[3,2],[1]]","2","[[1,2,0],[3,0],[0]]","2","0","","","","","","4","","","","","","","","",""
"","","","","","single-stim-button","48","122039","0.0-2.0-16.2-0.2","5e850b0e390e520ec806b084","C3","batch3","","378","tol_tohand","","","","tol_peg_3","378","378","0","[[0,0,0],[3,2],[0]]","3","[[1,2,0],[3,0],[0]]","2","0","","","","","","4","","","","","","","","",""
"","","","","","single-stim-button","49","122879","0.0-2.0-16.2-1.2","5e850b0e390e520ec806b084","C3","batch3","","840","tol_toboard","","","","tol_peg_1","840","840","0","[[1,0,0],[3,2],[0]]","3","[[1,2,0],[3,0],[0]]","2","0","","","","","","4","","","","","","","","",""
"","","","","","single-stim-button","50","123388","0.0-2.0-16.3-0.3","5e850b0e390e520ec806b084","C3","batch3","","509","tol_tohand","","","","tol_peg_2","509","509","0","[[1,0,0],[3,0],[0]]","4","[[1,2,0],[3,0],[0]]","2","0","","","","","","4","","","","","","","","",""
"","","","","","single-stim-button","51","123860","0.0-2.0-16.3-1.3","5e850b0e390e520ec806b084","C3","batch3","","470","tol_toboard","","","","tol_peg_1","470","470","0","[[1,2,0],[3,0],[0]]","4","[[1,2,0],[3,0],[0]]","2","0","","","","","","4","","","","","","","","",""
"","","","","","poldrack-single-stim","52","124861","0.0-2.0-17.0","5e850b0e390e520ec806b084","C3","batch3","","-1","tol_feedback","","","true","","1000","1000","500","","","","","","-1","none","true","3922","5196","","","","","","","","","",""
"","","","","","html-button-response","53","143273","0.0-2.0-18.0","5e850b0e390e520ec806b084","C3","batch3","","18410.900000095367","tol_trial_num","<div class = centerbox><p class = center-block-text>problem <strong>4</strong> out of 25 problems</p></div>","0","","","","","","","","","","","","","","","","","","","","","","","","",""
"","","","","","single-stim-button","54","145990","0.0-2.0-19.0-0.0","5e850b0e390e520ec806b084","C3","batch3","","2716","tol_tohand","","","","tol_peg_2","2716","2716","0","[[3,0,0],[2,0],[0]]","1","[[3,0,0],[1,0],[2]]","3","0","","","","","","3","","","","","","","","",""
"","","","","","single-stim-button","55","146495","0.0-2.0-19.0-1.0","5e850b0e390e520ec806b084","C3","batch3","","505","tol_toboard","","","","tol_peg_1","505","505","0","[[3,1,0],[2,0],[0]]","1","[[3,0,0],[1,0],[2]]","3","0","","","","","","3","","","","","","","","",""
"","","","","","single-stim-button","56","146927","0.0-2.0-19.1-0.1","5e850b0e390e520ec806b084","C3","batch3","","431","tol_tohand","","","","tol_peg_2","431","431","0","[[3,1,0],[0,0],[0]]","2","[[3,0,0],[1,0],[2]]","3","0","","","","","","3","","","","","","","","",""
"","","","","","single-stim-button","57","147596","0.0-2.0-19.1-1.1","5e850b0e390e520ec806b084","C3","batch3","","669","tol_toboard","","","","tol_peg_3","669","669","0","[[3,1,0],[0,0],[2]]","2","[[3,0,0],[1,0],[2]]","3","0","","","","","","3","","","","","","","","",""
"","","","","","single-stim-button","58","148097","0.0-2.0-19.2-0.2","5e850b0e390e520ec806b084","C3","batch3","","501","tol_tohand","","","","tol_peg_1","501","501","0","[[3,0,0],[0,0],[2]]","3","[[3,0,0],[1,0],[2]]","3","0","","","","","","3","","","","","","","","",""
"","","","","","single-stim-button","59","148548","0.0-2.0-19.2-1.2","5e850b0e390e520ec806b084","C3","batch3","","451","tol_toboard","","","","tol_peg_2","451","451","0","[[3,0,0],[1,0],[2]]","3","[[3,0,0],[1,0],[2]]","3","0","","","","","","3","","","","","","","","",""
"","","","","","poldrack-single-stim","60","149549","0.0-2.0-20.0","5e850b0e390e520ec806b084","C3","batch3","","-1","tol_feedback","","","true","","1000","1000","500","","","","","","-1","none","true","2716","3648","","","","","","","","","",""
"","","","","","html-button-response","61","183532","0.0-2.0-21.0","5e850b0e390e520ec806b084","C3","batch3","","33983.40000009537","tol_trial_num","<div class = centerbox><p class = center-block-text>problem <strong>5</strong> out of 25 problems</p></div>","0","","","","","","","","","","","","","","","","","","","","","","","","",""
"","","","","","single-stim-button","62","186230","0.0-2.0-22.0-0.0","5e850b0e390e520ec806b084","C3","batch3","","2697","tol_tohand","","","","tol_peg_2","2697","2697","0","[[1,0,0],[0,0],[3]]","1","[[0,0,0],[1,2],[3]]","4","0","","","","","","7","","","","","","","","",""
"","","","","","single-stim-button","63","195897","0.0-2.0-22.0-1.0","5e850b0e390e520ec806b084","C3","batch3","","9666","tol_toboard","","","","tol_peg_2","9666","9666","0","[[1,0,0],[2,0],[3]]","1","[[0,0,0],[1,2],[3]]","4","0","","","","","","7","","","","","","","","",""
"","","","","","single-stim-button","64","196545","0.0-2.0-22.1-0.1","5e850b0e390e520ec806b084","C3","batch3","","648","tol_tohand","","","","tol_peg_3","648","648","0","[[1,0,0],[2,0],[0]]","2","[[0,0,0],[1,2],[3]]","4","0","","","","","","7","","","","","","","","",""
"","","","","","single-stim-button","65","197035","0.0-2.0-22.1-1.1","5e850b0e390e520ec806b084","C3","batch3","","489","tol_toboard","","","","tol_peg_1","489","489","0","[[1,3,0],[2,0],[0]]","2","[[0,0,0],[1,2],[3]]","4","0","","","","","","7","","","","","","","","",""
"","","","","","single-stim-button","66","197419","0.0-2.0-22.2-0.2","5e850b0e390e520ec806b084","C3","batch3","","384","tol_tohand","","","","tol_peg_2","384","384","0","[[1,3,0],[0,0],[0]]","3","[[0,0,0],[1,2],[3]]","4","0","","","","","","7","","","","","","","","",""
"","","","","","single-stim-button","67","197806","0.0-2.0-22.2-1.2","5e850b0e390e520ec806b084","C3","batch3","","387","tol_toboard","","","","tol_peg_3","387","387","0","[[1,3,0],[0,0],[2]]","3","[[0,0,0],[1,2],[3]]","4","0","","","","","","7","","","","","","","","",""
"","","","","","single-stim-button","68","199604","0.0-2.0-22.3-0.3","5e850b0e390e520ec806b084","C3","batch3","","1797","tol_tohand","","","","tol_peg_1","1797","1797","0","[[1,0,0],[0,0],[2]]","4","[[0,0,0],[1,2],[3]]","4","0","","","","","","7","","","","","","","","",""
"","","","","","single-stim-button","69","201102","0.0-2.0-22.3-1.3","5e850b0e390e520ec806b084","C3","batch3","","1498","tol_toboard","","","","tol_peg_2","1498","1498","0","[[1,0,0],[3,0],[2]]","4","[[0,0,0],[1,2],[3]]","4","0","","","","","","7","","","","","","","","",""
"","","","","","single-stim-button","70","201691","0.0-2.0-22.4-0.4","5e850b0e390e520ec806b084","C3","batch3","","589","tol_tohand","","","","tol_peg_1","589","589","0","[[0,0,0],[3,0],[2]]","5","[[0,0,0],[1,2],[3]]","4","0","","","","","","7","","","","","","","","",""
"","","","","","single-stim-button","71","202279","0.0-2.0-22.4-1.4","5e850b0e390e520ec806b084","C3","batch3","","588","tol_toboard","","","","tol_peg_2","588","588","0","[[0,0,0],[3,1],[2]]","5","[[0,0,0],[1,2],[3]]","4","0","","","","","","7","","","","","","","","",""
"","","","","","single-stim-button","72","202666","0.0-2.0-22.5-0.5","5e850b0e390e520ec806b084","C3","batch3","","387","tol_tohand","","","","tol_peg_3","387","387","0","[[0,0,0],[3,1],[0]]","6","[[0,0,0],[1,2],[3]]","4","0","","","","","","7","","","","","","","","",""
"","","","","","single-stim-button","73","203323","0.0-2.0-22.5-1.5","5e850b0e390e520ec806b084","C3","batch3","","656","tol_toboard","","","","tol_peg_1","656","656","0","[[2,0,0],[3,1],[0]]","6","[[0,0,0],[1,2],[3]]","4","0","","","","","","7","","","","","","","","",""
"","","","","","single-stim-button","74","204145","0.0-2.0-22.6-0.6","5e850b0e390e520ec806b084","C3","batch3","","822","tol_tohand","","","","tol_peg_2","822","822","0","[[2,0,0],[3,0],[0]]","7","[[0,0,0],[1,2],[3]]","4","0","","","","","","7","","","","","","","","",""
"","","","","","single-stim-button","75","204553","0.0-2.0-22.6-1.6","5e850b0e390e520ec806b084","C3","batch3","","407","tol_toboard","","","","tol_peg_1","407","407","0","[[2,1,0],[3,0],[0]]","7","[[0,0,0],[1,2],[3]]","4","0","","","","","","7","","","","","","","","",""
"","","","","","single-stim-button","76","205152","0.0-2.0-22.7-0.7","5e850b0e390e520ec806b084","C3","batch3","","598","tol_tohand","","","","tol_peg_2","598","598","0","[[2,1,0],[0,0],[0]]","8","[[0,0,0],[1,2],[3]]","4","0","","","","","","7","","","","","","","","",""
"","","","","","single-stim-button","77","205565","0.0-2.0-22.7-1.7","5e850b0e390e520ec806b084","C3","batch3","","413","tol_toboard","","","","tol_peg_3","413","413","0","[[2,1,0],[0,0],[3]]","8","[[0,0,0],[1,2],[3]]","4","0","","","","","","7","","","","","","","","",""
"","","","","","single-stim-button","78","206042","0.0-2.0-22.8-0.8","5e850b0e390e520ec806b084","C3","batch3","","477","tol_tohand","","","","tol_peg_1","477","477","0","[[2,0,0],[0,0],[3]]","9","[[0,0,0],[1,2],[3]]","4","0","","","","","","7","","","","","","","","",""
"","","","","","single-stim-button","79","206490","0.0-2.0-22.8-1.8","5e850b0e390e520ec806b084","C3","batch3","","448","tol_toboard","","","","tol_peg_2","448","448","0","[[2,0,0],[1,0],[3]]","9","[[0,0,0],[1,2],[3]]","4","0","","","","","","7","","","","","","","","",""
"","","","","","single-stim-button","80","206891","0.0-2.0-22.9-0.9","5e850b0e390e520ec806b084","C3","batch3","","401","tol_tohand","","","","tol_peg_1","401","401","0","[[0,0,0],[1,0],[3]]","10","[[0,0,0],[1,2],[3]]","4","0","","","","","","7","","","","","","","","",""
"","","","","","single-stim-button","81","207327","0.0-2.0-22.9-1.9","5e850b0e390e520ec806b084","C3","batch3","","436","tol_toboard","","","","tol_peg_2","436","436","0","[[0,0,0],[1,2],[3]]","10","[[0,0,0],[1,2],[3]]","4","0","","","","","","7","","","","","","","","",""
"","","","","","poldrack-single-stim","82","208328","0.0-2.0-23.0","5e850b0e390e520ec806b084","C3","batch3","","-1","tol_feedback","","","true","","1000","1000","500","","","","","","-1","none","true","2697","8800","","","","","","","","","",""
"","","","","","html-button-response","83","301532","0.0-2.0-24.0","5e850b0e390e520ec806b084","C3","batch3","","93203.19999980927","tol_trial_num","<div class = centerbox><p class = center-block-text>problem <strong>6</strong> out of 25 problems</p></div>","0","","","","","","","","","","","","","","","","","","","","","","","","",""
"","","","","","single-stim-button","84","312083","0.0-2.0-25.0-0.0","5e850b0e390e520ec806b084","C3","batch3","","10549","tol_tohand","","","","tol_peg_3","10549","10549","0","[[0,0,0],[1,2],[0]]","1","[[1,0,0],[2,3],[0]]","5","0","","","","","","6","","","","","","","","",""
"","","","","","single-stim-button","85","312868","0.0-2.0-25.0-1.0","5e850b0e390e520ec806b084","C3","batch3","","785","tol_toboard","","","","tol_peg_1","785","785","0","[[3,0,0],[1,2],[0]]","1","[[1,0,0],[2,3],[0]]","5","0","","","","","","6","","","","","","","","",""
"","","","","","single-stim-button","86","313274","0.0-2.0-25.1-0.1","5e850b0e390e520ec806b084","C3","batch3","","405","tol_tohand","","","","tol_peg_2","405","405","0","[[3,0,0],[1,0],[0]]","2","[[1,0,0],[2,3],[0]]","5","0","","","","","","6","","","","","","","","",""
"","","","","","single-stim-button","87","313716","0.0-2.0-25.1-1.1","5e850b0e390e520ec806b084","C3","batch3","","440","tol_toboard","","","","tol_peg_1","440","440","0","[[3,2,0],[1,0],[0]]","2","[[1,0,0],[2,3],[0]]","5","0","","","","","","6","","","","","","","","",""
"","","","","","single-stim-button","88","314211","0.0-2.0-25.2-0.2","5e850b0e390e520ec806b084","C3","batch3","","495","tol_tohand","","","","tol_peg_2","495","495","0","[[3,2,0],[0,0],[0]]","3","[[1,0,0],[2,3],[0]]","5","0","","","","","","6","","","","","","","","",""
"","","","","","single-stim-button","89","315711","0.0-2.0-25.2-1.2","5e850b0e390e520ec806b084","C3","batch3","","1499","tol_toboard","","","","tol_peg_3","1499","1499","0","[[3,2,0],[0,0],[1]]","3","[[1,0,0],[2,3],[0]]","5","0","","","","","","6","","","","","","","","",""
"","","","","","single-stim-button","90","316301","0.0-2.0-25.3-0.3","5e850b0e390e520ec806b084","C3","batch3","","589","tol_tohand","","","","tol_peg_1","589","589","0","[[3,0,0],[0,0],[1]]","4","[[1,0,0],[2,3],[0]]","5","0","","","","","","6","","","","","","","","",""
"","","","","","single-stim-button","91","316693","0.0-2.0-25.3-1.3","5e850b0e390e520ec806b084","C3","batch3","","392","tol_toboard","","","","tol_peg_2","392","392","0","[[3,0,0],[2,0],[1]]","4","[[1,0,0],[2,3],[0]]","5","0","","","","","","6","","","","","","","","",""
"","","","","","single-stim-button","92","317240","0.0-2.0-25.4-0.4","5e850b0e390e520ec806b084","C3","batch3","","545","tol_tohand","","","","tol_peg_1","545","545","0","[[0,0,0],[2,0],[1]]","5","[[1,0,0],[2,3],[0]]","5","0","","","","","","6","","","","","","","","",""
"","","","","","single-stim-button","93","317804","0.0-2.0-25.4-1.4","5e850b0e390e520ec806b084","C3","batch3","","564","tol_toboard","","","","tol_peg_2","564","564","0","[[0,0,0],[2,3],[1]]","5","[[1,0,0],[2,3],[0]]","5","0","","","","","","6","","","","","","","","",""
"","","","","","single-stim-button","94","318197","0.0-2.0-25.5-0.5","5e850b0e390e520ec806b084","C3","batch3","","392","tol_tohand","","","","tol_peg_3","392","392","0","[[0,0,0],[2,3],[0]]","6","[[1,0,0],[2,3],[0]]","5","0","","","","","","6","","","","","","","","",""
"","","","","","single-stim-button","95","318869","0.0-2.0-25.5-1.5","5e850b0e390e520ec806b084","C3","batch3","","671","tol_toboard","","","","tol_peg_1","671","671","0","[[1,0,0],[2,3],[0]]","6","[[1,0,0],[2,3],[0]]","5","0","","","","","","6","","","","","","","","",""
"","","","","","poldrack-single-stim","96","319871","0.0-2.0-26.0","5e850b0e390e520ec806b084","C3","batch3","","-1","tol_feedback","","","true","","1000","1000","500","","","","","","-1","none","true","10549","12975","","","","","","","","","",""
"","","","","","html-button-response","97","320902","0.0-2.0-27.0","5e850b0e390e520ec806b084","C3","batch3","","1030.5999999046326","tol_trial_num","<div class = centerbox><p class = center-block-text>problem <strong>7</strong> out of 25 problems</p></div>","0","","","","","","","","","","","","","","","","","","","","","","","","",""
"","","","","","single-stim-button","98","332174","0.0-2.0-28.0-0.0","5e850b0e390e520ec806b084","C3","batch3","","11271","tol_tohand","","","","tol_peg_3","11271","11271","0","[[2,1,0],[0,0],[0]]","1","[[1,2,0],[3,0],[0]]","6","0","","","","","","5","","","","","","","","",""
"","","","","","single-stim-button","99","333910","0.0-2.0-28.0-1.0","5e850b0e390e520ec806b084","C3","batch3","","1735","tol_toboard","","","","tol_peg_2","1735","1735","0","[[2,1,0],[3,0],[0]]","1","[[1,2,0],[3,0],[0]]","6","0","","","","","","5","","","","","","","","",""
"","","","","","single-stim-button","100","334351","0.0-2.0-28.1-0.1","5e850b0e390e520ec806b084","C3","batch3","","441","tol_tohand","","","","tol_peg_1","441","441","0","[[2,0,0],[3,0],[0]]","2","[[1,2,0],[3,0],[0]]","6","0","","","","","","5","","","","","","","","",""
"","","","","","single-stim-button","101","336858","0.0-2.0-28.1-1.1","5e850b0e390e520ec806b084","C3","batch3","","2506","tol_toboard","","","","tol_peg_3","2506","2506","0","[[2,0,0],[3,0],[1]]","2","[[1,2,0],[3,0],[0]]","6","0","","","","","","5","","","","","","","","",""
"","","","","","single-stim-button","102","338809","0.0-2.0-28.2-0.2","5e850b0e390e520ec806b084","C3","batch3","","1951","tol_tohand","","","","tol_peg_1","1951","1951","0","[[0,0,0],[3,0],[1]]","3","[[1,2,0],[3,0],[0]]","6","0","","","","","","5","","","","","","","","",""
"","","","","","single-stim-button","103","339499","0.0-2.0-28.2-1.2","5e850b0e390e520ec806b084","C3","batch3","","689","tol_toboard","","","","tol_peg_2","689","689","0","[[0,0,0],[3,2],[1]]","3","[[1,2,0],[3,0],[0]]","6","0","","","","","","5","","","","","","","","",""
"","","","","","single-stim-button","104","339890","0.0-2.0-28.3-0.3","5e850b0e390e520ec806b084","C3","batch3","","390","tol_tohand","","","","tol_peg_3","390","390","0","[[0,0,0],[3,2],[0]]","4","[[1,2,0],[3,0],[0]]","6","0","","","","","","5","","","","","","","","",""
"","","","","","single-stim-button","105","340392","0.0-2.0-28.3-1.3","5e850b0e390e520ec806b084","C3","batch3","","500","tol_toboard","","","","tol_peg_1","500","500","0","[[1,0,0],[3,2],[0]]","4","[[1,2,0],[3,0],[0]]","6","0","","","","","","5","","","","","","","","",""
"","","","","","single-stim-button","106","340836","0.0-2.0-28.4-0.4","5e850b0e390e520ec806b084","C3","batch3","","443","tol_tohand","","","","tol_peg_2","443","443","0","[[1,0,0],[3,0],[0]]","5","[[1,2,0],[3,0],[0]]","6","0","","","","","","5","","","","","","","","",""
"","","","","","single-stim-button","107","341400","0.0-2.0-28.4-1.4","5e850b0e390e520ec806b084","C3","batch3","","564","tol_toboard","","","","tol_peg_1","564","564","0","[[1,2,0],[3,0],[0]]","5","[[1,2,0],[3,0],[0]]","6","0","","","","","","5","","","","","","","","",""
"","","","","","poldrack-single-stim","108","342402","0.0-2.0-29.0","5e850b0e390e520ec806b084","C3","batch3","","-1","tol_feedback","","","true","","1000","1000","500","","","","","","-1","none","true","11271","14496","","","","","","","","","",""
"","","","","","html-button-response","109","353760","0.0-2.0-30.0","5e850b0e390e520ec806b084","C3","batch3","","11357.900000095367","tol_trial_num","<div class = centerbox><p class = center-block-text>problem <strong>8</strong> out of 25 problems</p></div>","0","","","","","","","","","","","","","","","","","","","","","","","","",""
"","","","","","single-stim-button","110","359391","0.0-2.0-31.0-0.0","5e850b0e390e520ec806b084","C3","batch3","","5630","tol_tohand","","","","tol_peg_3","5630","5630","0","[[0,0,0],[2,3],[0]]","1","[[1,2,0],[3,0],[0]]","7","0","","","","","","4","","","","","","","","",""
"","","","","","single-stim-button","111","362214","0.0-2.0-31.0-1.0","5e850b0e390e520ec806b084","C3","batch3","","2821","tol_toboard","","","","tol_peg_1","2821","2821","0","[[1,0,0],[2,3],[0]]","1","[[1,2,0],[3,0],[0]]","7","0","","","","","","4","","","","","","","","",""
"","","","","","single-stim-button","112","362568","0.0-2.0-31.1-0.1","5e850b0e390e520ec806b084","C3","batch3","","354","tol_tohand","","","","tol_peg_2","354","354","0","[[1,0,0],[2,0],[0]]","2","[[1,2,0],[3,0],[0]]","7","0","","","","","","4","","","","","","","","",""
"","","","","","single-stim-button","113","362949","0.0-2.0-31.1-1.1","5e850b0e390e520ec806b084","C3","batch3","","381","tol_toboard","","","","tol_peg_3","381","381","0","[[1,0,0],[2,0],[3]]","2","[[1,2,0],[3,0],[0]]","7","0","","","","","","4","","","","","","","","",""
"","","","","","single-stim-button","114","363310","0.0-2.0-31.2-0.2","5e850b0e390e520ec806b084","C3","batch3","","361","tol_tohand","","","","tol_peg_2","361","361","0","[[1,0,0],[0,0],[3]]","3","[[1,2,0],[3,0],[0]]","7","0","","","","","","4","","","","","","","","",""
"","","","","","single-stim-button","115","364297","0.0-2.0-31.2-1.2","5e850b0e390e520ec806b084","C3","batch3","","987","tol_toboard","","","","tol_peg_1","987","987","0","[[1,2,0],[0,0],[3]]","3","[[1,2,0],[3,0],[0]]","7","0","","","","","","4","","","","","","","","",""
"","","","","","single-stim-button","116","364718","0.0-2.0-31.3-0.3","5e850b0e390e520ec806b084","C3","batch3","","420","tol_tohand","","","","tol_peg_3","420","420","0","[[1,2,0],[0,0],[0]]","4","[[1,2,0],[3,0],[0]]","7","0","","","","","","4","","","","","","","","",""
"","","","","","single-stim-button","117","365108","0.0-2.0-31.3-1.3","5e850b0e390e520ec806b084","C3","batch3","","390","tol_toboard","","","","tol_peg_2","390","390","0","[[1,2,0],[3,0],[0]]","4","[[1,2,0],[3,0],[0]]","7","0","","","","","","4","","","","","","","","",""
"","","","","","poldrack-single-stim","118","366109","0.0-2.0-32.0","5e850b0e390e520ec806b084","C3","batch3","","-1","tol_feedback","","","true","","1000","1000","500","","","","","","-1","none","true","5630","6765","","","","","","","","","",""
"","","","","","html-button-response","119","367599","0.0-2.0-33.0","5e850b0e390e520ec806b084","C3","batch3","","1488.7999999523163","tol_trial_num","<div class = centerbox><p class = center-block-text>problem <strong>9</strong> out of 25 problems</p></div>","0","","","","","","","","","","","","","","","","","","","","","","","","",""
"","","","","","single-stim-button","120","380026","0.0-2.0-34.0-0.0","5e850b0e390e520ec806b084","C3","batch3","","12426","tol_tohand","","","","tol_peg_3","12426","12426","0","[[3,2,0],[0,0],[0]]","1","[[2,1,0],[3,0],[0]]","8","0","","","","","","6","","","","","","","","",""
"","","","","","single-stim-button","121","380359","0.0-2.0-34.0-1.0","5e850b0e390e520ec806b084","C3","batch3","","333","tol_toboard","","","","tol_peg_2","333","333","0","[[3,2,0],[1,0],[0]]","1","[[2,1,0],[3,0],[0]]","8","0","","","","","","6","","","","","","","","",""
"","","","","","single-stim-button","122","380764","0.0-2.0-34.1-0.1","5e850b0e390e520ec806b084","C3","batch3","","404","tol_tohand","","","","tol_peg_1","404","404","0","[[3,0,0],[1,0],[0]]","2","[[2,1,0],[3,0],[0]]","8","0","","","","","","6","","","","","","","","",""
"","","","","","single-stim-button","123","389677","0.0-2.0-34.1-1.1","5e850b0e390e520ec806b084","C3","batch3","","8912","tol_toboard","","","","tol_peg_3","8912","8912","0","[[3,0,0],[1,0],[2]]","2","[[2,1,0],[3,0],[0]]","8","0","","","","","","6","","","","","","","","",""
"","","","","","single-stim-button","124","390158","0.0-2.0-34.2-0.2","5e850b0e390e520ec806b084","C3","batch3","","481","tol_tohand","","","","tol_peg_1","481","481","0","[[0,0,0],[1,0],[2]]","3","[[2,1,0],[3,0],[0]]","8","0","","","","","","6","","","","","","","","",""
"","","","","","single-stim-button","125","390536","0.0-2.0-34.2-1.2","5e850b0e390e520ec806b084","C3","batch3","","378","tol_toboard","","","","tol_peg_2","378","378","0","[[0,0,0],[1,3],[2]]","3","[[2,1,0],[3,0],[0]]","8","0","","","","","","6","","","","","","","","",""
"","","","","","single-stim-button","126","390842","0.0-2.0-34.3-0.3","5e850b0e390e520ec806b084","C3","batch3","","306","tol_tohand","","","","tol_peg_3","306","306","0","[[0,0,0],[1,3],[0]]","4","[[2,1,0],[3,0],[0]]","8","0","","","","","","6","","","","","","","","",""
"","","","","","single-stim-button","127","392079","0.0-2.0-34.3-1.3","5e850b0e390e520ec806b084","C3","batch3","","1237","tol_toboard","","","","tol_peg_1","1237","1237","0","[[2,0,0],[1,3],[0]]","4","[[2,1,0],[3,0],[0]]","8","0","","","","","","6","","","","","","","","",""
"","","","","","single-stim-button","128","392599","0.0-2.0-34.4-0.4","5e850b0e390e520ec806b084","C3","batch3","","519","tol_tohand","","","","tol_peg_2","519","519","0","[[2,0,0],[1,0],[0]]","5","[[2,1,0],[3,0],[0]]","8","0","","","","","","6","","","","","","","","",""
"","","","","","single-stim-button","129","392959","0.0-2.0-34.4-1.4","5e850b0e390e520ec806b084","C3","batch3","","360","tol_toboard","","","","tol_peg_3","360","360","0","[[2,0,0],[1,0],[3]]","5","[[2,1,0],[3,0],[0]]","8","0","","","","","","6","","","","","","","","",""
"","","","","","single-stim-button","130","393292","0.0-2.0-34.5-0.5","5e850b0e390e520ec806b084","C3","batch3","","333","tol_tohand","","","","tol_peg_2","333","333","0","[[2,0,0],[0,0],[3]]","6","[[2,1,0],[3,0],[0]]","8","0","","","","","","6","","","","","","","","",""
"","","","","","single-stim-button","131","393716","0.0-2.0-34.5-1.5","5e850b0e390e520ec806b084","C3","batch3","","423","tol_toboard","","","","tol_peg_1","423","423","0","[[2,1,0],[0,0],[3]]","6","[[2,1,0],[3,0],[0]]","8","0","","","","","","6","","","","","","","","",""
"","","","","","single-stim-button","132","394178","0.0-2.0-34.6-0.6","5e850b0e390e520ec806b084","C3","batch3","","461","tol_tohand","","","","tol_peg_3","461","461","0","[[2,1,0],[0,0],[0]]","7","[[2,1,0],[3,0],[0]]","8","0","","","","","","6","","","","","","","","",""
"","","","","","single-stim-button","133","394581","0.0-2.0-34.6-1.6","5e850b0e390e520ec806b084","C3","batch3","","403","tol_toboard","","","","tol_peg_2","403","403","0","[[2,1,0],[3,0],[0]]","7","[[2,1,0],[3,0],[0]]","8","0","","","","","","6","","","","","","","","",""
"","","","","","poldrack-single-stim","134","395647","0.0-2.0-35.0","5e850b0e390e520ec806b084","C3","batch3","","-1","tol_feedback","","","true","","1000","1000","500","","","","","","-1","none","true","12426","14930","","","","","","","","","",""
"","","","","","html-button-response","135","397619","0.0-2.0-36.0","5e850b0e390e520ec806b084","C3","batch3","","1971","tol_trial_num","<div class = centerbox><p class = center-block-text>problem <strong>10</strong> out of 25 problems</p></div>","0","","","","","","","","","","","","","","","","","","","","","","","","",""
"","","","","","single-stim-button","136","400579","0.0-2.0-37.0-0.0","5e850b0e390e520ec806b084","C3","batch3","","2960","tol_tohand","","","","tol_peg_2","2960","2960","0","[[3,0,0],[0,0],[2]]","1","[[3,0,0],[2,1],[0]]","9","0","","","","","","3","","","","","","","","",""
"","","","","","single-stim-button","137","401665","0.0-2.0-37.0-1.0","5e850b0e390e520ec806b084","C3","batch3","","1086","tol_toboard","","","","tol_peg_1","1086","1086","0","[[3,1,0],[0,0],[2]]","1","[[3,0,0],[2,1],[0]]","9","0","","","","","","3","","","","","","","","",""
"","","","","","single-stim-button","138","402092","0.0-2.0-37.1-0.1","5e850b0e390e520ec806b084","C3","batch3","","427","tol_tohand","","","","tol_peg_3","427","427","0","[[3,1,0],[0,0],[0]]","2","[[3,0,0],[2,1],[0]]","9","0","","","","","","3","","","","","","","","",""
"","","","","","single-stim-button","139","402575","0.0-2.0-37.1-1.1","5e850b0e390e520ec806b084","C3","batch3","","483","tol_toboard","","","","tol_peg_2","483","483","0","[[3,1,0],[2,0],[0]]","2","[[3,0,0],[2,1],[0]]","9","0","","","","","","3","","","","","","","","",""
"","","","","","single-stim-button","140","402984","0.0-2.0-37.2-0.2","5e850b0e390e520ec806b084","C3","batch3","","408","tol_tohand","","","","tol_peg_1","408","408","0","[[3,0,0],[2,0],[0]]","3","[[3,0,0],[2,1],[0]]","9","0","","","","","","3","","","","","","","","",""
"","","","","","single-stim-button","141","403361","0.0-2.0-37.2-1.2","5e850b0e390e520ec806b084","C3","batch3","","377","tol_toboard","","","","tol_peg_2","377","377","0","[[3,0,0],[2,1],[0]]","3","[[3,0,0],[2,1],[0]]","9","0","","","","","","3","","","","","","","","",""
"","","","","","poldrack-single-stim","142","404363","0.0-2.0-38.0","5e850b0e390e520ec806b084","C3","batch3","","-1","tol_feedback","","","true","","1000","1000","500","","","","","","-1","none","true","2960","3795","","","","","","","","","",""
"","","","","","html-button-response","143","405093","0.0-2.0-39.0","5e850b0e390e520ec806b084","C3","batch3","","730.2999999523163","tol_trial_num","<div class = centerbox><p class = center-block-text>problem <strong>11</strong> out of 25 problems</p></div>","0","","","","","","","","","","","","","","","","","","","","","","","","",""
"","","","","","single-stim-button","144","410134","0.0-2.0-40.0-0.0","5e850b0e390e520ec806b084","C3","batch3","","5039","tol_tohand","","","","tol_peg_2","5039","5039","0","[[1,2,0],[0,0],[0]]","1","[[2,0,0],[1,3],[0]]","10","0","","","","","","6","","","","","","","","",""
"","","","","","single-stim-button","145","412767","0.0-2.0-40.0-1.0","5e850b0e390e520ec806b084","C3","batch3","","2632","tol_toboard","","","","tol_peg_3","2632","2632","0","[[1,2,0],[0,0],[3]]","1","[[2,0,0],[1,3],[0]]","10","0","","","","","","6","","","","","","","","",""
"","","","","","single-stim-button","146","414058","0.0-2.0-40.1-0.1","5e850b0e390e520ec806b084","C3","batch3","","1291","tol_tohand","","","","tol_peg_1","1291","1291","0","[[1,0,0],[0,0],[3]]","2","[[2,0,0],[1,3],[0]]","10","0","","","","","","6","","","","","","","","",""
"","","","","","single-stim-button","147","420953","0.0-2.0-40.1-1.1","5e850b0e390e520ec806b084","C3","batch3","","6895","tol_toboard","","","","tol_peg_2","6895","6895","0","[[1,0,0],[2,0],[3]]","2","[[2,0,0],[1,3],[0]]","10","0","","","","","","6","","","","","","","","",""
"","","","","","single-stim-button","148","421380","0.0-2.0-40.2-0.2","5e850b0e390e520ec806b084","C3","batch3","","426","tol_tohand","","","","tol_peg_1","426","426","0","[[0,0,0],[2,0],[3]]","3","[[2,0,0],[1,3],[0]]","10","0","","","","","","6","","","","","","","","",""
"","","","","","single-stim-button","149","421711","0.0-2.0-40.2-1.2","5e850b0e390e520ec806b084","C3","batch3","","330","tol_toboard","","","","tol_peg_2","330","330","0","[[0,0,0],[2,1],[3]]","3","[[2,0,0],[1,3],[0]]","10","0","","","","","","6","","","","","","","","",""
"","","","","","single-stim-button","150","422007","0.0-2.0-40.3-0.3","5e850b0e390e520ec806b084","C3","batch3","","296","tol_tohand","","","","tol_peg_3","296","296","0","[[0,0,0],[2,1],[0]]","4","[[2,0,0],[1,3],[0]]","10","0","","","","","","6","","","","","","","","",""
"","","","","","single-stim-button","151","422458","0.0-2.0-40.3-1.3","5e850b0e390e520ec806b084","C3","batch3","","451","tol_toboard","","","","tol_peg_1","451","451","0","[[3,0,0],[2,1],[0]]","4","[[2,0,0],[1,3],[0]]","10","0","","","","","","6","","","","","","","","",""
"","","","","","single-stim-button","152","426679","0.0-2.0-40.4-0.4","5e850b0e390e520ec806b084","C3","batch3","","4220","tol_tohand","","","","tol_peg_2","4220","4220","0","[[3,0,0],[2,0],[0]]","5","[[2,0,0],[1,3],[0]]","10","0","","","","","","6","","","","","","","","",""
"","","","","","single-stim-button","153","428405","0.0-2.0-40.4-1.4","5e850b0e390e520ec806b084","C3","batch3","","1726","tol_toboard","","","","tol_peg_1","1726","1726","0","[[3,1,0],[2,0],[0]]","5","[[2,0,0],[1,3],[0]]","10","0","","","","","","6","","","","","","","","",""
"","","","","","single-stim-button","154","428714","0.0-2.0-40.5-0.5","5e850b0e390e520ec806b084","C3","batch3","","308","tol_tohand","","","","tol_peg_2","308","308","0","[[3,1,0],[0,0],[0]]","6","[[2,0,0],[1,3],[0]]","10","0","","","","","","6","","","","","","","","",""
"","","","","","single-stim-button","155","429008","0.0-2.0-40.5-1.5","5e850b0e390e520ec806b084","C3","batch3","","293","tol_toboard","","","","tol_peg_3","293","293","0","[[3,1,0],[0,0],[2]]","6","[[2,0,0],[1,3],[0]]","10","0","","","","","","6","","","","","","","","",""
"","","","","","single-stim-button","156","429684","0.0-2.0-40.6-0.6","5e850b0e390e520ec806b084","C3","batch3","","675","tol_tohand","","","","tol_peg_1","675","675","0","[[3,0,0],[0,0],[2]]","7","[[2,0,0],[1,3],[0]]","10","0","","","","","","6","","","","","","","","",""
"","","","","","single-stim-button","157","430062","0.0-2.0-40.6-1.6","5e850b0e390e520ec806b084","C3","batch3","","377","tol_toboard","","","","tol_peg_2","377","377","0","[[3,0,0],[1,0],[2]]","7","[[2,0,0],[1,3],[0]]","10","0","","","","","","6","","","","","","","","",""
"","","","","","single-stim-button","158","430499","0.0-2.0-40.7-0.7","5e850b0e390e520ec806b084","C3","batch3","","437","tol_tohand","","","","tol_peg_1","437","437","0","[[0,0,0],[1,0],[2]]","8","[[2,0,0],[1,3],[0]]","10","0","","","","","","6","","","","","","","","",""
"","","","","","single-stim-button","159","430843","0.0-2.0-40.7-1.7","5e850b0e390e520ec806b084","C3","batch3","","343","tol_toboard","","","","tol_peg_2","343","343","0","[[0,0,0],[1,3],[2]]","8","[[2,0,0],[1,3],[0]]","10","0","","","","","","6","","","","","","","","",""
"","","","","","single-stim-button","160","431163","0.0-2.0-40.8-0.8","5e850b0e390e520ec806b084","C3","batch3","","320","tol_tohand","","","","tol_peg_3","320","320","0","[[0,0,0],[1,3],[0]]","9","[[2,0,0],[1,3],[0]]","10","0","","","","","","6","","","","","","","","",""
"","","","","","single-stim-button","161","431674","0.0-2.0-40.8-1.8","5e850b0e390e520ec806b084","C3","batch3","","510","tol_toboard","","","","tol_peg_1","510","510","0","[[2,0,0],[1,3],[0]]","9","[[2,0,0],[1,3],[0]]","10","0","","","","","","6","","","","","","","","",""
"","","","","","poldrack-single-stim","162","433647","0.0-2.0-41.0","5e850b0e390e520ec806b084","C3","batch3","","-1","tol_feedback","","","true","","1000","1000","500","","","","","","-1","none","true","5039","13012","","","","","","","","","",""
"","","","","","html-button-response","163","434462","0.0-2.0-42.0","5e850b0e390e520ec806b084","C3","batch3","","814.4000000953674","tol_trial_num","<div class = centerbox><p class = center-block-text>problem <strong>12</strong> out of 25 problems</p></div>","0","","","","","","","","","","","","","","","","","","","","","","","","",""
"","","","","","single-stim-button","164","441295","0.0-2.0-43.0-0.0","5e850b0e390e520ec806b084","C3","batch3","","6831","tol_tohand","","","","tol_peg_2","6831","6831","0","[[1,2,0],[0,0],[0]]","1","[[2,3,0],[0,0],[1]]","11","0","","","","","","4","","","","","","","","",""
"","","","","","single-stim-button","165","441708","0.0-2.0-43.0-1.0","5e850b0e390e520ec806b084","C3","batch3","","413","tol_toboard","","","","tol_peg_3","413","413","0","[[1,2,0],[0,0],[3]]","1","[[2,3,0],[0,0],[1]]","11","0","","","","","","4","","","","","","","","",""
"","","","","","single-stim-button","166","442172","0.0-2.0-43.1-0.1","5e850b0e390e520ec806b084","C3","batch3","","462","tol_tohand","","","","tol_peg_1","462","462","0","[[1,0,0],[0,0],[3]]","2","[[2,3,0],[0,0],[1]]","11","0","","","","","","4","","","","","","","","",""
"","","","","","single-stim-button","167","458140","0.0-2.0-43.1-1.1","5e850b0e390e520ec806b084","C3","batch3","","15968","tol_toboard","","","","tol_peg_2","15968","15968","0","[[1,0,0],[2,0],[3]]","2","[[2,3,0],[0,0],[1]]","11","0","","","","","","4","","","","","","","","",""
"","","","","","single-stim-button","168","458614","0.0-2.0-43.2-0.2","5e850b0e390e520ec806b084","C3","batch3","","474","tol_tohand","","","","tol_peg_1","474","474","0","[[0,0,0],[2,0],[3]]","3","[[2,3,0],[0,0],[1]]","11","0","","","","","","4","","","","","","","","",""
"","","","","","single-stim-button","169","463882","0.0-2.0-43.2-1.2","5e850b0e390e520ec806b084","C3","batch3","","5267","tol_toboard","","","","tol_peg_2","5267","5267","0","[[0,0,0],[2,1],[3]]","3","[[2,3,0],[0,0],[1]]","11","0","","","","","","4","","","","","","","","",""
"","","","","","single-stim-button","170","464320","0.0-2.0-43.3-0.3","5e850b0e390e520ec806b084","C3","batch3","","437","tol_tohand","","","","tol_peg_3","437","437","0","[[0,0,0],[2,1],[0]]","4","[[2,3,0],[0,0],[1]]","11","0","","","","","","4","","","","","","","","",""
"","","","","","single-stim-button","171","464867","0.0-2.0-43.3-1.3","5e850b0e390e520ec806b084","C3","batch3","","546","tol_toboard","","","","tol_peg_1","546","546","0","[[3,0,0],[2,1],[0]]","4","[[2,3,0],[0,0],[1]]","11","0","","","","","","4","","","","","","","","",""
"","","","","","single-stim-button","172","465248","0.0-2.0-43.4-0.4","5e850b0e390e520ec806b084","C3","batch3","","381","tol_tohand","","","","tol_peg_2","381","381","0","[[3,0,0],[2,0],[0]]","5","[[2,3,0],[0,0],[1]]","11","0","","","","","","4","","","","","","","","",""
"","","","","","single-stim-button","173","465524","0.0-2.0-43.4-1.4","5e850b0e390e520ec806b084","C3","batch3","","275","tol_toboard","","","","tol_peg_3","275","275","0","[[3,0,0],[2,0],[1]]","5","[[2,3,0],[0,0],[1]]","11","0","","","","","","4","","","","","","","","",""
"","","","","","single-stim-button","174","467397","0.0-2.0-43.5-0.5","5e850b0e390e520ec806b084","C3","batch3","","1873","tol_tohand","","","","tol_peg_2","1873","1873","0","[[3,0,0],[0,0],[1]]","6","[[2,3,0],[0,0],[1]]","11","0","","","","","","4","","","","","","","","",""
"","","","","","single-stim-button","175","467879","0.0-2.0-43.5-1.5","5e850b0e390e520ec806b084","C3","batch3","","482","tol_toboard","","","","tol_peg_1","482","482","0","[[3,2,0],[0,0],[1]]","6","[[2,3,0],[0,0],[1]]","11","0","","","","","","4","","","","","","","","",""
"","","","","","single-stim-button","176","469026","0.0-2.0-43.6-0.6","5e850b0e390e520ec806b084","C3","batch3","","1146","tol_tohand","","","","tol_peg_3","1146","1146","0","[[3,2,0],[0,0],[0]]","7","[[2,3,0],[0,0],[1]]","11","0","","","","","","4","","","","","","","","",""
"","","","","","single-stim-button","177","469555","0.0-2.0-43.6-1.6","5e850b0e390e520ec806b084","C3","batch3","","529","tol_toboard","","","","tol_peg_2","529","529","0","[[3,2,0],[1,0],[0]]","7","[[2,3,0],[0,0],[1]]","11","0","","","","","","4","","","","","","","","",""
"","","","","","single-stim-button","178","471059","0.0-2.0-43.7-0.7","5e850b0e390e520ec806b084","C3","batch3","","1503","tol_tohand","","","","tol_peg_1","1503","1503","0","[[3,0,0],[1,0],[0]]","8","[[2,3,0],[0,0],[1]]","11","0","","","","","","4","","","","","","","","",""
"","","","","","single-stim-button","179","472980","0.0-2.0-43.7-1.7","5e850b0e390e520ec806b084","C3","batch3","","1919","tol_toboard","","","","tol_peg_3","1919","1919","0","[[3,0,0],[1,0],[2]]","8","[[2,3,0],[0,0],[1]]","11","0","","","","","","4","","","","","","","","",""
"","","","","","single-stim-button","180","473478","0.0-2.0-43.8-0.8","5e850b0e390e520ec806b084","C3","batch3","","498","tol_tohand","","","","tol_peg_1","498","498","0","[[0,0,0],[1,0],[2]]","9","[[2,3,0],[0,0],[1]]","11","0","","","","","","4","","","","","","","","",""
"","","","","","single-stim-button","181","473831","0.0-2.0-43.8-1.8","5e850b0e390e520ec806b084","C3","batch3","","351","tol_toboard","","","","tol_peg_2","351","351","0","[[0,0,0],[1,3],[2]]","9","[[2,3,0],[0,0],[1]]","11","0","","","","","","4","","","","","","","","",""
"","","","","","single-stim-button","182","474169","0.0-2.0-43.9-0.9","5e850b0e390e520ec806b084","C3","batch3","","338","tol_tohand","","","","tol_peg_3","338","338","0","[[0,0,0],[1,3],[0]]","10","[[2,3,0],[0,0],[1]]","11","0","","","","","","4","","","","","","","","",""
"","","","","","single-stim-button","183","474607","0.0-2.0-43.9-1.9","5e850b0e390e520ec806b084","C3","batch3","","437","tol_toboard","","","","tol_peg_1","437","437","0","[[2,0,0],[1,3],[0]]","10","[[2,3,0],[0,0],[1]]","11","0","","","","","","4","","","","","","","","",""
"","","","","","single-stim-button","184","474923","0.0-2.0-43.10-0.10","5e850b0e390e520ec806b084","C3","batch3","","314","tol_tohand","","","","tol_peg_2","314","314","0","[[2,0,0],[1,0],[0]]","11","[[2,3,0],[0,0],[1]]","11","0","","","","","","4","","","","","","","","",""
"","","","","","single-stim-button","185","475340","0.0-2.0-43.10-1.10","5e850b0e390e520ec806b084","C3","batch3","","416","tol_toboard","","","","tol_peg_1","416","416","0","[[2,3,0],[1,0],[0]]","11","[[2,3,0],[0,0],[1]]","11","0","","","","","","4","","","","","","","","",""
"","","","","","single-stim-button","186","475740","0.0-2.0-43.11-0.11","5e850b0e390e520ec806b084","C3","batch3","","399","tol_tohand","","","","tol_peg_2","399","399","0","[[2,3,0],[0,0],[0]]","12","[[2,3,0],[0,0],[1]]","11","0","","","","","","4","","","","","","","","",""
"","","","","","single-stim-button","187","476021","0.0-2.0-43.11-1.11","5e850b0e390e520ec806b084","C3","batch3","","281","tol_toboard","","","","tol_peg_3","281","281","0","[[2,3,0],[0,0],[1]]","12","[[2,3,0],[0,0],[1]]","11","0","","","","","","4","","","","","","","","",""
"","","","","","poldrack-single-stim","188","477022","0.0-2.0-44.0","5e850b0e390e520ec806b084","C3","batch3","","-1","tol_feedback","","","true","","1000","1000","500","","","","","","-1","none","true","6831","14656","","","","","","","","","",""
"","","","","","html-button-response","189","478078","0.0-2.0-45.0","5e850b0e390e520ec806b084","C3","batch3","","1055.3999998569489","tol_trial_num","<div class = centerbox><p class = center-block-text>problem <strong>13</strong> out of 25 problems</p></div>","0","","","","","","","","","","","","","","","","","","","","","","","","",""
"","","","","","single-stim-button","190","483225","0.0-2.0-46.0-0.0","5e850b0e390e520ec806b084","C3","batch3","","5145","tol_tohand","","","","tol_peg_2","5145","5145","0","[[1,2,0],[0,0],[0]]","1","[[0,0,0],[2,3],[1]]","12","0","","","","","","4","","","","","","","","",""
"","","","","","single-stim-button","191","483501","0.0-2.0-46.0-1.0","5e850b0e390e520ec806b084","C3","batch3","","275","tol_toboard","","","","tol_peg_3","275","275","0","[[1,2,0],[0,0],[3]]","1","[[0,0,0],[2,3],[1]]","12","0","","","","","","4","","","","","","","","",""
"","","","","","single-stim-button","192","483963","0.0-2.0-46.1-0.1","5e850b0e390e520ec806b084","C3","batch3","","462","tol_tohand","","","","tol_peg_1","462","462","0","[[1,0,0],[0,0],[3]]","2","[[0,0,0],[2,3],[1]]","12","0","","","","","","4","","","","","","","","",""
"","","","","","single-stim-button","193","484242","0.0-2.0-46.1-1.1","5e850b0e390e520ec806b084","C3","batch3","","278","tol_toboard","","","","tol_peg_2","278","278","0","[[1,0,0],[2,0],[3]]","2","[[0,0,0],[2,3],[1]]","12","0","","","","","","4","","","","","","","","",""
"","","","","","single-stim-button","194","484590","0.0-2.0-46.2-0.2","5e850b0e390e520ec806b084","C3","batch3","","348","tol_tohand","","","","tol_peg_3","348","348","0","[[1,0,0],[2,0],[0]]","3","[[0,0,0],[2,3],[1]]","12","0","","","","","","4","","","","","","","","",""
"","","","","","single-stim-button","195","484948","0.0-2.0-46.2-1.2","5e850b0e390e520ec806b084","C3","batch3","","357","tol_toboard","","","","tol_peg_2","357","357","0","[[1,0,0],[2,3],[0]]","3","[[0,0,0],[2,3],[1]]","12","0","","","","","","4","","","","","","","","",""
"","","","","","single-stim-button","196","485276","0.0-2.0-46.3-0.3","5e850b0e390e520ec806b084","C3","batch3","","328","tol_tohand","","","","tol_peg_1","328","328","0","[[0,0,0],[2,3],[0]]","4","[[0,0,0],[2,3],[1]]","12","0","","","","","","4","","","","","","","","",""
"","","","","","single-stim-button","197","485638","0.0-2.0-46.3-1.3","5e850b0e390e520ec806b084","C3","batch3","","360","tol_toboard","","","","tol_peg_3","360","360","0","[[0,0,0],[2,3],[1]]","4","[[0,0,0],[2,3],[1]]","12","0","","","","","","4","","","","","","","","",""
"","","","","","poldrack-single-stim","198","486640","0.0-2.0-47.0","5e850b0e390e520ec806b084","C3","batch3","","-1","tol_feedback","","","true","","1000","1000","500","","","","","","-1","none","true","5145","6283","","","","","","","","","",""
"","","","","","html-button-response","199","492010","0.0-2.0-48.0","5e850b0e390e520ec806b084","C3","batch3","","5369.700000047684","attention_check","<p class = block-text>How many balls are in your board<br></p>","1","true","","","","","","","","","","","","","","","","","","","","","","","",""
"","","","","","html-button-response","200","493046","0.0-2.0-49.0","5e850b0e390e520ec806b084","C3","batch3","","1035.4000000953674","tol_trial_num","<div class = centerbox><p class = center-block-text>problem <strong>14</strong> out of 25 problems</p></div>","0","","","","","","","","","","","","","","","","","","","","","","","","",""
"","","","","","single-stim-button","201","499724","0.0-2.0-50.0-0.0","5e850b0e390e520ec806b084","C3","batch3","","6676","tol_tohand","","","","tol_peg_1","6676","6676","0","[[2,0,0],[3,0],[0]]","1","[[1,2,0],[3,0],[0]]","13","0","","","","","","4","","","","","","","","",""
"","","","","","single-stim-button","202","500359","0.0-2.0-50.0-1.0","5e850b0e390e520ec806b084","C3","batch3","","635","tol_toboard","","","","tol_peg_2","635","635","0","[[2,0,0],[3,1],[0]]","1","[[1,2,0],[3,0],[0]]","13","0","","","","","","4","","","","","","","","",""
"","","","","","single-stim-button","203","500996","0.0-2.0-50.1-0.1","5e850b0e390e520ec806b084","C3","batch3","","636","tol_tohand","","","","tol_peg_1","636","636","0","[[0,0,0],[3,1],[0]]","2","[[1,2,0],[3,0],[0]]","13","0","","","","","","4","","","","","","","","",""
"","","","","","single-stim-button","204","502494","0.0-2.0-50.1-1.1","5e850b0e390e520ec806b084","C3","batch3","","1497","tol_toboard","","","","tol_peg_3","1497","1497","0","[[0,0,0],[3,1],[2]]","2","[[1,2,0],[3,0],[0]]","13","0","","","","","","4","","","","","","","","",""
"","","","","","single-stim-button","205","502918","0.0-2.0-50.2-0.2","5e850b0e390e520ec806b084","C3","batch3","","423","tol_tohand","","","","tol_peg_2","423","423","0","[[0,0,0],[3,0],[2]]","3","[[1,2,0],[3,0],[0]]","13","0","","","","","","4","","","","","","","","",""
"","","","","","single-stim-button","206","503299","0.0-2.0-50.2-1.2","5e850b0e390e520ec806b084","C3","batch3","","380","tol_toboard","","","","tol_peg_1","380","380","0","[[1,0,0],[3,0],[2]]","3","[[1,2,0],[3,0],[0]]","13","0","","","","","","4","","","","","","","","",""
"","","","","","single-stim-button","207","503706","0.0-2.0-50.3-0.3","5e850b0e390e520ec806b084","C3","batch3","","406","tol_tohand","","","","tol_peg_3","406","406","0","[[1,0,0],[3,0],[0]]","4","[[1,2,0],[3,0],[0]]","13","0","","","","","","4","","","","","","","","",""
"","","","","","single-stim-button","208","504218","0.0-2.0-50.3-1.3","5e850b0e390e520ec806b084","C3","batch3","","512","tol_toboard","","","","tol_peg_1","512","512","0","[[1,2,0],[3,0],[0]]","4","[[1,2,0],[3,0],[0]]","13","0","","","","","","4","","","","","","","","",""
"","","","","","poldrack-single-stim","209","505647","0.0-2.0-51.0","5e850b0e390e520ec806b084","C3","batch3","","-1","tol_feedback","","","true","","1000","1000","500","","","","","","-1","none","true","6676","8141","","","","","","","","","",""
"","","","","","html-button-response","210","506493","0.0-2.0-52.0","5e850b0e390e520ec806b084","C3","batch3","","845.8999998569489","tol_trial_num","<div class = centerbox><p class = center-block-text>problem <strong>15</strong> out of 25 problems</p></div>","0","","","","","","","","","","","","","","","","","","","","","","","","",""
"","","","","","single-stim-button","211","511084","0.0-2.0-53.0-0.0","5e850b0e390e520ec806b084","C3","batch3","","4589","tol_tohand","","","","tol_peg_1","4589","4589","0","[[1,0,0],[3,0],[0]]","1","[[2,0,0],[3,0],[1]]","14","0","","","","","","3","","","","","","","","",""
"","","","","","single-stim-button","212","511404","0.0-2.0-53.0-1.0","5e850b0e390e520ec806b084","C3","batch3","","320","tol_toboard","","","","tol_peg_2","320","320","0","[[1,0,0],[3,2],[0]]","1","[[2,0,0],[3,0],[1]]","14","0","","","","","","3","","","","","","","","",""
"","","","","","single-stim-button","213","511720","0.0-2.0-53.1-0.1","5e850b0e390e520ec806b084","C3","batch3","","314","tol_tohand","","","","tol_peg_1","314","314","0","[[0,0,0],[3,2],[0]]","2","[[2,0,0],[3,0],[1]]","14","0","","","","","","3","","","","","","","","",""
"","","","","","single-stim-button","214","512208","0.0-2.0-53.1-1.1","5e850b0e390e520ec806b084","C3","batch3","","488","tol_toboard","","","","tol_peg_3","488","488","0","[[0,0,0],[3,2],[1]]","2","[[2,0,0],[3,0],[1]]","14","0","","","","","","3","","","","","","","","",""
"","","","","","single-stim-button","215","512599","0.0-2.0-53.2-0.2","5e850b0e390e520ec806b084","C3","batch3","","390","tol_tohand","","","","tol_peg_2","390","390","0","[[0,0,0],[3,0],[1]]","3","[[2,0,0],[3,0],[1]]","14","0","","","","","","3","","","","","","","","",""
"","","","","","single-stim-button","216","512918","0.0-2.0-53.2-1.2","5e850b0e390e520ec806b084","C3","batch3","","317","tol_toboard","","","","tol_peg_1","317","317","0","[[2,0,0],[3,0],[1]]","3","[[2,0,0],[3,0],[1]]","14","0","","","","","","3","","","","","","","","",""
"","","","","","poldrack-single-stim","217","513919","0.0-2.0-54.0","5e850b0e390e520ec806b084","C3","batch3","","-1","tol_feedback","","","true","","1000","1000","500","","","","","","-1","none","true","4589","5293","","","","","","","","","",""
"","","","","","html-button-response","218","514901","0.0-2.0-55.0","5e850b0e390e520ec806b084","C3","batch3","","981.7999999523163","tol_trial_num","<div class = centerbox><p class = center-block-text>problem <strong>16</strong> out of 25 problems</p></div>","0","","","","","","","","","","","","","","","","","","","","","","","","",""
"","","","","","single-stim-button","219","521358","0.0-2.0-56.0-0.0","5e850b0e390e520ec806b084","C3","batch3","","6456","tol_tohand","","","","tol_peg_3","6456","6456","0","[[0,0,0],[2,3],[0]]","1","[[2,3,0],[1,0],[0]]","15","0","","","","","","7","","","","","","","","",""
"","","","","","single-stim-button","220","521931","0.0-2.0-56.0-1.0","5e850b0e390e520ec806b084","C3","batch3","","573","tol_toboard","","","","tol_peg_1","573","573","0","[[1,0,0],[2,3],[0]]","1","[[2,3,0],[1,0],[0]]","15","0","","","","","","7","","","","","","","","",""
"","","","","","single-stim-button","221","522250","0.0-2.0-56.1-0.1","5e850b0e390e520ec806b084","C3","batch3","","317","tol_tohand","","","","tol_peg_2","317","317","0","[[1,0,0],[2,0],[0]]","2","[[2,3,0],[1,0],[0]]","15","0","","","","","","7","","","","","","","","",""
"","","","","","single-stim-button","222","523112","0.0-2.0-56.1-1.1","5e850b0e390e520ec806b084","C3","batch3","","861","tol_toboard","","","","tol_peg_3","861","861","0","[[1,0,0],[2,0],[3]]","2","[[2,3,0],[1,0],[0]]","15","0","","","","","","7","","","","","","","","",""
"","","","","","single-stim-button","223","524411","0.0-2.0-56.2-0.2","5e850b0e390e520ec806b084","C3","batch3","","1298","tol_tohand","","","","tol_peg_1","1298","1298","0","[[0,0,0],[2,0],[3]]","3","[[2,3,0],[1,0],[0]]","15","0","","","","","","7","","","","","","","","",""
"","","","","","single-stim-button","224","530457","0.0-2.0-56.2-1.2","5e850b0e390e520ec806b084","C3","batch3","","6046","tol_toboard","","","","tol_peg_1","6046","6046","0","[[1,0,0],[2,0],[3]]","3","[[2,3,0],[1,0],[0]]","15","0","","","","","","7","","","","","","","","",""
"","","","","","single-stim-button","225","531335","0.0-2.0-56.3-0.3","5e850b0e390e520ec806b084","C3","batch3","","878","tol_tohand","","","","tol_peg_2","878","878","0","[[1,0,0],[0,0],[3]]","4","[[2,3,0],[1,0],[0]]","15","0","","","","","","7","","","","","","","","",""
"","","","","","single-stim-button","226","531783","0.0-2.0-56.3-1.3","5e850b0e390e520ec806b084","C3","batch3","","448","tol_toboard","","","","tol_peg_1","448","448","0","[[1,2,0],[0,0],[3]]","4","[[2,3,0],[1,0],[0]]","15","0","","","","","","7","","","","","","","","",""
"","","","","","single-stim-button","227","532183","0.0-2.0-56.4-0.4","5e850b0e390e520ec806b084","C3","batch3","","399","tol_tohand","","","","tol_peg_3","399","399","0","[[1,2,0],[0,0],[0]]","5","[[2,3,0],[1,0],[0]]","15","0","","","","","","7","","","","","","","","",""
"","","","","","single-stim-button","228","532480","0.0-2.0-56.4-1.4","5e850b0e390e520ec806b084","C3","batch3","","296","tol_toboard","","","","tol_peg_2","296","296","0","[[1,2,0],[3,0],[0]]","5","[[2,3,0],[1,0],[0]]","15","0","","","","","","7","","","","","","","","",""
"","","","","","single-stim-button","229","532946","0.0-2.0-56.5-0.5","5e850b0e390e520ec806b084","C3","batch3","","464","tol_tohand","","","","tol_peg_1","464","464","0","[[1,0,0],[3,0],[0]]","6","[[2,3,0],[1,0],[0]]","15","0","","","","","","7","","","","","","","","",""
"","","","","","single-stim-button","230","533302","0.0-2.0-56.5-1.5","5e850b0e390e520ec806b084","C3","batch3","","356","tol_toboard","","","","tol_peg_2","356","356","0","[[1,0,0],[3,2],[0]]","6","[[2,3,0],[1,0],[0]]","15","0","","","","","","7","","","","","","","","",""
"","","","","","single-stim-button","231","534232","0.0-2.0-56.6-0.6","5e850b0e390e520ec806b084","C3","batch3","","928","tol_tohand","","","","tol_peg_1","928","928","0","[[0,0,0],[3,2],[0]]","7","[[2,3,0],[1,0],[0]]","15","0","","","","","","7","","","","","","","","",""
"","","","","","single-stim-button","232","535216","0.0-2.0-56.6-1.6","5e850b0e390e520ec806b084","C3","batch3","","983","tol_toboard","","","","tol_peg_3","983","983","0","[[0,0,0],[3,2],[1]]","7","[[2,3,0],[1,0],[0]]","15","0","","","","","","7","","","","","","","","",""
"","","","","","single-stim-button","233","536096","0.0-2.0-56.7-0.7","5e850b0e390e520ec806b084","C3","batch3","","880","tol_tohand","","","","tol_peg_2","880","880","0","[[0,0,0],[3,0],[1]]","8","[[2,3,0],[1,0],[0]]","15","0","","","","","","7","","","","","","","","",""
"","","","","","single-stim-button","234","536404","0.0-2.0-56.7-1.7","5e850b0e390e520ec806b084","C3","batch3","","307","tol_toboard","","","","tol_peg_1","307","307","0","[[2,0,0],[3,0],[1]]","8","[[2,3,0],[1,0],[0]]","15","0","","","","","","7","","","","","","","","",""
"","","","","","single-stim-button","235","536776","0.0-2.0-56.8-0.8","5e850b0e390e520ec806b084","C3","batch3","","371","tol_tohand","","","","tol_peg_2","371","371","0","[[2,0,0],[0,0],[1]]","9","[[2,3,0],[1,0],[0]]","15","0","","","","","","7","","","","","","","","",""
"","","","","","single-stim-button","236","537269","0.0-2.0-56.8-1.8","5e850b0e390e520ec806b084","C3","batch3","","492","tol_toboard","","","","tol_peg_1","492","492","0","[[2,3,0],[0,0],[1]]","9","[[2,3,0],[1,0],[0]]","15","0","","","","","","7","","","","","","","","",""
"","","","","","single-stim-button","237","537860","0.0-2.0-56.9-0.9","5e850b0e390e520ec806b084","C3","batch3","","590","tol_tohand","","","","tol_peg_3","590","590","0","[[2,3,0],[0,0],[0]]","10","[[2,3,0],[1,0],[0]]","15","0","","","","","","7","","","","","","","","",""
"","","","","","single-stim-button","238","538268","0.0-2.0-56.9-1.9","5e850b0e390e520ec806b084","C3","batch3","","407","tol_toboard","","","","tol_peg_2","407","407","0","[[2,3,0],[1,0],[0]]","10","[[2,3,0],[1,0],[0]]","15","0","","","","","","7","","","","","","","","",""
"","","","","","poldrack-single-stim","239","539269","0.0-2.0-57.0","5e850b0e390e520ec806b084","C3","batch3","","-1","tol_feedback","","","true","","1000","1000","500","","","","","","-1","none","true","6456","12581","","","","","","","","","",""
"","","","","","html-button-response","240","540048","0.0-2.0-58.0","5e850b0e390e520ec806b084","C3","batch3","","778.5","tol_trial_num","<div class = centerbox><p class = center-block-text>problem <strong>17</strong> out of 25 problems</p></div>","0","","","","","","","","","","","","","","","","","","","","","","","","",""
"","","","","","single-stim-button","241","546462","0.0-2.0-59.0-0.0","5e850b0e390e520ec806b084","C3","batch3","","6413","tol_tohand","","","","tol_peg_2","6413","6413","0","[[1,2,0],[0,0],[0]]","1","[[3,1,0],[2,0],[0]]","16","0","","","","","","5","","","","","","","","",""
"","","","","","single-stim-button","242","546842","0.0-2.0-59.0-1.0","5e850b0e390e520ec806b084","C3","batch3","","380","tol_toboard","","","","tol_peg_3","380","380","0","[[1,2,0],[0,0],[3]]","1","[[3,1,0],[2,0],[0]]","16","0","","","","","","5","","","","","","","","",""
"","","","","","single-stim-button","243","547255","0.0-2.0-59.1-0.1","5e850b0e390e520ec806b084","C3","batch3","","412","tol_tohand","","","","tol_peg_1","412","412","0","[[1,0,0],[0,0],[3]]","2","[[3,1,0],[2,0],[0]]","16","0","","","","","","5","","","","","","","","",""
"","","","","","single-stim-button","244","547579","0.0-2.0-59.1-1.1","5e850b0e390e520ec806b084","C3","batch3","","323","tol_toboard","","","","tol_peg_2","323","323","0","[[1,0,0],[2,0],[3]]","2","[[3,1,0],[2,0],[0]]","16","0","","","","","","5","","","","","","","","",""
"","","","","","single-stim-button","245","547879","0.0-2.0-59.2-0.2","5e850b0e390e520ec806b084","C3","batch3","","299","tol_tohand","","","","tol_peg_1","299","299","0","[[0,0,0],[2,0],[3]]","3","[[3,1,0],[2,0],[0]]","16","0","","","","","","5","","","","","","","","",""
"","","","","","single-stim-button","246","548400","0.0-2.0-59.2-1.2","5e850b0e390e520ec806b084","C3","batch3","","521","tol_toboard","","","","tol_peg_2","521","521","0","[[0,0,0],[2,1],[3]]","3","[[3,1,0],[2,0],[0]]","16","0","","","","","","5","","","","","","","","",""
"","","","","","single-stim-button","247","549208","0.0-2.0-59.3-0.3","5e850b0e390e520ec806b084","C3","batch3","","807","tol_tohand","","","","tol_peg_3","807","807","0","[[0,0,0],[2,1],[0]]","4","[[3,1,0],[2,0],[0]]","16","0","","","","","","5","","","","","","","","",""
"","","","","","single-stim-button","248","549911","0.0-2.0-59.3-1.3","5e850b0e390e520ec806b084","C3","batch3","","702","tol_toboard","","","","tol_peg_1","702","702","0","[[3,0,0],[2,1],[0]]","4","[[3,1,0],[2,0],[0]]","16","0","","","","","","5","","","","","","","","",""
"","","","","","single-stim-button","249","550224","0.0-2.0-59.4-0.4","5e850b0e390e520ec806b084","C3","batch3","","312","tol_tohand","","","","tol_peg_2","312","312","0","[[3,0,0],[2,0],[0]]","5","[[3,1,0],[2,0],[0]]","16","0","","","","","","5","","","","","","","","",""
"","","","","","single-stim-button","250","550568","0.0-2.0-59.4-1.4","5e850b0e390e520ec806b084","C3","batch3","","344","tol_toboard","","","","tol_peg_1","344","344","0","[[3,1,0],[2,0],[0]]","5","[[3,1,0],[2,0],[0]]","16","0","","","","","","5","","","","","","","","",""
"","","","","","poldrack-single-stim","251","551647","0.0-2.0-60.0","5e850b0e390e520ec806b084","C3","batch3","","-1","tol_feedback","","","true","","1000","1000","500","","","","","","-1","none","true","6413","8243","","","","","","","","","",""
"","","","","","html-button-response","252","552753","0.0-2.0-61.0","5e850b0e390e520ec806b084","C3","batch3","","1106.0999999046326","tol_trial_num","<div class = centerbox><p class = center-block-text>problem <strong>18</strong> out of 25 problems</p></div>","0","","","","","","","","","","","","","","","","","","","","","","","","",""
"","","","","","single-stim-button","253","559867","0.0-2.0-62.0-0.0","5e850b0e390e520ec806b084","C3","batch3","","7112","tol_tohand","","","","tol_peg_2","7112","7112","0","[[1,2,0],[0,0],[0]]","1","[[3,0,0],[2,0],[1]]","17","0","","","","","","5","","","","","","","","",""
"","","","","","single-stim-button","254","560509","0.0-2.0-62.0-1.0","5e850b0e390e520ec806b084","C3","batch3","","641","tol_toboard","","","","tol_peg_3","641","641","0","[[1,2,0],[0,0],[3]]","1","[[3,0,0],[2,0],[1]]","17","0","","","","","","5","","","","","","","","",""
"","","","","","single-stim-button","255","561044","0.0-2.0-62.1-0.1","5e850b0e390e520ec806b084","C3","batch3","","535","tol_tohand","","","","tol_peg_1","535","535","0","[[1,0,0],[0,0],[3]]","2","[[3,0,0],[2,0],[1]]","17","0","","","","","","5","","","","","","","","",""
"","","","","","single-stim-button","256","561578","0.0-2.0-62.1-1.1","5e850b0e390e520ec806b084","C3","batch3","","533","tol_toboard","","","","tol_peg_2","533","533","0","[[1,0,0],[2,0],[3]]","2","[[3,0,0],[2,0],[1]]","17","0","","","","","","5","","","","","","","","",""
"","","","","","single-stim-button","257","562344","0.0-2.0-62.2-0.2","5e850b0e390e520ec806b084","C3","batch3","","766","tol_tohand","","","","tol_peg_1","766","766","0","[[0,0,0],[2,0],[3]]","3","[[3,0,0],[2,0],[1]]","17","0","","","","","","5","","","","","","","","",""
"","","","","","single-stim-button","258","562658","0.0-2.0-62.2-1.2","5e850b0e390e520ec806b084","C3","batch3","","314","tol_toboard","","","","tol_peg_2","314","314","0","[[0,0,0],[2,1],[3]]","3","[[3,0,0],[2,0],[1]]","17","0","","","","","","5","","","","","","","","",""
"","","","","","single-stim-button","259","562967","0.0-2.0-62.3-0.3","5e850b0e390e520ec806b084","C3","batch3","","308","tol_tohand","","","","tol_peg_3","308","308","0","[[0,0,0],[2,1],[0]]","4","[[3,0,0],[2,0],[1]]","17","0","","","","","","5","","","","","","","","",""
"","","","","","single-stim-button","260","563427","0.0-2.0-62.3-1.3","5e850b0e390e520ec806b084","C3","batch3","","459","tol_toboard","","","","tol_peg_1","459","459","0","[[3,0,0],[2,1],[0]]","4","[[3,0,0],[2,0],[1]]","17","0","","","","","","5","","","","","","","","",""
"","","","","","single-stim-button","261","563707","0.0-2.0-62.4-0.4","5e850b0e390e520ec806b084","C3","batch3","","279","tol_tohand","","","","tol_peg_2","279","279","0","[[3,0,0],[2,0],[0]]","5","[[3,0,0],[2,0],[1]]","17","0","","","","","","5","","","","","","","","",""
"","","","","","single-stim-button","262","564012","0.0-2.0-62.4-1.4","5e850b0e390e520ec806b084","C3","batch3","","305","tol_toboard","","","","tol_peg_3","305","305","0","[[3,0,0],[2,0],[1]]","5","[[3,0,0],[2,0],[1]]","17","0","","","","","","5","","","","","","","","",""
"","","","","","poldrack-single-stim","263","565648","0.0-2.0-63.0","5e850b0e390e520ec806b084","C3","batch3","","-1","tol_feedback","","","true","","1000","1000","500","","","","","","-1","none","true","7112","9000","","","","","","","","","",""
"","","","","","html-button-response","264","566888","0.0-2.0-64.0","5e850b0e390e520ec806b084","C3","batch3","","1240.2000000476837","tol_trial_num","<div class = centerbox><p class = center-block-text>problem <strong>19</strong> out of 25 problems</p></div>","0","","","","","","","","","","","","","","","","","","","","","","","","",""
"","","","","","single-stim-button","265","581132","0.0-2.0-65.0-0.0","5e850b0e390e520ec806b084","C3","batch3","","14242","tol_tohand","","","","tol_peg_1","14242","14242","0","[[1,0,0],[3,0],[0]]","1","[[0,0,0],[1,2],[3]]","18","0","","","","","","7","","","","","","","","",""
"","","","","","single-stim-button","266","585272","0.0-2.0-65.0-1.0","5e850b0e390e520ec806b084","C3","batch3","","4140","tol_toboard","","","","tol_peg_3","4140","4140","0","[[1,0,0],[3,0],[2]]","1","[[0,0,0],[1,2],[3]]","18","0","","","","","","7","","","","","","","","",""
"","","","","","single-stim-button","267","587139","0.0-2.0-65.1-0.1","5e850b0e390e520ec806b084","C3","batch3","","1866","tol_tohand","","","","tol_peg_1","1866","1866","0","[[0,0,0],[3,0],[2]]","2","[[0,0,0],[1,2],[3]]","18","0","","","","","","7","","","","","","","","",""
"","","","","","single-stim-button","268","590982","0.0-2.0-65.1-1.1","5e850b0e390e520ec806b084","C3","batch3","","3843","tol_toboard","","","","tol_peg_2","3843","3843","0","[[0,0,0],[3,1],[2]]","2","[[0,0,0],[1,2],[3]]","18","0","","","","","","7","","","","","","","","",""
"","","","","","single-stim-button","269","591502","0.0-2.0-65.2-0.2","5e850b0e390e520ec806b084","C3","batch3","","519","tol_tohand","","","","tol_peg_3","519","519","0","[[0,0,0],[3,1],[0]]","3","[[0,0,0],[1,2],[3]]","18","0","","","","","","7","","","","","","","","",""
"","","","","","single-stim-button","270","592390","0.0-2.0-65.2-1.2","5e850b0e390e520ec806b084","C3","batch3","","888","tol_toboard","","","","tol_peg_1","888","888","0","[[2,0,0],[3,1],[0]]","3","[[0,0,0],[1,2],[3]]","18","0","","","","","","7","","","","","","","","",""
"","","","","","single-stim-button","271","593210","0.0-2.0-65.3-0.3","5e850b0e390e520ec806b084","C3","batch3","","819","tol_tohand","","","","tol_peg_2","819","819","0","[[2,0,0],[3,0],[0]]","4","[[0,0,0],[1,2],[3]]","18","0","","","","","","7","","","","","","","","",""
"","","","","","single-stim-button","272","593693","0.0-2.0-65.3-1.3","5e850b0e390e520ec806b084","C3","batch3","","483","tol_toboard","","","","tol_peg_1","483","483","0","[[2,1,0],[3,0],[0]]","4","[[0,0,0],[1,2],[3]]","18","0","","","","","","7","","","","","","","","",""
"","","","","","single-stim-button","273","594119","0.0-2.0-65.4-0.4","5e850b0e390e520ec806b084","C3","batch3","","425","tol_tohand","","","","tol_peg_2","425","425","0","[[2,1,0],[0,0],[0]]","5","[[0,0,0],[1,2],[3]]","18","0","","","","","","7","","","","","","","","",""
"","","","","","single-stim-button","274","594546","0.0-2.0-65.4-1.4","5e850b0e390e520ec806b084","C3","batch3","","426","tol_toboard","","","","tol_peg_3","426","426","0","[[2,1,0],[0,0],[3]]","5","[[0,0,0],[1,2],[3]]","18","0","","","","","","7","","","","","","","","",""
"","","","","","single-stim-button","275","595210","0.0-2.0-65.5-0.5","5e850b0e390e520ec806b084","C3","batch3","","663","tol_tohand","","","","tol_peg_1","663","663","0","[[2,0,0],[0,0],[3]]","6","[[0,0,0],[1,2],[3]]","18","0","","","","","","7","","","","","","","","",""
"","","","","","single-stim-button","276","595542","0.0-2.0-65.5-1.5","5e850b0e390e520ec806b084","C3","batch3","","332","tol_toboard","","","","tol_peg_2","332","332","0","[[2,0,0],[1,0],[3]]","6","[[0,0,0],[1,2],[3]]","18","0","","","","","","7","","","","","","","","",""
"","","","","","single-stim-button","277","595887","0.0-2.0-65.6-0.6","5e850b0e390e520ec806b084","C3","batch3","","344","tol_tohand","","","","tol_peg_1","344","344","0","[[0,0,0],[1,0],[3]]","7","[[0,0,0],[1,2],[3]]","18","0","","","","","","7","","","","","","","","",""
"","","","","","single-stim-button","278","596206","0.0-2.0-65.6-1.6","5e850b0e390e520ec806b084","C3","batch3","","318","tol_toboard","","","","tol_peg_2","318","318","0","[[0,0,0],[1,2],[3]]","7","[[0,0,0],[1,2],[3]]","18","0","","","","","","7","","","","","","","","",""
"","","","","","poldrack-single-stim","279","597207","0.0-2.0-66.0","5e850b0e390e520ec806b084","C3","batch3","","-1","tol_feedback","","","true","","1000","1000","500","","","","","","-1","none","true","14242","18878","","","","","","","","","",""
"","","","","","html-button-response","280","597893","0.0-2.0-67.0","5e850b0e390e520ec806b084","C3","batch3","","686.2000000476837","tol_trial_num","<div class = centerbox><p class = center-block-text>problem <strong>20</strong> out of 25 problems</p></div>","0","","","","","","","","","","","","","","","","","","","","","","","","",""
"","","","","","single-stim-button","281","607213","0.0-2.0-68.0-0.0","5e850b0e390e520ec806b084","C3","batch3","","9319","tol_tohand","","","","tol_peg_1","9319","9319","0","[[1,0,0],[3,0],[0]]","1","[[2,1,0],[0,0],[3]]","19","0","","","","","","5","","","","","","","","",""
"","","","","","single-stim-button","282","607669","0.0-2.0-68.0-1.0","5e850b0e390e520ec806b084","C3","batch3","","456","tol_toboard","","","","tol_peg_3","456","456","0","[[1,0,0],[3,0],[2]]","1","[[2,1,0],[0,0],[3]]","19","0","","","","","","5","","","","","","","","",""
"","","","","","single-stim-button","283","608044","0.0-2.0-68.1-0.1","5e850b0e390e520ec806b084","C3","batch3","","375","tol_tohand","","","","tol_peg_1","375","375","0","[[0,0,0],[3,0],[2]]","2","[[2,1,0],[0,0],[3]]","19","0","","","","","","5","","","","","","","","",""
"","","","","","single-stim-button","284","608525","0.0-2.0-68.1-1.1","5e850b0e390e520ec806b084","C3","batch3","","481","tol_toboard","","","","tol_peg_2","481","481","0","[[0,0,0],[3,1],[2]]","2","[[2,1,0],[0,0],[3]]","19","0","","","","","","5","","","","","","","","",""
"","","","","","single-stim-button","285","608840","0.0-2.0-68.2-0.2","5e850b0e390e520ec806b084","C3","batch3","","315","tol_tohand","","","","tol_peg_3","315","315","0","[[0,0,0],[3,1],[0]]","3","[[2,1,0],[0,0],[3]]","19","0","","","","","","5","","","","","","","","",""
"","","","","","single-stim-button","286","609606","0.0-2.0-68.2-1.2","5e850b0e390e520ec806b084","C3","batch3","","766","tol_toboard","","","","tol_peg_1","766","766","0","[[2,0,0],[3,1],[0]]","3","[[2,1,0],[0,0],[3]]","19","0","","","","","","5","","","","","","","","",""
"","","","","","single-stim-button","287","610239","0.0-2.0-68.3-0.3","5e850b0e390e520ec806b084","C3","batch3","","631","tol_tohand","","","","tol_peg_2","631","631","0","[[2,0,0],[3,0],[0]]","4","[[2,1,0],[0,0],[3]]","19","0","","","","","","5","","","","","","","","",""
"","","","","","single-stim-button","288","610848","0.0-2.0-68.3-1.3","5e850b0e390e520ec806b084","C3","batch3","","609","tol_toboard","","","","tol_peg_1","609","609","0","[[2,1,0],[3,0],[0]]","4","[[2,1,0],[0,0],[3]]","19","0","","","","","","5","","","","","","","","",""
"","","","","","single-stim-button","289","612155","0.0-2.0-68.4-0.4","5e850b0e390e520ec806b084","C3","batch3","","1307","tol_tohand","","","","tol_peg_2","1307","1307","0","[[2,1,0],[0,0],[0]]","5","[[2,1,0],[0,0],[3]]","19","0","","","","","","5","","","","","","","","",""
"","","","","","single-stim-button","290","612719","0.0-2.0-68.4-1.4","5e850b0e390e520ec806b084","C3","batch3","","564","tol_toboard","","","","tol_peg_3","564","564","0","[[2,1,0],[0,0],[3]]","5","[[2,1,0],[0,0],[3]]","19","0","","","","","","5","","","","","","","","",""
"","","","","","poldrack-single-stim","291","613719","0.0-2.0-69.0","5e850b0e390e520ec806b084","C3","batch3","","-1","tol_feedback","","","true","","1000","1000","500","","","","","","-1","none","true","9319","11947","","","","","","","","","",""
"","","","","","html-button-response","292","793040","0.0-2.0-70.0","5e850b0e390e520ec806b084","C3","batch3","","179321.09999990463","tol_trial_num","<div class = centerbox><p class = center-block-text>problem <strong>21</strong> out of 25 problems</p></div>","0","","","","","","","","","","","","","","","","","","","","","","","","",""
"","","","","","single-stim-button","293","800104","0.0-2.0-71.0-0.0","5e850b0e390e520ec806b084","C3","batch3","","7063","tol_tohand","","","","tol_peg_1","7063","7063","0","[[1,0,0],[3,0],[0]]","1","[[3,2,0],[0,0],[1]]","20","0","","","","","","6","","","","","","","","",""
"","","","","","single-stim-button","294","800650","0.0-2.0-71.0-1.0","5e850b0e390e520ec806b084","C3","batch3","","545","tol_toboard","","","","tol_peg_2","545","545","0","[[1,0,0],[3,2],[0]]","1","[[3,2,0],[0,0],[1]]","20","0","","","","","","6","","","","","","","","",""
"","","","","","single-stim-button","295","801014","0.0-2.0-71.1-0.1","5e850b0e390e520ec806b084","C3","batch3","","363","tol_tohand","","","","tol_peg_1","363","363","0","[[0,0,0],[3,2],[0]]","2","[[3,2,0],[0,0],[1]]","20","0","","","","","","6","","","","","","","","",""
"","","","","","single-stim-button","296","804736","0.0-2.0-71.1-1.1","5e850b0e390e520ec806b084","C3","batch3","","3722","tol_toboard","","","","tol_peg_3","3722","3722","0","[[0,0,0],[3,2],[1]]","2","[[3,2,0],[0,0],[1]]","20","0","","","","","","6","","","","","","","","",""
"","","","","","single-stim-button","297","807520","0.0-2.0-71.2-0.2","5e850b0e390e520ec806b084","C3","batch3","","2784","tol_tohand","","","","tol_peg_2","2784","2784","0","[[0,0,0],[3,0],[1]]","3","[[3,2,0],[0,0],[1]]","20","0","","","","","","6","","","","","","","","",""
"","","","","","single-stim-button","298","808703","0.0-2.0-71.2-1.2","5e850b0e390e520ec806b084","C3","batch3","","1183","tol_toboard","","","","tol_peg_1","1183","1183","0","[[2,0,0],[3,0],[1]]","3","[[3,2,0],[0,0],[1]]","20","0","","","","","","6","","","","","","","","",""
"","","","","","single-stim-button","299","809166","0.0-2.0-71.3-0.3","5e850b0e390e520ec806b084","C3","batch3","","463","tol_tohand","","","","tol_peg_2","463","463","0","[[2,0,0],[0,0],[1]]","4","[[3,2,0],[0,0],[1]]","20","0","","","","","","6","","","","","","","","",""
"","","","","","single-stim-button","300","809502","0.0-2.0-71.3-1.3","5e850b0e390e520ec806b084","C3","batch3","","336","tol_toboard","","","","tol_peg_1","336","336","0","[[2,3,0],[0,0],[1]]","4","[[3,2,0],[0,0],[1]]","20","0","","","","","","6","","","","","","","","",""
"","","","","","single-stim-button","301","809922","0.0-2.0-71.4-0.4","5e850b0e390e520ec806b084","C3","batch3","","419","tol_tohand","","","","tol_peg_3","419","419","0","[[2,3,0],[0,0],[0]]","5","[[3,2,0],[0,0],[1]]","20","0","","","","","","6","","","","","","","","",""
"","","","","","single-stim-button","302","810570","0.0-2.0-71.4-1.4","5e850b0e390e520ec806b084","C3","batch3","","647","tol_toboard","","","","tol_peg_2","647","647","0","[[2,3,0],[1,0],[0]]","5","[[3,2,0],[0,0],[1]]","20","0","","","","","","6","","","","","","","","",""
"","","","","","single-stim-button","303","812573","0.0-2.0-71.5-0.5","5e850b0e390e520ec806b084","C3","batch3","","2003","tol_tohand","","","","tol_peg_2","2003","2003","0","[[2,3,0],[0,0],[0]]","6","[[3,2,0],[0,0],[1]]","20","0","","","","","","6","","","","","","","","",""
"","","","","","single-stim-button","304","813068","0.0-2.0-71.5-1.5","5e850b0e390e520ec806b084","C3","batch3","","494","tol_toboard","","","","tol_peg_3","494","494","0","[[2,3,0],[0,0],[1]]","6","[[3,2,0],[0,0],[1]]","20","0","","","","","","6","","","","","","","","",""
"","","","","","single-stim-button","305","814224","0.0-2.0-71.6-0.6","5e850b0e390e520ec806b084","C3","batch3","","1156","tol_tohand","","","","tol_peg_3","1156","1156","0","[[2,3,0],[0,0],[0]]","7","[[3,2,0],[0,0],[1]]","20","0","","","","","","6","","","","","","","","",""
"","","","","","single-stim-button","306","814542","0.0-2.0-71.6-1.6","5e850b0e390e520ec806b084","C3","batch3","","317","tol_toboard","","","","tol_peg_2","317","317","0","[[2,3,0],[1,0],[0]]","7","[[3,2,0],[0,0],[1]]","20","0","","","","","","6","","","","","","","","",""
"","","","","","single-stim-button","307","814903","0.0-2.0-71.7-0.7","5e850b0e390e520ec806b084","C3","batch3","","360","tol_tohand","","","","tol_peg_1","360","360","0","[[2,0,0],[1,0],[0]]","8","[[3,2,0],[0,0],[1]]","20","0","","","","","","6","","","","","","","","",""
"","","","","","single-stim-button","308","815300","0.0-2.0-71.7-1.7","5e850b0e390e520ec806b084","C3","batch3","","397","tol_toboard","","","","tol_peg_3","397","397","0","[[2,0,0],[1,0],[3]]","8","[[3,2,0],[0,0],[1]]","20","0","","","","","","6","","","","","","","","",""
"","","","","","single-stim-button","309","816128","0.0-2.0-71.8-0.8","5e850b0e390e520ec806b084","C3","batch3","","827","tol_tohand","","","","tol_peg_1","827","827","0","[[0,0,0],[1,0],[3]]","9","[[3,2,0],[0,0],[1]]","20","0","","","","","","6","","","","","","","","",""
"","","","","","single-stim-button","310","816490","0.0-2.0-71.8-1.8","5e850b0e390e520ec806b084","C3","batch3","","360","tol_toboard","","","","tol_peg_2","360","360","0","[[0,0,0],[1,2],[3]]","9","[[3,2,0],[0,0],[1]]","20","0","","","","","","6","","","","","","","","",""
"","","","","","single-stim-button","311","816785","0.0-2.0-71.9-0.9","5e850b0e390e520ec806b084","C3","batch3","","295","tol_tohand","","","","tol_peg_3","295","295","0","[[0,0,0],[1,2],[0]]","10","[[3,2,0],[0,0],[1]]","20","0","","","","","","6","","","","","","","","",""
"","","","","","single-stim-button","312","817192","0.0-2.0-71.9-1.9","5e850b0e390e520ec806b084","C3","batch3","","407","tol_toboard","","","","tol_peg_1","407","407","0","[[3,0,0],[1,2],[0]]","10","[[3,2,0],[0,0],[1]]","20","0","","","","","","6","","","","","","","","",""
"","","","","","single-stim-button","313","817496","0.0-2.0-71.10-0.10","5e850b0e390e520ec806b084","C3","batch3","","304","tol_tohand","","","","tol_peg_2","304","304","0","[[3,0,0],[1,0],[0]]","11","[[3,2,0],[0,0],[1]]","20","0","","","","","","6","","","","","","","","",""
"","","","","","single-stim-button","314","817748","0.0-2.0-71.10-1.10","5e850b0e390e520ec806b084","C3","batch3","","251","tol_toboard","","","","tol_peg_1","251","251","0","[[3,2,0],[1,0],[0]]","11","[[3,2,0],[0,0],[1]]","20","0","","","","","","6","","","","","","","","",""
"","","","","","single-stim-button","315","819327","0.0-2.0-71.11-0.11","5e850b0e390e520ec806b084","C3","batch3","","1579","tol_tohand","","","","tol_peg_2","1579","1579","0","[[3,2,0],[0,0],[0]]","12","[[3,2,0],[0,0],[1]]","20","0","","","","","","6","","","","","","","","",""
"","","","","","single-stim-button","316","819672","0.0-2.0-71.11-1.11","5e850b0e390e520ec806b084","C3","batch3","","344","tol_toboard","","","","tol_peg_3","344","344","0","[[3,2,0],[0,0],[1]]","12","[[3,2,0],[0,0],[1]]","20","0","","","","","","6","","","","","","","","",""
"","","","","","poldrack-single-stim","317","820672","0.0-2.0-72.0","5e850b0e390e520ec806b084","C3","batch3","","-1","tol_feedback","","","true","","1000","1000","500","","","","","","-1","none","true","7063","17616","","","","","","","","","",""
"","","","","","html-button-response","318","821554","0.0-2.0-73.0","5e850b0e390e520ec806b084","C3","batch3","","881","tol_trial_num","<div class = centerbox><p class = center-block-text>problem <strong>22</strong> out of 25 problems</p></div>","0","","","","","","","","","","","","","","","","","","","","","","","","",""
"","","","","","single-stim-button","319","878522","0.0-2.0-74.0-0.0","5e850b0e390e520ec806b084","C3","batch3","","56967","tol_tohand","","","","tol_peg_2","56967","56967","0","[[1,0,0],[2,0],[0]]","1","[[0,0,0],[1,2],[3]]","21","0","","","","","","6","","","","","","","","",""
"","","","","","single-stim-button","320","878969","0.0-2.0-74.0-1.0","5e850b0e390e520ec806b084","C3","batch3","","447","tol_toboard","","","","tol_peg_1","447","447","0","[[1,3,0],[2,0],[0]]","1","[[0,0,0],[1,2],[3]]","21","0","","","","","","6","","","","","","","","",""
"","","","","","single-stim-button","321","879506","0.0-2.0-74.1-0.1","5e850b0e390e520ec806b084","C3","batch3","","537","tol_tohand","","","","tol_peg_2","537","537","0","[[1,3,0],[0,0],[0]]","2","[[0,0,0],[1,2],[3]]","21","0","","","","","","6","","","","","","","","",""
"","","","","","single-stim-button","322","880008","0.0-2.0-74.1-1.1","5e850b0e390e520ec806b084","C3","batch3","","502","tol_toboard","","","","tol_peg_3","502","502","0","[[1,3,0],[0,0],[2]]","2","[[0,0,0],[1,2],[3]]","21","0","","","","","","6","","","","","","","","",""
"","","","","","single-stim-button","323","881119","0.0-2.0-74.2-0.2","5e850b0e390e520ec806b084","C3","batch3","","1111","tol_tohand","","","","tol_peg_1","1111","1111","0","[[1,0,0],[0,0],[2]]","3","[[0,0,0],[1,2],[3]]","21","0","","","","","","6","","","","","","","","",""
"","","","","","single-stim-button","324","884856","0.0-2.0-74.2-1.2","5e850b0e390e520ec806b084","C3","batch3","","3737","tol_toboard","","","","tol_peg_2","3737","3737","0","[[1,0,0],[3,0],[2]]","3","[[0,0,0],[1,2],[3]]","21","0","","","","","","6","","","","","","","","",""
"","","","","","single-stim-button","325","888455","0.0-2.0-74.3-0.3","5e850b0e390e520ec806b084","C3","batch3","","3599","tol_tohand","","","","tol_peg_3","3599","3599","0","[[1,0,0],[3,0],[0]]","4","[[0,0,0],[1,2],[3]]","21","0","","","","","","6","","","","","","","","",""
"","","","","","single-stim-button","326","889065","0.0-2.0-74.3-1.3","5e850b0e390e520ec806b084","C3","batch3","","610","tol_toboard","","","","tol_peg_1","610","610","0","[[1,2,0],[3,0],[0]]","4","[[0,0,0],[1,2],[3]]","21","0","","","","","","6","","","","","","","","",""
"","","","","","single-stim-button","327","890635","0.0-2.0-74.4-0.4","5e850b0e390e520ec806b084","C3","batch3","","1570","tol_tohand","","","","tol_peg_2","1570","1570","0","[[1,2,0],[0,0],[0]]","5","[[0,0,0],[1,2],[3]]","21","0","","","","","","6","","","","","","","","",""
"","","","","","single-stim-button","328","891983","0.0-2.0-74.4-1.4","5e850b0e390e520ec806b084","C3","batch3","","1348","tol_toboard","","","","tol_peg_2","1348","1348","0","[[1,2,0],[3,0],[0]]","5","[[0,0,0],[1,2],[3]]","21","0","","","","","","6","","","","","","","","",""
"","","","","","single-stim-button","329","892420","0.0-2.0-74.5-0.5","5e850b0e390e520ec806b084","C3","batch3","","436","tol_tohand","","","","tol_peg_1","436","436","0","[[1,0,0],[3,0],[0]]","6","[[0,0,0],[1,2],[3]]","21","0","","","","","","6","","","","","","","","",""
"","","","","","single-stim-button","330","893869","0.0-2.0-74.5-1.5","5e850b0e390e520ec806b084","C3","batch3","","1449","tol_toboard","","","","tol_peg_3","1449","1449","0","[[1,0,0],[3,0],[2]]","6","[[0,0,0],[1,2],[3]]","21","0","","","","","","6","","","","","","","","",""
"","","","","","single-stim-button","331","894268","0.0-2.0-74.6-0.6","5e850b0e390e520ec806b084","C3","batch3","","399","tol_tohand","","","","tol_peg_1","399","399","0","[[0,0,0],[3,0],[2]]","7","[[0,0,0],[1,2],[3]]","21","0","","","","","","6","","","","","","","","",""
"","","","","","single-stim-button","332","894655","0.0-2.0-74.6-1.6","5e850b0e390e520ec806b084","C3","batch3","","386","tol_toboard","","","","tol_peg_2","386","386","0","[[0,0,0],[3,1],[2]]","7","[[0,0,0],[1,2],[3]]","21","0","","","","","","6","","","","","","","","",""
"","","","","","single-stim-button","333","895241","0.0-2.0-74.7-0.7","5e850b0e390e520ec806b084","C3","batch3","","585","tol_tohand","","","","tol_peg_3","585","585","0","[[0,0,0],[3,1],[0]]","8","[[0,0,0],[1,2],[3]]","21","0","","","","","","6","","","","","","","","",""
"","","","","","single-stim-button","334","895694","0.0-2.0-74.7-1.7","5e850b0e390e520ec806b084","C3","batch3","","453","tol_toboard","","","","tol_peg_1","453","453","0","[[2,0,0],[3,1],[0]]","8","[[0,0,0],[1,2],[3]]","21","0","","","","","","6","","","","","","","","",""
"","","","","","single-stim-button","335","896105","0.0-2.0-74.8-0.8","5e850b0e390e520ec806b084","C3","batch3","","411","tol_tohand","","","","tol_peg_2","411","411","0","[[2,0,0],[3,0],[0]]","9","[[0,0,0],[1,2],[3]]","21","0","","","","","","6","","","","","","","","",""
"","","","","","single-stim-button","336","896490","0.0-2.0-74.8-1.8","5e850b0e390e520ec806b084","C3","batch3","","385","tol_toboard","","","","tol_peg_1","385","385","0","[[2,1,0],[3,0],[0]]","9","[[0,0,0],[1,2],[3]]","21","0","","","","","","6","","","","","","","","",""
"","","","","","single-stim-button","337","896835","0.0-2.0-74.9-0.9","5e850b0e390e520ec806b084","C3","batch3","","344","tol_tohand","","","","tol_peg_2","344","344","0","[[2,1,0],[0,0],[0]]","10","[[0,0,0],[1,2],[3]]","21","0","","","","","","6","","","","","","","","",""
"","","","","","single-stim-button","338","897189","0.0-2.0-74.9-1.9","5e850b0e390e520ec806b084","C3","batch3","","354","tol_toboard","","","","tol_peg_3","354","354","0","[[2,1,0],[0,0],[3]]","10","[[0,0,0],[1,2],[3]]","21","0","","","","","","6","","","","","","","","",""
"","","","","","single-stim-button","339","897675","0.0-2.0-74.10-0.10","5e850b0e390e520ec806b084","C3","batch3","","486","tol_tohand","","","","tol_peg_1","486","486","0","[[2,0,0],[0,0],[3]]","11","[[0,0,0],[1,2],[3]]","21","0","","","","","","6","","","","","","","","",""
"","","","","","single-stim-button","340","898015","0.0-2.0-74.10-1.10","5e850b0e390e520ec806b084","C3","batch3","","340","tol_toboard","","","","tol_peg_2","340","340","0","[[2,0,0],[1,0],[3]]","11","[[0,0,0],[1,2],[3]]","21","0","","","","","","6","","","","","","","","",""
"","","","","","single-stim-button","341","898618","0.0-2.0-74.11-0.11","5e850b0e390e520ec806b084","C3","batch3","","603","tol_tohand","","","","tol_peg_1","603","603","0","[[0,0,0],[1,0],[3]]","12","[[0,0,0],[1,2],[3]]","21","0","","","","","","6","","","","","","","","",""
"","","","","","single-stim-button","342","898999","0.0-2.0-74.11-1.11","5e850b0e390e520ec806b084","C3","batch3","","381","tol_toboard","","","","tol_peg_2","381","381","0","[[0,0,0],[1,2],[3]]","12","[[0,0,0],[1,2],[3]]","21","0","","","","","","6","","","","","","","","",""
"","","","","","poldrack-single-stim","343","900001","0.0-2.0-75.0","5e850b0e390e520ec806b084","C3","batch3","","-1","tol_feedback","","","true","","1000","1000","500","","","","","","-1","none","true","56967","67048","","","","","","","","","",""
"","","","","","html-button-response","344","901869","0.0-2.0-76.0","5e850b0e390e520ec806b084","C3","batch3","","1868","tol_trial_num","<div class = centerbox><p class = center-block-text>problem <strong>23</strong> out of 25 problems</p></div>","0","","","","","","","","","","","","","","","","","","","","","","","","",""
"","","","","","single-stim-button","345","906588","0.0-2.0-77.0-0.0","5e850b0e390e520ec806b084","C3","batch3","","4718","tol_tohand","","","","tol_peg_2","4718","4718","0","[[1,2,0],[0,0],[0]]","1","[[1,3,2],[0,0],[0]]","22","0","","","","","","3","","","","","","","","",""
"","","","","","single-stim-button","346","906984","0.0-2.0-77.0-1.0","5e850b0e390e520ec806b084","C3","batch3","","395","tol_toboard","","","","tol_peg_3","395","395","0","[[1,2,0],[0,0],[3]]","1","[[1,3,2],[0,0],[0]]","22","0","","","","","","3","","","","","","","","",""
"","","","","","single-stim-button","347","907426","0.0-2.0-77.1-0.1","5e850b0e390e520ec806b084","C3","batch3","","442","tol_tohand","","","","tol_peg_1","442","442","0","[[1,0,0],[0,0],[3]]","2","[[1,3,2],[0,0],[0]]","22","0","","","","","","3","","","","","","","","",""
"","","","","","single-stim-button","348","907780","0.0-2.0-77.1-1.1","5e850b0e390e520ec806b084","C3","batch3","","354","tol_toboard","","","","tol_peg_2","354","354","0","[[1,0,0],[2,0],[3]]","2","[[1,3,2],[0,0],[0]]","22","0","","","","","","3","","","","","","","","",""
"","","","","","single-stim-button","349","908240","0.0-2.0-77.2-0.2","5e850b0e390e520ec806b084","C3","batch3","","460","tol_tohand","","","","tol_peg_1","460","460","0","[[0,0,0],[2,0],[3]]","3","[[1,3,2],[0,0],[0]]","22","0","","","","","","3","","","","","","","","",""
"","","","","","single-stim-button","350","908639","0.0-2.0-77.2-1.2","5e850b0e390e520ec806b084","C3","batch3","","399","tol_toboard","","","","tol_peg_2","399","399","0","[[0,0,0],[2,1],[3]]","3","[[1,3,2],[0,0],[0]]","22","0","","","","","","3","","","","","","","","",""
"","","","","","single-stim-button","351","909957","0.0-2.0-77.3-0.3","5e850b0e390e520ec806b084","C3","batch3","","1318","tol_tohand","","","","tol_peg_2","1318","1318","0","[[0,0,0],[2,0],[3]]","4","[[1,3,2],[0,0],[0]]","22","0","","","","","","3","","","","","","","","",""
"","","","","","single-stim-button","352","910287","0.0-2.0-77.3-1.3","5e850b0e390e520ec806b084","C3","batch3","","330","tol_toboard","","","","tol_peg_1","330","330","0","[[1,0,0],[2,0],[3]]","4","[[1,3,2],[0,0],[0]]","22","0","","","","","","3","","","","","","","","",""
"","","","","","single-stim-button","353","910683","0.0-2.0-77.4-0.4","5e850b0e390e520ec806b084","C3","batch3","","396","tol_tohand","","","","tol_peg_3","396","396","0","[[1,0,0],[2,0],[0]]","5","[[1,3,2],[0,0],[0]]","22","0","","","","","","3","","","","","","","","",""
"","","","","","single-stim-button","354","911427","0.0-2.0-77.4-1.4","5e850b0e390e520ec806b084","C3","batch3","","744","tol_toboard","","","","tol_peg_1","744","744","0","[[1,3,0],[2,0],[0]]","5","[[1,3,2],[0,0],[0]]","22","0","","","","","","3","","","","","","","","",""
"","","","","","single-stim-button","355","912043","0.0-2.0-77.5-0.5","5e850b0e390e520ec806b084","C3","batch3","","616","tol_tohand","","","","tol_peg_2","616","616","0","[[1,3,0],[0,0],[0]]","6","[[1,3,2],[0,0],[0]]","22","0","","","","","","3","","","","","","","","",""
"","","","","","single-stim-button","356","912649","0.0-2.0-77.5-1.5","5e850b0e390e520ec806b084","C3","batch3","","606","tol_toboard","","","","tol_peg_1","606","606","0","[[1,3,2],[0,0],[0]]","6","[[1,3,2],[0,0],[0]]","22","0","","","","","","3","","","","","","","","",""
