"success","timeout","failed_images","failed_audio","failed_video","trial_type","trial_index","time_elapsed","internal_node_id","subject_id","study_id","session_id","view_history","rt","stimulus","response","task","correct","answer","item","fiar_detect_rt","fiar_detect_correct","total_correct_fiar_detect","post_trial_gap","choices","mouse_click","stim_duration","block_duration","timing_post_trial","current_position","tol_num_moves_made","tol_target","tol_problem_id","tol_rt","key_press","possible_responses","tol_correct","preplanning","tol_rt_per_trial","tol_min_moves","spm_correct","spm_rt"
"true","false","[]","[]","[]","preload","0","1485","0.0-0.0","5e87b4d3e28032100ce68eec","C3","batch3","","","","","","","","","","","","","","","","","","","","","","","","","","","","","",""
"true","","","","","fullscreen","1","19965","0.0-1.0-0.0","5e87b4d3e28032100ce68eec","C3","batch3","","","","","","","","","","","","","","","","","","","","","","","","","","","","","",""
"true","","","","","fullscreen","2","25775","0.0-2.0-0.0","5e87b4d3e28032100ce68eec","C3","batch3","","","","","","","","","","","","","","","","","","","","","","","","","","","","","",""
"","","","","","instructions","3","63875","0.0-2.0-1.0-0.0","5e87b4d3e28032100ce68eec","C3","batch3","[{""page_index"":0,""viewing_time"":22699.100000023842},{""page_index"":1,""viewing_time"":15399}]","38098.5","","","","","","","","","","","","","","","","","","","","","","","","","","","",""
"","","","","","html-button-response","4","66025","0.0-2.0-1.0-1.0-0.0","5e87b4d3e28032100ce68eec","C3","batch3","","2148.399999976158","<p class=block-text> Let's answer a few questions <br>","0","pattern_enter_quiz","","","","","","","","","","","","","","","","","","","","","","","","",""
"","","","","","html-button-response","5","69601","0.0-2.0-1.0-1.0-1.0","5e87b4d3e28032100ce68eec","C3","batch3","","3573.400000035763","<p class = block-text>True or False: You will have as much time as you want to make each choice. <br></p>","1","pattern_quiz","true","","","","","","","","","","","","","","","","","","","","","","","",""
"","","","","","html-button-response","6","71850","0.0-2.0-1.0-1.0-2.0","5e87b4d3e28032100ce68eec","C3","batch3","","2247.199999988079","<p class = block-text>Correct! You should make your choice <strong> as fast as you can</strong>.</p>","0","pattern_quiz_feedback","","","","","","","","","","","","","","","","","","","","","","","","",""
"","","","","","html-button-response","7","82293","0.0-2.0-1.0-1.0-3.0","5e87b4d3e28032100ce68eec","C3","batch3","","10441.200000047684","<p class = block-text>True or False: You will look for 4 pieces in black or white color connected in a row either horizontally, vertically or diagonally. <br></p>","0","pattern_quiz","true","","","","","","","","","","","","","","","","","","","","","","","",""
"","","","","","html-button-response","8","83725","0.0-2.0-1.0-1.0-4.0","5e87b4d3e28032100ce68eec","C3","batch3","","1430.5999999642372","<p class = block-text>Correct! </p>","0","pattern_quiz_feedback","","","","","","","","","","","","","","","","","","","","","","","","",""
"","","","","","html-button-response","9","86922","0.0-2.0-2.0","5e87b4d3e28032100ce68eec","C3","batch3","","3194.100000023842","<p class=block-text> Now that you've understood the game, let's do a few practice trials before we start!<br> <br>","0","pattern_enter_practice","","","","","","","","","","","","","","","","","","","","","","","","",""
"","","","","","image-keyboard-response","10","89005","0.0-2.0-3.0-0.0","5e87b4d3e28032100ce68eec","C3","batch3","","2078.100000023842","stim/prac_no_18_1.png","j","pattern_practice","true","j","","","","","","","","","","","","","","","","","","","","","","",""
"","","","","","html-keyboard-response","11","90030","0.0-2.0-3.0-1.0","5e87b4d3e28032100ce68eec","C3","batch3","","null","<p style=""font-size:30px;color:green;"">Correct!</p>","null","pattern_feedback","","","","","","","","","","","","","","","","","","","","","","","","",""
"","","","","","image-keyboard-response","12","91327","0.0-2.0-3.0-0.1","5e87b4d3e28032100ce68eec","C3","batch3","","1295.1000000238419","stim/prac_no_16_1.png","j","pattern_practice","true","j","","","","","","","","","","","","","","","","","","","","","","",""
"","","","","","html-keyboard-response","13","92337","0.0-2.0-3.0-1.1","5e87b4d3e28032100ce68eec","C3","batch3","","null","<p style=""font-size:30px;color:green;"">Correct!</p>","null","pattern_feedback","","","","","","","","","","","","","","","","","","","","","","","","",""
"","","","","","image-keyboard-response","14","93483","0.0-2.0-3.0-0.2","5e87b4d3e28032100ce68eec","C3","batch3","","1143.800000011921","stim/prac_yes_16_ver_w1.png","f","pattern_practice","true","f","","","","","","","","","","","","","","","","","","","","","","",""
"","","","","","html-keyboard-response","15","94506","0.0-2.0-3.0-1.2","5e87b4d3e28032100ce68eec","C3","batch3","","null","<p style=""font-size:30px;color:green;"">Correct!</p>","null","pattern_feedback","","","","","","","","","","","","","","","","","","","","","","","","",""
"","","","","","image-keyboard-response","16","95683","0.0-2.0-3.0-0.3","5e87b4d3e28032100ce68eec","C3","batch3","","1175","stim/prac_yes_20_dia_b1.png","j","pattern_practice","false","f","","","","","","","","","","","","","","","","","","","","","","",""
"","","","","","html-keyboard-response","17","96696","0.0-2.0-3.0-1.3","5e87b4d3e28032100ce68eec","C3","batch3","","null","<p style=""font-size:30px;color:red;"">Wrong.</p>","null","pattern_feedback","","","","","","","","","","","","","","","","","","","","","","","","",""
"","","","","","image-keyboard-response","18","97628","0.0-2.0-3.0-0.4","5e87b4d3e28032100ce68eec","C3","batch3","","930.1000000238419","stim/prac_yes_18_hor_w1.png","f","pattern_practice","true","f","","","","","","","","","","","","","","","","","","","","","","",""
"","","","","","html-keyboard-response","19","98644","0.0-2.0-3.0-1.4","5e87b4d3e28032100ce68eec","C3","batch3","","null","<p style=""font-size:30px;color:green;"">Correct!</p>","null","pattern_feedback","","","","","","","","","","","","","","","","","","","","","","","","",""
"","","","","","html-button-response","20","105182","0.0-2.0-4.0","5e87b4d3e28032100ce68eec","C3","batch3","","6537","<p class=block-text> Good job! You are done with practice trials!<br>
        You responded correctly on 80% of the trials.<br>
        Press the button below to start official trials. Now you won't see any feedback about your response</p>","0","pattern_enter_official_trials","","","","","","","","","","","","","","","","","","","","","","","","",""
"","","","","","html-keyboard-response","21","105994","0.0-2.0-5.0-0.0","5e87b4d3e28032100ce68eec","C3","batch3","","null","<p class=block-text>Trial 1 out of 78</p>","null","pattern_show_trial_num","","","","","","","","","","","","","","","","","","","","","","","","",""
"","","","","","image-keyboard-response","22","107646","0.0-2.0-5.0-1.0","5e87b4d3e28032100ce68eec","C3","batch3","","1650","stim/no_30_1_b.png","j","pattern_response","true","j","pattern_13","1650","true","1","","","","","","","","","","","","","","","","","","",""
"","","","","","html-keyboard-response","23","108955","0.0-2.0-5.0-0.1","5e87b4d3e28032100ce68eec","C3","batch3","","null","<p class=block-text>Trial 2 out of 78</p>","null","pattern_show_trial_num","","","","","","","","","","","","","","","","","","","","","","","","",""
"","","","","","image-keyboard-response","24","110156","0.0-2.0-5.0-1.1","5e87b4d3e28032100ce68eec","C3","batch3","","1199.2999999523163","stim/no_15_1_w.png","j","pattern_response","true","j","pattern_03","1199.2999999523163","true","2","","","","","","","","","","","","","","","","","","",""
"","","","","","html-keyboard-response","25","111473","0.0-2.0-5.0-0.2","5e87b4d3e28032100ce68eec","C3","batch3","","null","<p class=block-text>Trial 3 out of 78</p>","null","pattern_show_trial_num","","","","","","","","","","","","","","","","","","","","","","","","",""
"","","","","","image-keyboard-response","26","112405","0.0-2.0-5.0-1.2","5e87b4d3e28032100ce68eec","C3","batch3","","930.3000000119209","stim/yes_36_ver_w1_w.png","f","pattern_response","true","f","pattern_58","930.3000000119209","true","3","","","","","","","","","","","","","","","","","","",""
"","","","","","html-keyboard-response","27","113721","0.0-2.0-5.0-0.3","5e87b4d3e28032100ce68eec","C3","batch3","","null","<p class=block-text>Trial 4 out of 78</p>","null","pattern_show_trial_num","","","","","","","","","","","","","","","","","","","","","","","","",""
"","","","","","image-keyboard-response","28","114886","0.0-2.0-5.0-1.3","5e87b4d3e28032100ce68eec","C3","batch3","","1164.199999988079","stim/no_12_1.png","j","pattern_response","true","j","pattern_01","1164.199999988079","true","4","","","","","","","","","","","","","","","","","","",""
"","","","","","html-keyboard-response","29","116191","0.0-2.0-5.0-0.4","5e87b4d3e28032100ce68eec","C3","batch3","","null","<p class=block-text>Trial 5 out of 78</p>","null","pattern_show_trial_num","","","","","","","","","","","","","","","","","","","","","","","","",""
"","","","","","image-keyboard-response","30","118059","0.0-2.0-5.0-1.4","5e87b4d3e28032100ce68eec","C3","batch3","","1865.800000011921","stim/yes_58_dia_w1_w.png","f","pattern_response","true","f","pattern_76","1865.800000011921","true","5","","","","","","","","","","","","","","","","","","",""
"","","","","","html-keyboard-response","31","119387","0.0-2.0-5.0-0.5","5e87b4d3e28032100ce68eec","C3","batch3","","null","<p class=block-text>Trial 6 out of 78</p>","null","pattern_show_trial_num","","","","","","","","","","","","","","","","","","","","","","","","",""
"","","","","","image-keyboard-response","32","121270","0.0-2.0-5.0-1.5","5e87b4d3e28032100ce68eec","C3","batch3","","1881","stim/no_49_2_b.png","j","pattern_response","true","j","pattern_29","1881","true","6","","","","","","","","","","","","","","","","","","",""
"","","","","","html-keyboard-response","33","122584","0.0-2.0-5.0-0.6","5e87b4d3e28032100ce68eec","C3","batch3","","null","<p class=block-text>Trial 7 out of 78</p>","null","pattern_show_trial_num","","","","","","","","","","","","","","","","","","","","","","","","",""
"","","","","","image-keyboard-response","34","123910","0.0-2.0-5.0-1.6","5e87b4d3e28032100ce68eec","C3","batch3","","1323.8999999761581","stim/yes_46_ver_b1_b.png","f","pattern_response","true","f","pattern_68","1323.8999999761581","true","7","","","","","","","","","","","","","","","","","","",""
"","","","","","html-keyboard-response","35","125233","0.0-2.0-5.0-0.7","5e87b4d3e28032100ce68eec","C3","batch3","","null","<p class=block-text>Trial 8 out of 78</p>","null","pattern_show_trial_num","","","","","","","","","","","","","","","","","","","","","","","","",""
"","","","","","image-keyboard-response","36","126433","0.0-2.0-5.0-1.7","5e87b4d3e28032100ce68eec","C3","batch3","","1198","stim/yes_33_dia_w1_w.png","j","pattern_response","false","f","pattern_56","1198","false","7","","","","","","","","","","","","","","","","","","",""
"","","","","","html-keyboard-response","37","127748","0.0-2.0-5.0-0.8","5e87b4d3e28032100ce68eec","C3","batch3","","null","<p class=block-text>Trial 9 out of 78</p>","null","pattern_show_trial_num","","","","","","","","","","","","","","","","","","","","","","","","",""
"","","","","","image-keyboard-response","38","129044","0.0-2.0-5.0-1.8","5e87b4d3e28032100ce68eec","C3","batch3","","1293.800000011921","stim/yes_23_ver_b1.png","f","pattern_response","true","f","pattern_48","1293.800000011921","true","8","","","","","","","","","","","","","","","","","","",""
"","","","","","html-keyboard-response","39","130357","0.0-2.0-5.0-0.9","5e87b4d3e28032100ce68eec","C3","batch3","","null","<p class=block-text>Trial 10 out of 78</p>","null","pattern_show_trial_num","","","","","","","","","","","","","","","","","","","","","","","","",""
"","","","","","image-keyboard-response","40","131880","0.0-2.0-5.0-1.9","5e87b4d3e28032100ce68eec","C3","batch3","","1520.5999999642372","stim/yes_53_ver_b1_b.png","j","pattern_response","false","f","pattern_74","1520.5999999642372","false","8","","","","","","","","","","","","","","","","","","",""
"","","","","","html-keyboard-response","41","133207","0.0-2.0-5.0-0.10","5e87b4d3e28032100ce68eec","C3","batch3","","null","<p class=block-text>Trial 11 out of 78</p>","null","pattern_show_trial_num","","","","","","","","","","","","","","","","","","","","","","","","",""
"","","","","","image-keyboard-response","42","134390","0.0-2.0-5.0-1.10","5e87b4d3e28032100ce68eec","C3","batch3","","1181.199999988079","stim/yes_37_hor_w1_w.png","f","pattern_response","true","f","pattern_60","1181.199999988079","true","9","","","","","","","","","","","","","","","","","","",""
"","","","","","html-keyboard-response","43","135705","0.0-2.0-5.0-0.11","5e87b4d3e28032100ce68eec","C3","batch3","","null","<p class=block-text>Trial 12 out of 78</p>","null","pattern_show_trial_num","","","","","","","","","","","","","","","","","","","","","","","","",""
"","","","","","image-keyboard-response","44","136789","0.0-2.0-5.0-1.11","5e87b4d3e28032100ce68eec","C3","batch3","","1082.800000011921","stim/yes_39_hor_w1_w.png","f","pattern_response","true","f","pattern_62","1082.800000011921","true","10","","","","","","","","","","","","","","","","","","",""
"","","","","","html-keyboard-response","45","138110","0.0-2.0-5.0-0.12","5e87b4d3e28032100ce68eec","C3","batch3","","null","<p class=block-text>Trial 13 out of 78</p>","null","pattern_show_trial_num","","","","","","","","","","","","","","","","","","","","","","","","",""
"","","","","","image-keyboard-response","46","139652","0.0-2.0-5.0-1.12","5e87b4d3e28032100ce68eec","C3","batch3","","1540.199999988079","stim/yes_49_hor_w1_b.png","f","pattern_response","true","f","pattern_70","1540.199999988079","true","11","","","","","","","","","","","","","","","","","","",""
"","","","","","html-keyboard-response","47","140976","0.0-2.0-5.0-0.13","5e87b4d3e28032100ce68eec","C3","batch3","","null","<p class=block-text>Trial 14 out of 78</p>","null","pattern_show_trial_num","","","","","","","","","","","","","","","","","","","","","","","","",""
"","","","","","image-keyboard-response","48","142582","0.0-2.0-5.0-1.13","5e87b4d3e28032100ce68eec","C3","batch3","","1604","stim/yes_42_dia_w1_w.png","j","pattern_response","false","f","pattern_64","1604","false","11","","","","","","","","","","","","","","","","","","",""
"","","","","","html-keyboard-response","49","143901","0.0-2.0-5.0-0.14","5e87b4d3e28032100ce68eec","C3","batch3","","null","<p class=block-text>Trial 15 out of 78</p>","null","pattern_show_trial_num","","","","","","","","","","","","","","","","","","","","","","","","",""
"","","","","","image-keyboard-response","50","145599","0.0-2.0-5.0-1.14","5e87b4d3e28032100ce68eec","C3","batch3","","1696.7999999523163","stim/no_53_1_b.png","j","pattern_response","true","j","pattern_33","1696.7999999523163","true","12","","","","","","","","","","","","","","","","","","",""
"","","","","","html-keyboard-response","51","146911","0.0-2.0-5.0-0.15","5e87b4d3e28032100ce68eec","C3","batch3","","null","<p class=block-text>Trial 16 out of 78</p>","null","pattern_show_trial_num","","","","","","","","","","","","","","","","","","","","","","","","",""
"","","","","","image-keyboard-response","52","148401","0.0-2.0-5.0-1.15","5e87b4d3e28032100ce68eec","C3","batch3","","1488.3999999761581","stim/no_58_1_w.png","j","pattern_response","true","j","pattern_35","1488.3999999761581","true","13","","","","","","","","","","","","","","","","","","",""
"","","","","","html-keyboard-response","53","149716","0.0-2.0-5.0-0.16","5e87b4d3e28032100ce68eec","C3","batch3","","null","<p class=block-text>Trial 17 out of 78</p>","null","pattern_show_trial_num","","","","","","","","","","","","","","","","","","","","","","","","",""
"","","","","","image-keyboard-response","54","150680","0.0-2.0-5.0-1.16","5e87b4d3e28032100ce68eec","C3","batch3","","953.5","stim/yes_17_ver_b1_b.png","f","pattern_response","true","f","pattern_46","953.5","true","14","","","","","","","","","","","","","","","","","","",""
"","","","","","html-keyboard-response","55","151989","0.0-2.0-5.0-0.17","5e87b4d3e28032100ce68eec","C3","batch3","","null","<p class=block-text>Trial 18 out of 78</p>","null","pattern_show_trial_num","","","","","","","","","","","","","","","","","","","","","","","","",""
"","","","","","image-keyboard-response","56","153505","0.0-2.0-5.0-1.17","5e87b4d3e28032100ce68eec","C3","batch3","","1514","stim/no_67_1.png","j","pattern_response","true","j","pattern_39","1514","true","15","","","","","","","","","","","","","","","","","","",""
"","","","","","html-keyboard-response","57","154826","0.0-2.0-5.0-0.18","5e87b4d3e28032100ce68eec","C3","batch3","","null","<p class=block-text>Trial 19 out of 78</p>","null","pattern_show_trial_num","","","","","","","","","","","","","","","","","","","","","","","","",""
"","","","","","image-keyboard-response","58","156118","0.0-2.0-5.0-1.18","5e87b4d3e28032100ce68eec","C3","batch3","","1290.5","stim/no_28_2.png","j","pattern_response","true","j","pattern_11","1290.5","true","16","","","","","","","","","","","","","","","","","","",""
"","","","","","html-keyboard-response","59","157437","0.0-2.0-5.0-0.19","5e87b4d3e28032100ce68eec","C3","batch3","","null","<p class=block-text>Trial 20 out of 78</p>","null","pattern_show_trial_num","","","","","","","","","","","","","","","","","","","","","","","","",""
"","","","","","image-keyboard-response","60","158360","0.0-2.0-5.0-1.19","5e87b4d3e28032100ce68eec","C3","batch3","","921","stim/yes_70_ver_b1.png","f","pattern_response","true","f","pattern_80","921","true","17","","","","","","","","","","","","","","","","","","",""
"","","","","","html-keyboard-response","61","159684","0.0-2.0-5.0-0.20","5e87b4d3e28032100ce68eec","C3","batch3","","null","<p class=block-text>Trial 21 out of 78</p>","null","pattern_show_trial_num","","","","","","","","","","","","","","","","","","","","","","","","",""
"","","","","","image-keyboard-response","62","161118","0.0-2.0-5.0-1.20","5e87b4d3e28032100ce68eec","C3","batch3","","1432.0999999642372","stim/no_47_1_b.png","j","pattern_response","true","j","pattern_27","1432.0999999642372","true","18","","","","","","","","","","","","","","","","","","",""
"","","","","","html-keyboard-response","63","162435","0.0-2.0-5.0-0.21","5e87b4d3e28032100ce68eec","C3","batch3","","null","<p class=block-text>Trial 22 out of 78</p>","null","pattern_show_trial_num","","","","","","","","","","","","","","","","","","","","","","","","",""
"","","","","","image-keyboard-response","64","163750","0.0-2.0-5.0-1.21","5e87b4d3e28032100ce68eec","C3","batch3","","1313.7000000476837","stim/yes_12_hor_w1_w.png","f","pattern_response","true","f","pattern_42","1313.7000000476837","true","19","","","","","","","","","","","","","","","","","","",""
"","","","","","html-keyboard-response","65","165063","0.0-2.0-5.0-0.22","5e87b4d3e28032100ce68eec","C3","batch3","","null","<p class=block-text>Trial 23 out of 78</p>","null","pattern_show_trial_num","","","","","","","","","","","","","","","","","","","","","","","","",""
"","","","","","image-keyboard-response","66","166935","0.0-2.0-5.0-1.22","5e87b4d3e28032100ce68eec","C3","batch3","","1870.5999999642372","stim/no_36_1_b.png","j","pattern_response","true","j","pattern_17","1870.5999999642372","true","20","","","","","","","","","","","","","","","","","","",""
"","","","","","html-keyboard-response","67","168264","0.0-2.0-5.0-0.23","5e87b4d3e28032100ce68eec","C3","batch3","","null","<p class=block-text>Trial 24 out of 78</p>","null","pattern_show_trial_num","","","","","","","","","","","","","","","","","","","","","","","","",""
"","","","","","image-keyboard-response","68","169347","0.0-2.0-5.0-1.23","5e87b4d3e28032100ce68eec","C3","batch3","","1081.800000011921","stim/yes_30_ver_b1_b.png","f","pattern_response","true","f","pattern_54","1081.800000011921","true","21","","","","","","","","","","","","","","","","","","",""
"","","","","","html-keyboard-response","69","170666","0.0-2.0-5.0-0.24","5e87b4d3e28032100ce68eec","C3","batch3","","null","<p class=block-text>Trial 25 out of 78</p>","null","pattern_show_trial_num","","","","","","","","","","","","","","","","","","","","","","","","",""
"","","","","","image-keyboard-response","70","172456","0.0-2.0-5.0-1.24","5e87b4d3e28032100ce68eec","C3","batch3","","1787.800000011921","stim/no_39_1_w.png","j","pattern_response","true","j","pattern_21","1787.800000011921","true","22","","","","","","","","","","","","","","","","","","",""
"","","","","","html-keyboard-response","71","173770","0.0-2.0-5.0-0.25","5e87b4d3e28032100ce68eec","C3","batch3","","null","<p class=block-text>Trial 26 out of 78</p>","null","pattern_show_trial_num","","","","","","","","","","","","","","","","","","","","","","","","",""
"","","","","","image-keyboard-response","72","175627","0.0-2.0-5.0-1.25","5e87b4d3e28032100ce68eec","C3","batch3","","1855.5999999642372","stim/yes_51_dia_b1.png","j","pattern_response","false","f","pattern_72","1855.5999999642372","false","22","","","","","","","","","","","","","","","","","","",""
"","","","","","html-keyboard-response","73","176953","0.0-2.0-5.0-0.26","5e87b4d3e28032100ce68eec","C3","batch3","","null","<p class=block-text>Trial 27 out of 78</p>","null","pattern_show_trial_num","","","","","","","","","","","","","","","","","","","","","","","","",""
"","","","","","image-keyboard-response","74","178457","0.0-2.0-5.0-1.26","5e87b4d3e28032100ce68eec","C3","batch3","","1502.2999999523163","stim/no_43_2_b.png","j","pattern_response","true","j","pattern_23","1502.2999999523163","true","23","","","","","","","","","","","","","","","","","","",""
"","","","","","html-keyboard-response","75","179770","0.0-2.0-5.0-0.27","5e87b4d3e28032100ce68eec","C3","batch3","","null","<p class=block-text>Trial 28 out of 78</p>","null","pattern_show_trial_num","","","","","","","","","","","","","","","","","","","","","","","","",""
"","","","","","image-keyboard-response","76","181260","0.0-2.0-5.0-1.27","5e87b4d3e28032100ce68eec","C3","batch3","","1487.800000011921","stim/yes_26_dia_w2_w.png","j","pattern_response","false","f","pattern_50","1487.800000011921","false","23","","","","","","","","","","","","","","","","","","",""
"","","","","","html-keyboard-response","77","182583","0.0-2.0-5.0-0.28","5e87b4d3e28032100ce68eec","C3","batch3","","null","<p class=block-text>Trial 29 out of 78</p>","null","pattern_show_trial_num","","","","","","","","","","","","","","","","","","","","","","","","",""
"","","","","","image-keyboard-response","78","184309","0.0-2.0-5.0-1.28","5e87b4d3e28032100ce68eec","C3","batch3","","1725.199999988079","stim/no_25_1_b.png","j","pattern_response","true","j","pattern_09","1725.199999988079","true","24","","","","","","","","","","","","","","","","","","",""
"","","","","","html-keyboard-response","79","185628","0.0-2.0-5.0-0.29","5e87b4d3e28032100ce68eec","C3","batch3","","null","<p class=block-text>Trial 30 out of 78</p>","null","pattern_show_trial_num","","","","","","","","","","","","","","","","","","","","","","","","",""
"","","","","","image-keyboard-response","80","187995","0.0-2.0-5.0-1.29","5e87b4d3e28032100ce68eec","C3","batch3","","2365.199999988079","stim/no_51_1.png","j","pattern_response","true","j","pattern_31","2365.199999988079","true","25","","","","","","","","","","","","","","","","","","",""
"","","","","","html-keyboard-response","81","189322","0.0-2.0-5.0-0.30","5e87b4d3e28032100ce68eec","C3","batch3","","null","<p class=block-text>Trial 31 out of 78</p>","null","pattern_show_trial_num","","","","","","","","","","","","","","","","","","","","","","","","",""
"","","","","","image-keyboard-response","82","191167","0.0-2.0-5.0-1.30","5e87b4d3e28032100ce68eec","C3","batch3","","1842.6000000238419","stim/no_37_2_w.png","j","pattern_response","true","j","pattern_19","1842.6000000238419","true","26","","","","","","","","","","","","","","","","","","",""
"","","","","","html-keyboard-response","83","192489","0.0-2.0-5.0-0.31","5e87b4d3e28032100ce68eec","C3","batch3","","null","<p class=block-text>Trial 32 out of 78</p>","null","pattern_show_trial_num","","","","","","","","","","","","","","","","","","","","","","","","",""
"","","","","","image-keyboard-response","84","193446","0.0-2.0-5.0-1.31","5e87b4d3e28032100ce68eec","C3","batch3","","955.1999999880791","stim/yes_15_dia_b1u_b.png","f","pattern_response","true","f","pattern_44","955.1999999880791","true","27","","","","","","","","","","","","","","","","","","",""
"","","","","","html-keyboard-response","85","194768","0.0-2.0-5.0-0.32","5e87b4d3e28032100ce68eec","C3","batch3","","null","<p class=block-text>Trial 33 out of 78</p>","null","pattern_show_trial_num","","","","","","","","","","","","","","","","","","","","","","","","",""
"","","","","","image-keyboard-response","86","195754","0.0-2.0-5.0-1.32","5e87b4d3e28032100ce68eec","C3","batch3","","983.8000000119209","stim/no_18_1_b.png","j","pattern_response","true","j","pattern_05","983.8000000119209","true","28","","","","","","","","","","","","","","","","","","",""
"","","","","","html-keyboard-response","87","197076","0.0-2.0-5.0-0.33","5e87b4d3e28032100ce68eec","C3","batch3","","null","<p class=block-text>Trial 34 out of 78</p>","null","pattern_show_trial_num","","","","","","","","","","","","","","","","","","","","","","","","",""
"","","","","","image-keyboard-response","88","199352","0.0-2.0-5.0-1.33","5e87b4d3e28032100ce68eec","C3","batch3","","2274.600000023842","stim/no_45_1_w.png","j","pattern_response","true","j","pattern_25","2274.600000023842","true","29","","","","","","","","","","","","","","","","","","",""
"","","","","","html-keyboard-response","89","200675","0.0-2.0-5.0-0.34","5e87b4d3e28032100ce68eec","C3","batch3","","null","<p class=block-text>Trial 35 out of 78</p>","null","pattern_show_trial_num","","","","","","","","","","","","","","","","","","","","","","","","",""
"","","","","","image-keyboard-response","90","201684","0.0-2.0-5.0-1.34","5e87b4d3e28032100ce68eec","C3","batch3","","1007","stim/yes_29_hor_b1_b.png","f","pattern_response","true","f","pattern_52","1007","true","30","","","","","","","","","","","","","","","","","","",""
"","","","","","html-keyboard-response","91","203003","0.0-2.0-5.0-0.35","5e87b4d3e28032100ce68eec","C3","batch3","","null","<p class=block-text>Trial 36 out of 78</p>","null","pattern_show_trial_num","","","","","","","","","","","","","","","","","","","","","","","","",""
"","","","","","image-keyboard-response","92","204736","0.0-2.0-5.0-1.35","5e87b4d3e28032100ce68eec","C3","batch3","","1731.800000011921","stim/yes_63_dia_b1.png","j","pattern_response","false","f","pattern_78","1731.800000011921","false","30","","","","","","","","","","","","","","","","","","",""
"","","","","","html-keyboard-response","93","206061","0.0-2.0-5.0-0.36","5e87b4d3e28032100ce68eec","C3","batch3","","null","<p class=block-text>Trial 37 out of 78</p>","null","pattern_show_trial_num","","","","","","","","","","","","","","","","","","","","","","","","",""
"","","","","","image-keyboard-response","94","207111","0.0-2.0-5.0-1.36","5e87b4d3e28032100ce68eec","C3","batch3","","1048.5","stim/no_33_1_b.png","j","pattern_response","true","j","pattern_15","1048.5","true","31","","","","","","","","","","","","","","","","","","",""
"","","","","","html-keyboard-response","95","208414","0.0-2.0-5.0-0.37","5e87b4d3e28032100ce68eec","C3","batch3","","null","<p class=block-text>Trial 38 out of 78</p>","null","pattern_show_trial_num","","","","","","","","","","","","","","","","","","","","","","","","",""
"","","","","","image-keyboard-response","96","210034","0.0-2.0-5.0-1.37","5e87b4d3e28032100ce68eec","C3","batch3","","1618.4000000357628","stim/yes_44_ver_w1_w.png","f","pattern_response","true","f","pattern_66","1618.4000000357628","true","32","","","","","","","","","","","","","","","","","","",""
"","","","","","html-keyboard-response","97","211347","0.0-2.0-5.0-0.38","5e87b4d3e28032100ce68eec","C3","batch3","","null","<p class=block-text>Trial 39 out of 78</p>","null","pattern_show_trial_num","","","","","","","","","","","","","","","","","","","","","","","","",""
"","","","","","image-keyboard-response","98","212343","0.0-2.0-5.0-1.38","5e87b4d3e28032100ce68eec","C3","batch3","","994.8000000119209","stim/no_22_1_b.png","j","pattern_response","true","j","pattern_07","994.8000000119209","true","33","","","","","","","","","","","","","","","","","","",""
"","","","","","image-keyboard-response","99","215553","0.0-2.0-6.0","5e87b4d3e28032100ce68eec","C3","batch3","","2693.699999988079","stim/empty_board.png","j","attention_check","true","j","","","","","500","[""f"",""j""]","","","","","","","","","","","","","","","","",""
"","","","","","html-keyboard-response","100","216363","0.0-2.0-7.0-0.0","5e87b4d3e28032100ce68eec","C3","batch3","","null","<p class=block-text>Trial 40 out of 78</p>","null","pattern_show_trial_num","","","","","","","","","","","","","","","","","","","","","","","","",""
"","","","","","image-keyboard-response","101","217391","0.0-2.0-7.0-1.0","5e87b4d3e28032100ce68eec","C3","batch3","","1025.699999988079","stim/yes_38_hor_b1_b.png","f","pattern_response","true","f","pattern_61","1025.699999988079","true","34","","","","","","","","","","","","","","","","","","",""
"","","","","","html-keyboard-response","102","218718","0.0-2.0-7.0-0.1","5e87b4d3e28032100ce68eec","C3","batch3","","null","<p class=block-text>Trial 41 out of 78</p>","null","pattern_show_trial_num","","","","","","","","","","","","","","","","","","","","","","","","",""
"","","","","","image-keyboard-response","103","220152","0.0-2.0-7.0-1.1","5e87b4d3e28032100ce68eec","C3","batch3","","1419.3999999761581","stim/yes_52_ver_w1.png","f","pattern_response","true","f","pattern_73","1419.3999999761581","true","35","","","","","","","","","","","","","","","","","","",""
"","","","","","html-keyboard-response","104","221467","0.0-2.0-7.0-0.2","5e87b4d3e28032100ce68eec","C3","batch3","","null","<p class=block-text>Trial 42 out of 78</p>","null","pattern_show_trial_num","","","","","","","","","","","","","","","","","","","","","","","","",""
"","","","","","image-keyboard-response","105","223812","0.0-2.0-7.0-1.2","5e87b4d3e28032100ce68eec","C3","batch3","","2343.400000035763","stim/yes_31_hor_b1.png","f","pattern_response","true","f","pattern_55","2343.400000035763","true","36","","","","","","","","","","","","","","","","","","",""
"","","","","","html-keyboard-response","106","225133","0.0-2.0-7.0-0.3","5e87b4d3e28032100ce68eec","C3","batch3","","null","<p class=block-text>Trial 43 out of 78</p>","null","pattern_show_trial_num","","","","","","","","","","","","","","","","","","","","","","","","",""
"","","","","","image-keyboard-response","107","227830","0.0-2.0-7.0-1.3","5e87b4d3e28032100ce68eec","C3","batch3","","2695.399999976158","stim/yes_67_hor_b1.png","f","pattern_response","true","f","pattern_79","2695.399999976158","true","37","","","","","","","","","","","","","","","","","","",""
"","","","","","html-keyboard-response","108","229144","0.0-2.0-7.0-0.4","5e87b4d3e28032100ce68eec","C3","batch3","","null","<p class=block-text>Trial 44 out of 78</p>","null","pattern_show_trial_num","","","","","","","","","","","","","","","","","","","","","","","","",""
"","","","","","image-keyboard-response","109","232043","0.0-2.0-7.0-1.4","5e87b4d3e28032100ce68eec","C3","batch3","","2897.599999964237","stim/no_52_1.png","j","pattern_response","true","j","pattern_32","2897.599999964237","true","38","","","","","","","","","","","","","","","","","","",""
"","","","","","html-keyboard-response","110","233364","0.0-2.0-7.0-0.5","5e87b4d3e28032100ce68eec","C3","batch3","","null","<p class=block-text>Trial 45 out of 78</p>","null","pattern_show_trial_num","","","","","","","","","","","","","","","","","","","","","","","","",""
"","","","","","image-keyboard-response","111","234509","0.0-2.0-7.0-1.5","5e87b4d3e28032100ce68eec","C3","batch3","","1142.7000000476837","stim/no_13_2_b.png","j","pattern_response","true","j","pattern_02","1142.7000000476837","true","39","","","","","","","","","","","","","","","","","","",""
"","","","","","html-keyboard-response","112","235832","0.0-2.0-7.0-0.6","5e87b4d3e28032100ce68eec","C3","batch3","","null","<p class=block-text>Trial 46 out of 78</p>","null","pattern_show_trial_num","","","","","","","","","","","","","","","","","","","","","","","","",""
"","","","","","image-keyboard-response","113","237225","0.0-2.0-7.0-1.6","5e87b4d3e28032100ce68eec","C3","batch3","","1391.300000011921","stim/yes_17_dia_w1.png","f","pattern_response","true","f","pattern_45","1391.300000011921","true","40","","","","","","","","","","","","","","","","","","",""
"","","","","","html-keyboard-response","114","238536","0.0-2.0-7.0-0.7","5e87b4d3e28032100ce68eec","C3","batch3","","null","<p class=block-text>Trial 47 out of 78</p>","null","pattern_show_trial_num","","","","","","","","","","","","","","","","","","","","","","","","",""
"","","","","","image-keyboard-response","115","241839","0.0-2.0-7.0-1.7","5e87b4d3e28032100ce68eec","C3","batch3","","3302.5","stim/no_62_1_w.png","j","pattern_response","true","j","pattern_36","3302.5","true","41","","","","","","","","","","","","","","","","","","",""
"","","","","","html-keyboard-response","116","243153","0.0-2.0-7.0-0.8","5e87b4d3e28032100ce68eec","C3","batch3","","null","<p class=block-text>Trial 48 out of 78</p>","null","pattern_show_trial_num","","","","","","","","","","","","","","","","","","","","","","","","",""
"","","","","","image-keyboard-response","117","246473","0.0-2.0-7.0-1.8","5e87b4d3e28032100ce68eec","C3","batch3","","3318.100000023842","stim/no_70_2.png","j","pattern_response","true","j","pattern_40","3318.100000023842","true","42","","","","","","","","","","","","","","","","","","",""
"","","","","","html-keyboard-response","118","247777","0.0-2.0-7.0-0.9","5e87b4d3e28032100ce68eec","C3","batch3","","null","<p class=block-text>Trial 49 out of 78</p>","null","pattern_show_trial_num","","","","","","","","","","","","","","","","","","","","","","","","",""
"","","","","","image-keyboard-response","119","250847","0.0-2.0-7.0-1.9","5e87b4d3e28032100ce68eec","C3","batch3","","3068.599999964237","stim/no_50_1.png","j","pattern_response","true","j","pattern_30","3068.599999964237","true","43","","","","","","","","","","","","","","","","","","",""
"","","","","","html-keyboard-response","120","252168","0.0-2.0-7.0-0.10","5e87b4d3e28032100ce68eec","C3","batch3","","null","<p class=block-text>Trial 50 out of 78</p>","null","pattern_show_trial_num","","","","","","","","","","","","","","","","","","","","","","","","",""
"","","","","","image-keyboard-response","121","255620","0.0-2.0-7.0-1.10","5e87b4d3e28032100ce68eec","C3","batch3","","3450.2999999523163","stim/no_38_1_b.png","j","pattern_response","true","j","pattern_20","3450.2999999523163","true","44","","","","","","","","","","","","","","","","","","",""
"","","","","","html-keyboard-response","122","256940","0.0-2.0-7.0-0.11","5e87b4d3e28032100ce68eec","C3","batch3","","null","<p class=block-text>Trial 51 out of 78</p>","null","pattern_show_trial_num","","","","","","","","","","","","","","","","","","","","","","","","",""
"","","","","","image-keyboard-response","123","259295","0.0-2.0-7.0-1.11","5e87b4d3e28032100ce68eec","C3","batch3","","2353","stim/no_36_2_w.png","f","pattern_response","false","j","pattern_18","2353","false","44","","","","","","","","","","","","","","","","","","",""
"","","","","","html-keyboard-response","124","260619","0.0-2.0-7.0-0.12","5e87b4d3e28032100ce68eec","C3","batch3","","null","<p class=block-text>Trial 52 out of 78</p>","null","pattern_show_trial_num","","","","","","","","","","","","","","","","","","","","","","","","",""
"","","","","","image-keyboard-response","125","261889","0.0-2.0-7.0-1.12","5e87b4d3e28032100ce68eec","C3","batch3","","1268.0999999642372","stim/yes_25_hor_b1_b.png","f","pattern_response","true","f","pattern_49","1268.0999999642372","true","45","","","","","","","","","","","","","","","","","","",""
"","","","","","html-keyboard-response","126","263214","0.0-2.0-7.0-0.13","5e87b4d3e28032100ce68eec","C3","batch3","","null","<p class=block-text>Trial 53 out of 78</p>","null","pattern_show_trial_num","","","","","","","","","","","","","","","","","","","","","","","","",""
"","","","","","image-keyboard-response","127","267241","0.0-2.0-7.0-1.13","5e87b4d3e28032100ce68eec","C3","batch3","","4025.100000023842","stim/no_48_1_w.png","j","pattern_response","true","j","pattern_28","4025.100000023842","true","46","","","","","","","","","","","","","","","","","","",""
"","","","","","html-keyboard-response","128","268552","0.0-2.0-7.0-0.14","5e87b4d3e28032100ce68eec","C3","batch3","","null","<p class=block-text>Trial 54 out of 78</p>","null","pattern_show_trial_num","","","","","","","","","","","","","","","","","","","","","","","","",""
"","","","","","image-keyboard-response","129","270158","0.0-2.0-7.0-1.14","5e87b4d3e28032100ce68eec","C3","batch3","","1604.0999999642372","stim/yes_35_dia_b1.png","f","pattern_response","true","f","pattern_57","1604.0999999642372","true","47","","","","","","","","","","","","","","","","","","",""
"","","","","","html-keyboard-response","130","271483","0.0-2.0-7.0-0.15","5e87b4d3e28032100ce68eec","C3","batch3","","null","<p class=block-text>Trial 55 out of 78</p>","null","pattern_show_trial_num","","","","","","","","","","","","","","","","","","","","","","","","",""
"","","","","","image-keyboard-response","131","274337","0.0-2.0-7.0-1.15","5e87b4d3e28032100ce68eec","C3","batch3","","2852.800000011921","stim/yes_40_dia_b1_b.png","j","pattern_response","false","f","pattern_63","2852.800000011921","false","47","","","","","","","","","","","","","","","","","","",""
"","","","","","html-keyboard-response","132","275658","0.0-2.0-7.0-0.16","5e87b4d3e28032100ce68eec","C3","batch3","","null","<p class=block-text>Trial 56 out of 78</p>","null","pattern_show_trial_num","","","","","","","","","","","","","","","","","","","","","","","","",""
"","","","","","image-keyboard-response","133","278353","0.0-2.0-7.0-1.16","5e87b4d3e28032100ce68eec","C3","batch3","","2693.5","stim/yes_48_dia_w1_w.png","j","pattern_response","false","f","pattern_69","2693.5","false","47","","","","","","","","","","","","","","","","","","",""
"","","","","","html-keyboard-response","134","279671","0.0-2.0-7.0-0.17","5e87b4d3e28032100ce68eec","C3","batch3","","null","<p class=block-text>Trial 57 out of 78</p>","null","pattern_show_trial_num","","","","","","","","","","","","","","","","","","","","","","","","",""
"","","","","","image-keyboard-response","135","280601","0.0-2.0-7.0-1.17","5e87b4d3e28032100ce68eec","C3","batch3","","925","stim/yes_14_hor_b1_w.png","f","pattern_response","true","f","pattern_43","925","true","48","","","","","","","","","","","","","","","","","","",""
"","","","","","html-keyboard-response","136","281906","0.0-2.0-7.0-0.18","5e87b4d3e28032100ce68eec","C3","batch3","","null","<p class=block-text>Trial 58 out of 78</p>","null","pattern_show_trial_num","","","","","","","","","","","","","","","","","","","","","","","","",""
"","","","","","image-keyboard-response","137","284902","0.0-2.0-7.0-1.18","5e87b4d3e28032100ce68eec","C3","batch3","","2994.699999988079","stim/yes_37_dia_w1.png","j","pattern_response","false","f","pattern_59","2994.699999988079","false","48","","","","","","","","","","","","","","","","","","",""
"","","","","","html-keyboard-response","138","286219","0.0-2.0-7.0-0.19","5e87b4d3e28032100ce68eec","C3","batch3","","null","<p class=block-text>Trial 59 out of 78</p>","null","pattern_show_trial_num","","","","","","","","","","","","","","","","","","","","","","","","",""
"","","","","","image-keyboard-response","139","287114","0.0-2.0-7.0-1.19","5e87b4d3e28032100ce68eec","C3","batch3","","893.1999999880791","stim/yes_55_hor_w1_w.png","f","pattern_response","true","f","pattern_75","893.1999999880791","true","49","","","","","","","","","","","","","","","","","","",""
"","","","","","html-keyboard-response","140","288437","0.0-2.0-7.0-0.20","5e87b4d3e28032100ce68eec","C3","batch3","","null","<p class=block-text>Trial 60 out of 78</p>","null","pattern_show_trial_num","","","","","","","","","","","","","","","","","","","","","","","","",""
"","","","","","image-keyboard-response","141","289513","0.0-2.0-7.0-1.20","5e87b4d3e28032100ce68eec","C3","batch3","","1075","stim/yes_28_ver_b1.png","f","pattern_response","true","f","pattern_51","1075","true","50","","","","","","","","","","","","","","","","","","",""
"","","","","","html-keyboard-response","142","290828","0.0-2.0-7.0-0.21","5e87b4d3e28032100ce68eec","C3","batch3","","null","<p class=block-text>Trial 61 out of 78</p>","null","pattern_show_trial_num","","","","","","","","","","","","","","","","","","","","","","","","",""
"","","","","","image-keyboard-response","143","292340","0.0-2.0-7.0-1.21","5e87b4d3e28032100ce68eec","C3","batch3","","1510.5","stim/no_29_1_b.png","j","pattern_response","true","j","pattern_12","1510.5","true","51","","","","","","","","","","","","","","","","","","",""
"","","","","","html-keyboard-response","144","293655","0.0-2.0-7.0-0.22","5e87b4d3e28032100ce68eec","C3","batch3","","null","<p class=block-text>Trial 62 out of 78</p>","null","pattern_show_trial_num","","","","","","","","","","","","","","","","","","","","","","","","",""
"","","","","","image-keyboard-response","145","297148","0.0-2.0-7.0-1.22","5e87b4d3e28032100ce68eec","C3","batch3","","3490.5","stim/yes_60_ver_b1_b.png","j","pattern_response","false","f","pattern_77","3490.5","false","51","","","","","","","","","","","","","","","","","","",""
"","","","","","html-keyboard-response","146","298464","0.0-2.0-7.0-0.23","5e87b4d3e28032100ce68eec","C3","batch3","","null","<p class=block-text>Trial 63 out of 78</p>","null","pattern_show_trial_num","","","","","","","","","","","","","","","","","","","","","","","","",""
"","","","","","image-keyboard-response","147","301426","0.0-2.0-7.0-1.23","5e87b4d3e28032100ce68eec","C3","batch3","","2959.599999964237","stim/no_34_1_b.png","j","pattern_response","true","j","pattern_16","2959.599999964237","true","52","","","","","","","","","","","","","","","","","","",""
"","","","","","html-keyboard-response","148","302746","0.0-2.0-7.0-0.24","5e87b4d3e28032100ce68eec","C3","batch3","","null","<p class=block-text>Trial 64 out of 78</p>","null","pattern_show_trial_num","","","","","","","","","","","","","","","","","","","","","","","","",""
"","","","","","image-keyboard-response","149","303949","0.0-2.0-7.0-1.24","5e87b4d3e28032100ce68eec","C3","batch3","","1187.2999999523163","stim/yes_22_ver_w1.png","f","pattern_response","true","f","pattern_47","1187.2999999523163","true","53","","","","","","","","","","","","","","","","","","",""
"","","","","","html-keyboard-response","150","305253","0.0-2.0-7.0-0.25","5e87b4d3e28032100ce68eec","C3","batch3","","null","<p class=block-text>Trial 65 out of 78</p>","null","pattern_show_trial_num","","","","","","","","","","","","","","","","","","","","","","","","",""
"","","","","","image-keyboard-response","151","309317","0.0-2.0-7.0-1.25","5e87b4d3e28032100ce68eec","C3","batch3","","4062.100000023842","stim/no_46_1_b.png","j","pattern_response","true","j","pattern_26","4062.100000023842","true","54","","","","","","","","","","","","","","","","","","",""
"","","","","","html-keyboard-response","152","310637","0.0-2.0-7.0-0.26","5e87b4d3e28032100ce68eec","C3","batch3","","null","<p class=block-text>Trial 66 out of 78</p>","null","pattern_show_trial_num","","","","","","","","","","","","","","","","","","","","","","","","",""
"","","","","","image-keyboard-response","153","313803","0.0-2.0-7.0-1.26","5e87b4d3e28032100ce68eec","C3","batch3","","3163.600000023842","stim/no_55_1_w.png","j","pattern_response","true","j","pattern_34","3163.600000023842","true","55","","","","","","","","","","","","","","","","","","",""
"","","","","","html-keyboard-response","154","315128","0.0-2.0-7.0-0.27","5e87b4d3e28032100ce68eec","C3","batch3","","null","<p class=block-text>Trial 67 out of 78</p>","null","pattern_show_trial_num","","","","","","","","","","","","","","","","","","","","","","","","",""
"","","","","","image-keyboard-response","155","316649","0.0-2.0-7.0-1.27","5e87b4d3e28032100ce68eec","C3","batch3","","1519.300000011921","stim/no_17_1_w.png","j","pattern_response","true","j","pattern_04","1519.300000011921","true","56","","","","","","","","","","","","","","","","","","",""
"","","","","","html-keyboard-response","156","317964","0.0-2.0-7.0-0.28","5e87b4d3e28032100ce68eec","C3","batch3","","null","<p class=block-text>Trial 68 out of 78</p>","null","pattern_show_trial_num","","","","","","","","","","","","","","","","","","","","","","","","",""
"","","","","","image-keyboard-response","157","319585","0.0-2.0-7.0-1.28","5e87b4d3e28032100ce68eec","C3","batch3","","1619.800000011921","stim/no_23_1.png","j","pattern_response","true","j","pattern_08","1619.800000011921","true","57","","","","","","","","","","","","","","","","","","",""
"","","","","","html-keyboard-response","158","320898","0.0-2.0-7.0-0.29","5e87b4d3e28032100ce68eec","C3","batch3","","null","<p class=block-text>Trial 69 out of 78</p>","null","pattern_show_trial_num","","","","","","","","","","","","","","","","","","","","","","","","",""
"","","","","","image-keyboard-response","159","323091","0.0-2.0-7.0-1.29","5e87b4d3e28032100ce68eec","C3","batch3","","2192","stim/no_26_1_w.png","j","pattern_response","true","j","pattern_10","2192","true","58","","","","","","","","","","","","","","","","","","",""
"","","","","","html-keyboard-response","160","324410","0.0-2.0-7.0-0.30","5e87b4d3e28032100ce68eec","C3","batch3","","null","<p class=block-text>Trial 70 out of 78</p>","null","pattern_show_trial_num","","","","","","","","","","","","","","","","","","","","","","","","",""
"","","","","","image-keyboard-response","161","328820","0.0-2.0-7.0-1.30","5e87b4d3e28032100ce68eec","C3","batch3","","4407.699999988079","stim/no_44_1.png","j","pattern_response","true","j","pattern_24","4407.699999988079","true","59","","","","","","","","","","","","","","","","","","",""
"","","","","","html-keyboard-response","162","330144","0.0-2.0-7.0-0.31","5e87b4d3e28032100ce68eec","C3","batch3","","null","<p class=block-text>Trial 71 out of 78</p>","null","pattern_show_trial_num","","","","","","","","","","","","","","","","","","","","","","","","",""
"","","","","","image-keyboard-response","163","333741","0.0-2.0-7.0-1.31","5e87b4d3e28032100ce68eec","C3","batch3","","3595.400000035763","stim/yes_50_dia_w1.png","f","pattern_response","true","f","pattern_71","3595.400000035763","true","60","","","","","","","","","","","","","","","","","","",""
"","","","","","html-keyboard-response","164","335081","0.0-2.0-7.0-0.32","5e87b4d3e28032100ce68eec","C3","batch3","","null","<p class=block-text>Trial 72 out of 78</p>","null","pattern_show_trial_num","","","","","","","","","","","","","","","","","","","","","","","","",""
"","","","","","image-keyboard-response","165","336050","0.0-2.0-7.0-1.32","5e87b4d3e28032100ce68eec","C3","batch3","","966.8000000119209","stim/yes_29_ver_w1.png","j","pattern_response","false","f","pattern_53","966.8000000119209","false","60","","","","","","","","","","","","","","","","","","",""
"","","","","","html-keyboard-response","166","337375","0.0-2.0-7.0-0.33","5e87b4d3e28032100ce68eec","C3","batch3","","null","<p class=block-text>Trial 73 out of 78</p>","null","pattern_show_trial_num","","","","","","","","","","","","","","","","","","","","","","","","",""
"","","","","","image-keyboard-response","167","340527","0.0-2.0-7.0-1.33","5e87b4d3e28032100ce68eec","C3","batch3","","3149.600000023842","stim/no_42_1_w.png","j","pattern_response","true","j","pattern_22","3149.600000023842","true","61","","","","","","","","","","","","","","","","","","",""
"","","","","","html-keyboard-response","168","341851","0.0-2.0-7.0-0.34","5e87b4d3e28032100ce68eec","C3","batch3","","null","<p class=block-text>Trial 74 out of 78</p>","null","pattern_show_trial_num","","","","","","","","","","","","","","","","","","","","","","","","",""
"","","","","","image-keyboard-response","169","343712","0.0-2.0-7.0-1.34","5e87b4d3e28032100ce68eec","C3","batch3","","1859.699999988079","stim/yes_45_hor_b2_b.png","f","pattern_response","true","f","pattern_67","1859.699999988079","true","62","","","","","","","","","","","","","","","","","","",""
"","","","","","html-keyboard-response","170","345032","0.0-2.0-7.0-0.35","5e87b4d3e28032100ce68eec","C3","batch3","","null","<p class=block-text>Trial 75 out of 78</p>","null","pattern_show_trial_num","","","","","","","","","","","","","","","","","","","","","","","","",""
"","","","","","image-keyboard-response","171","346643","0.0-2.0-7.0-1.35","5e87b4d3e28032100ce68eec","C3","batch3","","1609.300000011921","stim/no_20_1_w.png","j","pattern_response","true","j","pattern_06","1609.300000011921","true","63","","","","","","","","","","","","","","","","","","",""
"","","","","","html-keyboard-response","172","347946","0.0-2.0-7.0-0.36","5e87b4d3e28032100ce68eec","C3","batch3","","null","<p class=block-text>Trial 76 out of 78</p>","null","pattern_show_trial_num","","","","","","","","","","","","","","","","","","","","","","","","",""
"","","","","","image-keyboard-response","173","351132","0.0-2.0-7.0-1.36","5e87b4d3e28032100ce68eec","C3","batch3","","3184.600000023842","stim/no_32_1_w.png","j","pattern_response","true","j","pattern_14","3184.600000023842","true","64","","","","","","","","","","","","","","","","","","",""
"","","","","","html-keyboard-response","174","352457","0.0-2.0-7.0-0.37","5e87b4d3e28032100ce68eec","C3","batch3","","null","<p class=block-text>Trial 77 out of 78</p>","null","pattern_show_trial_num","","","","","","","","","","","","","","","","","","","","","","","","",""
"","","","","","image-keyboard-response","175","358367","0.0-2.0-7.0-1.37","5e87b4d3e28032100ce68eec","C3","batch3","","5908","stim/no_65_1_b.png","j","pattern_response","true","j","pattern_38","5908","true","65","","","","","","","","","","","","","","","","","","",""
"","","","","","html-keyboard-response","176","359688","0.0-2.0-7.0-0.38","5e87b4d3e28032100ce68eec","C3","batch3","","null","<p class=block-text>Trial 78 out of 78</p>","null","pattern_show_trial_num","","","","","","","","","","","","","","","","","","","","","","","","",""
"","","","","","image-keyboard-response","177","365484","0.0-2.0-7.0-1.38","5e87b4d3e28032100ce68eec","C3","batch3","","5793.400000035763","stim/yes_43_ver_w1_w.png","f","pattern_response","true","f","pattern_65","5793.400000035763","true","66","","","","","","","","","","","","","","","","","","",""
"","","","","","html-button-response","178","372050","0.0-2.0-8.0","5e87b4d3e28032100ce68eec","C3","batch3","","6054.5","<p class = block-text>This concludes the 4-in-a-row detection game.Thank you for your responses!<br>
            You responded correctly on 85% of the trials.<br>
            When you are ready, press ""Continue"" button to continue </p>","0","","","","","","","","","","","","","","","","","","","","","","","","","",""
"true","","","","","fullscreen","179","379193","0.0-3.0-0.0","5e87b4d3e28032100ce68eec","C3","batch3","","","","","","","","","","","","","","","","","","","","","","","","","","","","","",""
"","","","","","instructions","180","448361","0.0-3.0-1.0-0.0-0.0","5e87b4d3e28032100ce68eec","C3","batch3","[{""page_index"":0,""viewing_time"":15722.399999976158},{""page_index"":1,""viewing_time"":1344},{""page_index"":2,""viewing_time"":11214.100000023842},{""page_index"":3,""viewing_time"":13277.599999964237},{""page_index"":4,""viewing_time"":9652.199999988079},{""page_index"":5,""viewing_time"":14251.300000011921},{""page_index"":6,""viewing_time"":3704.800000011921}]","69166.79999995232","","","tol-instructions","","","","","","","","","","","","","","","","","","","","","","","","",""
"","","","","","html-button-response","181","449840","0.0-3.0-1.0-1.0-0.0","5e87b4d3e28032100ce68eec","C3","batch3","","1477.800000011921","<p class=block-text> Let's answer a few questions <br>","0","tol_enter_quiz","","","","","","","","","","","","","","","","","","","","","","","","",""
"","","","","","html-button-response","182","456221","0.0-3.0-1.0-1.0-1.0","5e87b4d3e28032100ce68eec","C3","batch3","","6380","<p class = block-text>True or False: You can only move the ball on top of a peg. <br></p>","0","tol_quiz","true","","","","","","","","","","","","","","","","","","","","","","","",""
"","","","","","html-button-response","183","457654","0.0-3.0-1.0-1.0-2.0","5e87b4d3e28032100ce68eec","C3","batch3","","1431.300000011921","<p class = block-text>Correct! You can only move the ball on top of a peg.</p>","0","tol_quiz_feedback","","","","","","","","","","","","","","","","","","","","","","","","",""
"","","","","","html-button-response","184","461635","0.0-3.0-1.0-1.0-3.0","5e87b4d3e28032100ce68eec","C3","batch3","","3979.900000035763","<p class = block-text>True or False: You should try to match your board with the target board with fewest moves possible. <br></p>","0","tol_quiz","true","","","","","","","","","","","","","","","","","","","","","","","",""
"","","","","","html-button-response","185","462980","0.0-3.0-1.0-1.0-4.0","5e87b4d3e28032100ce68eec","C3","batch3","","1343.8999999761581","<p class = block-text>Correct! </p>","0","tol_quiz_feedback","","","","","","","","","","","","","","","","","","","","","","","","",""
"","","","","","html-button-response","186","465564","0.0-3.0-2.0","5e87b4d3e28032100ce68eec","C3","batch3","","2582.5","<p class=block-text> Now that you've understood the game, let's practice a few easier examples before we start!<br> <br>","0","","","","","","","","","","","","","","","","","","","","","","","","","",""
"","","","","","single-stim-button","187","470240","0.0-3.0-3.0-0.0","5e87b4d3e28032100ce68eec","C3","batch3","","4673","","","tol_practice","","","","","","","","","tol_peg_2","4673","4673","0","[[1,2,0],[0,0],[0]]","1","[[1,2,0],[0,0],[3]]","practice","4673","","","","","","","",""
"","","","","","single-stim-button","188","471925","0.0-3.0-3.0-1.0","5e87b4d3e28032100ce68eec","C3","batch3","","1684","","","tol_practice","","","","","","","","","tol_peg_3","1684","1684","0","[[1,2,0],[0,0],[3]]","1","[[1,2,0],[0,0],[3]]","practice","1684","","","","","","","",""
"","","","","","poldrack-single-stim","189","472930","0.0-3.0-4.0","5e87b4d3e28032100ce68eec","C3","batch3","","-1","","","tol_feedback","true","","","","","","","","","1000","1000","500","","","","","","-1","none","true","","0","","",""
"","","","","","single-stim-button","190","481972","0.0-3.0-5.0-0.0","5e87b4d3e28032100ce68eec","C3","batch3","","9042","","","tol_practice","","","","","","","","","tol_peg_1","9042","9042","0","[[1,0,0],[3,0],[0]]","2","[[0,0,0],[3,1],[2]]","practice","9042","","","","","","","",""
"","","","","","single-stim-button","191","483533","0.0-3.0-5.0-1.0","5e87b4d3e28032100ce68eec","C3","batch3","","1559","","","tol_practice","","","","","","","","","tol_peg_3","1559","1559","0","[[1,0,0],[3,0],[2]]","2","[[0,0,0],[3,1],[2]]","practice","1559","","","","","","","",""
"","","","","","single-stim-button","192","484797","0.0-3.0-5.1-0.1","5e87b4d3e28032100ce68eec","C3","batch3","","1262","","","tol_practice","","","","","","","","","tol_peg_1","1262","1262","0","[[0,0,0],[3,0],[2]]","3","[[0,0,0],[3,1],[2]]","practice","1262","","","","","","","",""
"","","","","","single-stim-button","193","485945","0.0-3.0-5.1-1.1","5e87b4d3e28032100ce68eec","C3","batch3","","1147","","","tol_practice","","","","","","","","","tol_peg_2","1147","1147","0","[[0,0,0],[3,1],[2]]","3","[[0,0,0],[3,1],[2]]","practice","1147","","","","","","","",""
"","","","","","poldrack-single-stim","194","486953","0.0-3.0-6.0","5e87b4d3e28032100ce68eec","C3","batch3","","-1","","","tol_feedback","true","","","","","","","","","1000","1000","500","","","","","","-1","none","true","","0","","",""
"","","","","","single-stim-button","195","489746","0.0-3.0-7.0-0.0","5e87b4d3e28032100ce68eec","C3","batch3","","2792","","","tol_practice","","","","","","","","","tol_peg_2","2792","2792","0","[[1,2,0],[0,0],[0]]","4","[[1,0,0],[2,0],[3]]","practice","2792","","","","","","","",""
"","","","","","single-stim-button","196","491054","0.0-3.0-7.0-1.0","5e87b4d3e28032100ce68eec","C3","batch3","","1306","","","tol_practice","","","","","","","","","tol_peg_3","1306","1306","0","[[1,2,0],[0,0],[3]]","4","[[1,0,0],[2,0],[3]]","practice","1306","","","","","","","",""
"","","","","","single-stim-button","197","492186","0.0-3.0-7.1-0.1","5e87b4d3e28032100ce68eec","C3","batch3","","1132","","","tol_practice","","","","","","","","","tol_peg_1","1132","1132","0","[[1,0,0],[0,0],[3]]","5","[[1,0,0],[2,0],[3]]","practice","1132","","","","","","","",""
"","","","","","single-stim-button","198","493613","0.0-3.0-7.1-1.1","5e87b4d3e28032100ce68eec","C3","batch3","","1426","","","tol_practice","","","","","","","","","tol_peg_2","1426","1426","0","[[1,0,0],[2,0],[3]]","5","[[1,0,0],[2,0],[3]]","practice","1426","","","","","","","",""
"","","","","","poldrack-single-stim","199","494621","0.0-3.0-8.0","5e87b4d3e28032100ce68eec","C3","batch3","","-1","","","tol_feedback","true","","","","","","","","","1000","1000","500","","","","","","-1","none","true","","0","","",""
"","","","","","html-button-response","200","499312","0.0-3.0-9.0","5e87b4d3e28032100ce68eec","C3","batch3","","4690","<div class = centerbox><p class = center-block-text>Great job! You are done with practice trials<br>You are about to start official trials.<br> <br> Problem <strong>1</strong> out of 25 problems</p></div>","0","tol_instruction","","","","","","","","","","","","","","","","","","","","","","","","",""
"","","","","","single-stim-button","201","503193","0.0-3.0-10.0-0.0","5e87b4d3e28032100ce68eec","C3","batch3","","2874","","","tol_tohand","","","","","","","","","tol_peg_1","2874","2874","0","[[1,0,0],[3,0],[0]]","1","[[1,3,0],[2,0],[0]]","0","0","","","","","","3","",""
"","","","","","single-stim-button","202","503557","0.0-3.0-10.0-1.0","5e87b4d3e28032100ce68eec","C3","batch3","","364","","","tol_toboard","","","","","","","","","tol_peg_1","364","364","0","[[1,2,0],[3,0],[0]]","1","[[1,3,0],[2,0],[0]]","0","0","","","","","","3","",""
"","","","","","single-stim-button","203","507754","0.0-3.0-10.1-0.1","5e87b4d3e28032100ce68eec","C3","batch3","","4195","","","tol_tohand","","","","","","","","","tol_peg_1","4195","4195","0","[[1,0,0],[3,0],[0]]","2","[[1,3,0],[2,0],[0]]","0","0","","","","","","3","",""
"","","","","","single-stim-button","204","509408","0.0-3.0-10.1-1.1","5e87b4d3e28032100ce68eec","C3","batch3","","1653","","","tol_toboard","","","","","","","","","tol_peg_3","1653","1653","0","[[1,0,0],[3,0],[2]]","2","[[1,3,0],[2,0],[0]]","0","0","","","","","","3","",""
"","","","","","single-stim-button","205","510272","0.0-3.0-10.2-0.2","5e87b4d3e28032100ce68eec","C3","batch3","","862","","","tol_tohand","","","","","","","","","tol_peg_2","862","862","0","[[1,0,0],[0,0],[2]]","3","[[1,3,0],[2,0],[0]]","0","0","","","","","","3","",""
"","","","","","single-stim-button","206","511379","0.0-3.0-10.2-1.2","5e87b4d3e28032100ce68eec","C3","batch3","","1106","","","tol_toboard","","","","","","","","","tol_peg_1","1106","1106","0","[[1,3,0],[0,0],[2]]","3","[[1,3,0],[2,0],[0]]","0","0","","","","","","3","",""
"","","","","","single-stim-button","207","512306","0.0-3.0-10.3-0.3","5e87b4d3e28032100ce68eec","C3","batch3","","925","","","tol_tohand","","","","","","","","","tol_peg_3","925","925","0","[[1,3,0],[0,0],[0]]","4","[[1,3,0],[2,0],[0]]","0","0","","","","","","3","",""
"","","","","","single-stim-button","208","513523","0.0-3.0-10.3-1.3","5e87b4d3e28032100ce68eec","C3","batch3","","1216","","","tol_toboard","","","","","","","","","tol_peg_2","1216","1216","0","[[1,3,0],[2,0],[0]]","4","[[1,3,0],[2,0],[0]]","0","0","","","","","","3","",""
"","","","","","poldrack-single-stim","209","514527","0.0-3.0-11.0","5e87b4d3e28032100ce68eec","C3","batch3","","-1","","","tol_feedback","true","","","","","","","","","1000","1000","500","","","","","","-1","none","true","2874","8856","","",""
"","","","","","html-button-response","210","517365","0.0-3.0-12.0","5e87b4d3e28032100ce68eec","C3","batch3","","2836.300000011921","<div class = centerbox><p class = center-block-text>problem <strong>2</strong> out of 25 problems</p></div>","0","tol_trial_num","","","","","","","","","","","","","","","","","","","","","","","","",""
"","","","","","single-stim-button","211","524595","0.0-3.0-13.0-0.0","5e87b4d3e28032100ce68eec","C3","batch3","","7229","","","tol_tohand","","","","","","","","","tol_peg_1","7229","7229","0","[[1,0,0],[3,0],[0]]","1","[[2,1,3],[0,0],[0]]","1","0","","","","","","5","",""
"","","","","","single-stim-button","212","525794","0.0-3.0-13.0-1.0","5e87b4d3e28032100ce68eec","C3","batch3","","1197","","","tol_toboard","","","","","","","","","tol_peg_3","1197","1197","0","[[1,0,0],[3,0],[2]]","1","[[2,1,3],[0,0],[0]]","1","0","","","","","","5","",""
"","","","","","single-stim-button","213","527602","0.0-3.0-13.1-0.1","5e87b4d3e28032100ce68eec","C3","batch3","","1807","","","tol_tohand","","","","","","","","","tol_peg_1","1807","1807","0","[[0,0,0],[3,0],[2]]","2","[[2,1,3],[0,0],[0]]","1","0","","","","","","5","",""
"","","","","","single-stim-button","214","529381","0.0-3.0-13.1-1.1","5e87b4d3e28032100ce68eec","C3","batch3","","1779","","","tol_toboard","","","","","","","","","tol_peg_2","1779","1779","0","[[0,0,0],[3,1],[2]]","2","[[2,1,3],[0,0],[0]]","1","0","","","","","","5","",""
"","","","","","single-stim-button","215","530255","0.0-3.0-13.2-0.2","5e87b4d3e28032100ce68eec","C3","batch3","","872","","","tol_tohand","","","","","","","","","tol_peg_3","872","872","0","[[0,0,0],[3,1],[0]]","3","[[2,1,3],[0,0],[0]]","1","0","","","","","","5","",""
"","","","","","single-stim-button","216","531312","0.0-3.0-13.2-1.2","5e87b4d3e28032100ce68eec","C3","batch3","","1056","","","tol_toboard","","","","","","","","","tol_peg_1","1056","1056","0","[[2,0,0],[3,1],[0]]","3","[[2,1,3],[0,0],[0]]","1","0","","","","","","5","",""
"","","","","","single-stim-button","217","532124","0.0-3.0-13.3-0.3","5e87b4d3e28032100ce68eec","C3","batch3","","812","","","tol_tohand","","","","","","","","","tol_peg_2","812","812","0","[[2,0,0],[3,0],[0]]","4","[[2,1,3],[0,0],[0]]","1","0","","","","","","5","",""
"","","","","","single-stim-button","218","532939","0.0-3.0-13.3-1.3","5e87b4d3e28032100ce68eec","C3","batch3","","813","","","tol_toboard","","","","","","","","","tol_peg_1","813","813","0","[[2,1,0],[3,0],[0]]","4","[[2,1,3],[0,0],[0]]","1","0","","","","","","5","",""
"","","","","","single-stim-button","219","533802","0.0-3.0-13.4-0.4","5e87b4d3e28032100ce68eec","C3","batch3","","862","","","tol_tohand","","","","","","","","","tol_peg_2","862","862","0","[[2,1,0],[0,0],[0]]","5","[[2,1,3],[0,0],[0]]","1","0","","","","","","5","",""
"","","","","","single-stim-button","220","534696","0.0-3.0-13.4-1.4","5e87b4d3e28032100ce68eec","C3","batch3","","892","","","tol_toboard","","","","","","","","","tol_peg_1","892","892","0","[[2,1,3],[0,0],[0]]","5","[[2,1,3],[0,0],[0]]","1","0","","","","","","5","",""
"","","","","","poldrack-single-stim","221","535699","0.0-3.0-14.0","5e87b4d3e28032100ce68eec","C3","batch3","","-1","","","tol_feedback","true","","","","","","","","","1000","1000","500","","","","","","-1","none","true","7229","11582","","",""
"","","","","","html-button-response","222","540357","0.0-3.0-15.0","5e87b4d3e28032100ce68eec","C3","batch3","","4657.100000023842","<div class = centerbox><p class = center-block-text>problem <strong>3</strong> out of 25 problems</p></div>","0","tol_trial_num","","","","","","","","","","","","","","","","","","","","","","","","",""
"","","","","","single-stim-button","223","544339","0.0-3.0-16.0-0.0","5e87b4d3e28032100ce68eec","C3","batch3","","3980","","","tol_tohand","","","","","","","","","tol_peg_1","3980","3980","0","[[2,0,0],[0,0],[1]]","1","[[1,2,0],[3,0],[0]]","2","0","","","","","","4","",""
"","","","","","single-stim-button","224","546249","0.0-3.0-16.0-1.0","5e87b4d3e28032100ce68eec","C3","batch3","","1910","","","tol_toboard","","","","","","","","","tol_peg_2","1910","1910","0","[[2,0,0],[3,0],[1]]","1","[[1,2,0],[3,0],[0]]","2","0","","","","","","4","",""
"","","","","","single-stim-button","225","547044","0.0-3.0-16.1-0.1","5e87b4d3e28032100ce68eec","C3","batch3","","794","","","tol_tohand","","","","","","","","","tol_peg_1","794","794","0","[[0,0,0],[3,0],[1]]","2","[[1,2,0],[3,0],[0]]","2","0","","","","","","4","",""
"","","","","","single-stim-button","226","547197","0.0-3.0-16.1-1.1","5e87b4d3e28032100ce68eec","C3","batch3","","151","","","tol_toboard","","","","","","","","","tol_peg_1","151","151","0","[[2,0,0],[3,0],[1]]","2","[[1,2,0],[3,0],[0]]","2","0","","","","","","4","",""
"","","","","","single-stim-button","227","548520","0.0-3.0-16.2-0.2","5e87b4d3e28032100ce68eec","C3","batch3","","1323","","","tol_tohand","","","","","","","","","tol_peg_1","1323","1323","0","[[0,0,0],[3,0],[1]]","3","[[1,2,0],[3,0],[0]]","2","0","","","","","","4","",""
"","","","","","single-stim-button","228","549395","0.0-3.0-16.2-1.2","5e87b4d3e28032100ce68eec","C3","batch3","","873","","","tol_toboard","","","","","","","","","tol_peg_2","873","873","0","[[0,0,0],[3,2],[1]]","3","[[1,2,0],[3,0],[0]]","2","0","","","","","","4","",""
"","","","","","single-stim-button","229","550546","0.0-3.0-16.3-0.3","5e87b4d3e28032100ce68eec","C3","batch3","","1150","","","tol_tohand","","","","","","","","","tol_peg_3","1150","1150","0","[[0,0,0],[3,2],[0]]","4","[[1,2,0],[3,0],[0]]","2","0","","","","","","4","",""
"","","","","","single-stim-button","230","552078","0.0-3.0-16.3-1.3","5e87b4d3e28032100ce68eec","C3","batch3","","1532","","","tol_toboard","","","","","","","","","tol_peg_1","1532","1532","0","[[1,0,0],[3,2],[0]]","4","[[1,2,0],[3,0],[0]]","2","0","","","","","","4","",""
"","","","","","single-stim-button","231","552891","0.0-3.0-16.4-0.4","5e87b4d3e28032100ce68eec","C3","batch3","","811","","","tol_tohand","","","","","","","","","tol_peg_2","811","811","0","[[1,0,0],[3,0],[0]]","5","[[1,2,0],[3,0],[0]]","2","0","","","","","","4","",""
"","","","","","single-stim-button","232","553944","0.0-3.0-16.4-1.4","5e87b4d3e28032100ce68eec","C3","batch3","","1052","","","tol_toboard","","","","","","","","","tol_peg_1","1052","1052","0","[[1,2,0],[3,0],[0]]","5","[[1,2,0],[3,0],[0]]","2","0","","","","","","4","",""
"","","","","","poldrack-single-stim","233","554946","0.0-3.0-17.0","5e87b4d3e28032100ce68eec","C3","batch3","","-1","","","tol_feedback","true","","","","","","","","","1000","1000","500","","","","","","-1","none","true","3980","8058","","",""
"","","","","","html-button-response","234","557002","0.0-3.0-18.0","5e87b4d3e28032100ce68eec","C3","batch3","","2054.900000035763","<div class = centerbox><p class = center-block-text>problem <strong>4</strong> out of 25 problems</p></div>","0","tol_trial_num","","","","","","","","","","","","","","","","","","","","","","","","",""
"","","","","","single-stim-button","235","560519","0.0-3.0-19.0-0.0","5e87b4d3e28032100ce68eec","C3","batch3","","3515","","","tol_tohand","","","","","","","","","tol_peg_2","3515","3515","0","[[3,0,0],[2,0],[0]]","1","[[3,0,0],[1,0],[2]]","3","0","","","","","","3","",""
"","","","","","single-stim-button","236","561466","0.0-3.0-19.0-1.0","5e87b4d3e28032100ce68eec","C3","batch3","","946","","","tol_toboard","","","","","","","","","tol_peg_1","946","946","0","[[3,1,0],[2,0],[0]]","1","[[3,0,0],[1,0],[2]]","3","0","","","","","","3","",""
"","","","","","single-stim-button","237","562413","0.0-3.0-19.1-0.1","5e87b4d3e28032100ce68eec","C3","batch3","","947","","","tol_tohand","","","","","","","","","tol_peg_2","947","947","0","[[3,1,0],[0,0],[0]]","2","[[3,0,0],[1,0],[2]]","3","0","","","","","","3","",""
"","","","","","single-stim-button","238","563560","0.0-3.0-19.1-1.1","5e87b4d3e28032100ce68eec","C3","batch3","","1147","","","tol_toboard","","","","","","","","","tol_peg_3","1147","1147","0","[[3,1,0],[0,0],[2]]","2","[[3,0,0],[1,0],[2]]","3","0","","","","","","3","",""
"","","","","","single-stim-button","239","564478","0.0-3.0-19.2-0.2","5e87b4d3e28032100ce68eec","C3","batch3","","916","","","tol_tohand","","","","","","","","","tol_peg_1","916","916","0","[[3,0,0],[0,0],[2]]","3","[[3,0,0],[1,0],[2]]","3","0","","","","","","3","",""
"","","","","","single-stim-button","240","565681","0.0-3.0-19.2-1.2","5e87b4d3e28032100ce68eec","C3","batch3","","1203","","","tol_toboard","","","","","","","","","tol_peg_2","1203","1203","0","[[3,0,0],[1,0],[2]]","3","[[3,0,0],[1,0],[2]]","3","0","","","","","","3","",""
"","","","","","poldrack-single-stim","241","566686","0.0-3.0-20.0","5e87b4d3e28032100ce68eec","C3","batch3","","-1","","","tol_feedback","true","","","","","","","","","1000","1000","500","","","","","","-1","none","true","3515","5378","","",""
"","","","","","html-button-response","242","567623","0.0-3.0-21.0","5e87b4d3e28032100ce68eec","C3","batch3","","935.3999999761581","<div class = centerbox><p class = center-block-text>problem <strong>5</strong> out of 25 problems</p></div>","0","tol_trial_num","","","","","","","","","","","","","","","","","","","","","","","","",""
"","","","","","single-stim-button","243","574516","0.0-3.0-22.0-0.0","5e87b4d3e28032100ce68eec","C3","batch3","","6891","","","tol_tohand","","","","","","","","","tol_peg_2","6891","6891","0","[[1,0,0],[0,0],[3]]","1","[[0,0,0],[1,2],[3]]","4","0","","","","","","7","",""
"","","","","","single-stim-button","244","577026","0.0-3.0-22.0-1.0","5e87b4d3e28032100ce68eec","C3","batch3","","2510","","","tol_toboard","","","","","","","","","tol_peg_1","2510","2510","0","[[1,2,0],[0,0],[3]]","1","[[0,0,0],[1,2],[3]]","4","0","","","","","","7","",""
"","","","","","single-stim-button","245","582584","0.0-3.0-22.1-0.1","5e87b4d3e28032100ce68eec","C3","batch3","","5556","","","tol_tohand","","","","","","","","","tol_peg_3","5556","5556","0","[[1,2,0],[0,0],[0]]","2","[[0,0,0],[1,2],[3]]","4","0","","","","","","7","",""
"","","","","","single-stim-button","246","584067","0.0-3.0-22.1-1.1","5e87b4d3e28032100ce68eec","C3","batch3","","1483","","","tol_toboard","","","","","","","","","tol_peg_2","1483","1483","0","[[1,2,0],[3,0],[0]]","2","[[0,0,0],[1,2],[3]]","4","0","","","","","","7","",""
"","","","","","single-stim-button","247","584934","0.0-3.0-22.2-0.2","5e87b4d3e28032100ce68eec","C3","batch3","","866","","","tol_tohand","","","","","","","","","tol_peg_1","866","866","0","[[1,0,0],[3,0],[0]]","3","[[0,0,0],[1,2],[3]]","4","0","","","","","","7","",""
"","","","","","single-stim-button","248","585981","0.0-3.0-22.2-1.2","5e87b4d3e28032100ce68eec","C3","batch3","","1046","","","tol_toboard","","","","","","","","","tol_peg_3","1046","1046","0","[[1,0,0],[3,0],[2]]","3","[[0,0,0],[1,2],[3]]","4","0","","","","","","7","",""
"","","","","","single-stim-button","249","587209","0.0-3.0-22.3-0.3","5e87b4d3e28032100ce68eec","C3","batch3","","1227","","","tol_tohand","","","","","","","","","tol_peg_1","1227","1227","0","[[0,0,0],[3,0],[2]]","4","[[0,0,0],[1,2],[3]]","4","0","","","","","","7","",""
"","","","","","single-stim-button","250","588348","0.0-3.0-22.3-1.3","5e87b4d3e28032100ce68eec","C3","batch3","","1137","","","tol_toboard","","","","","","","","","tol_peg_2","1137","1137","0","[[0,0,0],[3,1],[2]]","4","[[0,0,0],[1,2],[3]]","4","0","","","","","","7","",""
"","","","","","single-stim-button","251","589405","0.0-3.0-22.4-0.4","5e87b4d3e28032100ce68eec","C3","batch3","","1056","","","tol_tohand","","","","","","","","","tol_peg_2","1056","1056","0","[[0,0,0],[3,0],[2]]","5","[[0,0,0],[1,2],[3]]","4","0","","","","","","7","",""
"","","","","","single-stim-button","252","591011","0.0-3.0-22.4-1.4","5e87b4d3e28032100ce68eec","C3","batch3","","1605","","","tol_toboard","","","","","","","","","tol_peg_1","1605","1605","0","[[1,0,0],[3,0],[2]]","5","[[0,0,0],[1,2],[3]]","4","0","","","","","","7","",""
"","","","","","single-stim-button","253","592677","0.0-3.0-22.5-0.5","5e87b4d3e28032100ce68eec","C3","batch3","","1666","","","tol_tohand","","","","","","","","","tol_peg_3","1666","1666","0","[[1,0,0],[3,0],[0]]","6","[[0,0,0],[1,2],[3]]","4","0","","","","","","7","",""
"","","","","","single-stim-button","254","593429","0.0-3.0-22.5-1.5","5e87b4d3e28032100ce68eec","C3","batch3","","751","","","tol_toboard","","","","","","","","","tol_peg_1","751","751","0","[[1,2,0],[3,0],[0]]","6","[[0,0,0],[1,2],[3]]","4","0","","","","","","7","",""
"","","","","","single-stim-button","255","594122","0.0-3.0-22.6-0.6","5e87b4d3e28032100ce68eec","C3","batch3","","692","","","tol_tohand","","","","","","","","","tol_peg_2","692","692","0","[[1,2,0],[0,0],[0]]","7","[[0,0,0],[1,2],[3]]","4","0","","","","","","7","",""
"","","","","","single-stim-button","256","595114","0.0-3.0-22.6-1.6","5e87b4d3e28032100ce68eec","C3","batch3","","992","","","tol_toboard","","","","","","","","","tol_peg_1","992","992","0","[[1,2,3],[0,0],[0]]","7","[[0,0,0],[1,2],[3]]","4","0","","","","","","7","",""
"","","","","","single-stim-button","257","599590","0.0-3.0-22.7-0.7","5e87b4d3e28032100ce68eec","C3","batch3","","4475","","","tol_tohand","","","","","","","","","tol_peg_1","4475","4475","0","[[1,2,0],[0,0],[0]]","8","[[0,0,0],[1,2],[3]]","4","0","","","","","","7","",""
"","","","","","single-stim-button","258","601446","0.0-3.0-22.7-1.7","5e87b4d3e28032100ce68eec","C3","batch3","","1854","","","tol_toboard","","","","","","","","","tol_peg_3","1854","1854","0","[[1,2,0],[0,0],[3]]","8","[[0,0,0],[1,2],[3]]","4","0","","","","","","7","",""
"","","","","","single-stim-button","259","605175","0.0-3.0-22.8-0.8","5e87b4d3e28032100ce68eec","C3","batch3","","3728","","","tol_tohand","","","","","","","","","tol_peg_3","3728","3728","0","[[1,2,0],[0,0],[0]]","9","[[0,0,0],[1,2],[3]]","4","0","","","","","","7","",""
"","","","","","single-stim-button","260","607888","0.0-3.0-22.8-1.8","5e87b4d3e28032100ce68eec","C3","batch3","","2712","","","tol_toboard","","","","","","","","","tol_peg_2","2712","2712","0","[[1,2,0],[3,0],[0]]","9","[[0,0,0],[1,2],[3]]","4","0","","","","","","7","",""
"","","","","","single-stim-button","261","608816","0.0-3.0-22.9-0.9","5e87b4d3e28032100ce68eec","C3","batch3","","927","","","tol_tohand","","","","","","","","","tol_peg_1","927","927","0","[[1,0,0],[3,0],[0]]","10","[[0,0,0],[1,2],[3]]","4","0","","","","","","7","",""
"","","","","","single-stim-button","262","609933","0.0-3.0-22.9-1.9","5e87b4d3e28032100ce68eec","C3","batch3","","1115","","","tol_toboard","","","","","","","","","tol_peg_3","1115","1115","0","[[1,0,0],[3,0],[2]]","10","[[0,0,0],[1,2],[3]]","4","0","","","","","","7","",""
"","","","","","single-stim-button","263","615755","0.0-3.0-22.10-0.10","5e87b4d3e28032100ce68eec","C3","batch3","","5822","","","tol_tohand","","","","","","","","","tol_peg_3","5822","5822","0","[[1,0,0],[3,0],[0]]","11","[[0,0,0],[1,2],[3]]","4","0","","","","","","7","",""
"","","","","","single-stim-button","264","617094","0.0-3.0-22.10-1.10","5e87b4d3e28032100ce68eec","C3","batch3","","1338","","","tol_toboard","","","","","","","","","tol_peg_2","1338","1338","0","[[1,0,0],[3,2],[0]]","11","[[0,0,0],[1,2],[3]]","4","0","","","","","","7","",""
"","","","","","single-stim-button","265","617981","0.0-3.0-22.11-0.11","5e87b4d3e28032100ce68eec","C3","batch3","","885","","","tol_tohand","","","","","","","","","tol_peg_1","885","885","0","[[0,0,0],[3,2],[0]]","12","[[0,0,0],[1,2],[3]]","4","0","","","","","","7","",""
"","","","","","single-stim-button","266","618944","0.0-3.0-22.11-1.11","5e87b4d3e28032100ce68eec","C3","batch3","","962","","","tol_toboard","","","","","","","","","tol_peg_3","962","962","0","[[0,0,0],[3,2],[1]]","12","[[0,0,0],[1,2],[3]]","4","0","","","","","","7","",""
"","","","","","single-stim-button","267","619810","0.0-3.0-22.12-0.12","5e87b4d3e28032100ce68eec","C3","batch3","","866","","","tol_tohand","","","","","","","","","tol_peg_2","866","866","0","[[0,0,0],[3,0],[1]]","13","[[0,0,0],[1,2],[3]]","4","0","","","","","","7","",""
"","","","","","single-stim-button","268","621142","0.0-3.0-22.12-1.12","5e87b4d3e28032100ce68eec","C3","batch3","","1332","","","tol_toboard","","","","","","","","","tol_peg_1","1332","1332","0","[[2,0,0],[3,0],[1]]","13","[[0,0,0],[1,2],[3]]","4","0","","","","","","7","",""
"","","","","","single-stim-button","269","621893","0.0-3.0-22.13-0.13","5e87b4d3e28032100ce68eec","C3","batch3","","749","","","tol_tohand","","","","","","","","","tol_peg_2","749","749","0","[[2,0,0],[0,0],[1]]","14","[[0,0,0],[1,2],[3]]","4","0","","","","","","7","",""
"","","","","","single-stim-button","270","622615","0.0-3.0-22.13-1.13","5e87b4d3e28032100ce68eec","C3","batch3","","722","","","tol_toboard","","","","","","","","","tol_peg_1","722","722","0","[[2,3,0],[0,0],[1]]","14","[[0,0,0],[1,2],[3]]","4","0","","","","","","7","",""
"","","","","","single-stim-button","271","623346","0.0-3.0-22.14-0.14","5e87b4d3e28032100ce68eec","C3","batch3","","729","","","tol_tohand","","","","","","","","","tol_peg_3","729","729","0","[[2,3,0],[0,0],[0]]","15","[[0,0,0],[1,2],[3]]","4","0","","","","","","7","",""
"","","","","","single-stim-button","272","624240","0.0-3.0-22.14-1.14","5e87b4d3e28032100ce68eec","C3","batch3","","893","","","tol_toboard","","","","","","","","","tol_peg_2","893","893","0","[[2,3,0],[1,0],[0]]","15","[[0,0,0],[1,2],[3]]","4","0","","","","","","7","",""
"","","","","","single-stim-button","273","625097","0.0-3.0-22.15-0.15","5e87b4d3e28032100ce68eec","C3","batch3","","857","","","tol_tohand","","","","","","","","","tol_peg_1","857","857","0","[[2,0,0],[1,0],[0]]","16","[[0,0,0],[1,2],[3]]","4","0","","","","","","7","",""
"","","","","","single-stim-button","274","626260","0.0-3.0-22.15-1.15","5e87b4d3e28032100ce68eec","C3","batch3","","1162","","","tol_toboard","","","","","","","","","tol_peg_3","1162","1162","0","[[2,0,0],[1,0],[3]]","16","[[0,0,0],[1,2],[3]]","4","0","","","","","","7","",""
"","","","","","single-stim-button","275","627137","0.0-3.0-22.16-0.16","5e87b4d3e28032100ce68eec","C3","batch3","","876","","","tol_tohand","","","","","","","","","tol_peg_1","876","876","0","[[0,0,0],[1,0],[3]]","17","[[0,0,0],[1,2],[3]]","4","0","","","","","","7","",""
"","","","","","single-stim-button","276","628364","0.0-3.0-22.16-1.16","5e87b4d3e28032100ce68eec","C3","batch3","","1226","","","tol_toboard","","","","","","","","","tol_peg_2","1226","1226","0","[[0,0,0],[1,2],[3]]","17","[[0,0,0],[1,2],[3]]","4","0","","","","","","7","",""
"","","","","","poldrack-single-stim","277","629373","0.0-3.0-23.0","5e87b4d3e28032100ce68eec","C3","batch3","","-1","","","tol_feedback","true","","","","","","","","","1000","1000","500","","","","","","-1","none","true","6891","37868","","",""
"","","","","","html-button-response","278","631616","0.0-3.0-24.0","5e87b4d3e28032100ce68eec","C3","batch3","","2241.5","<div class = centerbox><p class = center-block-text>problem <strong>6</strong> out of 25 problems</p></div>","0","tol_trial_num","","","","","","","","","","","","","","","","","","","","","","","","",""
"","","","","","single-stim-button","279","641679","0.0-3.0-25.0-0.0","5e87b4d3e28032100ce68eec","C3","batch3","","10063","","","tol_tohand","","","","","","","","","tol_peg_3","10063","10063","0","[[0,0,0],[1,2],[0]]","1","[[1,0,0],[2,3],[0]]","5","0","","","","","","6","",""
"","","","","","single-stim-button","280","643214","0.0-3.0-25.0-1.0","5e87b4d3e28032100ce68eec","C3","batch3","","1533","","","tol_toboard","","","","","","","","","tol_peg_1","1533","1533","0","[[3,0,0],[1,2],[0]]","1","[[1,0,0],[2,3],[0]]","5","0","","","","","","6","",""
"","","","","","single-stim-button","281","644364","0.0-3.0-25.1-0.1","5e87b4d3e28032100ce68eec","C3","batch3","","1149","","","tol_tohand","","","","","","","","","tol_peg_2","1149","1149","0","[[3,0,0],[1,0],[0]]","2","[[1,0,0],[2,3],[0]]","5","0","","","","","","6","",""
"","","","","","single-stim-button","282","645996","0.0-3.0-25.1-1.1","5e87b4d3e28032100ce68eec","C3","batch3","","1632","","","tol_toboard","","","","","","","","","tol_peg_3","1632","1632","0","[[3,0,0],[1,0],[2]]","2","[[1,0,0],[2,3],[0]]","5","0","","","","","","6","",""
"","","","","","single-stim-button","283","647595","0.0-3.0-25.2-0.2","5e87b4d3e28032100ce68eec","C3","batch3","","1598","","","tol_tohand","","","","","","","","","tol_peg_2","1598","1598","0","[[3,0,0],[0,0],[2]]","3","[[1,0,0],[2,3],[0]]","5","0","","","","","","6","",""
"","","","","","single-stim-button","284","648548","0.0-3.0-25.2-1.2","5e87b4d3e28032100ce68eec","C3","batch3","","952","","","tol_toboard","","","","","","","","","tol_peg_1","952","952","0","[[3,1,0],[0,0],[2]]","3","[[1,0,0],[2,3],[0]]","5","0","","","","","","6","",""
"","","","","","single-stim-button","285","649788","0.0-3.0-25.3-0.3","5e87b4d3e28032100ce68eec","C3","batch3","","1239","","","tol_tohand","","","","","","","","","tol_peg_3","1239","1239","0","[[3,1,0],[0,0],[0]]","4","[[1,0,0],[2,3],[0]]","5","0","","","","","","6","",""
"","","","","","single-stim-button","286","650989","0.0-3.0-25.3-1.3","5e87b4d3e28032100ce68eec","C3","batch3","","1200","","","tol_toboard","","","","","","","","","tol_peg_2","1200","1200","0","[[3,1,0],[2,0],[0]]","4","[[1,0,0],[2,3],[0]]","5","0","","","","","","6","",""
"","","","","","single-stim-button","287","651735","0.0-3.0-25.4-0.4","5e87b4d3e28032100ce68eec","C3","batch3","","745","","","tol_tohand","","","","","","","","","tol_peg_1","745","745","0","[[3,0,0],[2,0],[0]]","5","[[1,0,0],[2,3],[0]]","5","0","","","","","","6","",""
"","","","","","single-stim-button","288","652626","0.0-3.0-25.4-1.4","5e87b4d3e28032100ce68eec","C3","batch3","","890","","","tol_toboard","","","","","","","","","tol_peg_3","890","890","0","[[3,0,0],[2,0],[1]]","5","[[1,0,0],[2,3],[0]]","5","0","","","","","","6","",""
"","","","","","single-stim-button","289","653610","0.0-3.0-25.5-0.5","5e87b4d3e28032100ce68eec","C3","batch3","","983","","","tol_tohand","","","","","","","","","tol_peg_1","983","983","0","[[0,0,0],[2,0],[1]]","6","[[1,0,0],[2,3],[0]]","5","0","","","","","","6","",""
"","","","","","single-stim-button","290","654794","0.0-3.0-25.5-1.5","5e87b4d3e28032100ce68eec","C3","batch3","","1182","","","tol_toboard","","","","","","","","","tol_peg_2","1182","1182","0","[[0,0,0],[2,3],[1]]","6","[[1,0,0],[2,3],[0]]","5","0","","","","","","6","",""
"","","","","","single-stim-button","291","655625","0.0-3.0-25.6-0.6","5e87b4d3e28032100ce68eec","C3","batch3","","831","","","tol_tohand","","","","","","","","","tol_peg_3","831","831","0","[[0,0,0],[2,3],[0]]","7","[[1,0,0],[2,3],[0]]","5","0","","","","","","6","",""
"","","","","","single-stim-button","292","656995","0.0-3.0-25.6-1.6","5e87b4d3e28032100ce68eec","C3","batch3","","1368","","","tol_toboard","","","","","","","","","tol_peg_1","1368","1368","0","[[1,0,0],[2,3],[0]]","7","[[1,0,0],[2,3],[0]]","5","0","","","","","","6","",""
"","","","","","poldrack-single-stim","293","658004","0.0-3.0-26.0","5e87b4d3e28032100ce68eec","C3","batch3","","-1","","","tol_feedback","true","","","","","","","","","1000","1000","500","","","","","","-1","none","true","10063","16608","","",""
"","","","","","html-button-response","294","660247","0.0-3.0-27.0","5e87b4d3e28032100ce68eec","C3","batch3","","2241.699999988079","<div class = centerbox><p class = center-block-text>problem <strong>7</strong> out of 25 problems</p></div>","0","tol_trial_num","","","","","","","","","","","","","","","","","","","","","","","","",""
"","","","","","single-stim-button","295","666967","0.0-3.0-28.0-0.0","5e87b4d3e28032100ce68eec","C3","batch3","","6720","","","tol_tohand","","","","","","","","","tol_peg_3","6720","6720","0","[[2,1,0],[0,0],[0]]","1","[[1,2,0],[3,0],[0]]","6","0","","","","","","5","",""
"","","","","","single-stim-button","296","667921","0.0-3.0-28.0-1.0","5e87b4d3e28032100ce68eec","C3","batch3","","952","","","tol_toboard","","","","","","","","","tol_peg_2","952","952","0","[[2,1,0],[3,0],[0]]","1","[[1,2,0],[3,0],[0]]","6","0","","","","","","5","",""
"","","","","","single-stim-button","297","668625","0.0-3.0-28.1-0.1","5e87b4d3e28032100ce68eec","C3","batch3","","704","","","tol_tohand","","","","","","","","","tol_peg_1","704","704","0","[[2,0,0],[3,0],[0]]","2","[[1,2,0],[3,0],[0]]","6","0","","","","","","5","",""
"","","","","","single-stim-button","298","670949","0.0-3.0-28.1-1.1","5e87b4d3e28032100ce68eec","C3","batch3","","2323","","","tol_toboard","","","","","","","","","tol_peg_3","2323","2323","0","[[2,0,0],[3,0],[1]]","2","[[1,2,0],[3,0],[0]]","6","0","","","","","","5","",""
"","","","","","single-stim-button","299","671612","0.0-3.0-28.2-0.2","5e87b4d3e28032100ce68eec","C3","batch3","","662","","","tol_tohand","","","","","","","","","tol_peg_1","662","662","0","[[0,0,0],[3,0],[1]]","3","[[1,2,0],[3,0],[0]]","6","0","","","","","","5","",""
"","","","","","single-stim-button","300","672679","0.0-3.0-28.2-1.2","5e87b4d3e28032100ce68eec","C3","batch3","","1066","","","tol_toboard","","","","","","","","","tol_peg_2","1066","1066","0","[[0,0,0],[3,2],[1]]","3","[[1,2,0],[3,0],[0]]","6","0","","","","","","5","",""
"","","","","","single-stim-button","301","673533","0.0-3.0-28.3-0.3","5e87b4d3e28032100ce68eec","C3","batch3","","853","","","tol_tohand","","","","","","","","","tol_peg_3","853","853","0","[[0,0,0],[3,2],[0]]","4","[[1,2,0],[3,0],[0]]","6","0","","","","","","5","",""
"","","","","","single-stim-button","302","674489","0.0-3.0-28.3-1.3","5e87b4d3e28032100ce68eec","C3","batch3","","955","","","tol_toboard","","","","","","","","","tol_peg_1","955","955","0","[[1,0,0],[3,2],[0]]","4","[[1,2,0],[3,0],[0]]","6","0","","","","","","5","",""
"","","","","","single-stim-button","303","675302","0.0-3.0-28.4-0.4","5e87b4d3e28032100ce68eec","C3","batch3","","812","","","tol_tohand","","","","","","","","","tol_peg_2","812","812","0","[[1,0,0],[3,0],[0]]","5","[[1,2,0],[3,0],[0]]","6","0","","","","","","5","",""
"","","","","","single-stim-button","304","676407","0.0-3.0-28.4-1.4","5e87b4d3e28032100ce68eec","C3","batch3","","1105","","","tol_toboard","","","","","","","","","tol_peg_1","1105","1105","0","[[1,2,0],[3,0],[0]]","5","[[1,2,0],[3,0],[0]]","6","0","","","","","","5","",""
"","","","","","poldrack-single-stim","305","677418","0.0-3.0-29.0","5e87b4d3e28032100ce68eec","C3","batch3","","-1","","","tol_feedback","true","","","","","","","","","1000","1000","500","","","","","","-1","none","true","6720","9751","","",""
"","","","","","html-button-response","306","679092","0.0-3.0-30.0","5e87b4d3e28032100ce68eec","C3","batch3","","1672.0999999642372","<div class = centerbox><p class = center-block-text>problem <strong>8</strong> out of 25 problems</p></div>","0","tol_trial_num","","","","","","","","","","","","","","","","","","","","","","","","",""
"","","","","","single-stim-button","307","683970","0.0-3.0-31.0-0.0","5e87b4d3e28032100ce68eec","C3","batch3","","4877","","","tol_tohand","","","","","","","","","tol_peg_3","4877","4877","0","[[0,0,0],[2,3],[0]]","1","[[1,2,0],[3,0],[0]]","7","0","","","","","","4","",""
"","","","","","single-stim-button","308","685141","0.0-3.0-31.0-1.0","5e87b4d3e28032100ce68eec","C3","batch3","","1171","","","tol_toboard","","","","","","","","","tol_peg_1","1171","1171","0","[[1,0,0],[2,3],[0]]","1","[[1,2,0],[3,0],[0]]","7","0","","","","","","4","",""
"","","","","","single-stim-button","309","685906","0.0-3.0-31.1-0.1","5e87b4d3e28032100ce68eec","C3","batch3","","763","","","tol_tohand","","","","","","","","","tol_peg_2","763","763","0","[[1,0,0],[2,0],[0]]","2","[[1,2,0],[3,0],[0]]","7","0","","","","","","4","",""
"","","","","","single-stim-button","310","688069","0.0-3.0-31.1-1.1","5e87b4d3e28032100ce68eec","C3","batch3","","2162","","","tol_toboard","","","","","","","","","tol_peg_3","2162","2162","0","[[1,0,0],[2,0],[3]]","2","[[1,2,0],[3,0],[0]]","7","0","","","","","","4","",""
"","","","","","single-stim-button","311","691207","0.0-3.0-31.2-0.2","5e87b4d3e28032100ce68eec","C3","batch3","","3138","","","tol_tohand","","","","","","","","","tol_peg_2","3138","3138","0","[[1,0,0],[0,0],[3]]","3","[[1,2,0],[3,0],[0]]","7","0","","","","","","4","",""
"","","","","","single-stim-button","312","692380","0.0-3.0-31.2-1.2","5e87b4d3e28032100ce68eec","C3","batch3","","1171","","","tol_toboard","","","","","","","","","tol_peg_1","1171","1171","0","[[1,2,0],[0,0],[3]]","3","[[1,2,0],[3,0],[0]]","7","0","","","","","","4","",""
"","","","","","single-stim-button","313","693413","0.0-3.0-31.3-0.3","5e87b4d3e28032100ce68eec","C3","batch3","","1032","","","tol_tohand","","","","","","","","","tol_peg_3","1032","1032","0","[[1,2,0],[0,0],[0]]","4","[[1,2,0],[3,0],[0]]","7","0","","","","","","4","",""
"","","","","","single-stim-button","314","694891","0.0-3.0-31.3-1.3","5e87b4d3e28032100ce68eec","C3","batch3","","1477","","","tol_toboard","","","","","","","","","tol_peg_2","1477","1477","0","[[1,2,0],[3,0],[0]]","4","[[1,2,0],[3,0],[0]]","7","0","","","","","","4","",""
"","","","","","poldrack-single-stim","315","695903","0.0-3.0-32.0","5e87b4d3e28032100ce68eec","C3","batch3","","-1","","","tol_feedback","true","","","","","","","","","1000","1000","500","","","","","","-1","none","true","4877","9810","","",""
"","","","","","html-button-response","316","697255","0.0-3.0-33.0","5e87b4d3e28032100ce68eec","C3","batch3","","1350.800000011921","<div class = centerbox><p class = center-block-text>problem <strong>9</strong> out of 25 problems</p></div>","0","tol_trial_num","","","","","","","","","","","","","","","","","","","","","","","","",""
"","","","","","single-stim-button","317","715439","0.0-3.0-34.0-0.0","5e87b4d3e28032100ce68eec","C3","batch3","","18182","","","tol_tohand","","","","","","","","","tol_peg_1","18182","18182","0","[[3,0,0],[0,0],[1]]","1","[[2,1,0],[3,0],[0]]","8","0","","","","","","6","",""
"","","","","","single-stim-button","318","716894","0.0-3.0-34.0-1.0","5e87b4d3e28032100ce68eec","C3","batch3","","1454","","","tol_toboard","","","","","","","","","tol_peg_2","1454","1454","0","[[3,0,0],[2,0],[1]]","1","[[2,1,0],[3,0],[0]]","8","0","","","","","","6","",""
"","","","","","single-stim-button","319","717870","0.0-3.0-34.1-0.1","5e87b4d3e28032100ce68eec","C3","batch3","","975","","","tol_tohand","","","","","","","","","tol_peg_1","975","975","0","[[0,0,0],[2,0],[1]]","2","[[2,1,0],[3,0],[0]]","8","0","","","","","","6","",""
"","","","","","single-stim-button","320","719062","0.0-3.0-34.1-1.1","5e87b4d3e28032100ce68eec","C3","batch3","","1190","","","tol_toboard","","","","","","","","","tol_peg_2","1190","1190","0","[[0,0,0],[2,3],[1]]","2","[[2,1,0],[3,0],[0]]","8","0","","","","","","6","",""
"","","","","","single-stim-button","321","726713","0.0-3.0-34.2-0.2","5e87b4d3e28032100ce68eec","C3","batch3","","7651","","","tol_tohand","","","","","","","","","tol_peg_3","7651","7651","0","[[0,0,0],[2,3],[0]]","3","[[2,1,0],[3,0],[0]]","8","0","","","","","","6","",""
"","","","","","single-stim-button","322","727885","0.0-3.0-34.2-1.2","5e87b4d3e28032100ce68eec","C3","batch3","","1170","","","tol_toboard","","","","","","","","","tol_peg_1","1170","1170","0","[[1,0,0],[2,3],[0]]","3","[[2,1,0],[3,0],[0]]","8","0","","","","","","6","",""
"","","","","","single-stim-button","323","734044","0.0-3.0-34.3-0.3","5e87b4d3e28032100ce68eec","C3","batch3","","6158","","","tol_tohand","","","","","","","","","tol_peg_2","6158","6158","0","[[1,0,0],[2,0],[0]]","4","[[2,1,0],[3,0],[0]]","8","0","","","","","","6","",""
"","","","","","single-stim-button","324","736845","0.0-3.0-34.3-1.3","5e87b4d3e28032100ce68eec","C3","batch3","","2801","","","tol_toboard","","","","","","","","","tol_peg_3","2801","2801","0","[[1,0,0],[2,0],[3]]","4","[[2,1,0],[3,0],[0]]","8","0","","","","","","6","",""
"","","","","","single-stim-button","325","739662","0.0-3.0-34.4-0.4","5e87b4d3e28032100ce68eec","C3","batch3","","2816","","","tol_tohand","","","","","","","","","tol_peg_1","2816","2816","0","[[0,0,0],[2,0],[3]]","5","[[2,1,0],[3,0],[0]]","8","0","","","","","","6","",""
"","","","","","single-stim-button","326","740904","0.0-3.0-34.4-1.4","5e87b4d3e28032100ce68eec","C3","batch3","","1240","","","tol_toboard","","","","","","","","","tol_peg_2","1240","1240","0","[[0,0,0],[2,1],[3]]","5","[[2,1,0],[3,0],[0]]","8","0","","","","","","6","",""
"","","","","","single-stim-button","327","741858","0.0-3.0-34.5-0.5","5e87b4d3e28032100ce68eec","C3","batch3","","954","","","tol_tohand","","","","","","","","","tol_peg_3","954","954","0","[[0,0,0],[2,1],[0]]","6","[[2,1,0],[3,0],[0]]","8","0","","","","","","6","",""
"","","","","","single-stim-button","328","742905","0.0-3.0-34.5-1.5","5e87b4d3e28032100ce68eec","C3","batch3","","1046","","","tol_toboard","","","","","","","","","tol_peg_1","1046","1046","0","[[3,0,0],[2,1],[0]]","6","[[2,1,0],[3,0],[0]]","8","0","","","","","","6","",""
"","","","","","single-stim-button","329","744661","0.0-3.0-34.6-0.6","5e87b4d3e28032100ce68eec","C3","batch3","","1756","","","tol_tohand","","","","","","","","","tol_peg_2","1756","1756","0","[[3,0,0],[2,0],[0]]","7","[[2,1,0],[3,0],[0]]","8","0","","","","","","6","",""
"","","","","","single-stim-button","330","757105","0.0-3.0-34.6-1.6","5e87b4d3e28032100ce68eec","C3","batch3","","12443","","","tol_toboard","","","","","","","","","tol_peg_3","12443","12443","0","[[3,0,0],[2,0],[1]]","7","[[2,1,0],[3,0],[0]]","8","0","","","","","","6","",""
"","","","","","single-stim-button","331","757999","0.0-3.0-34.7-0.7","5e87b4d3e28032100ce68eec","C3","batch3","","893","","","tol_tohand","","","","","","","","","tol_peg_2","893","893","0","[[3,0,0],[0,0],[1]]","8","[[2,1,0],[3,0],[0]]","8","0","","","","","","6","",""
"","","","","","single-stim-button","332","759241","0.0-3.0-34.7-1.7","5e87b4d3e28032100ce68eec","C3","batch3","","1241","","","tol_toboard","","","","","","","","","tol_peg_1","1241","1241","0","[[3,2,0],[0,0],[1]]","8","[[2,1,0],[3,0],[0]]","8","0","","","","","","6","",""
"","","","","","single-stim-button","333","760053","0.0-3.0-34.8-0.8","5e87b4d3e28032100ce68eec","C3","batch3","","810","","","tol_tohand","","","","","","","","","tol_peg_3","810","810","0","[[3,2,0],[0,0],[0]]","9","[[2,1,0],[3,0],[0]]","8","0","","","","","","6","",""
"","","","","","single-stim-button","334","761170","0.0-3.0-34.8-1.8","5e87b4d3e28032100ce68eec","C3","batch3","","1117","","","tol_toboard","","","","","","","","","tol_peg_2","1117","1117","0","[[3,2,0],[1,0],[0]]","9","[[2,1,0],[3,0],[0]]","8","0","","","","","","6","",""
"","","","","","single-stim-button","335","762230","0.0-3.0-34.9-0.9","5e87b4d3e28032100ce68eec","C3","batch3","","1059","","","tol_tohand","","","","","","","","","tol_peg_1","1059","1059","0","[[3,0,0],[1,0],[0]]","10","[[2,1,0],[3,0],[0]]","8","0","","","","","","6","",""
"","","","","","single-stim-button","336","763093","0.0-3.0-34.9-1.9","5e87b4d3e28032100ce68eec","C3","batch3","","861","","","tol_toboard","","","","","","","","","tol_peg_2","861","861","0","[[3,0,0],[1,2],[0]]","10","[[2,1,0],[3,0],[0]]","8","0","","","","","","6","",""
"","","","","","single-stim-button","337","763864","0.0-3.0-34.10-0.10","5e87b4d3e28032100ce68eec","C3","batch3","","771","","","tol_tohand","","","","","","","","","tol_peg_1","771","771","0","[[0,0,0],[1,2],[0]]","11","[[2,1,0],[3,0],[0]]","8","0","","","","","","6","",""
"","","","","","single-stim-button","338","764907","0.0-3.0-34.10-1.10","5e87b4d3e28032100ce68eec","C3","batch3","","1042","","","tol_toboard","","","","","","","","","tol_peg_3","1042","1042","0","[[0,0,0],[1,2],[3]]","11","[[2,1,0],[3,0],[0]]","8","0","","","","","","6","",""
"","","","","","single-stim-button","339","765570","0.0-3.0-34.11-0.11","5e87b4d3e28032100ce68eec","C3","batch3","","662","","","tol_tohand","","","","","","","","","tol_peg_2","662","662","0","[[0,0,0],[1,0],[3]]","12","[[2,1,0],[3,0],[0]]","8","0","","","","","","6","",""
"","","","","","single-stim-button","340","766619","0.0-3.0-34.11-1.11","5e87b4d3e28032100ce68eec","C3","batch3","","1047","","","tol_toboard","","","","","","","","","tol_peg_1","1047","1047","0","[[2,0,0],[1,0],[3]]","12","[[2,1,0],[3,0],[0]]","8","0","","","","","","6","",""
"","","","","","single-stim-button","341","767309","0.0-3.0-34.12-0.12","5e87b4d3e28032100ce68eec","C3","batch3","","689","","","tol_tohand","","","","","","","","","tol_peg_2","689","689","0","[[2,0,0],[0,0],[3]]","13","[[2,1,0],[3,0],[0]]","8","0","","","","","","6","",""
"","","","","","single-stim-button","342","768440","0.0-3.0-34.12-1.12","5e87b4d3e28032100ce68eec","C3","batch3","","1131","","","tol_toboard","","","","","","","","","tol_peg_1","1131","1131","0","[[2,1,0],[0,0],[3]]","13","[[2,1,0],[3,0],[0]]","8","0","","","","","","6","",""
"","","","","","single-stim-button","343","769261","0.0-3.0-34.13-0.13","5e87b4d3e28032100ce68eec","C3","batch3","","820","","","tol_tohand","","","","","","","","","tol_peg_3","820","820","0","[[2,1,0],[0,0],[0]]","14","[[2,1,0],[3,0],[0]]","8","0","","","","","","6","",""
"","","","","","single-stim-button","344","770031","0.0-3.0-34.13-1.13","5e87b4d3e28032100ce68eec","C3","batch3","","769","","","tol_toboard","","","","","","","","","tol_peg_2","769","769","0","[[2,1,0],[3,0],[0]]","14","[[2,1,0],[3,0],[0]]","8","0","","","","","","6","",""
"","","","","","poldrack-single-stim","345","771044","0.0-3.0-35.0","5e87b4d3e28032100ce68eec","C3","batch3","","-1","","","tol_feedback","true","","","","","","","","","1000","1000","500","","","","","","-1","none","true","18182","44196","","",""
"","","","","","html-button-response","346","772664","0.0-3.0-36.0","5e87b4d3e28032100ce68eec","C3","batch3","","1618.699999988079","<div class = centerbox><p class = center-block-text>problem <strong>10</strong> out of 25 problems</p></div>","0","tol_trial_num","","","","","","","","","","","","","","","","","","","","","","","","",""
"","","","","","single-stim-button","347","781498","0.0-3.0-37.0-0.0","5e87b4d3e28032100ce68eec","C3","batch3","","8833","","","tol_tohand","","","","","","","","","tol_peg_2","8833","8833","0","[[3,0,0],[0,0],[2]]","1","[[3,0,0],[2,1],[0]]","9","0","","","","","","3","",""
"","","","","","single-stim-button","348","782242","0.0-3.0-37.0-1.0","5e87b4d3e28032100ce68eec","C3","batch3","","743","","","tol_toboard","","","","","","","","","tol_peg_1","743","743","0","[[3,1,0],[0,0],[2]]","1","[[3,0,0],[2,1],[0]]","9","0","","","","","","3","",""
"","","","","","single-stim-button","349","782924","0.0-3.0-37.1-0.1","5e87b4d3e28032100ce68eec","C3","batch3","","681","","","tol_tohand","","","","","","","","","tol_peg_3","681","681","0","[[3,1,0],[0,0],[0]]","2","[[3,0,0],[2,1],[0]]","9","0","","","","","","3","",""
