"success","timeout","failed_images","failed_audio","failed_video","trial_type","trial_index","time_elapsed","internal_node_id","subject_id","study_id","session_id","view_history","rt","task","stimulus","response","correct","mouse_click","stim_duration","block_duration","timing_post_trial","current_position","tol_num_moves_made","tol_target","tol_problem_id","tol_rt","key_press","possible_responses","tol_correct","preplanning","tol_rt_per_trial","tol_min_moves","item","answer","spm_correct","spm_rt","fiar_detect_rt","fiar_detect_correct","total_correct_fiar_detect","post_trial_gap","choices"
"true","false","[]","[]","[]","preload","0","7769","0.0-0.0","5e9902c3a64f740009842923","E1","batch5","","","","","","","","","","","","","","","","","","","","","","","","","","","","","",""
"true","","","","","fullscreen","1","18690","0.0-1.0-0.0","5e9902c3a64f740009842923","E1","batch5","","","","","","","","","","","","","","","","","","","","","","","","","","","","","",""
"true","","","","","fullscreen","2","21706","0.0-2.0-0.0","5e9902c3a64f740009842923","E1","batch5","","","","","","","","","","","","","","","","","","","","","","","","","","","","","",""
"","","","","","instructions","3","57687","0.0-2.0-1.0-0.0-0.0","5e9902c3a64f740009842923","E1","batch5","[{""page_index"":0,""viewing_time"":6533.600000023842},{""page_index"":1,""viewing_time"":4459.5},{""page_index"":2,""viewing_time"":1863.5999999940395},{""page_index"":3,""viewing_time"":9361.199999988079},{""page_index"":4,""viewing_time"":3436.0999999940395},{""page_index"":5,""viewing_time"":7746},{""page_index"":6,""viewing_time"":2579.300000011921}]","35979.70000001788","tol-instructions","","","","","","","","","","","","","","","","","","","","","","","","","","",""
"","","","","","html-button-response","4","58832","0.0-2.0-1.0-1.0-0.0","5e9902c3a64f740009842923","E1","batch5","","1143.9000000059605","tol_enter_quiz","<p class=block-text> Let's answer a few questions <br>","0","","","","","","","","","","","","","","","","","","","","","","","","",""
"","","","","","html-button-response","5","64927","0.0-2.0-1.0-1.0-1.0","5e9902c3a64f740009842923","E1","batch5","","6092.4000000059605","tol_quiz","<p class = block-text>True or False: You can only move the ball on top of a peg. <br></p>","0","true","","","","","","","","","","","","","","","","","","","","","","","",""
"","","","","","html-button-response","6","66192","0.0-2.0-1.0-1.0-2.0","5e9902c3a64f740009842923","E1","batch5","","1262","tol_quiz_feedback","<p class = block-text>Correct! You can only move the ball on top of a peg.</p>","0","","","","","","","","","","","","","","","","","","","","","","","","",""
"","","","","","html-button-response","7","68621","0.0-2.0-1.0-1.0-3.0","5e9902c3a64f740009842923","E1","batch5","","2427.699999988079","tol_quiz","<p class = block-text>True or False: You should try to match your board with the target board with fewest moves possible. <br></p>","0","true","","","","","","","","","","","","","","","","","","","","","","","",""
"","","","","","html-button-response","8","69265","0.0-2.0-1.0-1.0-4.0","5e9902c3a64f740009842923","E1","batch5","","643","tol_quiz_feedback","<p class = block-text>Correct! </p>","0","","","","","","","","","","","","","","","","","","","","","","","","",""
"","","","","","html-button-response","9","70499","0.0-2.0-2.0","5e9902c3a64f740009842923","E1","batch5","","1232.0999999940395","","<p class=block-text> Now that you've understood the game, let's practice a few easier examples before we start!<br> <br>","0","","","","","","","","","","","","","","","","","","","","","","","","",""
"","","","","","single-stim-button","10","72527","0.0-2.0-3.0-0.0","5e9902c3a64f740009842923","E1","batch5","","2025","tol_practice","","","","tol_peg_2","2025","2025","0","[[1,2,0],[0,0],[0]]","1","[[1,2,0],[0,0],[3]]","practice","2025","","","","","","","","","","","","","","",""
"","","","","","single-stim-button","11","73323","0.0-2.0-3.0-1.0","5e9902c3a64f740009842923","E1","batch5","","795","tol_practice","","","","tol_peg_3","795","795","0","[[1,2,0],[0,0],[3]]","1","[[1,2,0],[0,0],[3]]","practice","795","","","","","","","","","","","","","","",""
"","","","","","poldrack-single-stim","12","74331","0.0-2.0-4.0","5e9902c3a64f740009842923","E1","batch5","","-1","tol_feedback","","","true","","1000","1000","500","","","","","","-1","none","true","","0","","","","","","","","","",""
"","","","","","single-stim-button","13","78832","0.0-2.0-5.0-0.0","5e9902c3a64f740009842923","E1","batch5","","4501","tol_practice","","","","tol_peg_1","4501","4501","0","[[1,0,0],[3,0],[0]]","2","[[0,0,0],[3,1],[2]]","practice","4501","","","","","","","","","","","","","","",""
"","","","","","single-stim-button","14","79588","0.0-2.0-5.0-1.0","5e9902c3a64f740009842923","E1","batch5","","754","tol_practice","","","","tol_peg_3","754","754","0","[[1,0,0],[3,0],[2]]","2","[[0,0,0],[3,1],[2]]","practice","754","","","","","","","","","","","","","","",""
"","","","","","single-stim-button","15","80228","0.0-2.0-5.1-0.1","5e9902c3a64f740009842923","E1","batch5","","640","tol_practice","","","","tol_peg_1","640","640","0","[[0,0,0],[3,0],[2]]","3","[[0,0,0],[3,1],[2]]","practice","640","","","","","","","","","","","","","","",""
"","","","","","single-stim-button","16","80941","0.0-2.0-5.1-1.1","5e9902c3a64f740009842923","E1","batch5","","711","tol_practice","","","","tol_peg_2","711","711","0","[[0,0,0],[3,1],[2]]","3","[[0,0,0],[3,1],[2]]","practice","711","","","","","","","","","","","","","","",""
"","","","","","poldrack-single-stim","17","81945","0.0-2.0-6.0","5e9902c3a64f740009842923","E1","batch5","","-1","tol_feedback","","","true","","1000","1000","500","","","","","","-1","none","true","","0","","","","","","","","","",""
"","","","","","single-stim-button","18","84411","0.0-2.0-7.0-0.0","5e9902c3a64f740009842923","E1","batch5","","2465","tol_practice","","","","tol_peg_2","2465","2465","0","[[1,2,0],[0,0],[0]]","4","[[1,0,0],[2,0],[3]]","practice","2465","","","","","","","","","","","","","","",""
"","","","","","single-stim-button","19","85041","0.0-2.0-7.0-1.0","5e9902c3a64f740009842923","E1","batch5","","630","tol_practice","","","","tol_peg_3","630","630","0","[[1,2,0],[0,0],[3]]","4","[[1,0,0],[2,0],[3]]","practice","630","","","","","","","","","","","","","","",""
"","","","","","single-stim-button","20","85888","0.0-2.0-7.1-0.1","5e9902c3a64f740009842923","E1","batch5","","845","tol_practice","","","","tol_peg_1","845","845","0","[[1,0,0],[0,0],[3]]","5","[[1,0,0],[2,0],[3]]","practice","845","","","","","","","","","","","","","","",""
"","","","","","single-stim-button","21","86462","0.0-2.0-7.1-1.1","5e9902c3a64f740009842923","E1","batch5","","574","tol_practice","","","","tol_peg_2","574","574","0","[[1,0,0],[2,0],[3]]","5","[[1,0,0],[2,0],[3]]","practice","574","","","","","","","","","","","","","","",""
"","","","","","poldrack-single-stim","22","87466","0.0-2.0-8.0","5e9902c3a64f740009842923","E1","batch5","","-1","tol_feedback","","","true","","1000","1000","500","","","","","","-1","none","true","","0","","","","","","","","","",""
"","","","","","html-button-response","23","123042","0.0-2.0-9.0","5e9902c3a64f740009842923","E1","batch5","","35574.59999999404","tol_instruction","<div class = centerbox><p class = center-block-text>Great job! You are done with practice trials<br>You are about to start official trials.<br> <br> Problem <strong>1</strong> out of 25 problems</p></div>","0","","","","","","","","","","","","","","","","","","","","","","","","",""
"","","","","","single-stim-button","24","129093","0.0-2.0-10.0-0.0","5e9902c3a64f740009842923","E1","batch5","","5042","tol_tohand","","","","tol_peg_1","5042","5042","0","[[1,0,0],[3,0],[0]]","1","[[1,3,0],[2,0],[0]]","0","0","","","","","","3","","","","","","","","",""
"","","","","","single-stim-button","25","129873","0.0-2.0-10.0-1.0","5e9902c3a64f740009842923","E1","batch5","","780","tol_toboard","","","","tol_peg_3","780","780","0","[[1,0,0],[3,0],[2]]","1","[[1,3,0],[2,0],[0]]","0","0","","","","","","3","","","","","","","","",""
"","","","","","single-stim-button","26","130364","0.0-2.0-10.1-0.1","5e9902c3a64f740009842923","E1","batch5","","490","tol_tohand","","","","tol_peg_2","490","490","0","[[1,0,0],[0,0],[2]]","2","[[1,3,0],[2,0],[0]]","0","0","","","","","","3","","","","","","","","",""
"","","","","","single-stim-button","27","131074","0.0-2.0-10.1-1.1","5e9902c3a64f740009842923","E1","batch5","","709","tol_toboard","","","","tol_peg_1","709","709","0","[[1,3,0],[0,0],[2]]","2","[[1,3,0],[2,0],[0]]","0","0","","","","","","3","","","","","","","","",""
"","","","","","single-stim-button","28","131731","0.0-2.0-10.2-0.2","5e9902c3a64f740009842923","E1","batch5","","657","tol_tohand","","","","tol_peg_3","657","657","0","[[1,3,0],[0,0],[0]]","3","[[1,3,0],[2,0],[0]]","0","0","","","","","","3","","","","","","","","",""
"","","","","","single-stim-button","29","132306","0.0-2.0-10.2-1.2","5e9902c3a64f740009842923","E1","batch5","","574","tol_toboard","","","","tol_peg_2","574","574","0","[[1,3,0],[2,0],[0]]","3","[[1,3,0],[2,0],[0]]","0","0","","","","","","3","","","","","","","","",""
"","","","","","poldrack-single-stim","30","133324","0.0-2.0-11.0","5e9902c3a64f740009842923","E1","batch5","","-1","tol_feedback","","","true","","1000","1000","500","","","","","","-1","none","true","5042","6189","","","","","","","","","",""
"","","","","","html-button-response","31","134491","0.0-2.0-12.0","5e9902c3a64f740009842923","E1","batch5","","1166.2000000178814","tol_trial_num","<div class = centerbox><p class = center-block-text>problem <strong>2</strong> out of 25 problems</p></div>","0","","","","","","","","","","","","","","","","","","","","","","","","",""
"","","","","","single-stim-button","32","141537","0.0-2.0-13.0-0.0","5e9902c3a64f740009842923","E1","batch5","","7046","tol_tohand","","","","tol_peg_1","7046","7046","0","[[1,0,0],[3,0],[0]]","1","[[2,1,3],[0,0],[0]]","1","0","","","","","","5","","","","","","","","",""
"","","","","","single-stim-button","33","142277","0.0-2.0-13.0-1.0","5e9902c3a64f740009842923","E1","batch5","","739","tol_toboard","","","","tol_peg_2","739","739","0","[[1,0,0],[3,2],[0]]","1","[[2,1,3],[0,0],[0]]","1","0","","","","","","5","","","","","","","","",""
"","","","","","single-stim-button","34","142734","0.0-2.0-13.1-0.1","5e9902c3a64f740009842923","E1","batch5","","457","tol_tohand","","","","tol_peg_1","457","457","0","[[0,0,0],[3,2],[0]]","2","[[2,1,3],[0,0],[0]]","1","0","","","","","","5","","","","","","","","",""
"","","","","","single-stim-button","35","143346","0.0-2.0-13.1-1.1","5e9902c3a64f740009842923","E1","batch5","","612","tol_toboard","","","","tol_peg_3","612","612","0","[[0,0,0],[3,2],[1]]","2","[[2,1,3],[0,0],[0]]","1","0","","","","","","5","","","","","","","","",""
"","","","","","single-stim-button","36","144002","0.0-2.0-13.2-0.2","5e9902c3a64f740009842923","E1","batch5","","656","tol_tohand","","","","tol_peg_2","656","656","0","[[0,0,0],[3,0],[1]]","3","[[2,1,3],[0,0],[0]]","1","0","","","","","","5","","","","","","","","",""
"","","","","","single-stim-button","37","144675","0.0-2.0-13.2-1.2","5e9902c3a64f740009842923","E1","batch5","","671","tol_toboard","","","","tol_peg_1","671","671","0","[[2,0,0],[3,0],[1]]","3","[[2,1,3],[0,0],[0]]","1","0","","","","","","5","","","","","","","","",""
"","","","","","single-stim-button","38","145247","0.0-2.0-13.3-0.3","5e9902c3a64f740009842923","E1","batch5","","571","tol_tohand","","","","tol_peg_3","571","571","0","[[2,0,0],[3,0],[0]]","4","[[2,1,3],[0,0],[0]]","1","0","","","","","","5","","","","","","","","",""
"","","","","","single-stim-button","39","145970","0.0-2.0-13.3-1.3","5e9902c3a64f740009842923","E1","batch5","","722","tol_toboard","","","","tol_peg_1","722","722","0","[[2,1,0],[3,0],[0]]","4","[[2,1,3],[0,0],[0]]","1","0","","","","","","5","","","","","","","","",""
"","","","","","single-stim-button","40","146574","0.0-2.0-13.4-0.4","5e9902c3a64f740009842923","E1","batch5","","603","tol_tohand","","","","tol_peg_2","603","603","0","[[2,1,0],[0,0],[0]]","5","[[2,1,3],[0,0],[0]]","1","0","","","","","","5","","","","","","","","",""
"","","","","","single-stim-button","41","147219","0.0-2.0-13.4-1.4","5e9902c3a64f740009842923","E1","batch5","","644","tol_toboard","","","","tol_peg_1","644","644","0","[[2,1,3],[0,0],[0]]","5","[[2,1,3],[0,0],[0]]","1","0","","","","","","5","","","","","","","","",""
"","","","","","poldrack-single-stim","42","148226","0.0-2.0-14.0","5e9902c3a64f740009842923","E1","batch5","","-1","tol_feedback","","","true","","1000","1000","500","","","","","","-1","none","true","7046","9333","","","","","","","","","",""
"","","","","","html-button-response","43","149256","0.0-2.0-15.0","5e9902c3a64f740009842923","E1","batch5","","1027.800000011921","tol_trial_num","<div class = centerbox><p class = center-block-text>problem <strong>3</strong> out of 25 problems</p></div>","0","","","","","","","","","","","","","","","","","","","","","","","","",""
"","","","","","single-stim-button","44","152843","0.0-2.0-16.0-0.0","5e9902c3a64f740009842923","E1","batch5","","3587","tol_tohand","","","","tol_peg_1","3587","3587","0","[[2,0,0],[0,0],[1]]","1","[[1,2,0],[3,0],[0]]","2","0","","","","","","4","","","","","","","","",""
"","","","","","single-stim-button","45","153433","0.0-2.0-16.0-1.0","5e9902c3a64f740009842923","E1","batch5","","589","tol_toboard","","","","tol_peg_2","589","589","0","[[2,0,0],[3,0],[1]]","1","[[1,2,0],[3,0],[0]]","2","0","","","","","","4","","","","","","","","",""
"","","","","","single-stim-button","46","154454","0.0-2.0-16.1-0.1","5e9902c3a64f740009842923","E1","batch5","","1020","tol_tohand","","","","tol_peg_1","1020","1020","0","[[0,0,0],[3,0],[1]]","2","[[1,2,0],[3,0],[0]]","2","0","","","","","","4","","","","","","","","",""
"","","","","","single-stim-button","47","155321","0.0-2.0-16.1-1.1","5e9902c3a64f740009842923","E1","batch5","","867","tol_toboard","","","","tol_peg_2","867","867","0","[[0,0,0],[3,2],[1]]","2","[[1,2,0],[3,0],[0]]","2","0","","","","","","4","","","","","","","","",""
"","","","","","single-stim-button","48","156202","0.0-2.0-16.2-0.2","5e9902c3a64f740009842923","E1","batch5","","881","tol_tohand","","","","tol_peg_3","881","881","0","[[0,0,0],[3,2],[0]]","3","[[1,2,0],[3,0],[0]]","2","0","","","","","","4","","","","","","","","",""
"","","","","","single-stim-button","49","157045","0.0-2.0-16.2-1.2","5e9902c3a64f740009842923","E1","batch5","","843","tol_toboard","","","","tol_peg_1","843","843","0","[[1,0,0],[3,2],[0]]","3","[[1,2,0],[3,0],[0]]","2","0","","","","","","4","","","","","","","","",""
"","","","","","single-stim-button","50","157564","0.0-2.0-16.3-0.3","5e9902c3a64f740009842923","E1","batch5","","519","tol_tohand","","","","tol_peg_2","519","519","0","[[1,0,0],[3,0],[0]]","4","[[1,2,0],[3,0],[0]]","2","0","","","","","","4","","","","","","","","",""
"","","","","","single-stim-button","51","158351","0.0-2.0-16.3-1.3","5e9902c3a64f740009842923","E1","batch5","","785","tol_toboard","","","","tol_peg_1","785","785","0","[[1,2,0],[3,0],[0]]","4","[[1,2,0],[3,0],[0]]","2","0","","","","","","4","","","","","","","","",""
"","","","","","poldrack-single-stim","52","159354","0.0-2.0-17.0","5e9902c3a64f740009842923","E1","batch5","","-1","tol_feedback","","","true","","1000","1000","500","","","","","","-1","none","true","3587","6007","","","","","","","","","",""
"","","","","","html-button-response","53","160613","0.0-2.0-18.0","5e9902c3a64f740009842923","E1","batch5","","1257.8999999761581","tol_trial_num","<div class = centerbox><p class = center-block-text>problem <strong>4</strong> out of 25 problems</p></div>","0","","","","","","","","","","","","","","","","","","","","","","","","",""
"","","","","","single-stim-button","54","163961","0.0-2.0-19.0-0.0","5e9902c3a64f740009842923","E1","batch5","","3347","tol_tohand","","","","tol_peg_2","3347","3347","0","[[3,0,0],[2,0],[0]]","1","[[3,0,0],[1,0],[2]]","3","0","","","","","","3","","","","","","","","",""
"","","","","","single-stim-button","55","164488","0.0-2.0-19.0-1.0","5e9902c3a64f740009842923","E1","batch5","","526","tol_toboard","","","","tol_peg_1","526","526","0","[[3,1,0],[2,0],[0]]","1","[[3,0,0],[1,0],[2]]","3","0","","","","","","3","","","","","","","","",""
"","","","","","single-stim-button","56","165063","0.0-2.0-19.1-0.1","5e9902c3a64f740009842923","E1","batch5","","574","tol_tohand","","","","tol_peg_2","574","574","0","[[3,1,0],[0,0],[0]]","2","[[3,0,0],[1,0],[2]]","3","0","","","","","","3","","","","","","","","",""
"","","","","","single-stim-button","57","165767","0.0-2.0-19.1-1.1","5e9902c3a64f740009842923","E1","batch5","","703","tol_toboard","","","","tol_peg_3","703","703","0","[[3,1,0],[0,0],[2]]","2","[[3,0,0],[1,0],[2]]","3","0","","","","","","3","","","","","","","","",""
"","","","","","single-stim-button","58","166375","0.0-2.0-19.2-0.2","5e9902c3a64f740009842923","E1","batch5","","607","tol_tohand","","","","tol_peg_1","607","607","0","[[3,0,0],[0,0],[2]]","3","[[3,0,0],[1,0],[2]]","3","0","","","","","","3","","","","","","","","",""
"","","","","","single-stim-button","59","167017","0.0-2.0-19.2-1.2","5e9902c3a64f740009842923","E1","batch5","","642","tol_toboard","","","","tol_peg_2","642","642","0","[[3,0,0],[1,0],[2]]","3","[[3,0,0],[1,0],[2]]","3","0","","","","","","3","","","","","","","","",""
"","","","","","poldrack-single-stim","60","168027","0.0-2.0-20.0","5e9902c3a64f740009842923","E1","batch5","","-1","tol_feedback","","","true","","1000","1000","500","","","","","","-1","none","true","3347","4528","","","","","","","","","",""
"","","","","","html-button-response","61","169291","0.0-2.0-21.0","5e9902c3a64f740009842923","E1","batch5","","1263.199999988079","tol_trial_num","<div class = centerbox><p class = center-block-text>problem <strong>5</strong> out of 25 problems</p></div>","0","","","","","","","","","","","","","","","","","","","","","","","","",""
"","","","","","single-stim-button","62","206448","0.0-2.0-22.0-0.0","5e9902c3a64f740009842923","E1","batch5","","37156","tol_tohand","","","","tol_peg_1","37156","37156","0","[[0,0,0],[2,0],[3]]","1","[[0,0,0],[1,2],[3]]","4","0","","","","","","7","","","","","","","","",""
"","","","","","single-stim-button","63","207118","0.0-2.0-22.0-1.0","5e9902c3a64f740009842923","E1","batch5","","669","tol_toboard","","","","tol_peg_2","669","669","0","[[0,0,0],[2,1],[3]]","1","[[0,0,0],[1,2],[3]]","4","0","","","","","","7","","","","","","","","",""
"","","","","","single-stim-button","64","207633","0.0-2.0-22.1-0.1","5e9902c3a64f740009842923","E1","batch5","","513","tol_tohand","","","","tol_peg_3","513","513","0","[[0,0,0],[2,1],[0]]","2","[[0,0,0],[1,2],[3]]","4","0","","","","","","7","","","","","","","","",""
"","","","","","single-stim-button","65","208147","0.0-2.0-22.1-1.1","5e9902c3a64f740009842923","E1","batch5","","514","tol_toboard","","","","tol_peg_1","514","514","0","[[3,0,0],[2,1],[0]]","2","[[0,0,0],[1,2],[3]]","4","0","","","","","","7","","","","","","","","",""
"","","","","","single-stim-button","66","210021","0.0-2.0-22.2-0.2","5e9902c3a64f740009842923","E1","batch5","","1873","tol_tohand","","","","tol_peg_2","1873","1873","0","[[3,0,0],[2,0],[0]]","3","[[0,0,0],[1,2],[3]]","4","0","","","","","","7","","","","","","","","",""
"","","","","","single-stim-button","67","210615","0.0-2.0-22.2-1.2","5e9902c3a64f740009842923","E1","batch5","","593","tol_toboard","","","","tol_peg_1","593","593","0","[[3,1,0],[2,0],[0]]","3","[[0,0,0],[1,2],[3]]","4","0","","","","","","7","","","","","","","","",""
"","","","","","single-stim-button","68","212256","0.0-2.0-22.3-0.3","5e9902c3a64f740009842923","E1","batch5","","1639","tol_tohand","","","","tol_peg_2","1639","1639","0","[[3,1,0],[0,0],[0]]","4","[[0,0,0],[1,2],[3]]","4","0","","","","","","7","","","","","","","","",""
"","","","","","single-stim-button","69","212824","0.0-2.0-22.3-1.3","5e9902c3a64f740009842923","E1","batch5","","568","tol_toboard","","","","tol_peg_3","568","568","0","[[3,1,0],[0,0],[2]]","4","[[0,0,0],[1,2],[3]]","4","0","","","","","","7","","","","","","","","",""
"","","","","","single-stim-button","70","213498","0.0-2.0-22.4-0.4","5e9902c3a64f740009842923","E1","batch5","","674","tol_tohand","","","","tol_peg_1","674","674","0","[[3,0,0],[0,0],[2]]","5","[[0,0,0],[1,2],[3]]","4","0","","","","","","7","","","","","","","","",""
"","","","","","single-stim-button","71","214021","0.0-2.0-22.4-1.4","5e9902c3a64f740009842923","E1","batch5","","522","tol_toboard","","","","tol_peg_2","522","522","0","[[3,0,0],[1,0],[2]]","5","[[0,0,0],[1,2],[3]]","4","0","","","","","","7","","","","","","","","",""
"","","","","","single-stim-button","72","214547","0.0-2.0-22.5-0.5","5e9902c3a64f740009842923","E1","batch5","","526","tol_tohand","","","","tol_peg_3","526","526","0","[[3,0,0],[1,0],[0]]","6","[[0,0,0],[1,2],[3]]","4","0","","","","","","7","","","","","","","","",""
"","","","","","single-stim-button","73","215005","0.0-2.0-22.5-1.5","5e9902c3a64f740009842923","E1","batch5","","457","tol_toboard","","","","tol_peg_2","457","457","0","[[3,0,0],[1,2],[0]]","6","[[0,0,0],[1,2],[3]]","4","0","","","","","","7","","","","","","","","",""
"","","","","","single-stim-button","74","215541","0.0-2.0-22.6-0.6","5e9902c3a64f740009842923","E1","batch5","","535","tol_tohand","","","","tol_peg_1","535","535","0","[[0,0,0],[1,2],[0]]","7","[[0,0,0],[1,2],[3]]","4","0","","","","","","7","","","","","","","","",""
"","","","","","single-stim-button","75","216249","0.0-2.0-22.6-1.6","5e9902c3a64f740009842923","E1","batch5","","707","tol_toboard","","","","tol_peg_3","707","707","0","[[0,0,0],[1,2],[3]]","7","[[0,0,0],[1,2],[3]]","4","0","","","","","","7","","","","","","","","",""
"","","","","","poldrack-single-stim","76","217255","0.0-2.0-23.0","5e9902c3a64f740009842923","E1","batch5","","-1","tol_feedback","","","true","","1000","1000","500","","","","","","-1","none","true","37156","42916","","","","","","","","","",""
"","","","","","html-button-response","77","218277","0.0-2.0-24.0","5e9902c3a64f740009842923","E1","batch5","","1021.6999999880791","tol_trial_num","<div class = centerbox><p class = center-block-text>problem <strong>6</strong> out of 25 problems</p></div>","0","","","","","","","","","","","","","","","","","","","","","","","","",""
"","","","","","single-stim-button","78","230766","0.0-2.0-25.0-0.0","5e9902c3a64f740009842923","E1","batch5","","12488","tol_tohand","","","","tol_peg_3","12488","12488","0","[[0,0,0],[1,2],[0]]","1","[[1,0,0],[2,3],[0]]","5","0","","","","","","6","","","","","","","","",""
"","","","","","single-stim-button","79","231440","0.0-2.0-25.0-1.0","5e9902c3a64f740009842923","E1","batch5","","674","tol_toboard","","","","tol_peg_1","674","674","0","[[3,0,0],[1,2],[0]]","1","[[1,0,0],[2,3],[0]]","5","0","","","","","","6","","","","","","","","",""
"","","","","","single-stim-button","80","231968","0.0-2.0-25.1-0.1","5e9902c3a64f740009842923","E1","batch5","","528","tol_tohand","","","","tol_peg_2","528","528","0","[[3,0,0],[1,0],[0]]","2","[[1,0,0],[2,3],[0]]","5","0","","","","","","6","","","","","","","","",""
"","","","","","single-stim-button","81","232393","0.0-2.0-25.1-1.1","5e9902c3a64f740009842923","E1","batch5","","425","tol_toboard","","","","tol_peg_1","425","425","0","[[3,2,0],[1,0],[0]]","2","[[1,0,0],[2,3],[0]]","5","0","","","","","","6","","","","","","","","",""
"","","","","","single-stim-button","82","232897","0.0-2.0-25.2-0.2","5e9902c3a64f740009842923","E1","batch5","","502","tol_tohand","","","","tol_peg_2","502","502","0","[[3,2,0],[0,0],[0]]","3","[[1,0,0],[2,3],[0]]","5","0","","","","","","6","","","","","","","","",""
"","","","","","single-stim-button","83","233466","0.0-2.0-25.2-1.2","5e9902c3a64f740009842923","E1","batch5","","569","tol_toboard","","","","tol_peg_3","569","569","0","[[3,2,0],[0,0],[1]]","3","[[1,0,0],[2,3],[0]]","5","0","","","","","","6","","","","","","","","",""
"","","","","","single-stim-button","84","234059","0.0-2.0-25.3-0.3","5e9902c3a64f740009842923","E1","batch5","","592","tol_tohand","","","","tol_peg_1","592","592","0","[[3,0,0],[0,0],[1]]","4","[[1,0,0],[2,3],[0]]","5","0","","","","","","6","","","","","","","","",""
"","","","","","single-stim-button","85","234846","0.0-2.0-25.3-1.3","5e9902c3a64f740009842923","E1","batch5","","786","tol_toboard","","","","tol_peg_2","786","786","0","[[3,0,0],[2,0],[1]]","4","[[1,0,0],[2,3],[0]]","5","0","","","","","","6","","","","","","","","",""
"","","","","","single-stim-button","86","235293","0.0-2.0-25.4-0.4","5e9902c3a64f740009842923","E1","batch5","","447","tol_tohand","","","","tol_peg_1","447","447","0","[[0,0,0],[2,0],[1]]","5","[[1,0,0],[2,3],[0]]","5","0","","","","","","6","","","","","","","","",""
"","","","","","single-stim-button","87","235825","0.0-2.0-25.4-1.4","5e9902c3a64f740009842923","E1","batch5","","532","tol_toboard","","","","tol_peg_2","532","532","0","[[0,0,0],[2,3],[1]]","5","[[1,0,0],[2,3],[0]]","5","0","","","","","","6","","","","","","","","",""
"","","","","","single-stim-button","88","236347","0.0-2.0-25.5-0.5","5e9902c3a64f740009842923","E1","batch5","","522","tol_tohand","","","","tol_peg_3","522","522","0","[[0,0,0],[2,3],[0]]","6","[[1,0,0],[2,3],[0]]","5","0","","","","","","6","","","","","","","","",""
"","","","","","single-stim-button","89","237136","0.0-2.0-25.5-1.5","5e9902c3a64f740009842923","E1","batch5","","789","tol_toboard","","","","tol_peg_1","789","789","0","[[1,0,0],[2,3],[0]]","6","[[1,0,0],[2,3],[0]]","5","0","","","","","","6","","","","","","","","",""
"","","","","","poldrack-single-stim","90","238143","0.0-2.0-26.0","5e9902c3a64f740009842923","E1","batch5","","-1","tol_feedback","","","true","","1000","1000","500","","","","","","-1","none","true","12488","15079","","","","","","","","","",""
"","","","","","html-button-response","91","239119","0.0-2.0-27.0","5e9902c3a64f740009842923","E1","batch5","","974.7000000178814","tol_trial_num","<div class = centerbox><p class = center-block-text>problem <strong>7</strong> out of 25 problems</p></div>","0","","","","","","","","","","","","","","","","","","","","","","","","",""
"","","","","","single-stim-button","92","245427","0.0-2.0-28.0-0.0","5e9902c3a64f740009842923","E1","batch5","","6308","tol_tohand","","","","tol_peg_3","6308","6308","0","[[2,1,0],[0,0],[0]]","1","[[1,2,0],[3,0],[0]]","6","0","","","","","","5","","","","","","","","",""
"","","","","","single-stim-button","93","245975","0.0-2.0-28.0-1.0","5e9902c3a64f740009842923","E1","batch5","","547","tol_toboard","","","","tol_peg_2","547","547","0","[[2,1,0],[3,0],[0]]","1","[[1,2,0],[3,0],[0]]","6","0","","","","","","5","","","","","","","","",""
"","","","","","single-stim-button","94","250509","0.0-2.0-28.1-0.1","5e9902c3a64f740009842923","E1","batch5","","4534","tol_tohand","","","","tol_peg_1","4534","4534","0","[[2,0,0],[3,0],[0]]","2","[[1,2,0],[3,0],[0]]","6","0","","","","","","5","","","","","","","","",""
"","","","","","single-stim-button","95","251050","0.0-2.0-28.1-1.1","5e9902c3a64f740009842923","E1","batch5","","540","tol_toboard","","","","tol_peg_2","540","540","0","[[2,0,0],[3,1],[0]]","2","[[1,2,0],[3,0],[0]]","6","0","","","","","","5","","","","","","","","",""
"","","","","","single-stim-button","96","251622","0.0-2.0-28.2-0.2","5e9902c3a64f740009842923","E1","batch5","","571","tol_tohand","","","","tol_peg_1","571","571","0","[[0,0,0],[3,1],[0]]","3","[[1,2,0],[3,0],[0]]","6","0","","","","","","5","","","","","","","","",""
"","","","","","single-stim-button","97","252165","0.0-2.0-28.2-1.2","5e9902c3a64f740009842923","E1","batch5","","542","tol_toboard","","","","tol_peg_3","542","542","0","[[0,0,0],[3,1],[2]]","3","[[1,2,0],[3,0],[0]]","6","0","","","","","","5","","","","","","","","",""
"","","","","","single-stim-button","98","252673","0.0-2.0-28.3-0.3","5e9902c3a64f740009842923","E1","batch5","","507","tol_tohand","","","","tol_peg_2","507","507","0","[[0,0,0],[3,0],[2]]","4","[[1,2,0],[3,0],[0]]","6","0","","","","","","5","","","","","","","","",""
"","","","","","single-stim-button","99","253177","0.0-2.0-28.3-1.3","5e9902c3a64f740009842923","E1","batch5","","504","tol_toboard","","","","tol_peg_1","504","504","0","[[1,0,0],[3,0],[2]]","4","[[1,2,0],[3,0],[0]]","6","0","","","","","","5","","","","","","","","",""
"","","","","","single-stim-button","100","254168","0.0-2.0-28.4-0.4","5e9902c3a64f740009842923","E1","batch5","","990","tol_tohand","","","","tol_peg_3","990","990","0","[[1,0,0],[3,0],[0]]","5","[[1,2,0],[3,0],[0]]","6","0","","","","","","5","","","","","","","","",""
"","","","","","single-stim-button","101","255015","0.0-2.0-28.4-1.4","5e9902c3a64f740009842923","E1","batch5","","845","tol_toboard","","","","tol_peg_1","845","845","0","[[1,2,0],[3,0],[0]]","5","[[1,2,0],[3,0],[0]]","6","0","","","","","","5","","","","","","","","",""
"","","","","","poldrack-single-stim","102","256017","0.0-2.0-29.0","5e9902c3a64f740009842923","E1","batch5","","-1","tol_feedback","","","true","","1000","1000","500","","","","","","-1","none","true","6308","12910","","","","","","","","","",""
"","","","","","html-button-response","103","257101","0.0-2.0-30.0","5e9902c3a64f740009842923","E1","batch5","","1082.5999999940395","tol_trial_num","<div class = centerbox><p class = center-block-text>problem <strong>8</strong> out of 25 problems</p></div>","0","","","","","","","","","","","","","","","","","","","","","","","","",""
"","","","","","single-stim-button","104","262032","0.0-2.0-31.0-0.0","5e9902c3a64f740009842923","E1","batch5","","4931","tol_tohand","","","","tol_peg_3","4931","4931","0","[[0,0,0],[2,3],[0]]","1","[[1,2,0],[3,0],[0]]","7","0","","","","","","4","","","","","","","","",""
"","","","","","single-stim-button","105","262737","0.0-2.0-31.0-1.0","5e9902c3a64f740009842923","E1","batch5","","704","tol_toboard","","","","tol_peg_1","704","704","0","[[1,0,0],[2,3],[0]]","1","[[1,2,0],[3,0],[0]]","7","0","","","","","","4","","","","","","","","",""
"","","","","","single-stim-button","106","263377","0.0-2.0-31.1-0.1","5e9902c3a64f740009842923","E1","batch5","","639","tol_tohand","","","","tol_peg_2","639","639","0","[[1,0,0],[2,0],[0]]","2","[[1,2,0],[3,0],[0]]","7","0","","","","","","4","","","","","","","","",""
"","","","","","single-stim-button","107","264413","0.0-2.0-31.1-1.1","5e9902c3a64f740009842923","E1","batch5","","1036","tol_toboard","","","","tol_peg_3","1036","1036","0","[[1,0,0],[2,0],[3]]","2","[[1,2,0],[3,0],[0]]","7","0","","","","","","4","","","","","","","","",""
"","","","","","single-stim-button","108","265644","0.0-2.0-31.2-0.2","5e9902c3a64f740009842923","E1","batch5","","1230","tol_tohand","","","","tol_peg_2","1230","1230","0","[[1,0,0],[0,0],[3]]","3","[[1,2,0],[3,0],[0]]","7","0","","","","","","4","","","","","","","","",""
"","","","","","single-stim-button","109","266437","0.0-2.0-31.2-1.2","5e9902c3a64f740009842923","E1","batch5","","792","tol_toboard","","","","tol_peg_1","792","792","0","[[1,2,0],[0,0],[3]]","3","[[1,2,0],[3,0],[0]]","7","0","","","","","","4","","","","","","","","",""
"","","","","","single-stim-button","110","267013","0.0-2.0-31.3-0.3","5e9902c3a64f740009842923","E1","batch5","","575","tol_tohand","","","","tol_peg_3","575","575","0","[[1,2,0],[0,0],[0]]","4","[[1,2,0],[3,0],[0]]","7","0","","","","","","4","","","","","","","","",""
"","","","","","single-stim-button","111","267451","0.0-2.0-31.3-1.3","5e9902c3a64f740009842923","E1","batch5","","437","tol_toboard","","","","tol_peg_2","437","437","0","[[1,2,0],[3,0],[0]]","4","[[1,2,0],[3,0],[0]]","7","0","","","","","","4","","","","","","","","",""
"","","","","","poldrack-single-stim","112","268458","0.0-2.0-32.0","5e9902c3a64f740009842923","E1","batch5","","-1","tol_feedback","","","true","","1000","1000","500","","","","","","-1","none","true","4931","7375","","","","","","","","","",""
"","","","","","html-button-response","113","269271","0.0-2.0-33.0","5e9902c3a64f740009842923","E1","batch5","","811.5999999940395","tol_trial_num","<div class = centerbox><p class = center-block-text>problem <strong>9</strong> out of 25 problems</p></div>","0","","","","","","","","","","","","","","","","","","","","","","","","",""
"","","","","","single-stim-button","114","279479","0.0-2.0-34.0-0.0","5e9902c3a64f740009842923","E1","batch5","","10207","tol_tohand","","","","tol_peg_3","10207","10207","0","[[3,2,0],[0,0],[0]]","1","[[2,1,0],[3,0],[0]]","8","0","","","","","","6","","","","","","","","",""
"","","","","","single-stim-button","115","279935","0.0-2.0-34.0-1.0","5e9902c3a64f740009842923","E1","batch5","","455","tol_toboard","","","","tol_peg_2","455","455","0","[[3,2,0],[1,0],[0]]","1","[[2,1,0],[3,0],[0]]","8","0","","","","","","6","","","","","","","","",""
"","","","","","single-stim-button","116","280573","0.0-2.0-34.1-0.1","5e9902c3a64f740009842923","E1","batch5","","637","tol_tohand","","","","tol_peg_1","637","637","0","[[3,0,0],[1,0],[0]]","2","[[2,1,0],[3,0],[0]]","8","0","","","","","","6","","","","","","","","",""
"","","","","","single-stim-button","117","281118","0.0-2.0-34.1-1.1","5e9902c3a64f740009842923","E1","batch5","","544","tol_toboard","","","","tol_peg_2","544","544","0","[[3,0,0],[1,2],[0]]","2","[[2,1,0],[3,0],[0]]","8","0","","","","","","6","","","","","","","","",""
"","","","","","single-stim-button","118","281996","0.0-2.0-34.2-0.2","5e9902c3a64f740009842923","E1","batch5","","878","tol_tohand","","","","tol_peg_1","878","878","0","[[0,0,0],[1,2],[0]]","3","[[2,1,0],[3,0],[0]]","8","0","","","","","","6","","","","","","","","",""
"","","","","","single-stim-button","119","282705","0.0-2.0-34.2-1.2","5e9902c3a64f740009842923","E1","batch5","","707","tol_toboard","","","","tol_peg_3","707","707","0","[[0,0,0],[1,2],[3]]","3","[[2,1,0],[3,0],[0]]","8","0","","","","","","6","","","","","","","","",""
"","","","","","single-stim-button","120","283235","0.0-2.0-34.3-0.3","5e9902c3a64f740009842923","E1","batch5","","530","tol_tohand","","","","tol_peg_2","530","530","0","[[0,0,0],[1,0],[3]]","4","[[2,1,0],[3,0],[0]]","8","0","","","","","","6","","","","","","","","",""
"","","","","","single-stim-button","121","283691","0.0-2.0-34.3-1.3","5e9902c3a64f740009842923","E1","batch5","","454","tol_toboard","","","","tol_peg_1","454","454","0","[[2,0,0],[1,0],[3]]","4","[[2,1,0],[3,0],[0]]","8","0","","","","","","6","","","","","","","","",""
"","","","","","single-stim-button","122","284166","0.0-2.0-34.4-0.4","5e9902c3a64f740009842923","E1","batch5","","474","tol_tohand","","","","tol_peg_2","474","474","0","[[2,0,0],[0,0],[3]]","5","[[2,1,0],[3,0],[0]]","8","0","","","","","","6","","","","","","","","",""
"","","","","","single-stim-button","123","284901","0.0-2.0-34.4-1.4","5e9902c3a64f740009842923","E1","batch5","","735","tol_toboard","","","","tol_peg_1","735","735","0","[[2,1,0],[0,0],[3]]","5","[[2,1,0],[3,0],[0]]","8","0","","","","","","6","","","","","","","","",""
"","","","","","single-stim-button","124","285578","0.0-2.0-34.5-0.5","5e9902c3a64f740009842923","E1","batch5","","676","tol_tohand","","","","tol_peg_3","676","676","0","[[2,1,0],[0,0],[0]]","6","[[2,1,0],[3,0],[0]]","8","0","","","","","","6","","","","","","","","",""
"","","","","","single-stim-button","125","286011","0.0-2.0-34.5-1.5","5e9902c3a64f740009842923","E1","batch5","","431","tol_toboard","","","","tol_peg_2","431","431","0","[[2,1,0],[3,0],[0]]","6","[[2,1,0],[3,0],[0]]","8","0","","","","","","6","","","","","","","","",""
"","","","","","poldrack-single-stim","126","287018","0.0-2.0-35.0","5e9902c3a64f740009842923","E1","batch5","","-1","tol_feedback","","","true","","1000","1000","500","","","","","","-1","none","true","10207","13402","","","","","","","","","",""
"","","","","","html-button-response","127","287682","0.0-2.0-36.0","5e9902c3a64f740009842923","E1","batch5","","662.8999999761581","tol_trial_num","<div class = centerbox><p class = center-block-text>problem <strong>10</strong> out of 25 problems</p></div>","0","","","","","","","","","","","","","","","","","","","","","","","","",""
"","","","","","single-stim-button","128","290362","0.0-2.0-37.0-0.0","5e9902c3a64f740009842923","E1","batch5","","2679","tol_tohand","","","","tol_peg_2","2679","2679","0","[[3,0,0],[0,0],[2]]","1","[[3,0,0],[2,1],[0]]","9","0","","","","","","3","","","","","","","","",""
"","","","","","single-stim-button","129","290821","0.0-2.0-37.0-1.0","5e9902c3a64f740009842923","E1","batch5","","459","tol_toboard","","","","tol_peg_1","459","459","0","[[3,1,0],[0,0],[2]]","1","[[3,0,0],[2,1],[0]]","9","0","","","","","","3","","","","","","","","",""
"","","","","","single-stim-button","130","291344","0.0-2.0-37.1-0.1","5e9902c3a64f740009842923","E1","batch5","","522","tol_tohand","","","","tol_peg_3","522","522","0","[[3,1,0],[0,0],[0]]","2","[[3,0,0],[2,1],[0]]","9","0","","","","","","3","","","","","","","","",""
"","","","","","single-stim-button","131","291907","0.0-2.0-37.1-1.1","5e9902c3a64f740009842923","E1","batch5","","563","tol_toboard","","","","tol_peg_2","563","563","0","[[3,1,0],[2,0],[0]]","2","[[3,0,0],[2,1],[0]]","9","0","","","","","","3","","","","","","","","",""
"","","","","","single-stim-button","132","292430","0.0-2.0-37.2-0.2","5e9902c3a64f740009842923","E1","batch5","","522","tol_tohand","","","","tol_peg_1","522","522","0","[[3,0,0],[2,0],[0]]","3","[[3,0,0],[2,1],[0]]","9","0","","","","","","3","","","","","","","","",""
"","","","","","single-stim-button","133","292986","0.0-2.0-37.2-1.2","5e9902c3a64f740009842923","E1","batch5","","555","tol_toboard","","","","tol_peg_2","555","555","0","[[3,0,0],[2,1],[0]]","3","[[3,0,0],[2,1],[0]]","9","0","","","","","","3","","","","","","","","",""
"","","","","","poldrack-single-stim","134","293988","0.0-2.0-38.0","5e9902c3a64f740009842923","E1","batch5","","-1","tol_feedback","","","true","","1000","1000","500","","","","","","-1","none","true","2679","3723","","","","","","","","","",""
"","","","","","html-button-response","135","294740","0.0-2.0-39.0","5e9902c3a64f740009842923","E1","batch5","","751.1999999880791","tol_trial_num","<div class = centerbox><p class = center-block-text>problem <strong>11</strong> out of 25 problems</p></div>","0","","","","","","","","","","","","","","","","","","","","","","","","",""
"","","","","","single-stim-button","136","327886","0.0-2.0-40.0-0.0","5e9902c3a64f740009842923","E1","batch5","","33146","tol_tohand","","","","tol_peg_1","33146","33146","0","[[1,0,0],[3,0],[0]]","1","[[2,0,0],[1,3],[0]]","10","0","","","","","","6","","","","","","","","",""
"","","","","","single-stim-button","137","328695","0.0-2.0-40.0-1.0","5e9902c3a64f740009842923","E1","batch5","","807","tol_toboard","","","","tol_peg_2","807","807","0","[[1,0,0],[3,2],[0]]","1","[[2,0,0],[1,3],[0]]","10","0","","","","","","6","","","","","","","","",""
"","","","","","single-stim-button","138","329234","0.0-2.0-40.1-0.1","5e9902c3a64f740009842923","E1","batch5","","539","tol_tohand","","","","tol_peg_1","539","539","0","[[0,0,0],[3,2],[0]]","2","[[2,0,0],[1,3],[0]]","10","0","","","","","","6","","","","","","","","",""
"","","","","","single-stim-button","139","329843","0.0-2.0-40.1-1.1","5e9902c3a64f740009842923","E1","batch5","","607","tol_toboard","","","","tol_peg_3","607","607","0","[[0,0,0],[3,2],[1]]","2","[[2,0,0],[1,3],[0]]","10","0","","","","","","6","","","","","","","","",""
"","","","","","single-stim-button","140","330342","0.0-2.0-40.2-0.2","5e9902c3a64f740009842923","E1","batch5","","498","tol_tohand","","","","tol_peg_2","498","498","0","[[0,0,0],[3,0],[1]]","3","[[2,0,0],[1,3],[0]]","10","0","","","","","","6","","","","","","","","",""
"","","","","","single-stim-button","141","331119","0.0-2.0-40.2-1.2","5e9902c3a64f740009842923","E1","batch5","","777","tol_toboard","","","","tol_peg_1","777","777","0","[[2,0,0],[3,0],[1]]","3","[[2,0,0],[1,3],[0]]","10","0","","","","","","6","","","","","","","","",""
"","","","","","single-stim-button","142","331741","0.0-2.0-40.3-0.3","5e9902c3a64f740009842923","E1","batch5","","622","tol_tohand","","","","tol_peg_2","622","622","0","[[2,0,0],[0,0],[1]]","4","[[2,0,0],[1,3],[0]]","10","0","","","","","","6","","","","","","","","",""
"","","","","","single-stim-button","143","332195","0.0-2.0-40.3-1.3","5e9902c3a64f740009842923","E1","batch5","","454","tol_toboard","","","","tol_peg_1","454","454","0","[[2,3,0],[0,0],[1]]","4","[[2,0,0],[1,3],[0]]","10","0","","","","","","6","","","","","","","","",""
"","","","","","single-stim-button","144","332816","0.0-2.0-40.4-0.4","5e9902c3a64f740009842923","E1","batch5","","620","tol_tohand","","","","tol_peg_3","620","620","0","[[2,3,0],[0,0],[0]]","5","[[2,0,0],[1,3],[0]]","10","0","","","","","","6","","","","","","","","",""
"","","","","","single-stim-button","145","333421","0.0-2.0-40.4-1.4","5e9902c3a64f740009842923","E1","batch5","","604","tol_toboard","","","","tol_peg_2","604","604","0","[[2,3,0],[1,0],[0]]","5","[[2,0,0],[1,3],[0]]","10","0","","","","","","6","","","","","","","","",""
"","","","","","single-stim-button","146","334130","0.0-2.0-40.5-0.5","5e9902c3a64f740009842923","E1","batch5","","708","tol_tohand","","","","tol_peg_1","708","708","0","[[2,0,0],[1,0],[0]]","6","[[2,0,0],[1,3],[0]]","10","0","","","","","","6","","","","","","","","",""
"","","","","","single-stim-button","147","334576","0.0-2.0-40.5-1.5","5e9902c3a64f740009842923","E1","batch5","","445","tol_toboard","","","","tol_peg_2","445","445","0","[[2,0,0],[1,3],[0]]","6","[[2,0,0],[1,3],[0]]","10","0","","","","","","6","","","","","","","","",""
"","","","","","poldrack-single-stim","148","335585","0.0-2.0-41.0","5e9902c3a64f740009842923","E1","batch5","","-1","tol_feedback","","","true","","1000","1000","500","","","","","","-1","none","true","33146","36133","","","","","","","","","",""
"","","","","","html-button-response","149","336298","0.0-2.0-42.0","5e9902c3a64f740009842923","E1","batch5","","712","tol_trial_num","<div class = centerbox><p class = center-block-text>problem <strong>12</strong> out of 25 problems</p></div>","0","","","","","","","","","","","","","","","","","","","","","","","","",""
"","","","","","single-stim-button","150","339593","0.0-2.0-43.0-0.0","5e9902c3a64f740009842923","E1","batch5","","3295","tol_tohand","","","","tol_peg_1","3295","3295","0","[[1,0,0],[3,0],[0]]","1","[[2,3,0],[0,0],[1]]","11","0","","","","","","4","","","","","","","","",""
"","","","","","single-stim-button","151","340225","0.0-2.0-43.0-1.0","5e9902c3a64f740009842923","E1","batch5","","630","tol_toboard","","","","tol_peg_2","630","630","0","[[1,0,0],[3,2],[0]]","1","[[2,3,0],[0,0],[1]]","11","0","","","","","","4","","","","","","","","",""
"","","","","","single-stim-button","152","340721","0.0-2.0-43.1-0.1","5e9902c3a64f740009842923","E1","batch5","","496","tol_tohand","","","","tol_peg_1","496","496","0","[[0,0,0],[3,2],[0]]","2","[[2,3,0],[0,0],[1]]","11","0","","","","","","4","","","","","","","","",""
"","","","","","single-stim-button","153","341308","0.0-2.0-43.1-1.1","5e9902c3a64f740009842923","E1","batch5","","586","tol_toboard","","","","tol_peg_3","586","586","0","[[0,0,0],[3,2],[1]]","2","[[2,3,0],[0,0],[1]]","11","0","","","","","","4","","","","","","","","",""
"","","","","","single-stim-button","154","341916","0.0-2.0-43.2-0.2","5e9902c3a64f740009842923","E1","batch5","","608","tol_tohand","","","","tol_peg_2","608","608","0","[[0,0,0],[3,0],[1]]","3","[[2,3,0],[0,0],[1]]","11","0","","","","","","4","","","","","","","","",""
"","","","","","single-stim-button","155","342357","0.0-2.0-43.2-1.2","5e9902c3a64f740009842923","E1","batch5","","440","tol_toboard","","","","tol_peg_1","440","440","0","[[2,0,0],[3,0],[1]]","3","[[2,3,0],[0,0],[1]]","11","0","","","","","","4","","","","","","","","",""
"","","","","","single-stim-button","156","342832","0.0-2.0-43.3-0.3","5e9902c3a64f740009842923","E1","batch5","","474","tol_tohand","","","","tol_peg_2","474","474","0","[[2,0,0],[0,0],[1]]","4","[[2,3,0],[0,0],[1]]","11","0","","","","","","4","","","","","","","","",""
"","","","","","single-stim-button","157","343273","0.0-2.0-43.3-1.3","5e9902c3a64f740009842923","E1","batch5","","439","tol_toboard","","","","tol_peg_1","439","439","0","[[2,3,0],[0,0],[1]]","4","[[2,3,0],[0,0],[1]]","11","0","","","","","","4","","","","","","","","",""
"","","","","","poldrack-single-stim","158","344284","0.0-2.0-44.0","5e9902c3a64f740009842923","E1","batch5","","-1","tol_feedback","","","true","","1000","1000","500","","","","","","-1","none","true","3295","4873","","","","","","","","","",""
"","","","","","html-button-response","159","344947","0.0-2.0-45.0","5e9902c3a64f740009842923","E1","batch5","","662","tol_trial_num","<div class = centerbox><p class = center-block-text>problem <strong>13</strong> out of 25 problems</p></div>","0","","","","","","","","","","","","","","","","","","","","","","","","",""
"","","","","","single-stim-button","160","350574","0.0-2.0-46.0-0.0","5e9902c3a64f740009842923","E1","batch5","","5626","tol_tohand","","","","tol_peg_1","5626","5626","0","[[1,0,0],[3,0],[0]]","1","[[0,0,0],[2,3],[1]]","12","0","","","","","","4","","","","","","","","",""
"","","","","","single-stim-button","161","351320","0.0-2.0-46.0-1.0","5e9902c3a64f740009842923","E1","batch5","","745","tol_toboard","","","","tol_peg_2","745","745","0","[[1,0,0],[3,2],[0]]","1","[[0,0,0],[2,3],[1]]","12","0","","","","","","4","","","","","","","","",""
"","","","","","single-stim-button","162","351811","0.0-2.0-46.1-0.1","5e9902c3a64f740009842923","E1","batch5","","489","tol_tohand","","","","tol_peg_1","489","489","0","[[0,0,0],[3,2],[0]]","2","[[0,0,0],[2,3],[1]]","12","0","","","","","","4","","","","","","","","",""
"","","","","","single-stim-button","163","352410","0.0-2.0-46.1-1.1","5e9902c3a64f740009842923","E1","batch5","","599","tol_toboard","","","","tol_peg_3","599","599","0","[[0,0,0],[3,2],[1]]","2","[[0,0,0],[2,3],[1]]","12","0","","","","","","4","","","","","","","","",""
"","","","","","single-stim-button","164","352908","0.0-2.0-46.2-0.2","5e9902c3a64f740009842923","E1","batch5","","497","tol_tohand","","","","tol_peg_2","497","497","0","[[0,0,0],[3,0],[1]]","3","[[0,0,0],[2,3],[1]]","12","0","","","","","","4","","","","","","","","",""
"","","","","","single-stim-button","165","353383","0.0-2.0-46.2-1.2","5e9902c3a64f740009842923","E1","batch5","","475","tol_toboard","","","","tol_peg_1","475","475","0","[[2,0,0],[3,0],[1]]","3","[[0,0,0],[2,3],[1]]","12","0","","","","","","4","","","","","","","","",""
"","","","","","single-stim-button","166","360784","0.0-2.0-46.3-0.3","5e9902c3a64f740009842923","E1","batch5","","7400","tol_tohand","","","","tol_peg_3","7400","7400","0","[[2,0,0],[3,0],[0]]","4","[[0,0,0],[2,3],[1]]","12","0","","","","","","4","","","","","","","","",""
"","","","","","single-stim-button","167","361361","0.0-2.0-46.3-1.3","5e9902c3a64f740009842923","E1","batch5","","576","tol_toboard","","","","tol_peg_1","576","576","0","[[2,1,0],[3,0],[0]]","4","[[0,0,0],[2,3],[1]]","12","0","","","","","","4","","","","","","","","",""
"","","","","","single-stim-button","168","361872","0.0-2.0-46.4-0.4","5e9902c3a64f740009842923","E1","batch5","","509","tol_tohand","","","","tol_peg_2","509","509","0","[[2,1,0],[0,0],[0]]","5","[[0,0,0],[2,3],[1]]","12","0","","","","","","4","","","","","","","","",""
"","","","","","single-stim-button","169","362591","0.0-2.0-46.4-1.4","5e9902c3a64f740009842923","E1","batch5","","718","tol_toboard","","","","tol_peg_3","718","718","0","[[2,1,0],[0,0],[3]]","5","[[0,0,0],[2,3],[1]]","12","0","","","","","","4","","","","","","","","",""
"","","","","","single-stim-button","170","363998","0.0-2.0-46.5-0.5","5e9902c3a64f740009842923","E1","batch5","","1407","tol_tohand","","","","tol_peg_1","1407","1407","0","[[2,0,0],[0,0],[3]]","6","[[0,0,0],[2,3],[1]]","12","0","","","","","","4","","","","","","","","",""
"","","","","","single-stim-button","171","365344","0.0-2.0-46.5-1.5","5e9902c3a64f740009842923","E1","batch5","","1345","tol_toboard","","","","tol_peg_2","1345","1345","0","[[2,0,0],[1,0],[3]]","6","[[0,0,0],[2,3],[1]]","12","0","","","","","","4","","","","","","","","",""
"","","","","","single-stim-button","172","365994","0.0-2.0-46.6-0.6","5e9902c3a64f740009842923","E1","batch5","","649","tol_tohand","","","","tol_peg_1","649","649","0","[[0,0,0],[1,0],[3]]","7","[[0,0,0],[2,3],[1]]","12","0","","","","","","4","","","","","","","","",""
"","","","","","single-stim-button","173","366720","0.0-2.0-46.6-1.6","5e9902c3a64f740009842923","E1","batch5","","725","tol_toboard","","","","tol_peg_2","725","725","0","[[0,0,0],[1,2],[3]]","7","[[0,0,0],[2,3],[1]]","12","0","","","","","","4","","","","","","","","",""
"","","","","","single-stim-button","174","367493","0.0-2.0-46.7-0.7","5e9902c3a64f740009842923","E1","batch5","","772","tol_tohand","","","","tol_peg_3","772","772","0","[[0,0,0],[1,2],[0]]","8","[[0,0,0],[2,3],[1]]","12","0","","","","","","4","","","","","","","","",""
"","","","","","single-stim-button","175","368300","0.0-2.0-46.7-1.7","5e9902c3a64f740009842923","E1","batch5","","806","tol_toboard","","","","tol_peg_1","806","806","0","[[3,0,0],[1,2],[0]]","8","[[0,0,0],[2,3],[1]]","12","0","","","","","","4","","","","","","","","",""
"","","","","","single-stim-button","176","369208","0.0-2.0-46.8-0.8","5e9902c3a64f740009842923","E1","batch5","","907","tol_tohand","","","","tol_peg_2","907","907","0","[[3,0,0],[1,0],[0]]","9","[[0,0,0],[2,3],[1]]","12","0","","","","","","4","","","","","","","","",""
"","","","","","single-stim-button","177","369744","0.0-2.0-46.8-1.8","5e9902c3a64f740009842923","E1","batch5","","536","tol_toboard","","","","tol_peg_1","536","536","0","[[3,2,0],[1,0],[0]]","9","[[0,0,0],[2,3],[1]]","12","0","","","","","","4","","","","","","","","",""
"","","","","","single-stim-button","178","370290","0.0-2.0-46.9-0.9","5e9902c3a64f740009842923","E1","batch5","","544","tol_tohand","","","","tol_peg_2","544","544","0","[[3,2,0],[0,0],[0]]","10","[[0,0,0],[2,3],[1]]","12","0","","","","","","4","","","","","","","","",""
"","","","","","single-stim-button","179","371115","0.0-2.0-46.9-1.9","5e9902c3a64f740009842923","E1","batch5","","825","tol_toboard","","","","tol_peg_3","825","825","0","[[3,2,0],[0,0],[1]]","10","[[0,0,0],[2,3],[1]]","12","0","","","","","","4","","","","","","","","",""
"","","","","","single-stim-button","180","371803","0.0-2.0-46.10-0.10","5e9902c3a64f740009842923","E1","batch5","","686","tol_tohand","","","","tol_peg_1","686","686","0","[[3,0,0],[0,0],[1]]","11","[[0,0,0],[2,3],[1]]","12","0","","","","","","4","","","","","","","","",""
"","","","","","single-stim-button","181","372344","0.0-2.0-46.10-1.10","5e9902c3a64f740009842923","E1","batch5","","541","tol_toboard","","","","tol_peg_2","541","541","0","[[3,0,0],[2,0],[1]]","11","[[0,0,0],[2,3],[1]]","12","0","","","","","","4","","","","","","","","",""
"","","","","","single-stim-button","182","372887","0.0-2.0-46.11-0.11","5e9902c3a64f740009842923","E1","batch5","","542","tol_tohand","","","","tol_peg_1","542","542","0","[[0,0,0],[2,0],[1]]","12","[[0,0,0],[2,3],[1]]","12","0","","","","","","4","","","","","","","","",""
"","","","","","single-stim-button","183","373414","0.0-2.0-46.11-1.11","5e9902c3a64f740009842923","E1","batch5","","526","tol_toboard","","","","tol_peg_2","526","526","0","[[0,0,0],[2,3],[1]]","12","[[0,0,0],[2,3],[1]]","12","0","","","","","","4","","","","","","","","",""
"","","","","","poldrack-single-stim","184","374417","0.0-2.0-47.0","5e9902c3a64f740009842923","E1","batch5","","-1","tol_feedback","","","true","","1000","1000","500","","","","","","-1","none","true","5626","20028","","","","","","","","","",""
"","","","","","html-button-response","185","376772","0.0-2.0-48.0","5e9902c3a64f740009842923","E1","batch5","","2353.5","attention_check","<p class = block-text>How many balls are in your board<br></p>","1","true","","","","","","","","","","","","","","","","","","","","","","","",""
"","","","","","html-button-response","186","377764","0.0-2.0-49.0","5e9902c3a64f740009842923","E1","batch5","","991","tol_trial_num","<div class = centerbox><p class = center-block-text>problem <strong>14</strong> out of 25 problems</p></div>","0","","","","","","","","","","","","","","","","","","","","","","","","",""
"","","","","","single-stim-button","187","381515","0.0-2.0-50.0-0.0","5e9902c3a64f740009842923","E1","batch5","","3750","tol_tohand","","","","tol_peg_1","3750","3750","0","[[2,0,0],[3,0],[0]]","1","[[1,2,0],[3,0],[0]]","13","0","","","","","","4","","","","","","","","",""
"","","","","","single-stim-button","188","382946","0.0-2.0-50.0-1.0","5e9902c3a64f740009842923","E1","batch5","","1430","tol_toboard","","","","tol_peg_3","1430","1430","0","[[2,0,0],[3,0],[1]]","1","[[1,2,0],[3,0],[0]]","13","0","","","","","","4","","","","","","","","",""
"","","","","","single-stim-button","189","383507","0.0-2.0-50.1-0.1","5e9902c3a64f740009842923","E1","batch5","","560","tol_tohand","","","","tol_peg_1","560","560","0","[[0,0,0],[3,0],[1]]","2","[[1,2,0],[3,0],[0]]","13","0","","","","","","4","","","","","","","","",""
"","","","","","single-stim-button","190","383983","0.0-2.0-50.1-1.1","5e9902c3a64f740009842923","E1","batch5","","476","tol_toboard","","","","tol_peg_2","476","476","0","[[0,0,0],[3,2],[1]]","2","[[1,2,0],[3,0],[0]]","13","0","","","","","","4","","","","","","","","",""
"","","","","","single-stim-button","191","384523","0.0-2.0-50.2-0.2","5e9902c3a64f740009842923","E1","batch5","","538","tol_tohand","","","","tol_peg_3","538","538","0","[[0,0,0],[3,2],[0]]","3","[[1,2,0],[3,0],[0]]","13","0","","","","","","4","","","","","","","","",""
"","","","","","single-stim-button","192","385100","0.0-2.0-50.2-1.2","5e9902c3a64f740009842923","E1","batch5","","577","tol_toboard","","","","tol_peg_1","577","577","0","[[1,0,0],[3,2],[0]]","3","[[1,2,0],[3,0],[0]]","13","0","","","","","","4","","","","","","","","",""
"","","","","","single-stim-button","193","385673","0.0-2.0-50.3-0.3","5e9902c3a64f740009842923","E1","batch5","","572","tol_tohand","","","","tol_peg_2","572","572","0","[[1,0,0],[3,0],[0]]","4","[[1,2,0],[3,0],[0]]","13","0","","","","","","4","","","","","","","","",""
"","","","","","single-stim-button","194","386102","0.0-2.0-50.3-1.3","5e9902c3a64f740009842923","E1","batch5","","428","tol_toboard","","","","tol_peg_1","428","428","0","[[1,2,0],[3,0],[0]]","4","[[1,2,0],[3,0],[0]]","13","0","","","","","","4","","","","","","","","",""
"","","","","","poldrack-single-stim","195","387106","0.0-2.0-51.0","5e9902c3a64f740009842923","E1","batch5","","-1","tol_feedback","","","true","","1000","1000","500","","","","","","-1","none","true","3750","5420","","","","","","","","","",""
"","","","","","html-button-response","196","388220","0.0-2.0-52.0","5e9902c3a64f740009842923","E1","batch5","","1112.199999988079","tol_trial_num","<div class = centerbox><p class = center-block-text>problem <strong>15</strong> out of 25 problems</p></div>","0","","","","","","","","","","","","","","","","","","","","","","","","",""
"","","","","","single-stim-button","197","391016","0.0-2.0-53.0-0.0","5e9902c3a64f740009842923","E1","batch5","","2795","tol_tohand","","","","tol_peg_1","2795","2795","0","[[1,0,0],[3,0],[0]]","1","[[2,0,0],[3,0],[1]]","14","0","","","","","","3","","","","","","","","",""
"","","","","","single-stim-button","198","391558","0.0-2.0-53.0-1.0","5e9902c3a64f740009842923","E1","batch5","","542","tol_toboard","","","","tol_peg_2","542","542","0","[[1,0,0],[3,2],[0]]","1","[[2,0,0],[3,0],[1]]","14","0","","","","","","3","","","","","","","","",""
"","","","","","single-stim-button","199","392084","0.0-2.0-53.1-0.1","5e9902c3a64f740009842923","E1","batch5","","525","tol_tohand","","","","tol_peg_1","525","525","0","[[0,0,0],[3,2],[0]]","2","[[2,0,0],[3,0],[1]]","14","0","","","","","","3","","","","","","","","",""
"","","","","","single-stim-button","200","392671","0.0-2.0-53.1-1.1","5e9902c3a64f740009842923","E1","batch5","","586","tol_toboard","","","","tol_peg_3","586","586","0","[[0,0,0],[3,2],[1]]","2","[[2,0,0],[3,0],[1]]","14","0","","","","","","3","","","","","","","","",""
"","","","","","single-stim-button","201","393132","0.0-2.0-53.2-0.2","5e9902c3a64f740009842923","E1","batch5","","460","tol_tohand","","","","tol_peg_2","460","460","0","[[0,0,0],[3,0],[1]]","3","[[2,0,0],[3,0],[1]]","14","0","","","","","","3","","","","","","","","",""
"","","","","","single-stim-button","202","393623","0.0-2.0-53.2-1.2","5e9902c3a64f740009842923","E1","batch5","","490","tol_toboard","","","","tol_peg_1","490","490","0","[[2,0,0],[3,0],[1]]","3","[[2,0,0],[3,0],[1]]","14","0","","","","","","3","","","","","","","","",""
"","","","","","poldrack-single-stim","203","394626","0.0-2.0-54.0","5e9902c3a64f740009842923","E1","batch5","","-1","tol_feedback","","","true","","1000","1000","500","","","","","","-1","none","true","2795","3780","","","","","","","","","",""
"","","","","","html-button-response","204","395200","0.0-2.0-55.0","5e9902c3a64f740009842923","E1","batch5","","572.9000000059605","tol_trial_num","<div class = centerbox><p class = center-block-text>problem <strong>16</strong> out of 25 problems</p></div>","0","","","","","","","","","","","","","","","","","","","","","","","","",""
"","","","","","single-stim-button","205","404259","0.0-2.0-56.0-0.0","5e9902c3a64f740009842923","E1","batch5","","9058","tol_tohand","","","","tol_peg_3","9058","9058","0","[[0,0,0],[2,3],[0]]","1","[[2,3,0],[1,0],[0]]","15","0","","","","","","7","","","","","","","","",""
"","","","","","single-stim-button","206","404903","0.0-2.0-56.0-1.0","5e9902c3a64f740009842923","E1","batch5","","644","tol_toboard","","","","tol_peg_1","644","644","0","[[1,0,0],[2,3],[0]]","1","[[2,3,0],[1,0],[0]]","15","0","","","","","","7","","","","","","","","",""
"","","","","","single-stim-button","207","405382","0.0-2.0-56.1-0.1","5e9902c3a64f740009842923","E1","batch5","","478","tol_tohand","","","","tol_peg_2","478","478","0","[[1,0,0],[2,0],[0]]","2","[[2,3,0],[1,0],[0]]","15","0","","","","","","7","","","","","","","","",""
"","","","","","single-stim-button","208","405772","0.0-2.0-56.1-1.1","5e9902c3a64f740009842923","E1","batch5","","389","tol_toboard","","","","tol_peg_1","389","389","0","[[1,3,0],[2,0],[0]]","2","[[2,3,0],[1,0],[0]]","15","0","","","","","","7","","","","","","","","",""
"","","","","","single-stim-button","209","406279","0.0-2.0-56.2-0.2","5e9902c3a64f740009842923","E1","batch5","","506","tol_tohand","","","","tol_peg_2","506","506","0","[[1,3,0],[0,0],[0]]","3","[[2,3,0],[1,0],[0]]","15","0","","","","","","7","","","","","","","","",""
"","","","","","single-stim-button","210","406803","0.0-2.0-56.2-1.2","5e9902c3a64f740009842923","E1","batch5","","522","tol_toboard","","","","tol_peg_3","522","522","0","[[1,3,0],[0,0],[2]]","3","[[2,3,0],[1,0],[0]]","15","0","","","","","","7","","","","","","","","",""
"","","","","","single-stim-button","211","407743","0.0-2.0-56.3-0.3","5e9902c3a64f740009842923","E1","batch5","","938","tol_tohand","","","","tol_peg_1","938","938","0","[[1,0,0],[0,0],[2]]","4","[[2,3,0],[1,0],[0]]","15","0","","","","","","7","","","","","","","","",""
"","","","","","single-stim-button","212","408252","0.0-2.0-56.3-1.3","5e9902c3a64f740009842923","E1","batch5","","509","tol_toboard","","","","tol_peg_2","509","509","0","[[1,0,0],[3,0],[2]]","4","[[2,3,0],[1,0],[0]]","15","0","","","","","","7","","","","","","","","",""
"","","","","","single-stim-button","213","408797","0.0-2.0-56.4-0.4","5e9902c3a64f740009842923","E1","batch5","","544","tol_tohand","","","","tol_peg_1","544","544","0","[[0,0,0],[3,0],[2]]","5","[[2,3,0],[1,0],[0]]","15","0","","","","","","7","","","","","","","","",""
"","","","","","single-stim-button","214","409384","0.0-2.0-56.4-1.4","5e9902c3a64f740009842923","E1","batch5","","586","tol_toboard","","","","tol_peg_2","586","586","0","[[0,0,0],[3,1],[2]]","5","[[2,3,0],[1,0],[0]]","15","0","","","","","","7","","","","","","","","",""
"","","","","","single-stim-button","215","409902","0.0-2.0-56.5-0.5","5e9902c3a64f740009842923","E1","batch5","","516","tol_tohand","","","","tol_peg_3","516","516","0","[[0,0,0],[3,1],[0]]","6","[[2,3,0],[1,0],[0]]","15","0","","","","","","7","","","","","","","","",""
"","","","","","single-stim-button","216","410423","0.0-2.0-56.5-1.5","5e9902c3a64f740009842923","E1","batch5","","521","tol_toboard","","","","tol_peg_1","521","521","0","[[2,0,0],[3,1],[0]]","6","[[2,3,0],[1,0],[0]]","15","0","","","","","","7","","","","","","","","",""
"","","","","","single-stim-button","217","411015","0.0-2.0-56.6-0.6","5e9902c3a64f740009842923","E1","batch5","","592","tol_tohand","","","","tol_peg_2","592","592","0","[[2,0,0],[3,0],[0]]","7","[[2,3,0],[1,0],[0]]","15","0","","","","","","7","","","","","","","","",""
"","","","","","single-stim-button","218","411604","0.0-2.0-56.6-1.6","5e9902c3a64f740009842923","E1","batch5","","588","tol_toboard","","","","tol_peg_3","588","588","0","[[2,0,0],[3,0],[1]]","7","[[2,3,0],[1,0],[0]]","15","0","","","","","","7","","","","","","","","",""
"","","","","","single-stim-button","219","412089","0.0-2.0-56.7-0.7","5e9902c3a64f740009842923","E1","batch5","","484","tol_tohand","","","","tol_peg_2","484","484","0","[[2,0,0],[0,0],[1]]","8","[[2,3,0],[1,0],[0]]","15","0","","","","","","7","","","","","","","","",""
"","","","","","single-stim-button","220","412810","0.0-2.0-56.7-1.7","5e9902c3a64f740009842923","E1","batch5","","721","tol_toboard","","","","tol_peg_1","721","721","0","[[2,3,0],[0,0],[1]]","8","[[2,3,0],[1,0],[0]]","15","0","","","","","","7","","","","","","","","",""
"","","","","","single-stim-button","221","413754","0.0-2.0-56.8-0.8","5e9902c3a64f740009842923","E1","batch5","","943","tol_tohand","","","","tol_peg_3","943","943","0","[[2,3,0],[0,0],[0]]","9","[[2,3,0],[1,0],[0]]","15","0","","","","","","7","","","","","","","","",""
"","","","","","single-stim-button","222","414258","0.0-2.0-56.8-1.8","5e9902c3a64f740009842923","E1","batch5","","502","tol_toboard","","","","tol_peg_2","502","502","0","[[2,3,0],[1,0],[0]]","9","[[2,3,0],[1,0],[0]]","15","0","","","","","","7","","","","","","","","",""
"","","","","","poldrack-single-stim","223","415266","0.0-2.0-57.0","5e9902c3a64f740009842923","E1","batch5","","-1","tol_feedback","","","true","","1000","1000","500","","","","","","-1","none","true","9058","14059","","","","","","","","","",""
"","","","","","html-button-response","224","416247","0.0-2.0-58.0","5e9902c3a64f740009842923","E1","batch5","","980.0999999940395","tol_trial_num","<div class = centerbox><p class = center-block-text>problem <strong>17</strong> out of 25 problems</p></div>","0","","","","","","","","","","","","","","","","","","","","","","","","",""
"","","","","","single-stim-button","225","420672","0.0-2.0-59.0-0.0","5e9902c3a64f740009842923","E1","batch5","","4423","tol_tohand","","","","tol_peg_2","4423","4423","0","[[1,2,0],[0,0],[0]]","1","[[3,1,0],[2,0],[0]]","16","0","","","","","","5","","","","","","","","",""
"","","","","","single-stim-button","226","421259","0.0-2.0-59.0-1.0","5e9902c3a64f740009842923","E1","batch5","","587","tol_toboard","","","","tol_peg_3","587","587","0","[[1,2,0],[0,0],[3]]","1","[[3,1,0],[2,0],[0]]","16","0","","","","","","5","","","","","","","","",""
"","","","","","single-stim-button","227","421846","0.0-2.0-59.1-0.1","5e9902c3a64f740009842923","E1","batch5","","585","tol_tohand","","","","tol_peg_1","585","585","0","[[1,0,0],[0,0],[3]]","2","[[3,1,0],[2,0],[0]]","16","0","","","","","","5","","","","","","","","",""
"","","","","","single-stim-button","228","422338","0.0-2.0-59.1-1.1","5e9902c3a64f740009842923","E1","batch5","","492","tol_toboard","","","","tol_peg_2","492","492","0","[[1,0,0],[2,0],[3]]","2","[[3,1,0],[2,0],[0]]","16","0","","","","","","5","","","","","","","","",""
"","","","","","single-stim-button","229","422859","0.0-2.0-59.2-0.2","5e9902c3a64f740009842923","E1","batch5","","520","tol_tohand","","","","tol_peg_1","520","520","0","[[0,0,0],[2,0],[3]]","3","[[3,1,0],[2,0],[0]]","16","0","","","","","","5","","","","","","","","",""
"","","","","","single-stim-button","230","423496","0.0-2.0-59.2-1.2","5e9902c3a64f740009842923","E1","batch5","","636","tol_toboard","","","","tol_peg_2","636","636","0","[[0,0,0],[2,1],[3]]","3","[[3,1,0],[2,0],[0]]","16","0","","","","","","5","","","","","","","","",""
"","","","","","single-stim-button","231","424057","0.0-2.0-59.3-0.3","5e9902c3a64f740009842923","E1","batch5","","561","tol_tohand","","","","tol_peg_3","561","561","0","[[0,0,0],[2,1],[0]]","4","[[3,1,0],[2,0],[0]]","16","0","","","","","","5","","","","","","","","",""
"","","","","","single-stim-button","232","424699","0.0-2.0-59.3-1.3","5e9902c3a64f740009842923","E1","batch5","","641","tol_toboard","","","","tol_peg_1","641","641","0","[[3,0,0],[2,1],[0]]","4","[[3,1,0],[2,0],[0]]","16","0","","","","","","5","","","","","","","","",""
"","","","","","single-stim-button","233","425228","0.0-2.0-59.4-0.4","5e9902c3a64f740009842923","E1","batch5","","528","tol_tohand","","","","tol_peg_2","528","528","0","[[3,0,0],[2,0],[0]]","5","[[3,1,0],[2,0],[0]]","16","0","","","","","","5","","","","","","","","",""
"","","","","","single-stim-button","234","425730","0.0-2.0-59.4-1.4","5e9902c3a64f740009842923","E1","batch5","","502","tol_toboard","","","","tol_peg_1","502","502","0","[[3,1,0],[2,0],[0]]","5","[[3,1,0],[2,0],[0]]","16","0","","","","","","5","","","","","","","","",""
"","","","","","poldrack-single-stim","235","426738","0.0-2.0-60.0","5e9902c3a64f740009842923","E1","batch5","","-1","tol_feedback","","","true","","1000","1000","500","","","","","","-1","none","true","4423","6617","","","","","","","","","",""
"","","","","","html-button-response","236","427488","0.0-2.0-61.0","5e9902c3a64f740009842923","E1","batch5","","748.1999999880791","tol_trial_num","<div class = centerbox><p class = center-block-text>problem <strong>18</strong> out of 25 problems</p></div>","0","","","","","","","","","","","","","","","","","","","","","","","","",""
"","","","","","single-stim-button","237","431358","0.0-2.0-62.0-0.0","5e9902c3a64f740009842923","E1","batch5","","3870","tol_tohand","","","","tol_peg_1","3870","3870","0","[[1,0,0],[3,0],[0]]","1","[[3,0,0],[2,0],[1]]","17","0","","","","","","5","","","","","","","","",""
"","","","","","single-stim-button","238","431977","0.0-2.0-62.0-1.0","5e9902c3a64f740009842923","E1","batch5","","619","tol_toboard","","","","tol_peg_2","619","619","0","[[1,0,0],[3,2],[0]]","1","[[3,0,0],[2,0],[1]]","17","0","","","","","","5","","","","","","","","",""
"","","","","","single-stim-button","239","432490","0.0-2.0-62.1-0.1","5e9902c3a64f740009842923","E1","batch5","","511","tol_tohand","","","","tol_peg_1","511","511","0","[[0,0,0],[3,2],[0]]","2","[[3,0,0],[2,0],[1]]","17","0","","","","","","5","","","","","","","","",""
"","","","","","single-stim-button","240","433197","0.0-2.0-62.1-1.1","5e9902c3a64f740009842923","E1","batch5","","706","tol_toboard","","","","tol_peg_3","706","706","0","[[0,0,0],[3,2],[1]]","2","[[3,0,0],[2,0],[1]]","17","0","","","","","","5","","","","","","","","",""
"","","","","","single-stim-button","241","455954","0.0-2.0-62.2-0.2","5e9902c3a64f740009842923","E1","batch5","","22755","tol_tohand","","","","tol_peg_2","22755","22755","0","[[0,0,0],[3,0],[1]]","3","[[3,0,0],[2,0],[1]]","17","0","","","","","","5","","","","","","","","",""
"","","","","","single-stim-button","242","456514","0.0-2.0-62.2-1.2","5e9902c3a64f740009842923","E1","batch5","","560","tol_toboard","","","","tol_peg_1","560","560","0","[[2,0,0],[3,0],[1]]","3","[[3,0,0],[2,0],[1]]","17","0","","","","","","5","","","","","","","","",""
"","","","","","single-stim-button","243","457337","0.0-2.0-62.3-0.3","5e9902c3a64f740009842923","E1","batch5","","823","tol_tohand","","","","tol_peg_3","823","823","0","[[2,0,0],[3,0],[0]]","4","[[3,0,0],[2,0],[1]]","17","0","","","","","","5","","","","","","","","",""
"","","","","","single-stim-button","244","458007","0.0-2.0-62.3-1.3","5e9902c3a64f740009842923","E1","batch5","","669","tol_toboard","","","","tol_peg_1","669","669","0","[[2,1,0],[3,0],[0]]","4","[[3,0,0],[2,0],[1]]","17","0","","","","","","5","","","","","","","","",""
"","","","","","single-stim-button","245","458476","0.0-2.0-62.4-0.4","5e9902c3a64f740009842923","E1","batch5","","468","tol_tohand","","","","tol_peg_2","468","468","0","[[2,1,0],[0,0],[0]]","5","[[3,0,0],[2,0],[1]]","17","0","","","","","","5","","","","","","","","",""
"","","","","","single-stim-button","246","458983","0.0-2.0-62.4-1.4","5e9902c3a64f740009842923","E1","batch5","","506","tol_toboard","","","","tol_peg_3","506","506","0","[[2,1,0],[0,0],[3]]","5","[[3,0,0],[2,0],[1]]","17","0","","","","","","5","","","","","","","","",""
"","","","","","single-stim-button","247","459531","0.0-2.0-62.5-0.5","5e9902c3a64f740009842923","E1","batch5","","548","tol_tohand","","","","tol_peg_1","548","548","0","[[2,0,0],[0,0],[3]]","6","[[3,0,0],[2,0],[1]]","17","0","","","","","","5","","","","","","","","",""
"","","","","","single-stim-button","248","460035","0.0-2.0-62.5-1.5","5e9902c3a64f740009842923","E1","batch5","","503","tol_toboard","","","","tol_peg_2","503","503","0","[[2,0,0],[1,0],[3]]","6","[[3,0,0],[2,0],[1]]","17","0","","","","","","5","","","","","","","","",""
"","","","","","single-stim-button","249","460742","0.0-2.0-62.6-0.6","5e9902c3a64f740009842923","E1","batch5","","705","tol_tohand","","","","tol_peg_1","705","705","0","[[0,0,0],[1,0],[3]]","7","[[3,0,0],[2,0],[1]]","17","0","","","","","","5","","","","","","","","",""
"","","","","","single-stim-button","250","461249","0.0-2.0-62.6-1.6","5e9902c3a64f740009842923","E1","batch5","","507","tol_toboard","","","","tol_peg_2","507","507","0","[[0,0,0],[1,2],[3]]","7","[[3,0,0],[2,0],[1]]","17","0","","","","","","5","","","","","","","","",""
"","","","","","single-stim-button","251","461905","0.0-2.0-62.7-0.7","5e9902c3a64f740009842923","E1","batch5","","655","tol_tohand","","","","tol_peg_3","655","655","0","[[0,0,0],[1,2],[0]]","8","[[3,0,0],[2,0],[1]]","17","0","","","","","","5","","","","","","","","",""
"","","","","","single-stim-button","252","462544","0.0-2.0-62.7-1.7","5e9902c3a64f740009842923","E1","batch5","","638","tol_toboard","","","","tol_peg_1","638","638","0","[[3,0,0],[1,2],[0]]","8","[[3,0,0],[2,0],[1]]","17","0","","","","","","5","","","","","","","","",""
"","","","","","single-stim-button","253","463856","0.0-2.0-62.8-0.8","5e9902c3a64f740009842923","E1","batch5","","1311","tol_tohand","","","","tol_peg_2","1311","1311","0","[[3,0,0],[1,0],[0]]","9","[[3,0,0],[2,0],[1]]","17","0","","","","","","5","","","","","","","","",""
"","","","","","single-stim-button","254","464313","0.0-2.0-62.8-1.8","5e9902c3a64f740009842923","E1","batch5","","456","tol_toboard","","","","tol_peg_1","456","456","0","[[3,2,0],[1,0],[0]]","9","[[3,0,0],[2,0],[1]]","17","0","","","","","","5","","","","","","","","",""
"","","","","","single-stim-button","255","464786","0.0-2.0-62.9-0.9","5e9902c3a64f740009842923","E1","batch5","","471","tol_tohand","","","","tol_peg_2","471","471","0","[[3,2,0],[0,0],[0]]","10","[[3,0,0],[2,0],[1]]","17","0","","","","","","5","","","","","","","","",""
"","","","","","single-stim-button","256","465244","0.0-2.0-62.9-1.9","5e9902c3a64f740009842923","E1","batch5","","458","tol_toboard","","","","tol_peg_3","458","458","0","[[3,2,0],[0,0],[1]]","10","[[3,0,0],[2,0],[1]]","17","0","","","","","","5","","","","","","","","",""
"","","","","","single-stim-button","257","465802","0.0-2.0-62.10-0.10","5e9902c3a64f740009842923","E1","batch5","","557","tol_tohand","","","","tol_peg_1","557","557","0","[[3,0,0],[0,0],[1]]","11","[[3,0,0],[2,0],[1]]","17","0","","","","","","5","","","","","","","","",""
"","","","","","single-stim-button","258","466397","0.0-2.0-62.10-1.10","5e9902c3a64f740009842923","E1","batch5","","593","tol_toboard","","","","tol_peg_2","593","593","0","[[3,0,0],[2,0],[1]]","11","[[3,0,0],[2,0],[1]]","17","0","","","","","","5","","","","","","","","",""
"","","","","","poldrack-single-stim","259","467403","0.0-2.0-63.0","5e9902c3a64f740009842923","E1","batch5","","-1","tol_feedback","","","true","","1000","1000","500","","","","","","-1","none","true","3870","32674","","","","","","","","","",""
"","","","","","html-button-response","260","468291","0.0-2.0-64.0","5e9902c3a64f740009842923","E1","batch5","","886.9000000059605","tol_trial_num","<div class = centerbox><p class = center-block-text>problem <strong>19</strong> out of 25 problems</p></div>","0","","","","","","","","","","","","","","","","","","","","","","","","",""
"","","","","","single-stim-button","261","473148","0.0-2.0-65.0-0.0","5e9902c3a64f740009842923","E1","batch5","","4856","tol_tohand","","","","tol_peg_1","4856","4856","0","[[1,0,0],[3,0],[0]]","1","[[0,0,0],[1,2],[3]]","18","0","","","","","","7","","","","","","","","",""
"","","","","","single-stim-button","262","473743","0.0-2.0-65.0-1.0","5e9902c3a64f740009842923","E1","batch5","","594","tol_toboard","","","","tol_peg_3","594","594","0","[[1,0,0],[3,0],[2]]","1","[[0,0,0],[1,2],[3]]","18","0","","","","","","7","","","","","","","","",""
"","","","","","single-stim-button","263","474249","0.0-2.0-65.1-0.1","5e9902c3a64f740009842923","E1","batch5","","504","tol_tohand","","","","tol_peg_1","504","504","0","[[0,0,0],[3,0],[2]]","2","[[0,0,0],[1,2],[3]]","18","0","","","","","","7","","","","","","","","",""
"","","","","","single-stim-button","264","474753","0.0-2.0-65.1-1.1","5e9902c3a64f740009842923","E1","batch5","","503","tol_toboard","","","","tol_peg_2","503","503","0","[[0,0,0],[3,1],[2]]","2","[[0,0,0],[1,2],[3]]","18","0","","","","","","7","","","","","","","","",""
"","","","","","single-stim-button","265","475254","0.0-2.0-65.2-0.2","5e9902c3a64f740009842923","E1","batch5","","500","tol_tohand","","","","tol_peg_3","500","500","0","[[0,0,0],[3,1],[0]]","3","[[0,0,0],[1,2],[3]]","18","0","","","","","","7","","","","","","","","",""
"","","","","","single-stim-button","266","475754","0.0-2.0-65.2-1.2","5e9902c3a64f740009842923","E1","batch5","","498","tol_toboard","","","","tol_peg_1","498","498","0","[[2,0,0],[3,1],[0]]","3","[[0,0,0],[1,2],[3]]","18","0","","","","","","7","","","","","","","","",""
"","","","","","single-stim-button","267","476325","0.0-2.0-65.3-0.3","5e9902c3a64f740009842923","E1","batch5","","571","tol_tohand","","","","tol_peg_2","571","571","0","[[2,0,0],[3,0],[0]]","4","[[0,0,0],[1,2],[3]]","18","0","","","","","","7","","","","","","","","",""
"","","","","","single-stim-button","268","476766","0.0-2.0-65.3-1.3","5e9902c3a64f740009842923","E1","batch5","","440","tol_toboard","","","","tol_peg_1","440","440","0","[[2,1,0],[3,0],[0]]","4","[[0,0,0],[1,2],[3]]","18","0","","","","","","7","","","","","","","","",""
"","","","","","single-stim-button","269","477337","0.0-2.0-65.4-0.4","5e9902c3a64f740009842923","E1","batch5","","570","tol_tohand","","","","tol_peg_2","570","570","0","[[2,1,0],[0,0],[0]]","5","[[0,0,0],[1,2],[3]]","18","0","","","","","","7","","","","","","","","",""
"","","","","","single-stim-button","270","477994","0.0-2.0-65.4-1.4","5e9902c3a64f740009842923","E1","batch5","","656","tol_toboard","","","","tol_peg_3","656","656","0","[[2,1,0],[0,0],[3]]","5","[[0,0,0],[1,2],[3]]","18","0","","","","","","7","","","","","","","","",""
"","","","","","single-stim-button","271","478750","0.0-2.0-65.5-0.5","5e9902c3a64f740009842923","E1","batch5","","755","tol_tohand","","","","tol_peg_1","755","755","0","[[2,0,0],[0,0],[3]]","6","[[0,0,0],[1,2],[3]]","18","0","","","","","","7","","","","","","","","",""
"","","","","","single-stim-button","272","479212","0.0-2.0-65.5-1.5","5e9902c3a64f740009842923","E1","batch5","","461","tol_toboard","","","","tol_peg_2","461","461","0","[[2,0,0],[1,0],[3]]","6","[[0,0,0],[1,2],[3]]","18","0","","","","","","7","","","","","","","","",""
"","","","","","single-stim-button","273","479733","0.0-2.0-65.6-0.6","5e9902c3a64f740009842923","E1","batch5","","520","tol_tohand","","","","tol_peg_1","520","520","0","[[0,0,0],[1,0],[3]]","7","[[0,0,0],[1,2],[3]]","18","0","","","","","","7","","","","","","","","",""
"","","","","","single-stim-button","274","480274","0.0-2.0-65.6-1.6","5e9902c3a64f740009842923","E1","batch5","","540","tol_toboard","","","","tol_peg_2","540","540","0","[[0,0,0],[1,2],[3]]","7","[[0,0,0],[1,2],[3]]","18","0","","","","","","7","","","","","","","","",""
"","","","","","poldrack-single-stim","275","481282","0.0-2.0-66.0","5e9902c3a64f740009842923","E1","batch5","","-1","tol_feedback","","","true","","1000","1000","500","","","","","","-1","none","true","4856","8276","","","","","","","","","",""
"","","","","","html-button-response","276","482052","0.0-2.0-67.0","5e9902c3a64f740009842923","E1","batch5","","768.5999999940395","tol_trial_num","<div class = centerbox><p class = center-block-text>problem <strong>20</strong> out of 25 problems</p></div>","0","","","","","","","","","","","","","","","","","","","","","","","","",""
"","","","","","single-stim-button","277","494546","0.0-2.0-68.0-0.0","5e9902c3a64f740009842923","E1","batch5","","12494","tol_tohand","","","","tol_peg_1","12494","12494","0","[[1,0,0],[3,0],[0]]","1","[[2,1,0],[0,0],[3]]","19","0","","","","","","5","","","","","","","","",""
"","","","","","single-stim-button","278","495154","0.0-2.0-68.0-1.0","5e9902c3a64f740009842923","E1","batch5","","606","tol_toboard","","","","tol_peg_3","606","606","0","[[1,0,0],[3,0],[2]]","1","[[2,1,0],[0,0],[3]]","19","0","","","","","","5","","","","","","","","",""
"","","","","","single-stim-button","279","495697","0.0-2.0-68.1-0.1","5e9902c3a64f740009842923","E1","batch5","","542","tol_tohand","","","","tol_peg_1","542","542","0","[[0,0,0],[3,0],[2]]","2","[[2,1,0],[0,0],[3]]","19","0","","","","","","5","","","","","","","","",""
"","","","","","single-stim-button","280","496134","0.0-2.0-68.1-1.1","5e9902c3a64f740009842923","E1","batch5","","437","tol_toboard","","","","tol_peg_2","437","437","0","[[0,0,0],[3,1],[2]]","2","[[2,1,0],[0,0],[3]]","19","0","","","","","","5","","","","","","","","",""
"","","","","","single-stim-button","281","496622","0.0-2.0-68.2-0.2","5e9902c3a64f740009842923","E1","batch5","","488","tol_tohand","","","","tol_peg_3","488","488","0","[[0,0,0],[3,1],[0]]","3","[[2,1,0],[0,0],[3]]","19","0","","","","","","5","","","","","","","","",""
"","","","","","single-stim-button","282","497527","0.0-2.0-68.2-1.2","5e9902c3a64f740009842923","E1","batch5","","904","tol_toboard","","","","tol_peg_1","904","904","0","[[2,0,0],[3,1],[0]]","3","[[2,1,0],[0,0],[3]]","19","0","","","","","","5","","","","","","","","",""
"","","","","","single-stim-button","283","498009","0.0-2.0-68.3-0.3","5e9902c3a64f740009842923","E1","batch5","","481","tol_tohand","","","","tol_peg_2","481","481","0","[[2,0,0],[3,0],[0]]","4","[[2,1,0],[0,0],[3]]","19","0","","","","","","5","","","","","","","","",""
"","","","","","single-stim-button","284","498473","0.0-2.0-68.3-1.3","5e9902c3a64f740009842923","E1","batch5","","464","tol_toboard","","","","tol_peg_1","464","464","0","[[2,1,0],[3,0],[0]]","4","[[2,1,0],[0,0],[3]]","19","0","","","","","","5","","","","","","","","",""
"","","","","","single-stim-button","285","498928","0.0-2.0-68.4-0.4","5e9902c3a64f740009842923","E1","batch5","","453","tol_tohand","","","","tol_peg_2","453","453","0","[[2,1,0],[0,0],[0]]","5","[[2,1,0],[0,0],[3]]","19","0","","","","","","5","","","","","","","","",""
"","","","","","single-stim-button","286","499369","0.0-2.0-68.4-1.4","5e9902c3a64f740009842923","E1","batch5","","440","tol_toboard","","","","tol_peg_3","440","440","0","[[2,1,0],[0,0],[3]]","5","[[2,1,0],[0,0],[3]]","19","0","","","","","","5","","","","","","","","",""
"","","","","","poldrack-single-stim","287","500378","0.0-2.0-69.0","5e9902c3a64f740009842923","E1","batch5","","-1","tol_feedback","","","true","","1000","1000","500","","","","","","-1","none","true","12494","14458","","","","","","","","","",""
"","","","","","html-button-response","288","501080","0.0-2.0-70.0","5e9902c3a64f740009842923","E1","batch5","","701.0999999940395","tol_trial_num","<div class = centerbox><p class = center-block-text>problem <strong>21</strong> out of 25 problems</p></div>","0","","","","","","","","","","","","","","","","","","","","","","","","",""
"","","","","","single-stim-button","289","509665","0.0-2.0-71.0-0.0","5e9902c3a64f740009842923","E1","batch5","","8583","tol_tohand","","","","tol_peg_2","8583","8583","0","[[1,2,0],[0,0],[0]]","1","[[3,2,0],[0,0],[1]]","20","0","","","","","","6","","","","","","","","",""
"","","","","","single-stim-button","290","510240","0.0-2.0-71.0-1.0","5e9902c3a64f740009842923","E1","batch5","","575","tol_toboard","","","","tol_peg_3","575","575","0","[[1,2,0],[0,0],[3]]","1","[[3,2,0],[0,0],[1]]","20","0","","","","","","6","","","","","","","","",""
"","","","","","single-stim-button","291","510926","0.0-2.0-71.1-0.1","5e9902c3a64f740009842923","E1","batch5","","685","tol_tohand","","","","tol_peg_1","685","685","0","[[1,0,0],[0,0],[3]]","2","[[3,2,0],[0,0],[1]]","20","0","","","","","","6","","","","","","","","",""
"","","","","","single-stim-button","292","511400","0.0-2.0-71.1-1.1","5e9902c3a64f740009842923","E1","batch5","","473","tol_toboard","","","","tol_peg_2","473","473","0","[[1,0,0],[2,0],[3]]","2","[[3,2,0],[0,0],[1]]","20","0","","","","","","6","","","","","","","","",""
"","","","","","single-stim-button","293","511907","0.0-2.0-71.2-0.2","5e9902c3a64f740009842923","E1","batch5","","505","tol_tohand","","","","tol_peg_1","505","505","0","[[0,0,0],[2,0],[3]]","3","[[3,2,0],[0,0],[1]]","20","0","","","","","","6","","","","","","","","",""
"","","","","","single-stim-button","294","512380","0.0-2.0-71.2-1.2","5e9902c3a64f740009842923","E1","batch5","","472","tol_toboard","","","","tol_peg_2","472","472","0","[[0,0,0],[2,1],[3]]","3","[[3,2,0],[0,0],[1]]","20","0","","","","","","6","","","","","","","","",""
"","","","","","single-stim-button","295","513089","0.0-2.0-71.3-0.3","5e9902c3a64f740009842923","E1","batch5","","708","tol_tohand","","","","tol_peg_3","708","708","0","[[0,0,0],[2,1],[0]]","4","[[3,2,0],[0,0],[1]]","20","0","","","","","","6","","","","","","","","",""
"","","","","","single-stim-button","296","513678","0.0-2.0-71.3-1.3","5e9902c3a64f740009842923","E1","batch5","","589","tol_toboard","","","","tol_peg_1","589","589","0","[[3,0,0],[2,1],[0]]","4","[[3,2,0],[0,0],[1]]","20","0","","","","","","6","","","","","","","","",""
"","","","","","single-stim-button","297","515008","0.0-2.0-71.4-0.4","5e9902c3a64f740009842923","E1","batch5","","1330","tol_tohand","","","","tol_peg_2","1330","1330","0","[[3,0,0],[2,0],[0]]","5","[[3,2,0],[0,0],[1]]","20","0","","","","","","6","","","","","","","","",""
"","","","","","single-stim-button","298","515608","0.0-2.0-71.4-1.4","5e9902c3a64f740009842923","E1","batch5","","599","tol_toboard","","","","tol_peg_3","599","599","0","[[3,0,0],[2,0],[1]]","5","[[3,2,0],[0,0],[1]]","20","0","","","","","","6","","","","","","","","",""
"","","","","","single-stim-button","299","516517","0.0-2.0-71.5-0.5","5e9902c3a64f740009842923","E1","batch5","","909","tol_tohand","","","","tol_peg_2","909","909","0","[[3,0,0],[0,0],[1]]","6","[[3,2,0],[0,0],[1]]","20","0","","","","","","6","","","","","","","","",""
"","","","","","single-stim-button","300","517212","0.0-2.0-71.5-1.5","5e9902c3a64f740009842923","E1","batch5","","695","tol_toboard","","","","tol_peg_1","695","695","0","[[3,2,0],[0,0],[1]]","6","[[3,2,0],[0,0],[1]]","20","0","","","","","","6","","","","","","","","",""
"","","","","","poldrack-single-stim","301","518215","0.0-2.0-72.0","5e9902c3a64f740009842923","E1","batch5","","-1","tol_feedback","","","true","","1000","1000","500","","","","","","-1","none","true","8583","12720","","","","","","","","","",""
"","","","","","html-button-response","302","518893","0.0-2.0-73.0","5e9902c3a64f740009842923","E1","batch5","","676.5","tol_trial_num","<div class = centerbox><p class = center-block-text>problem <strong>22</strong> out of 25 problems</p></div>","0","","","","","","","","","","","","","","","","","","","","","","","","",""
"","","","","","single-stim-button","303","525138","0.0-2.0-74.0-0.0","5e9902c3a64f740009842923","E1","batch5","","6245","tol_tohand","","","","tol_peg_2","6245","6245","0","[[1,0,0],[2,0],[0]]","1","[[0,0,0],[1,2],[3]]","21","0","","","","","","6","","","","","","","","",""
"","","","","","single-stim-button","304","525570","0.0-2.0-74.0-1.0","5e9902c3a64f740009842923","E1","batch5","","430","tol_toboard","","","","tol_peg_1","430","430","0","[[1,3,0],[2,0],[0]]","1","[[0,0,0],[1,2],[3]]","21","0","","","","","","6","","","","","","","","",""
"","","","","","single-stim-button","305","526199","0.0-2.0-74.1-0.1","5e9902c3a64f740009842923","E1","batch5","","629","tol_tohand","","","","tol_peg_2","629","629","0","[[1,3,0],[0,0],[0]]","2","[[0,0,0],[1,2],[3]]","21","0","","","","","","6","","","","","","","","",""
"","","","","","single-stim-button","306","526655","0.0-2.0-74.1-1.1","5e9902c3a64f740009842923","E1","batch5","","455","tol_toboard","","","","tol_peg_3","455","455","0","[[1,3,0],[0,0],[2]]","2","[[0,0,0],[1,2],[3]]","21","0","","","","","","6","","","","","","","","",""
"","","","","","single-stim-button","307","535603","0.0-2.0-74.2-0.2","5e9902c3a64f740009842923","E1","batch5","","8946","tol_tohand","","","","tol_peg_3","8946","8946","0","[[1,3,0],[0,0],[0]]","3","[[0,0,0],[1,2],[3]]","21","0","","","","","","6","","","","","","","","",""
"","","","","","single-stim-button","308","536054","0.0-2.0-74.2-1.2","5e9902c3a64f740009842923","E1","batch5","","451","tol_toboard","","","","tol_peg_2","451","451","0","[[1,3,0],[2,0],[0]]","3","[[0,0,0],[1,2],[3]]","21","0","","","","","","6","","","","","","","","",""
"","","","","","single-stim-button","309","536723","0.0-2.0-74.3-0.3","5e9902c3a64f740009842923","E1","batch5","","667","tol_tohand","","","","tol_peg_1","667","667","0","[[1,0,0],[2,0],[0]]","4","[[0,0,0],[1,2],[3]]","21","0","","","","","","6","","","","","","","","",""
"","","","","","single-stim-button","310","537147","0.0-2.0-74.3-1.3","5e9902c3a64f740009842923","E1","batch5","","423","tol_toboard","","","","tol_peg_2","423","423","0","[[1,0,0],[2,3],[0]]","4","[[0,0,0],[1,2],[3]]","21","0","","","","","","6","","","","","","","","",""
"","","","","","single-stim-button","311","537752","0.0-2.0-74.4-0.4","5e9902c3a64f740009842923","E1","batch5","","604","tol_tohand","","","","tol_peg_1","604","604","0","[[0,0,0],[2,3],[0]]","5","[[0,0,0],[1,2],[3]]","21","0","","","","","","6","","","","","","","","",""
"","","","","","single-stim-button","312","538376","0.0-2.0-74.4-1.4","5e9902c3a64f740009842923","E1","batch5","","623","tol_toboard","","","","tol_peg_3","623","623","0","[[0,0,0],[2,3],[1]]","5","[[0,0,0],[1,2],[3]]","21","0","","","","","","6","","","","","","","","",""
"","","","","","single-stim-button","313","538790","0.0-2.0-74.5-0.5","5e9902c3a64f740009842923","E1","batch5","","414","tol_tohand","","","","tol_peg_2","414","414","0","[[0,0,0],[2,0],[1]]","6","[[0,0,0],[1,2],[3]]","21","0","","","","","","6","","","","","","","","",""
"","","","","","single-stim-button","314","539326","0.0-2.0-74.5-1.5","5e9902c3a64f740009842923","E1","batch5","","536","tol_toboard","","","","tol_peg_1","536","536","0","[[3,0,0],[2,0],[1]]","6","[[0,0,0],[1,2],[3]]","21","0","","","","","","6","","","","","","","","",""
"","","","","","single-stim-button","315","540354","0.0-2.0-74.6-0.6","5e9902c3a64f740009842923","E1","batch5","","1028","tol_tohand","","","","tol_peg_2","1028","1028","0","[[3,0,0],[0,0],[1]]","7","[[0,0,0],[1,2],[3]]","21","0","","","","","","6","","","","","","","","",""
"","","","","","single-stim-button","316","540846","0.0-2.0-74.6-1.6","5e9902c3a64f740009842923","E1","batch5","","491","tol_toboard","","","","tol_peg_1","491","491","0","[[3,2,0],[0,0],[1]]","7","[[0,0,0],[1,2],[3]]","21","0","","","","","","6","","","","","","","","",""
"","","","","","single-stim-button","317","541435","0.0-2.0-74.7-0.7","5e9902c3a64f740009842923","E1","batch5","","588","tol_tohand","","","","tol_peg_3","588","588","0","[[3,2,0],[0,0],[0]]","8","[[0,0,0],[1,2],[3]]","21","0","","","","","","6","","","","","","","","",""
"","","","","","single-stim-button","318","541942","0.0-2.0-74.7-1.7","5e9902c3a64f740009842923","E1","batch5","","506","tol_toboard","","","","tol_peg_2","506","506","0","[[3,2,0],[1,0],[0]]","8","[[0,0,0],[1,2],[3]]","21","0","","","","","","6","","","","","","","","",""
"","","","","","single-stim-button","319","542477","0.0-2.0-74.8-0.8","5e9902c3a64f740009842923","E1","batch5","","535","tol_tohand","","","","tol_peg_1","535","535","0","[[3,0,0],[1,0],[0]]","9","[[0,0,0],[1,2],[3]]","21","0","","","","","","6","","","","","","","","",""
"","","","","","single-stim-button","320","542995","0.0-2.0-74.8-1.8","5e9902c3a64f740009842923","E1","batch5","","516","tol_toboard","","","","tol_peg_2","516","516","0","[[3,0,0],[1,2],[0]]","9","[[0,0,0],[1,2],[3]]","21","0","","","","","","6","","","","","","","","",""
"","","","","","single-stim-button","321","543459","0.0-2.0-74.9-0.9","5e9902c3a64f740009842923","E1","batch5","","464","tol_tohand","","","","tol_peg_1","464","464","0","[[0,0,0],[1,2],[0]]","10","[[0,0,0],[1,2],[3]]","21","0","","","","","","6","","","","","","","","",""
"","","","","","single-stim-button","322","544255","0.0-2.0-74.9-1.9","5e9902c3a64f740009842923","E1","batch5","","795","tol_toboard","","","","tol_peg_3","795","795","0","[[0,0,0],[1,2],[3]]","10","[[0,0,0],[1,2],[3]]","21","0","","","","","","6","","","","","","","","",""
"","","","","","poldrack-single-stim","323","545259","0.0-2.0-75.0","5e9902c3a64f740009842923","E1","batch5","","-1","tol_feedback","","","true","","1000","1000","500","","","","","","-1","none","true","6245","20120","","","","","","","","","",""
"","","","","","html-button-response","324","546318","0.0-2.0-76.0","5e9902c3a64f740009842923","E1","batch5","","1058","tol_trial_num","<div class = centerbox><p class = center-block-text>problem <strong>23</strong> out of 25 problems</p></div>","0","","","","","","","","","","","","","","","","","","","","","","","","",""
"","","","","","single-stim-button","325","549759","0.0-2.0-77.0-0.0","5e9902c3a64f740009842923","E1","batch5","","3440","tol_tohand","","","","tol_peg_1","3440","3440","0","[[1,0,0],[3,0],[0]]","1","[[1,3,2],[0,0],[0]]","22","0","","","","","","3","","","","","","","","",""
"","","","","","single-stim-button","326","550334","0.0-2.0-77.0-1.0","5e9902c3a64f740009842923","E1","batch5","","574","tol_toboard","","","","tol_peg_3","574","574","0","[[1,0,0],[3,0],[2]]","1","[[1,3,2],[0,0],[0]]","22","0","","","","","","3","","","","","","","","",""
"","","","","","single-stim-button","327","550755","0.0-2.0-77.1-0.1","5e9902c3a64f740009842923","E1","batch5","","421","tol_tohand","","","","tol_peg_2","421","421","0","[[1,0,0],[0,0],[2]]","2","[[1,3,2],[0,0],[0]]","22","0","","","","","","3","","","","","","","","",""
"","","","","","single-stim-button","328","551253","0.0-2.0-77.1-1.1","5e9902c3a64f740009842923","E1","batch5","","497","tol_toboard","","","","tol_peg_1","497","497","0","[[1,3,0],[0,0],[2]]","2","[[1,3,2],[0,0],[0]]","22","0","","","","","","3","","","","","","","","",""
"","","","","","single-stim-button","329","551824","0.0-2.0-77.2-0.2","5e9902c3a64f740009842923","E1","batch5","","570","tol_tohand","","","","tol_peg_3","570","570","0","[[1,3,0],[0,0],[0]]","3","[[1,3,2],[0,0],[0]]","22","0","","","","","","3","","","","","","","","",""
"","","","","","single-stim-button","330","552464","0.0-2.0-77.2-1.2","5e9902c3a64f740009842923","E1","batch5","","640","tol_toboard","","","","tol_peg_1","640","640","0","[[1,3,2],[0,0],[0]]","3","[[1,3,2],[0,0],[0]]","22","0","","","","","","3","","","","","","","","",""
"","","","","","poldrack-single-stim","331","553475","0.0-2.0-78.0","5e9902c3a64f740009842923","E1","batch5","","-1","tol_feedback","","","true","","1000","1000","500","","","","","","-1","none","true","3440","4431","","","","","","","","","",""
"","","","","","html-button-response","332","563030","0.0-2.0-79.0","5e9902c3a64f740009842923","E1","batch5","","9553.40000000596","tol_trial_num","<div class = centerbox><p class = center-block-text>problem <strong>24</strong> out of 25 problems</p></div>","0","","","","","","","","","","","","","","","","","","","","","","","","",""
"","","","","","single-stim-button","333","635102","0.0-2.0-80.0-0.0","5e9902c3a64f740009842923","E1","batch5","","72071","tol_tohand","","","","tol_peg_3","72071","72071","0","[[0,0,0],[2,3],[0]]","1","[[2,0,0],[3,0],[1]]","23","0","","","","","","7","","","","","","","","",""
"","","","","","single-stim-button","334","636396","0.0-2.0-80.0-1.0","5e9902c3a64f740009842923","E1","batch5","","1293","tol_toboard","","","","tol_peg_1","1293","1293","0","[[1,0,0],[2,3],[0]]","1","[[2,0,0],[3,0],[1]]","23","0","","","","","","7","","","","","","","","",""
"","","","","","single-stim-button","335","636923","0.0-2.0-80.1-0.1","5e9902c3a64f740009842923","E1","batch5","","526","tol_tohand","","","","tol_peg_2","526","526","0","[[1,0,0],[2,0],[0]]","2","[[2,0,0],[3,0],[1]]","23","0","","","","","","7","","","","","","","","",""
"","","","","","single-stim-button","336","637330","0.0-2.0-80.1-1.1","5e9902c3a64f740009842923","E1","batch5","","405","tol_toboard","","","","tol_peg_1","405","405","0","[[1,3,0],[2,0],[0]]","2","[[2,0,0],[3,0],[1]]","23","0","","","","","","7","","","","","","","","",""
"","","","","","single-stim-button","337","637915","0.0-2.0-80.2-0.2","5e9902c3a64f740009842923","E1","batch5","","585","tol_tohand","","","","tol_peg_2","585","585","0","[[1,3,0],[0,0],[0]]","3","[[2,0,0],[3,0],[1]]","23","0","","","","","","7","","","","","","","","",""
"","","","","","single-stim-button","338","638411","0.0-2.0-80.2-1.2","5e9902c3a64f740009842923","E1","batch5","","495","tol_toboard","","","","tol_peg_3","495","495","0","[[1,3,0],[0,0],[2]]","3","[[2,0,0],[3,0],[1]]","23","0","","","","","","7","","","","","","","","",""
"","","","","","single-stim-button","339","639198","0.0-2.0-80.3-0.3","5e9902c3a64f740009842923","E1","batch5","","785","tol_tohand","","","","tol_peg_1","785","785","0","[[1,0,0],[0,0],[2]]","4","[[2,0,0],[3,0],[1]]","23","0","","","","","","7","","","","","","","","",""
"","","","","","single-stim-button","340","639913","0.0-2.0-80.3-1.3","5e9902c3a64f740009842923","E1","batch5","","714","tol_toboard","","","","tol_peg_2","714","714","0","[[1,0,0],[3,0],[2]]","4","[[2,0,0],[3,0],[1]]","23","0","","","","","","7","","","","","","","","",""
"","","","","","single-stim-button","341","641004","0.0-2.0-80.4-0.4","5e9902c3a64f740009842923","E1","batch5","","1091","tol_tohand","","","","tol_peg_1","1091","1091","0","[[0,0,0],[3,0],[2]]","5","[[2,0,0],[3,0],[1]]","23","0","","","","","","7","","","","","","","","",""
"","","","","","single-stim-button","342","641473","0.0-2.0-80.4-1.4","5e9902c3a64f740009842923","E1","batch5","","468","tol_toboard","","","","tol_peg_2","468","468","0","[[0,0,0],[3,1],[2]]","5","[[2,0,0],[3,0],[1]]","23","0","","","","","","7","","","","","","","","",""
"","","","","","single-stim-button","343","642150","0.0-2.0-80.5-0.5","5e9902c3a64f740009842923","E1","batch5","","676","tol_tohand","","","","tol_peg_3","676","676","0","[[0,0,0],[3,1],[0]]","6","[[2,0,0],[3,0],[1]]","23","0","","","","","","7","","","","","","","","",""
"","","","","","single-stim-button","344","642723","0.0-2.0-80.5-1.5","5e9902c3a64f740009842923","E1","batch5","","572","tol_toboard","","","","tol_peg_1","572","572","0","[[2,0,0],[3,1],[0]]","6","[[2,0,0],[3,0],[1]]","23","0","","","","","","7","","","","","","","","",""
"","","","","","single-stim-button","345","643295","0.0-2.0-80.6-0.6","5e9902c3a64f740009842923","E1","batch5","","572","tol_tohand","","","","tol_peg_2","572","572","0","[[2,0,0],[3,0],[0]]","7","[[2,0,0],[3,0],[1]]","23","0","","","","","","7","","","","","","","","",""
"","","","","","single-stim-button","346","643938","0.0-2.0-80.6-1.6","5e9902c3a64f740009842923","E1","batch5","","641","tol_toboard","","","","tol_peg_3","641","641","0","[[2,0,0],[3,0],[1]]","7","[[2,0,0],[3,0],[1]]","23","0","","","","","","7","","","","","","","","",""
"","","","","","poldrack-single-stim","347","644946","0.0-2.0-81.0","5e9902c3a64f740009842923","E1","batch5","","-1","tol_feedback","","","true","","1000","1000","500","","","","","","-1","none","true","72071","76306","","","","","","","","","",""
"","","","","","html-button-response","348","645799","0.0-2.0-82.0","5e9902c3a64f740009842923","E1","batch5","","851","tol_trial_num","<div class = centerbox><p class = center-block-text>problem <strong>25</strong> out of 25 problems</p></div>","0","","","","","","","","","","","","","","","","","","","","","","","","",""
"","","","","","single-stim-button","349","663778","0.0-2.0-83.0-0.0","5e9902c3a64f740009842923","E1","batch5","","17979","tol_tohand","","","","tol_peg_1","17979","17979","0","[[1,0,0],[3,0],[0]]","1","[[3,0,0],[1,0],[2]]","24","0","","","","","","7","","","","","","","","",""
"","","","","","single-stim-button","350","664820","0.0-2.0-83.0-1.0","5e9902c3a64f740009842923","E1","batch5","","1041","tol_toboard","","","","tol_peg_3","1041","1041","0","[[1,0,0],[3,0],[2]]","1","[[3,0,0],[1,0],[2]]","24","0","","","","","","7","","","","","","","","",""
"","","","","","single-stim-button","351","671612","0.0-2.0-83.1-0.1","5e9902c3a64f740009842923","E1","batch5","","6791","tol_tohand","","","","tol_peg_1","6791","6791","0","[[0,0,0],[3,0],[2]]","2","[[3,0,0],[1,0],[2]]","24","0","","","","","","7","","","","","","","","",""
"","","","","","single-stim-button","352","672299","0.0-2.0-83.1-1.1","5e9902c3a64f740009842923","E1","batch5","","685","tol_toboard","","","","tol_peg_2","685","685","0","[[0,0,0],[3,1],[2]]","2","[[3,0,0],[1,0],[2]]","24","0","","","","","","7","","","","","","","","",""
"","","","","","single-stim-button","353","672839","0.0-2.0-83.2-0.2","5e9902c3a64f740009842923","E1","batch5","","539","tol_tohand","","","","tol_peg_3","539","539","0","[[0,0,0],[3,1],[0]]","3","[[3,0,0],[1,0],[2]]","24","0","","","","","","7","","","","","","","","",""
"","","","","","single-stim-button","354","673456","0.0-2.0-83.2-1.2","5e9902c3a64f740009842923","E1","batch5","","617","tol_toboard","","","","tol_peg_1","617","617","0","[[2,0,0],[3,1],[0]]","3","[[3,0,0],[1,0],[2]]","24","0","","","","","","7","","","","","","","","",""
"","","","","","single-stim-button","355","674001","0.0-2.0-83.3-0.3","5e9902c3a64f740009842923","E1","batch5","","543","tol_tohand","","","","tol_peg_2","543","543","0","[[2,0,0],[3,0],[0]]","4","[[3,0,0],[1,0],[2]]","24","0","","","","","","7","","","","","","","","",""
"","","","","","single-stim-button","356","674788","0.0-2.0-83.3-1.3","5e9902c3a64f740009842923","E1","batch5","","787","tol_toboard","","","","tol_peg_3","787","787","0","[[2,0,0],[3,0],[1]]","4","[[3,0,0],[1,0],[2]]","24","0","","","","","","7","","","","","","","","",""
