"success","timeout","failed_images","failed_audio","failed_video","trial_type","trial_index","time_elapsed","internal_node_id","subject_id","study_id","session_id","view_history","rt","stimulus","response","task","correct","answer","item","fiar_detect_rt","fiar_detect_correct","total_correct_fiar_detect","post_trial_gap","choices","mouse_click","stim_duration","block_duration","timing_post_trial","current_position","tol_num_moves_made","tol_target","tol_problem_id","tol_rt","key_press","possible_responses","tol_correct","preplanning","tol_rt_per_trial","tol_min_moves","spm_correct","spm_rt"
"true","false","[]","[]","[]","preload","0","1061","0.0-0.0","5e9af4184c5f7818ccf9a43e","D2","batch4","","","","","","","","","","","","","","","","","","","","","","","","","","","","","",""
"true","","","","","fullscreen","1","13466","0.0-1.0-0.0","5e9af4184c5f7818ccf9a43e","D2","batch4","","","","","","","","","","","","","","","","","","","","","","","","","","","","","",""
"true","","","","","fullscreen","2","16003","0.0-2.0-0.0","5e9af4184c5f7818ccf9a43e","D2","batch4","","","","","","","","","","","","","","","","","","","","","","","","","","","","","",""
"","","","","","instructions","3","35831","0.0-2.0-1.0-0.0","5e9af4184c5f7818ccf9a43e","D2","batch4","[{""page_index"":0,""viewing_time"":16562},{""page_index"":1,""viewing_time"":3263.2999999523163}]","19825.700000047684","","","","","","","","","","","","","","","","","","","","","","","","","","","",""
"","","","","","html-button-response","4","37733","0.0-2.0-1.0-1.0-0.0","5e9af4184c5f7818ccf9a43e","D2","batch4","","1901.2999999523163","<p class=block-text> Let's answer a few questions <br>","0","pattern_enter_quiz","","","","","","","","","","","","","","","","","","","","","","","","",""
"","","","","","html-button-response","5","39995","0.0-2.0-1.0-1.0-1.0","5e9af4184c5f7818ccf9a43e","D2","batch4","","2260.399999976158","<p class = block-text>True or False: You will have as much time as you want to make each choice. <br></p>","1","pattern_quiz","true","","","","","","","","","","","","","","","","","","","","","","","",""
"","","","","","html-button-response","6","41819","0.0-2.0-1.0-1.0-2.0","5e9af4184c5f7818ccf9a43e","D2","batch4","","1822.5999999046326","<p class = block-text>Correct! You should make your choice <strong> as fast as you can</strong>.</p>","0","pattern_quiz_feedback","","","","","","","","","","","","","","","","","","","","","","","","",""
"","","","","","html-button-response","7","46567","0.0-2.0-1.0-1.0-3.0","5e9af4184c5f7818ccf9a43e","D2","batch4","","4746.799999952316","<p class = block-text>True or False: You will look for 4 pieces in black or white color connected in a row either horizontally, vertically or diagonally. <br></p>","0","pattern_quiz","true","","","","","","","","","","","","","","","","","","","","","","","",""
"","","","","","html-button-response","8","47227","0.0-2.0-1.0-1.0-4.0","5e9af4184c5f7818ccf9a43e","D2","batch4","","658.8999999761581","<p class = block-text>Correct! </p>","0","pattern_quiz_feedback","","","","","","","","","","","","","","","","","","","","","","","","",""
"","","","","","html-button-response","9","49427","0.0-2.0-2.0","5e9af4184c5f7818ccf9a43e","D2","batch4","","2198.5","<p class=block-text> Now that you've understood the game, let's do a few practice trials before we start!<br> <br>","0","pattern_enter_practice","","","","","","","","","","","","","","","","","","","","","","","","",""
"","","","","","image-keyboard-response","10","50190","0.0-2.0-3.0-0.0","5e9af4184c5f7818ccf9a43e","D2","batch4","","759.0999999046326","stim/prac_yes_16_ver_w1.png","f","pattern_practice","true","f","","","","","","","","","","","","","","","","","","","","","","",""
"","","","","","html-keyboard-response","11","51209","0.0-2.0-3.0-1.0","5e9af4184c5f7818ccf9a43e","D2","batch4","","null","<p style=""font-size:30px;color:green;"">Correct!</p>","null","pattern_feedback","","","","","","","","","","","","","","","","","","","","","","","","",""
"","","","","","image-keyboard-response","12","51971","0.0-2.0-3.0-0.1","5e9af4184c5f7818ccf9a43e","D2","batch4","","760.1000000238419","stim/prac_yes_18_hor_w1.png","j","pattern_practice","false","f","","","","","","","","","","","","","","","","","","","","","","",""
"","","","","","html-keyboard-response","13","52989","0.0-2.0-3.0-1.1","5e9af4184c5f7818ccf9a43e","D2","batch4","","null","<p style=""font-size:30px;color:red;"">Wrong.</p>","null","pattern_feedback","","","","","","","","","","","","","","","","","","","","","","","","",""
"","","","","","image-keyboard-response","14","54445","0.0-2.0-3.0-0.2","5e9af4184c5f7818ccf9a43e","D2","batch4","","1454.7000000476837","stim/prac_no_18_1.png","j","pattern_practice","true","j","","","","","","","","","","","","","","","","","","","","","","",""
"","","","","","html-keyboard-response","15","55456","0.0-2.0-3.0-1.2","5e9af4184c5f7818ccf9a43e","D2","batch4","","null","<p style=""font-size:30px;color:green;"">Correct!</p>","null","pattern_feedback","","","","","","","","","","","","","","","","","","","","","","","","",""
"","","","","","image-keyboard-response","16","56459","0.0-2.0-3.0-0.3","5e9af4184c5f7818ccf9a43e","D2","batch4","","1001.6999999284744","stim/prac_yes_20_dia_b1.png","f","pattern_practice","true","f","","","","","","","","","","","","","","","","","","","","","","",""
"","","","","","html-keyboard-response","17","57491","0.0-2.0-3.0-1.3","5e9af4184c5f7818ccf9a43e","D2","batch4","","null","<p style=""font-size:30px;color:green;"">Correct!</p>","null","pattern_feedback","","","","","","","","","","","","","","","","","","","","","","","","",""
"","","","","","image-keyboard-response","18","58190","0.0-2.0-3.0-0.4","5e9af4184c5f7818ccf9a43e","D2","batch4","","697","stim/prac_no_16_1.png","f","pattern_practice","false","j","","","","","","","","","","","","","","","","","","","","","","",""
"","","","","","html-keyboard-response","19","59197","0.0-2.0-3.0-1.4","5e9af4184c5f7818ccf9a43e","D2","batch4","","null","<p style=""font-size:30px;color:red;"">Wrong.</p>","null","pattern_feedback","","","","","","","","","","","","","","","","","","","","","","","","",""
"","","","","","html-button-response","20","62735","0.0-2.0-4.0","5e9af4184c5f7818ccf9a43e","D2","batch4","","3536.2999999523163","<p class=block-text> Good job! You are done with practice trials!<br>
        You responded correctly on 60% of the trials.<br>
        Press the button below to start official trials. Now you won't see any feedback about your response</p>","0","pattern_enter_official_trials","","","","","","","","","","","","","","","","","","","","","","","","",""
"","","","","","html-keyboard-response","21","63552","0.0-2.0-5.0-0.0","5e9af4184c5f7818ccf9a43e","D2","batch4","","null","<p class=block-text>Trial 1 out of 78</p>","null","pattern_show_trial_num","","","","","","","","","","","","","","","","","","","","","","","","",""
"","","","","","image-keyboard-response","22","64925","0.0-2.0-5.0-1.0","5e9af4184c5f7818ccf9a43e","D2","batch4","","1370.2999999523163","stim/no_12_1.png","j","pattern_response","true","j","pattern_01","1370.2999999523163","true","1","","","","","","","","","","","","","","","","","","",""
"","","","","","html-keyboard-response","23","66246","0.0-2.0-5.0-0.1","5e9af4184c5f7818ccf9a43e","D2","batch4","","null","<p class=block-text>Trial 2 out of 78</p>","null","pattern_show_trial_num","","","","","","","","","","","","","","","","","","","","","","","","",""
"","","","","","image-keyboard-response","24","67094","0.0-2.0-5.0-1.1","5e9af4184c5f7818ccf9a43e","D2","batch4","","846.1999999284744","stim/no_33_1_b.png","f","pattern_response","false","j","pattern_15","846.1999999284744","false","1","","","","","","","","","","","","","","","","","","",""
"","","","","","html-keyboard-response","25","68412","0.0-2.0-5.0-0.2","5e9af4184c5f7818ccf9a43e","D2","batch4","","null","<p class=block-text>Trial 3 out of 78</p>","null","pattern_show_trial_num","","","","","","","","","","","","","","","","","","","","","","","","",""
"","","","","","image-keyboard-response","26","70267","0.0-2.0-5.0-1.2","5e9af4184c5f7818ccf9a43e","D2","batch4","","1851.8999999761581","stim/no_30_1_b.png","j","pattern_response","true","j","pattern_13","1851.8999999761581","true","2","","","","","","","","","","","","","","","","","","",""
"","","","","","html-keyboard-response","27","71578","0.0-2.0-5.0-0.3","5e9af4184c5f7818ccf9a43e","D2","batch4","","null","<p class=block-text>Trial 4 out of 78</p>","null","pattern_show_trial_num","","","","","","","","","","","","","","","","","","","","","","","","",""
"","","","","","image-keyboard-response","28","74053","0.0-2.0-5.0-1.3","5e9af4184c5f7818ccf9a43e","D2","batch4","","2472.399999976158","stim/no_36_1_b.png","j","pattern_response","true","j","pattern_17","2472.399999976158","true","3","","","","","","","","","","","","","","","","","","",""
"","","","","","html-keyboard-response","29","75368","0.0-2.0-5.0-0.4","5e9af4184c5f7818ccf9a43e","D2","batch4","","null","<p class=block-text>Trial 5 out of 78</p>","null","pattern_show_trial_num","","","","","","","","","","","","","","","","","","","","","","","","",""
"","","","","","image-keyboard-response","30","77444","0.0-2.0-5.0-1.4","5e9af4184c5f7818ccf9a43e","D2","batch4","","2073.5","stim/no_67_1.png","f","pattern_response","false","j","pattern_39","2073.5","false","3","","","","","","","","","","","","","","","","","","",""
"","","","","","html-keyboard-response","31","78758","0.0-2.0-5.0-0.5","5e9af4184c5f7818ccf9a43e","D2","batch4","","null","<p class=block-text>Trial 6 out of 78</p>","null","pattern_show_trial_num","","","","","","","","","","","","","","","","","","","","","","","","",""
"","","","","","image-keyboard-response","32","80095","0.0-2.0-5.0-1.5","5e9af4184c5f7818ccf9a43e","D2","batch4","","1334.7000000476837","stim/yes_70_ver_b1.png","f","pattern_response","true","f","pattern_80","1334.7000000476837","true","4","","","","","","","","","","","","","","","","","","",""
"","","","","","html-keyboard-response","33","81424","0.0-2.0-5.0-0.6","5e9af4184c5f7818ccf9a43e","D2","batch4","","null","<p class=block-text>Trial 7 out of 78</p>","null","pattern_show_trial_num","","","","","","","","","","","","","","","","","","","","","","","","",""
"","","","","","image-keyboard-response","34","83938","0.0-2.0-5.0-1.6","5e9af4184c5f7818ccf9a43e","D2","batch4","","2512.100000023842","stim/no_45_1_w.png","j","pattern_response","true","j","pattern_25","2512.100000023842","true","5","","","","","","","","","","","","","","","","","","",""
"","","","","","html-keyboard-response","35","85254","0.0-2.0-5.0-0.7","5e9af4184c5f7818ccf9a43e","D2","batch4","","null","<p class=block-text>Trial 8 out of 78</p>","null","pattern_show_trial_num","","","","","","","","","","","","","","","","","","","","","","","","",""
"","","","","","image-keyboard-response","36","86545","0.0-2.0-5.0-1.7","5e9af4184c5f7818ccf9a43e","D2","batch4","","1290.1999999284744","stim/yes_58_dia_w1_w.png","f","pattern_response","true","f","pattern_76","1290.1999999284744","true","6","","","","","","","","","","","","","","","","","","",""
"","","","","","html-keyboard-response","37","87865","0.0-2.0-5.0-0.8","5e9af4184c5f7818ccf9a43e","D2","batch4","","null","<p class=block-text>Trial 9 out of 78</p>","null","pattern_show_trial_num","","","","","","","","","","","","","","","","","","","","","","","","",""
"","","","","","image-keyboard-response","38","89876","0.0-2.0-5.0-1.8","5e9af4184c5f7818ccf9a43e","D2","batch4","","2008.5","stim/no_28_2.png","f","pattern_response","false","j","pattern_11","2008.5","false","6","","","","","","","","","","","","","","","","","","",""
"","","","","","html-keyboard-response","39","91191","0.0-2.0-5.0-0.9","5e9af4184c5f7818ccf9a43e","D2","batch4","","null","<p class=block-text>Trial 10 out of 78</p>","null","pattern_show_trial_num","","","","","","","","","","","","","","","","","","","","","","","","",""
"","","","","","image-keyboard-response","40","92480","0.0-2.0-5.0-1.9","5e9af4184c5f7818ccf9a43e","D2","batch4","","1287.1000000238419","stim/yes_26_dia_w2_w.png","f","pattern_response","true","f","pattern_50","1287.1000000238419","true","7","","","","","","","","","","","","","","","","","","",""
"","","","","","html-keyboard-response","41","93788","0.0-2.0-5.0-0.10","5e9af4184c5f7818ccf9a43e","D2","batch4","","null","<p class=block-text>Trial 11 out of 78</p>","null","pattern_show_trial_num","","","","","","","","","","","","","","","","","","","","","","","","",""
"","","","","","image-keyboard-response","42","95746","0.0-2.0-5.0-1.10","5e9af4184c5f7818ccf9a43e","D2","batch4","","1955.2999999523163","stim/no_15_1_w.png","j","pattern_response","true","j","pattern_03","1955.2999999523163","true","8","","","","","","","","","","","","","","","","","","",""
"","","","","","html-keyboard-response","43","97058","0.0-2.0-5.0-0.11","5e9af4184c5f7818ccf9a43e","D2","batch4","","null","<p class=block-text>Trial 12 out of 78</p>","null","pattern_show_trial_num","","","","","","","","","","","","","","","","","","","","","","","","",""
"","","","","","image-keyboard-response","44","98072","0.0-2.0-5.0-1.11","5e9af4184c5f7818ccf9a43e","D2","batch4","","1011.1000000238419","stim/yes_36_ver_w1_w.png","f","pattern_response","true","f","pattern_58","1011.1000000238419","true","9","","","","","","","","","","","","","","","","","","",""
"","","","","","html-keyboard-response","45","99393","0.0-2.0-5.0-0.12","5e9af4184c5f7818ccf9a43e","D2","batch4","","null","<p class=block-text>Trial 13 out of 78</p>","null","pattern_show_trial_num","","","","","","","","","","","","","","","","","","","","","","","","",""
"","","","","","image-keyboard-response","46","101234","0.0-2.0-5.0-1.12","5e9af4184c5f7818ccf9a43e","D2","batch4","","1839.6000000238419","stim/no_49_2_b.png","f","pattern_response","false","j","pattern_29","1839.6000000238419","false","9","","","","","","","","","","","","","","","","","","",""
"","","","","","html-keyboard-response","47","102559","0.0-2.0-5.0-0.13","5e9af4184c5f7818ccf9a43e","D2","batch4","","null","<p class=block-text>Trial 14 out of 78</p>","null","pattern_show_trial_num","","","","","","","","","","","","","","","","","","","","","","","","",""
"","","","","","image-keyboard-response","48","105389","0.0-2.0-5.0-1.13","5e9af4184c5f7818ccf9a43e","D2","batch4","","2827.899999976158","stim/yes_42_dia_w1_w.png","f","pattern_response","true","f","pattern_64","2827.899999976158","true","10","","","","","","","","","","","","","","","","","","",""
"","","","","","html-keyboard-response","49","106698","0.0-2.0-5.0-0.14","5e9af4184c5f7818ccf9a43e","D2","batch4","","null","<p class=block-text>Trial 15 out of 78</p>","null","pattern_show_trial_num","","","","","","","","","","","","","","","","","","","","","","","","",""
"","","","","","image-keyboard-response","50","108614","0.0-2.0-5.0-1.14","5e9af4184c5f7818ccf9a43e","D2","batch4","","1913.3999999761581","stim/yes_53_ver_b1_b.png","f","pattern_response","true","f","pattern_74","1913.3999999761581","true","11","","","","","","","","","","","","","","","","","","",""
"","","","","","html-keyboard-response","51","109920","0.0-2.0-5.0-0.15","5e9af4184c5f7818ccf9a43e","D2","batch4","","null","<p class=block-text>Trial 16 out of 78</p>","null","pattern_show_trial_num","","","","","","","","","","","","","","","","","","","","","","","","",""
"","","","","","image-keyboard-response","52","111667","0.0-2.0-5.0-1.15","5e9af4184c5f7818ccf9a43e","D2","batch4","","1746.1999999284744","stim/yes_51_dia_b1.png","j","pattern_response","false","f","pattern_72","1746.1999999284744","false","11","","","","","","","","","","","","","","","","","","",""
"","","","","","html-keyboard-response","53","112982","0.0-2.0-5.0-0.16","5e9af4184c5f7818ccf9a43e","D2","batch4","","null","<p class=block-text>Trial 17 out of 78</p>","null","pattern_show_trial_num","","","","","","","","","","","","","","","","","","","","","","","","",""
"","","","","","image-keyboard-response","54","114347","0.0-2.0-5.0-1.16","5e9af4184c5f7818ccf9a43e","D2","batch4","","1363.5","stim/yes_46_ver_b1_b.png","f","pattern_response","true","f","pattern_68","1363.5","true","12","","","","","","","","","","","","","","","","","","",""
"","","","","","html-keyboard-response","55","115672","0.0-2.0-5.0-0.17","5e9af4184c5f7818ccf9a43e","D2","batch4","","null","<p class=block-text>Trial 18 out of 78</p>","null","pattern_show_trial_num","","","","","","","","","","","","","","","","","","","","","","","","",""
"","","","","","image-keyboard-response","56","118961","0.0-2.0-5.0-1.17","5e9af4184c5f7818ccf9a43e","D2","batch4","","3278.8000000715256","stim/no_53_1_b.png","f","pattern_response","false","j","pattern_33","3278.8000000715256","false","12","","","","","","","","","","","","","","","","","","",""
"","","","","","html-keyboard-response","57","120283","0.0-2.0-5.0-0.18","5e9af4184c5f7818ccf9a43e","D2","batch4","","null","<p class=block-text>Trial 19 out of 78</p>","null","pattern_show_trial_num","","","","","","","","","","","","","","","","","","","","","","","","",""
"","","","","","image-keyboard-response","58","121852","0.0-2.0-5.0-1.18","5e9af4184c5f7818ccf9a43e","D2","batch4","","1566.5","stim/no_18_1_b.png","j","pattern_response","true","j","pattern_05","1566.5","true","13","","","","","","","","","","","","","","","","","","",""
"","","","","","html-keyboard-response","59","123171","0.0-2.0-5.0-0.19","5e9af4184c5f7818ccf9a43e","D2","batch4","","null","<p class=block-text>Trial 20 out of 78</p>","null","pattern_show_trial_num","","","","","","","","","","","","","","","","","","","","","","","","",""
"","","","","","image-keyboard-response","60","124156","0.0-2.0-5.0-1.19","5e9af4184c5f7818ccf9a43e","D2","batch4","","982.8000000715256","stim/yes_29_hor_b1_b.png","f","pattern_response","true","f","pattern_52","982.8000000715256","true","14","","","","","","","","","","","","","","","","","","",""
"","","","","","html-keyboard-response","61","125462","0.0-2.0-5.0-0.20","5e9af4184c5f7818ccf9a43e","D2","batch4","","null","<p class=block-text>Trial 21 out of 78</p>","null","pattern_show_trial_num","","","","","","","","","","","","","","","","","","","","","","","","",""
"","","","","","image-keyboard-response","62","127212","0.0-2.0-5.0-1.20","5e9af4184c5f7818ccf9a43e","D2","batch4","","1748.1999999284744","stim/no_25_1_b.png","j","pattern_response","true","j","pattern_09","1748.1999999284744","true","15","","","","","","","","","","","","","","","","","","",""
"","","","","","html-keyboard-response","63","128526","0.0-2.0-5.0-0.21","5e9af4184c5f7818ccf9a43e","D2","batch4","","null","<p class=block-text>Trial 22 out of 78</p>","null","pattern_show_trial_num","","","","","","","","","","","","","","","","","","","","","","","","",""
"","","","","","image-keyboard-response","64","129866","0.0-2.0-5.0-1.21","5e9af4184c5f7818ccf9a43e","D2","batch4","","1337.9000000953674","stim/yes_49_hor_w1_b.png","f","pattern_response","true","f","pattern_70","1337.9000000953674","true","16","","","","","","","","","","","","","","","","","","",""
"","","","","","html-keyboard-response","65","131174","0.0-2.0-5.0-0.22","5e9af4184c5f7818ccf9a43e","D2","batch4","","null","<p class=block-text>Trial 23 out of 78</p>","null","pattern_show_trial_num","","","","","","","","","","","","","","","","","","","","","","","","",""
"","","","","","image-keyboard-response","66","132129","0.0-2.0-5.0-1.22","5e9af4184c5f7818ccf9a43e","D2","batch4","","952.6000000238419","stim/yes_12_hor_w1_w.png","f","pattern_response","true","f","pattern_42","952.6000000238419","true","17","","","","","","","","","","","","","","","","","","",""
"","","","","","html-keyboard-response","67","133455","0.0-2.0-5.0-0.23","5e9af4184c5f7818ccf9a43e","D2","batch4","","null","<p class=block-text>Trial 24 out of 78</p>","null","pattern_show_trial_num","","","","","","","","","","","","","","","","","","","","","","","","",""
"","","","","","image-keyboard-response","68","134688","0.0-2.0-5.0-1.23","5e9af4184c5f7818ccf9a43e","D2","batch4","","1231.5","stim/no_47_1_b.png","j","pattern_response","true","j","pattern_27","1231.5","true","18","","","","","","","","","","","","","","","","","","",""
"","","","","","html-keyboard-response","69","136007","0.0-2.0-5.0-0.24","5e9af4184c5f7818ccf9a43e","D2","batch4","","null","<p class=block-text>Trial 25 out of 78</p>","null","pattern_show_trial_num","","","","","","","","","","","","","","","","","","","","","","","","",""
"","","","","","image-keyboard-response","70","140270","0.0-2.0-5.0-1.24","5e9af4184c5f7818ccf9a43e","D2","batch4","","4260.799999952316","stim/yes_63_dia_b1.png","f","pattern_response","true","f","pattern_78","4260.799999952316","true","19","","","","","","","","","","","","","","","","","","",""
"","","","","","html-keyboard-response","71","141583","0.0-2.0-5.0-0.25","5e9af4184c5f7818ccf9a43e","D2","batch4","","null","<p class=block-text>Trial 26 out of 78</p>","null","pattern_show_trial_num","","","","","","","","","","","","","","","","","","","","","","","","",""
"","","","","","image-keyboard-response","72","143121","0.0-2.0-5.0-1.25","5e9af4184c5f7818ccf9a43e","D2","batch4","","1535.8999999761581","stim/yes_44_ver_w1_w.png","f","pattern_response","true","f","pattern_66","1535.8999999761581","true","20","","","","","","","","","","","","","","","","","","",""
"","","","","","html-keyboard-response","73","144447","0.0-2.0-5.0-0.26","5e9af4184c5f7818ccf9a43e","D2","batch4","","null","<p class=block-text>Trial 27 out of 78</p>","null","pattern_show_trial_num","","","","","","","","","","","","","","","","","","","","","","","","",""
"","","","","","image-keyboard-response","74","145559","0.0-2.0-5.0-1.26","5e9af4184c5f7818ccf9a43e","D2","batch4","","1109.5","stim/yes_39_hor_w1_w.png","f","pattern_response","true","f","pattern_62","1109.5","true","21","","","","","","","","","","","","","","","","","","",""
"","","","","","html-keyboard-response","75","146875","0.0-2.0-5.0-0.27","5e9af4184c5f7818ccf9a43e","D2","batch4","","null","<p class=block-text>Trial 28 out of 78</p>","null","pattern_show_trial_num","","","","","","","","","","","","","","","","","","","","","","","","",""
"","","","","","image-keyboard-response","76","148254","0.0-2.0-5.0-1.27","5e9af4184c5f7818ccf9a43e","D2","batch4","","1377.2999999523163","stim/yes_15_dia_b1u_b.png","f","pattern_response","true","f","pattern_44","1377.2999999523163","true","22","","","","","","","","","","","","","","","","","","",""
"","","","","","html-keyboard-response","77","149564","0.0-2.0-5.0-0.28","5e9af4184c5f7818ccf9a43e","D2","batch4","","null","<p class=block-text>Trial 29 out of 78</p>","null","pattern_show_trial_num","","","","","","","","","","","","","","","","","","","","","","","","",""
"","","","","","image-keyboard-response","78","152285","0.0-2.0-5.0-1.28","5e9af4184c5f7818ccf9a43e","D2","batch4","","2718.7000000476837","stim/no_51_1.png","j","pattern_response","true","j","pattern_31","2718.7000000476837","true","23","","","","","","","","","","","","","","","","","","",""
"","","","","","html-keyboard-response","79","153594","0.0-2.0-5.0-0.29","5e9af4184c5f7818ccf9a43e","D2","batch4","","null","<p class=block-text>Trial 30 out of 78</p>","null","pattern_show_trial_num","","","","","","","","","","","","","","","","","","","","","","","","",""
"","","","","","image-keyboard-response","80","157327","0.0-2.0-5.0-1.29","5e9af4184c5f7818ccf9a43e","D2","batch4","","3730.7000000476837","stim/no_58_1_w.png","j","pattern_response","true","j","pattern_35","3730.7000000476837","true","24","","","","","","","","","","","","","","","","","","",""
"","","","","","html-keyboard-response","81","158640","0.0-2.0-5.0-0.30","5e9af4184c5f7818ccf9a43e","D2","batch4","","null","<p class=block-text>Trial 31 out of 78</p>","null","pattern_show_trial_num","","","","","","","","","","","","","","","","","","","","","","","","",""
"","","","","","image-keyboard-response","82","162022","0.0-2.0-5.0-1.30","5e9af4184c5f7818ccf9a43e","D2","batch4","","3379.600000023842","stim/no_37_2_w.png","j","pattern_response","true","j","pattern_19","3379.600000023842","true","25","","","","","","","","","","","","","","","","","","",""
"","","","","","html-keyboard-response","83","163339","0.0-2.0-5.0-0.31","5e9af4184c5f7818ccf9a43e","D2","batch4","","null","<p class=block-text>Trial 32 out of 78</p>","null","pattern_show_trial_num","","","","","","","","","","","","","","","","","","","","","","","","",""
"","","","","","image-keyboard-response","84","164420","0.0-2.0-5.0-1.31","5e9af4184c5f7818ccf9a43e","D2","batch4","","1078.5","stim/yes_30_ver_b1_b.png","f","pattern_response","true","f","pattern_54","1078.5","true","26","","","","","","","","","","","","","","","","","","",""
"","","","","","html-keyboard-response","85","165732","0.0-2.0-5.0-0.32","5e9af4184c5f7818ccf9a43e","D2","batch4","","null","<p class=block-text>Trial 33 out of 78</p>","null","pattern_show_trial_num","","","","","","","","","","","","","","","","","","","","","","","","",""
"","","","","","image-keyboard-response","86","167265","0.0-2.0-5.0-1.32","5e9af4184c5f7818ccf9a43e","D2","batch4","","1530.6000000238419","stim/yes_33_dia_w1_w.png","f","pattern_response","true","f","pattern_56","1530.6000000238419","true","27","","","","","","","","","","","","","","","","","","",""
"","","","","","html-keyboard-response","87","168569","0.0-2.0-5.0-0.33","5e9af4184c5f7818ccf9a43e","D2","batch4","","null","<p class=block-text>Trial 34 out of 78</p>","null","pattern_show_trial_num","","","","","","","","","","","","","","","","","","","","","","","","",""
"","","","","","image-keyboard-response","88","170187","0.0-2.0-5.0-1.33","5e9af4184c5f7818ccf9a43e","D2","batch4","","1616.2999999523163","stim/no_22_1_b.png","j","pattern_response","true","j","pattern_07","1616.2999999523163","true","28","","","","","","","","","","","","","","","","","","",""
"","","","","","html-keyboard-response","89","171498","0.0-2.0-5.0-0.34","5e9af4184c5f7818ccf9a43e","D2","batch4","","null","<p class=block-text>Trial 35 out of 78</p>","null","pattern_show_trial_num","","","","","","","","","","","","","","","","","","","","","","","","",""
"","","","","","image-keyboard-response","90","172506","0.0-2.0-5.0-1.34","5e9af4184c5f7818ccf9a43e","D2","batch4","","1006.3999999761581","stim/no_43_2_b.png","j","pattern_response","true","j","pattern_23","1006.3999999761581","true","29","","","","","","","","","","","","","","","","","","",""
"","","","","","html-keyboard-response","91","173823","0.0-2.0-5.0-0.35","5e9af4184c5f7818ccf9a43e","D2","batch4","","null","<p class=block-text>Trial 36 out of 78</p>","null","pattern_show_trial_num","","","","","","","","","","","","","","","","","","","","","","","","",""
"","","","","","image-keyboard-response","92","175073","0.0-2.0-5.0-1.35","5e9af4184c5f7818ccf9a43e","D2","batch4","","1247.5","stim/yes_23_ver_b1.png","f","pattern_response","true","f","pattern_48","1247.5","true","30","","","","","","","","","","","","","","","","","","",""
"","","","","","html-keyboard-response","93","176379","0.0-2.0-5.0-0.36","5e9af4184c5f7818ccf9a43e","D2","batch4","","null","<p class=block-text>Trial 37 out of 78</p>","null","pattern_show_trial_num","","","","","","","","","","","","","","","","","","","","","","","","",""
"","","","","","image-keyboard-response","94","179362","0.0-2.0-5.0-1.36","5e9af4184c5f7818ccf9a43e","D2","batch4","","2980.899999976158","stim/no_39_1_w.png","j","pattern_response","true","j","pattern_21","2980.899999976158","true","31","","","","","","","","","","","","","","","","","","",""
"","","","","","html-keyboard-response","95","180691","0.0-2.0-5.0-0.37","5e9af4184c5f7818ccf9a43e","D2","batch4","","null","<p class=block-text>Trial 38 out of 78</p>","null","pattern_show_trial_num","","","","","","","","","","","","","","","","","","","","","","","","",""
"","","","","","image-keyboard-response","96","181704","0.0-2.0-5.0-1.37","5e9af4184c5f7818ccf9a43e","D2","batch4","","1011","stim/yes_37_hor_w1_w.png","f","pattern_response","true","f","pattern_60","1011","true","32","","","","","","","","","","","","","","","","","","",""
"","","","","","html-keyboard-response","97","183015","0.0-2.0-5.0-0.38","5e9af4184c5f7818ccf9a43e","D2","batch4","","null","<p class=block-text>Trial 39 out of 78</p>","null","pattern_show_trial_num","","","","","","","","","","","","","","","","","","","","","","","","",""
"","","","","","image-keyboard-response","98","183955","0.0-2.0-5.0-1.38","5e9af4184c5f7818ccf9a43e","D2","batch4","","938.2999999523163","stim/yes_17_ver_b1_b.png","f","pattern_response","true","f","pattern_46","938.2999999523163","true","33","","","","","","","","","","","","","","","","","","",""
"","","","","","image-keyboard-response","99","185785","0.0-2.0-6.0","5e9af4184c5f7818ccf9a43e","D2","batch4","","1315.3000000715256","stim/empty_board.png","j","attention_check","true","j","","","","","500","[""f"",""j""]","","","","","","","","","","","","","","","","",""
"","","","","","html-keyboard-response","100","186594","0.0-2.0-7.0-0.0","5e9af4184c5f7818ccf9a43e","D2","batch4","","null","<p class=block-text>Trial 40 out of 78</p>","null","pattern_show_trial_num","","","","","","","","","","","","","","","","","","","","","","","","",""
"","","","","","image-keyboard-response","101","189503","0.0-2.0-7.0-1.0","5e9af4184c5f7818ccf9a43e","D2","batch4","","2906.100000023842","stim/no_34_1_b.png","j","pattern_response","true","j","pattern_16","2906.100000023842","true","34","","","","","","","","","","","","","","","","","","",""
"","","","","","html-keyboard-response","102","190816","0.0-2.0-7.0-0.1","5e9af4184c5f7818ccf9a43e","D2","batch4","","null","<p class=block-text>Trial 41 out of 78</p>","null","pattern_show_trial_num","","","","","","","","","","","","","","","","","","","","","","","","",""
"","","","","","image-keyboard-response","103","194699","0.0-2.0-7.0-1.1","5e9af4184c5f7818ccf9a43e","D2","batch4","","3880.9000000953674","stim/no_62_1_w.png","j","pattern_response","true","j","pattern_36","3880.9000000953674","true","35","","","","","","","","","","","","","","","","","","",""
"","","","","","html-keyboard-response","104","196017","0.0-2.0-7.0-0.2","5e9af4184c5f7818ccf9a43e","D2","batch4","","null","<p class=block-text>Trial 42 out of 78</p>","null","pattern_show_trial_num","","","","","","","","","","","","","","","","","","","","","","","","",""
"","","","","","image-keyboard-response","105","199238","0.0-2.0-7.0-1.2","5e9af4184c5f7818ccf9a43e","D2","batch4","","3219.399999976158","stim/no_44_1.png","j","pattern_response","true","j","pattern_24","3219.399999976158","true","36","","","","","","","","","","","","","","","","","","",""
"","","","","","html-keyboard-response","106","200552","0.0-2.0-7.0-0.3","5e9af4184c5f7818ccf9a43e","D2","batch4","","null","<p class=block-text>Trial 43 out of 78</p>","null","pattern_show_trial_num","","","","","","","","","","","","","","","","","","","","","","","","",""
"","","","","","image-keyboard-response","107","202270","0.0-2.0-7.0-1.3","5e9af4184c5f7818ccf9a43e","D2","batch4","","1716.3999999761581","stim/yes_35_dia_b1.png","f","pattern_response","true","f","pattern_57","1716.3999999761581","true","37","","","","","","","","","","","","","","","","","","",""
"","","","","","html-keyboard-response","108","203591","0.0-2.0-7.0-0.4","5e9af4184c5f7818ccf9a43e","D2","batch4","","null","<p class=block-text>Trial 44 out of 78</p>","null","pattern_show_trial_num","","","","","","","","","","","","","","","","","","","","","","","","",""
"","","","","","image-keyboard-response","109","204692","0.0-2.0-7.0-1.4","5e9af4184c5f7818ccf9a43e","D2","batch4","","1099.6999999284744","stim/no_13_2_b.png","j","pattern_response","true","j","pattern_02","1099.6999999284744","true","38","","","","","","","","","","","","","","","","","","",""
"","","","","","html-keyboard-response","110","206018","0.0-2.0-7.0-0.5","5e9af4184c5f7818ccf9a43e","D2","batch4","","null","<p class=block-text>Trial 45 out of 78</p>","null","pattern_show_trial_num","","","","","","","","","","","","","","","","","","","","","","","","",""
"","","","","","image-keyboard-response","111","210055","0.0-2.0-7.0-1.5","5e9af4184c5f7818ccf9a43e","D2","batch4","","4035.2999999523163","stim/yes_50_dia_w1.png","j","pattern_response","false","f","pattern_71","4035.2999999523163","false","38","","","","","","","","","","","","","","","","","","",""
"","","","","","html-keyboard-response","112","211363","0.0-2.0-7.0-0.6","5e9af4184c5f7818ccf9a43e","D2","batch4","","null","<p class=block-text>Trial 46 out of 78</p>","null","pattern_show_trial_num","","","","","","","","","","","","","","","","","","","","","","","","",""
"","","","","","image-keyboard-response","113","212632","0.0-2.0-7.0-1.6","5e9af4184c5f7818ccf9a43e","D2","batch4","","1266.6000000238419","stim/yes_43_ver_w1_w.png","f","pattern_response","true","f","pattern_65","1266.6000000238419","true","39","","","","","","","","","","","","","","","","","","",""
"","","","","","html-keyboard-response","114","213947","0.0-2.0-7.0-0.7","5e9af4184c5f7818ccf9a43e","D2","batch4","","null","<p class=block-text>Trial 47 out of 78</p>","null","pattern_show_trial_num","","","","","","","","","","","","","","","","","","","","","","","","",""
"","","","","","image-keyboard-response","115","220128","0.0-2.0-7.0-1.7","5e9af4184c5f7818ccf9a43e","D2","batch4","","6179.100000023842","stim/no_65_1_b.png","j","pattern_response","true","j","pattern_38","6179.100000023842","true","40","","","","","","","","","","","","","","","","","","",""
"","","","","","html-keyboard-response","116","221452","0.0-2.0-7.0-0.8","5e9af4184c5f7818ccf9a43e","D2","batch4","","null","<p class=block-text>Trial 48 out of 78</p>","null","pattern_show_trial_num","","","","","","","","","","","","","","","","","","","","","","","","",""
"","","","","","image-keyboard-response","117","224990","0.0-2.0-7.0-1.8","5e9af4184c5f7818ccf9a43e","D2","batch4","","3535.2000000476837","stim/yes_45_hor_b2_b.png","f","pattern_response","true","f","pattern_67","3535.2000000476837","true","41","","","","","","","","","","","","","","","","","","",""
"","","","","","html-keyboard-response","118","226298","0.0-2.0-7.0-0.9","5e9af4184c5f7818ccf9a43e","D2","batch4","","null","<p class=block-text>Trial 49 out of 78</p>","null","pattern_show_trial_num","","","","","","","","","","","","","","","","","","","","","","","","",""
"","","","","","image-keyboard-response","119","229188","0.0-2.0-7.0-1.9","5e9af4184c5f7818ccf9a43e","D2","batch4","","2887.7000000476837","stim/yes_31_hor_b1.png","j","pattern_response","false","f","pattern_55","2887.7000000476837","false","41","","","","","","","","","","","","","","","","","","",""
"","","","","","html-keyboard-response","120","230504","0.0-2.0-7.0-0.10","5e9af4184c5f7818ccf9a43e","D2","batch4","","null","<p class=block-text>Trial 50 out of 78</p>","null","pattern_show_trial_num","","","","","","","","","","","","","","","","","","","","","","","","",""
"","","","","","image-keyboard-response","121","234112","0.0-2.0-7.0-1.10","5e9af4184c5f7818ccf9a43e","D2","batch4","","3605.399999976158","stim/no_42_1_w.png","j","pattern_response","true","j","pattern_22","3605.399999976158","true","42","","","","","","","","","","","","","","","","","","",""
"","","","","","html-keyboard-response","122","235429","0.0-2.0-7.0-0.11","5e9af4184c5f7818ccf9a43e","D2","batch4","","null","<p class=block-text>Trial 51 out of 78</p>","null","pattern_show_trial_num","","","","","","","","","","","","","","","","","","","","","","","","",""
"","","","","","image-keyboard-response","123","239093","0.0-2.0-7.0-1.11","5e9af4184c5f7818ccf9a43e","D2","batch4","","3661.6999999284744","stim/yes_22_ver_w1.png","f","pattern_response","true","f","pattern_47","3661.6999999284744","true","43","","","","","","","","","","","","","","","","","","",""
"","","","","","html-keyboard-response","124","240405","0.0-2.0-7.0-0.12","5e9af4184c5f7818ccf9a43e","D2","batch4","","null","<p class=block-text>Trial 52 out of 78</p>","null","pattern_show_trial_num","","","","","","","","","","","","","","","","","","","","","","","","",""
"","","","","","image-keyboard-response","125","241428","0.0-2.0-7.0-1.12","5e9af4184c5f7818ccf9a43e","D2","batch4","","1021.1000000238419","stim/yes_25_hor_b1_b.png","f","pattern_response","true","f","pattern_49","1021.1000000238419","true","44","","","","","","","","","","","","","","","","","","",""
"","","","","","html-keyboard-response","126","242755","0.0-2.0-7.0-0.13","5e9af4184c5f7818ccf9a43e","D2","batch4","","null","<p class=block-text>Trial 53 out of 78</p>","null","pattern_show_trial_num","","","","","","","","","","","","","","","","","","","","","","","","",""
"","","","","","image-keyboard-response","127","245069","0.0-2.0-7.0-1.13","5e9af4184c5f7818ccf9a43e","D2","batch4","","2311.899999976158","stim/yes_48_dia_w1_w.png","j","pattern_response","false","f","pattern_69","2311.899999976158","false","44","","","","","","","","","","","","","","","","","","",""
"","","","","","html-keyboard-response","128","246388","0.0-2.0-7.0-0.14","5e9af4184c5f7818ccf9a43e","D2","batch4","","null","<p class=block-text>Trial 54 out of 78</p>","null","pattern_show_trial_num","","","","","","","","","","","","","","","","","","","","","","","","",""
"","","","","","image-keyboard-response","129","249786","0.0-2.0-7.0-1.14","5e9af4184c5f7818ccf9a43e","D2","batch4","","3395.5999999046326","stim/no_70_2.png","j","pattern_response","true","j","pattern_40","3395.5999999046326","true","45","","","","","","","","","","","","","","","","","","",""
"","","","","","html-keyboard-response","130","251104","0.0-2.0-7.0-0.15","5e9af4184c5f7818ccf9a43e","D2","batch4","","null","<p class=block-text>Trial 55 out of 78</p>","null","pattern_show_trial_num","","","","","","","","","","","","","","","","","","","","","","","","",""
"","","","","","image-keyboard-response","131","256025","0.0-2.0-7.0-1.15","5e9af4184c5f7818ccf9a43e","D2","batch4","","4918.700000047684","stim/no_17_1_w.png","j","pattern_response","true","j","pattern_04","4918.700000047684","true","46","","","","","","","","","","","","","","","","","","",""
"","","","","","html-keyboard-response","132","257345","0.0-2.0-7.0-0.16","5e9af4184c5f7818ccf9a43e","D2","batch4","","null","<p class=block-text>Trial 56 out of 78</p>","null","pattern_show_trial_num","","","","","","","","","","","","","","","","","","","","","","","","",""
"","","","","","image-keyboard-response","133","261626","0.0-2.0-7.0-1.16","5e9af4184c5f7818ccf9a43e","D2","batch4","","4278.700000047684","stim/yes_67_hor_b1.png","f","pattern_response","true","f","pattern_79","4278.700000047684","true","47","","","","","","","","","","","","","","","","","","",""
"","","","","","html-keyboard-response","134","262947","0.0-2.0-7.0-0.17","5e9af4184c5f7818ccf9a43e","D2","batch4","","null","<p class=block-text>Trial 57 out of 78</p>","null","pattern_show_trial_num","","","","","","","","","","","","","","","","","","","","","","","","",""
"","","","","","image-keyboard-response","135","265878","0.0-2.0-7.0-1.17","5e9af4184c5f7818ccf9a43e","D2","batch4","","2929","stim/no_38_1_b.png","j","pattern_response","true","j","pattern_20","2929","true","48","","","","","","","","","","","","","","","","","","",""
"","","","","","html-keyboard-response","136","267187","0.0-2.0-7.0-0.18","5e9af4184c5f7818ccf9a43e","D2","batch4","","null","<p class=block-text>Trial 58 out of 78</p>","null","pattern_show_trial_num","","","","","","","","","","","","","","","","","","","","","","","","",""
"","","","","","image-keyboard-response","137","270155","0.0-2.0-7.0-1.18","5e9af4184c5f7818ccf9a43e","D2","batch4","","2966.3000000715256","stim/no_23_1.png","j","pattern_response","true","j","pattern_08","2966.3000000715256","true","49","","","","","","","","","","","","","","","","","","",""
"","","","","","html-keyboard-response","138","271463","0.0-2.0-7.0-0.19","5e9af4184c5f7818ccf9a43e","D2","batch4","","null","<p class=block-text>Trial 59 out of 78</p>","null","pattern_show_trial_num","","","","","","","","","","","","","","","","","","","","","","","","",""
"","","","","","image-keyboard-response","139","273585","0.0-2.0-7.0-1.19","5e9af4184c5f7818ccf9a43e","D2","batch4","","2131.7000000476837","stim/no_26_1_w.png","j","pattern_response","true","j","pattern_10","2131.7000000476837","true","50","","","","","","","","","","","","","","","","","","",""
"","","","","","html-keyboard-response","140","274896","0.0-2.0-7.0-0.20","5e9af4184c5f7818ccf9a43e","D2","batch4","","null","<p class=block-text>Trial 60 out of 78</p>","null","pattern_show_trial_num","","","","","","","","","","","","","","","","","","","","","","","","",""
"","","","","","image-keyboard-response","141","277278","0.0-2.0-7.0-1.20","5e9af4184c5f7818ccf9a43e","D2","batch4","","2379.7000000476837","stim/yes_29_ver_w1.png","f","pattern_response","true","f","pattern_53","2379.7000000476837","true","51","","","","","","","","","","","","","","","","","","",""
"","","","","","html-keyboard-response","142","278606","0.0-2.0-7.0-0.21","5e9af4184c5f7818ccf9a43e","D2","batch4","","null","<p class=block-text>Trial 61 out of 78</p>","null","pattern_show_trial_num","","","","","","","","","","","","","","","","","","","","","","","","",""
"","","","","","image-keyboard-response","143","281163","0.0-2.0-7.0-1.21","5e9af4184c5f7818ccf9a43e","D2","batch4","","2555.2999999523163","stim/yes_38_hor_b1_b.png","f","pattern_response","true","f","pattern_61","2555.2999999523163","true","52","","","","","","","","","","","","","","","","","","",""
"","","","","","html-keyboard-response","144","282479","0.0-2.0-7.0-0.22","5e9af4184c5f7818ccf9a43e","D2","batch4","","null","<p class=block-text>Trial 62 out of 78</p>","null","pattern_show_trial_num","","","","","","","","","","","","","","","","","","","","","","","","",""
"","","","","","image-keyboard-response","145","285416","0.0-2.0-7.0-1.22","5e9af4184c5f7818ccf9a43e","D2","batch4","","2934.1999999284744","stim/yes_40_dia_b1_b.png","j","pattern_response","false","f","pattern_63","2934.1999999284744","false","52","","","","","","","","","","","","","","","","","","",""
"","","","","","html-keyboard-response","146","286744","0.0-2.0-7.0-0.23","5e9af4184c5f7818ccf9a43e","D2","batch4","","null","<p class=block-text>Trial 63 out of 78</p>","null","pattern_show_trial_num","","","","","","","","","","","","","","","","","","","","","","","","",""
"","","","","","image-keyboard-response","147","290686","0.0-2.0-7.0-1.23","5e9af4184c5f7818ccf9a43e","D2","batch4","","3940.5","stim/no_55_1_w.png","f","pattern_response","false","j","pattern_34","3940.5","false","52","","","","","","","","","","","","","","","","","","",""
"","","","","","html-keyboard-response","148","292010","0.0-2.0-7.0-0.24","5e9af4184c5f7818ccf9a43e","D2","batch4","","null","<p class=block-text>Trial 64 out of 78</p>","null","pattern_show_trial_num","","","","","","","","","","","","","","","","","","","","","","","","",""
"","","","","","image-keyboard-response","149","294931","0.0-2.0-7.0-1.24","5e9af4184c5f7818ccf9a43e","D2","batch4","","2918.2999999523163","stim/no_48_1_w.png","j","pattern_response","true","j","pattern_28","2918.2999999523163","true","53","","","","","","","","","","","","","","","","","","",""
"","","","","","html-keyboard-response","150","296251","0.0-2.0-7.0-0.25","5e9af4184c5f7818ccf9a43e","D2","batch4","","null","<p class=block-text>Trial 65 out of 78</p>","null","pattern_show_trial_num","","","","","","","","","","","","","","","","","","","","","","","","",""
"","","","","","image-keyboard-response","151","298085","0.0-2.0-7.0-1.25","5e9af4184c5f7818ccf9a43e","D2","batch4","","1831.7000000476837","stim/yes_17_dia_w1.png","f","pattern_response","true","f","pattern_45","1831.7000000476837","true","54","","","","","","","","","","","","","","","","","","",""
"","","","","","html-keyboard-response","152","299400","0.0-2.0-7.0-0.26","5e9af4184c5f7818ccf9a43e","D2","batch4","","null","<p class=block-text>Trial 66 out of 78</p>","null","pattern_show_trial_num","","","","","","","","","","","","","","","","","","","","","","","","",""
"","","","","","image-keyboard-response","153","300523","0.0-2.0-7.0-1.26","5e9af4184c5f7818ccf9a43e","D2","batch4","","1120.5","stim/yes_14_hor_b1_w.png","f","pattern_response","true","f","pattern_43","1120.5","true","55","","","","","","","","","","","","","","","","","","",""
"","","","","","html-keyboard-response","154","301838","0.0-2.0-7.0-0.27","5e9af4184c5f7818ccf9a43e","D2","batch4","","null","<p class=block-text>Trial 67 out of 78</p>","null","pattern_show_trial_num","","","","","","","","","","","","","","","","","","","","","","","","",""
"","","","","","image-keyboard-response","155","303280","0.0-2.0-7.0-1.27","5e9af4184c5f7818ccf9a43e","D2","batch4","","1439.2999999523163","stim/yes_52_ver_w1.png","f","pattern_response","true","f","pattern_73","1439.2999999523163","true","56","","","","","","","","","","","","","","","","","","",""
"","","","","","html-keyboard-response","156","304602","0.0-2.0-7.0-0.28","5e9af4184c5f7818ccf9a43e","D2","batch4","","null","<p class=block-text>Trial 68 out of 78</p>","null","pattern_show_trial_num","","","","","","","","","","","","","","","","","","","","","","","","",""
"","","","","","image-keyboard-response","157","307558","0.0-2.0-7.0-1.28","5e9af4184c5f7818ccf9a43e","D2","batch4","","2954.3000000715256","stim/yes_55_hor_w1_w.png","f","pattern_response","true","f","pattern_75","2954.3000000715256","true","57","","","","","","","","","","","","","","","","","","",""
"","","","","","html-keyboard-response","158","308868","0.0-2.0-7.0-0.29","5e9af4184c5f7818ccf9a43e","D2","batch4","","null","<p class=block-text>Trial 69 out of 78</p>","null","pattern_show_trial_num","","","","","","","","","","","","","","","","","","","","","","","","",""
"","","","","","image-keyboard-response","159","311966","0.0-2.0-7.0-1.29","5e9af4184c5f7818ccf9a43e","D2","batch4","","3096","stim/yes_37_dia_w1.png","j","pattern_response","false","f","pattern_59","3096","false","57","","","","","","","","","","","","","","","","","","",""
"","","","","","html-keyboard-response","160","313271","0.0-2.0-7.0-0.30","5e9af4184c5f7818ccf9a43e","D2","batch4","","null","<p class=block-text>Trial 70 out of 78</p>","null","pattern_show_trial_num","","","","","","","","","","","","","","","","","","","","","","","","",""
"","","","","","image-keyboard-response","161","315516","0.0-2.0-7.0-1.30","5e9af4184c5f7818ccf9a43e","D2","batch4","","2242.8000000715256","stim/no_29_1_b.png","j","pattern_response","true","j","pattern_12","2242.8000000715256","true","58","","","","","","","","","","","","","","","","","","",""
"","","","","","html-keyboard-response","162","316829","0.0-2.0-7.0-0.31","5e9af4184c5f7818ccf9a43e","D2","batch4","","null","<p class=block-text>Trial 71 out of 78</p>","null","pattern_show_trial_num","","","","","","","","","","","","","","","","","","","","","","","","",""
"","","","","","image-keyboard-response","163","321006","0.0-2.0-7.0-1.31","5e9af4184c5f7818ccf9a43e","D2","batch4","","4174.700000047684","stim/yes_60_ver_b1_b.png","f","pattern_response","true","f","pattern_77","4174.700000047684","true","59","","","","","","","","","","","","","","","","","","",""
"","","","","","html-keyboard-response","164","322321","0.0-2.0-7.0-0.32","5e9af4184c5f7818ccf9a43e","D2","batch4","","null","<p class=block-text>Trial 72 out of 78</p>","null","pattern_show_trial_num","","","","","","","","","","","","","","","","","","","","","","","","",""
"","","","","","image-keyboard-response","165","323966","0.0-2.0-7.0-1.32","5e9af4184c5f7818ccf9a43e","D2","batch4","","1643.5","stim/no_20_1_w.png","j","pattern_response","true","j","pattern_06","1643.5","true","60","","","","","","","","","","","","","","","","","","",""
"","","","","","html-keyboard-response","166","325286","0.0-2.0-7.0-0.33","5e9af4184c5f7818ccf9a43e","D2","batch4","","null","<p class=block-text>Trial 73 out of 78</p>","null","pattern_show_trial_num","","","","","","","","","","","","","","","","","","","","","","","","",""
"","","","","","image-keyboard-response","167","329705","0.0-2.0-7.0-1.33","5e9af4184c5f7818ccf9a43e","D2","batch4","","4417.100000023842","stim/no_46_1_b.png","j","pattern_response","true","j","pattern_26","4417.100000023842","true","61","","","","","","","","","","","","","","","","","","",""
"","","","","","html-keyboard-response","168","331019","0.0-2.0-7.0-0.34","5e9af4184c5f7818ccf9a43e","D2","batch4","","null","<p class=block-text>Trial 74 out of 78</p>","null","pattern_show_trial_num","","","","","","","","","","","","","","","","","","","","","","","","",""
"","","","","","image-keyboard-response","169","334117","0.0-2.0-7.0-1.34","5e9af4184c5f7818ccf9a43e","D2","batch4","","3089.399999976158","stim/no_52_1.png","j","pattern_response","true","j","pattern_32","3089.399999976158","true","62","","","","","","","","","","","","","","","","","","",""
"","","","","","html-keyboard-response","170","335426","0.0-2.0-7.0-0.35","5e9af4184c5f7818ccf9a43e","D2","batch4","","null","<p class=block-text>Trial 75 out of 78</p>","null","pattern_show_trial_num","","","","","","","","","","","","","","","","","","","","","","","","",""
"","","","","","image-keyboard-response","171","336574","0.0-2.0-7.0-1.35","5e9af4184c5f7818ccf9a43e","D2","batch4","","1146.6000000238419","stim/yes_28_ver_b1.png","f","pattern_response","true","f","pattern_51","1146.6000000238419","true","63","","","","","","","","","","","","","","","","","","",""
"","","","","","html-keyboard-response","172","337882","0.0-2.0-7.0-0.36","5e9af4184c5f7818ccf9a43e","D2","batch4","","null","<p class=block-text>Trial 76 out of 78</p>","null","pattern_show_trial_num","","","","","","","","","","","","","","","","","","","","","","","","",""
"","","","","","image-keyboard-response","173","339950","0.0-2.0-7.0-1.36","5e9af4184c5f7818ccf9a43e","D2","batch4","","2066.6999999284744","stim/no_32_1_w.png","j","pattern_response","true","j","pattern_14","2066.6999999284744","true","64","","","","","","","","","","","","","","","","","","",""
"","","","","","html-keyboard-response","174","341272","0.0-2.0-7.0-0.37","5e9af4184c5f7818ccf9a43e","D2","batch4","","null","<p class=block-text>Trial 77 out of 78</p>","null","pattern_show_trial_num","","","","","","","","","","","","","","","","","","","","","","","","",""
"","","","","","image-keyboard-response","175","343132","0.0-2.0-7.0-1.37","5e9af4184c5f7818ccf9a43e","D2","batch4","","1859.1000000238419","stim/no_36_2_w.png","j","pattern_response","true","j","pattern_18","1859.1000000238419","true","65","","","","","","","","","","","","","","","","","","",""
"","","","","","html-keyboard-response","176","344450","0.0-2.0-7.0-0.38","5e9af4184c5f7818ccf9a43e","D2","batch4","","null","<p class=block-text>Trial 78 out of 78</p>","null","pattern_show_trial_num","","","","","","","","","","","","","","","","","","","","","","","","",""
"","","","","","image-keyboard-response","177","347128","0.0-2.0-7.0-1.38","5e9af4184c5f7818ccf9a43e","D2","batch4","","2676.6999999284744","stim/no_50_1.png","j","pattern_response","true","j","pattern_30","2676.6999999284744","true","66","","","","","","","","","","","","","","","","","","",""
"","","","","","html-button-response","178","370585","0.0-2.0-8.0","5e9af4184c5f7818ccf9a43e","D2","batch4","","22949.799999952316","<p class = block-text>This concludes the 4-in-a-row detection game.Thank you for your responses!<br>
            You responded correctly on 85% of the trials.<br>
            When you are ready, press ""Continue"" button to continue </p>","0","","","","","","","","","","","","","","","","","","","","","","","","","",""
"true","","","","","fullscreen","179","373673","0.0-3.0-0.0","5e9af4184c5f7818ccf9a43e","D2","batch4","","","","","","","","","","","","","","","","","","","","","","","","","","","","","",""
"","","","","","instructions","180","427979","0.0-3.0-1.0-0.0-0.0","5e9af4184c5f7818ccf9a43e","D2","batch4","[{""page_index"":0,""viewing_time"":11990.600000023842},{""page_index"":1,""viewing_time"":10644.800000071526},{""page_index"":2,""viewing_time"":4361.699999928474},{""page_index"":3,""viewing_time"":11915.700000047684},{""page_index"":4,""viewing_time"":5714},{""page_index"":5,""viewing_time"":6630},{""page_index"":6,""viewing_time"":3042.100000023842}]","54299.300000071526","","","tol-instructions","","","","","","","","","","","","","","","","","","","","","","","","",""
"","","","","","html-button-response","181","429159","0.0-3.0-1.0-1.0-0.0","5e9af4184c5f7818ccf9a43e","D2","batch4","","1178.8999999761581","<p class=block-text> Let's answer a few questions <br>","0","tol_enter_quiz","","","","","","","","","","","","","","","","","","","","","","","","",""
"","","","","","html-button-response","182","434741","0.0-3.0-1.0-1.0-1.0","5e9af4184c5f7818ccf9a43e","D2","batch4","","5580.699999928474","<p class = block-text>True or False: You can only move the ball on top of a peg. <br></p>","0","tol_quiz","true","","","","","","","","","","","","","","","","","","","","","","","",""
"","","","","","html-button-response","183","435921","0.0-3.0-1.0-1.0-2.0","5e9af4184c5f7818ccf9a43e","D2","batch4","","1178.3000000715256","<p class = block-text>Correct! You can only move the ball on top of a peg.</p>","0","tol_quiz_feedback","","","","","","","","","","","","","","","","","","","","","","","","",""
"","","","","","html-button-response","184","440983","0.0-3.0-1.0-1.0-3.0","5e9af4184c5f7818ccf9a43e","D2","batch4","","5061.100000023842","<p class = block-text>True or False: You should try to match your board with the target board with fewest moves possible. <br></p>","0","tol_quiz","true","","","","","","","","","","","","","","","","","","","","","","","",""
"","","","","","html-button-response","185","443605","0.0-3.0-1.0-1.0-4.0","5e9af4184c5f7818ccf9a43e","D2","batch4","","2620.8000000715256","<p class = block-text>Correct! </p>","0","tol_quiz_feedback","","","","","","","","","","","","","","","","","","","","","","","","",""
"","","","","","html-button-response","186","445485","0.0-3.0-2.0","5e9af4184c5f7818ccf9a43e","D2","batch4","","1878","<p class=block-text> Now that you've understood the game, let's practice a few easier examples before we start!<br> <br>","0","","","","","","","","","","","","","","","","","","","","","","","","","",""
"","","","","","single-stim-button","187","453979","0.0-3.0-3.0-0.0","5e9af4184c5f7818ccf9a43e","D2","batch4","","8492","","","tol_practice","","","","","","","","","tol_peg_2","8492","8492","0","[[1,2,0],[0,0],[0]]","1","[[1,2,0],[0,0],[3]]","practice","8492","","","","","","","",""
"","","","","","single-stim-button","188","455288","0.0-3.0-3.0-1.0","5e9af4184c5f7818ccf9a43e","D2","batch4","","1307","","","tol_practice","","","","","","","","","tol_peg_3","1307","1307","0","[[1,2,0],[0,0],[3]]","1","[[1,2,0],[0,0],[3]]","practice","1307","","","","","","","",""
"","","","","","poldrack-single-stim","189","456293","0.0-3.0-4.0","5e9af4184c5f7818ccf9a43e","D2","batch4","","-1","","","tol_feedback","true","","","","","","","","","1000","1000","500","","","","","","-1","none","true","","0","","",""
"","","","","","single-stim-button","190","461497","0.0-3.0-5.0-0.0","5e9af4184c5f7818ccf9a43e","D2","batch4","","5203","","","tol_practice","","","","","","","","","tol_peg_1","5203","5203","0","[[1,0,0],[3,0],[0]]","2","[[0,0,0],[3,1],[2]]","practice","5203","","","","","","","",""
"","","","","","single-stim-button","191","463887","0.0-3.0-5.0-1.0","5e9af4184c5f7818ccf9a43e","D2","batch4","","2389","","","tol_practice","","","","","","","","","tol_peg_3","2389","2389","0","[[1,0,0],[3,0],[2]]","2","[[0,0,0],[3,1],[2]]","practice","2389","","","","","","","",""
"","","","","","single-stim-button","192","465051","0.0-3.0-5.1-0.1","5e9af4184c5f7818ccf9a43e","D2","batch4","","1163","","","tol_practice","","","","","","","","","tol_peg_1","1163","1163","0","[[0,0,0],[3,0],[2]]","3","[[0,0,0],[3,1],[2]]","practice","1163","","","","","","","",""
"","","","","","single-stim-button","193","466556","0.0-3.0-5.1-1.1","5e9af4184c5f7818ccf9a43e","D2","batch4","","1505","","","tol_practice","","","","","","","","","tol_peg_2","1505","1505","0","[[0,0,0],[3,1],[2]]","3","[[0,0,0],[3,1],[2]]","practice","1505","","","","","","","",""
"","","","","","poldrack-single-stim","194","467574","0.0-3.0-6.0","5e9af4184c5f7818ccf9a43e","D2","batch4","","-1","","","tol_feedback","true","","","","","","","","","1000","1000","500","","","","","","-1","none","true","","0","","",""
"","","","","","single-stim-button","195","470632","0.0-3.0-7.0-0.0","5e9af4184c5f7818ccf9a43e","D2","batch4","","3058","","","tol_practice","","","","","","","","","tol_peg_2","3058","3058","0","[[1,2,0],[0,0],[0]]","4","[[1,0,0],[2,0],[3]]","practice","3058","","","","","","","",""
"","","","","","single-stim-button","196","472085","0.0-3.0-7.0-1.0","5e9af4184c5f7818ccf9a43e","D2","batch4","","1451","","","tol_practice","","","","","","","","","tol_peg_3","1451","1451","0","[[1,2,0],[0,0],[3]]","4","[[1,0,0],[2,0],[3]]","practice","1451","","","","","","","",""
"","","","","","single-stim-button","197","473629","0.0-3.0-7.1-0.1","5e9af4184c5f7818ccf9a43e","D2","batch4","","1543","","","tol_practice","","","","","","","","","tol_peg_1","1543","1543","0","[[1,0,0],[0,0],[3]]","5","[[1,0,0],[2,0],[3]]","practice","1543","","","","","","","",""
"","","","","","single-stim-button","198","475033","0.0-3.0-7.1-1.1","5e9af4184c5f7818ccf9a43e","D2","batch4","","1403","","","tol_practice","","","","","","","","","tol_peg_2","1403","1403","0","[[1,0,0],[2,0],[3]]","5","[[1,0,0],[2,0],[3]]","practice","1403","","","","","","","",""
"","","","","","poldrack-single-stim","199","476034","0.0-3.0-8.0","5e9af4184c5f7818ccf9a43e","D2","batch4","","-1","","","tol_feedback","true","","","","","","","","","1000","1000","500","","","","","","-1","none","true","","0","","",""
"","","","","","html-button-response","200","481678","0.0-3.0-9.0","5e9af4184c5f7818ccf9a43e","D2","batch4","","5643.800000071526","<div class = centerbox><p class = center-block-text>Great job! You are done with practice trials<br>You are about to start official trials.<br> <br> Problem <strong>1</strong> out of 25 problems</p></div>","0","tol_instruction","","","","","","","","","","","","","","","","","","","","","","","","",""
"","","","","","single-stim-button","201","487523","0.0-3.0-10.0-0.0","5e9af4184c5f7818ccf9a43e","D2","batch4","","4829","","","tol_tohand","","","","","","","","","tol_peg_2","4829","4829","0","[[1,2,0],[0,0],[0]]","1","[[1,3,0],[2,0],[0]]","0","0","","","","","","3","",""
"","","","","","single-stim-button","202","489517","0.0-3.0-10.0-1.0","5e9af4184c5f7818ccf9a43e","D2","batch4","","1993","","","tol_toboard","","","","","","","","","tol_peg_3","1993","1993","0","[[1,2,0],[0,0],[3]]","1","[[1,3,0],[2,0],[0]]","0","0","","","","","","3","",""
"","","","","","single-stim-button","203","490402","0.0-3.0-10.1-0.1","5e9af4184c5f7818ccf9a43e","D2","batch4","","885","","","tol_tohand","","","","","","","","","tol_peg_1","885","885","0","[[1,0,0],[0,0],[3]]","2","[[1,3,0],[2,0],[0]]","0","0","","","","","","3","",""
"","","","","","single-stim-button","204","492117","0.0-3.0-10.1-1.1","5e9af4184c5f7818ccf9a43e","D2","batch4","","1713","","","tol_toboard","","","","","","","","","tol_peg_2","1713","1713","0","[[1,0,0],[2,0],[3]]","2","[[1,3,0],[2,0],[0]]","0","0","","","","","","3","",""
"","","","","","single-stim-button","205","492793","0.0-3.0-10.2-0.2","5e9af4184c5f7818ccf9a43e","D2","batch4","","675","","","tol_tohand","","","","","","","","","tol_peg_3","675","675","0","[[1,0,0],[2,0],[0]]","3","[[1,3,0],[2,0],[0]]","0","0","","","","","","3","",""
"","","","","","single-stim-button","206","493887","0.0-3.0-10.2-1.2","5e9af4184c5f7818ccf9a43e","D2","batch4","","1093","","","tol_toboard","","","","","","","","","tol_peg_1","1093","1093","0","[[1,3,0],[2,0],[0]]","3","[[1,3,0],[2,0],[0]]","0","0","","","","","","3","",""
"","","","","","poldrack-single-stim","207","494898","0.0-3.0-11.0","5e9af4184c5f7818ccf9a43e","D2","batch4","","-1","","","tol_feedback","true","","","","","","","","","1000","1000","500","","","","","","-1","none","true","4829","6389","","",""
"","","","","","html-button-response","208","496198","0.0-3.0-12.0","5e9af4184c5f7818ccf9a43e","D2","batch4","","1298.8000000715256","<div class = centerbox><p class = center-block-text>problem <strong>2</strong> out of 25 problems</p></div>","0","tol_trial_num","","","","","","","","","","","","","","","","","","","","","","","","",""
"","","","","","single-stim-button","209","502781","0.0-3.0-13.0-0.0","5e9af4184c5f7818ccf9a43e","D2","batch4","","6581","","","tol_tohand","","","","","","","","","tol_peg_1","6581","6581","0","[[1,0,0],[3,0],[0]]","1","[[2,1,3],[0,0],[0]]","1","0","","","","","","5","",""
"","","","","","single-stim-button","210","510365","0.0-3.0-13.0-1.0","5e9af4184c5f7818ccf9a43e","D2","batch4","","7583","","","tol_toboard","","","","","","","","","tol_peg_3","7583","7583","0","[[1,0,0],[3,0],[2]]","1","[[2,1,3],[0,0],[0]]","1","0","","","","","","5","",""
"","","","","","single-stim-button","211","512336","0.0-3.0-13.1-0.1","5e9af4184c5f7818ccf9a43e","D2","batch4","","1971","","","tol_tohand","","","","","","","","","tol_peg_1","1971","1971","0","[[0,0,0],[3,0],[2]]","2","[[2,1,3],[0,0],[0]]","1","0","","","","","","5","",""
"","","","","","single-stim-button","212","513422","0.0-3.0-13.1-1.1","5e9af4184c5f7818ccf9a43e","D2","batch4","","1085","","","tol_toboard","","","","","","","","","tol_peg_2","1085","1085","0","[[0,0,0],[3,1],[2]]","2","[[2,1,3],[0,0],[0]]","1","0","","","","","","5","",""
"","","","","","single-stim-button","213","514462","0.0-3.0-13.2-0.2","5e9af4184c5f7818ccf9a43e","D2","batch4","","1039","","","tol_tohand","","","","","","","","","tol_peg_3","1039","1039","0","[[0,0,0],[3,1],[0]]","3","[[2,1,3],[0,0],[0]]","1","0","","","","","","5","",""
"","","","","","single-stim-button","214","515626","0.0-3.0-13.2-1.2","5e9af4184c5f7818ccf9a43e","D2","batch4","","1163","","","tol_toboard","","","","","","","","","tol_peg_1","1163","1163","0","[[2,0,0],[3,1],[0]]","3","[[2,1,3],[0,0],[0]]","1","0","","","","","","5","",""
"","","","","","single-stim-button","215","516451","0.0-3.0-13.3-0.3","5e9af4184c5f7818ccf9a43e","D2","batch4","","824","","","tol_tohand","","","","","","","","","tol_peg_2","824","824","0","[[2,0,0],[3,0],[0]]","4","[[2,1,3],[0,0],[0]]","1","0","","","","","","5","",""
"","","","","","single-stim-button","216","517467","0.0-3.0-13.3-1.3","5e9af4184c5f7818ccf9a43e","D2","batch4","","1015","","","tol_toboard","","","","","","","","","tol_peg_1","1015","1015","0","[[2,1,0],[3,0],[0]]","4","[[2,1,3],[0,0],[0]]","1","0","","","","","","5","",""
"","","","","","single-stim-button","217","518173","0.0-3.0-13.4-0.4","5e9af4184c5f7818ccf9a43e","D2","batch4","","705","","","tol_tohand","","","","","","","","","tol_peg_2","705","705","0","[[2,1,0],[0,0],[0]]","5","[[2,1,3],[0,0],[0]]","1","0","","","","","","5","",""
"","","","","","single-stim-button","218","519251","0.0-3.0-13.4-1.4","5e9af4184c5f7818ccf9a43e","D2","batch4","","1077","","","tol_toboard","","","","","","","","","tol_peg_1","1077","1077","0","[[2,1,3],[0,0],[0]]","5","[[2,1,3],[0,0],[0]]","1","0","","","","","","5","",""
"","","","","","poldrack-single-stim","219","520253","0.0-3.0-14.0","5e9af4184c5f7818ccf9a43e","D2","batch4","","-1","","","tol_feedback","true","","","","","","","","","1000","1000","500","","","","","","-1","none","true","6581","11120","","",""
"","","","","","html-button-response","220","522155","0.0-3.0-15.0","5e9af4184c5f7818ccf9a43e","D2","batch4","","1901.5","<div class = centerbox><p class = center-block-text>problem <strong>3</strong> out of 25 problems</p></div>","0","tol_trial_num","","","","","","","","","","","","","","","","","","","","","","","","",""
"","","","","","single-stim-button","221","529349","0.0-3.0-16.0-0.0","5e9af4184c5f7818ccf9a43e","D2","batch4","","7193","","","tol_tohand","","","","","","","","","tol_peg_1","7193","7193","0","[[2,0,0],[0,0],[1]]","1","[[1,2,0],[3,0],[0]]","2","0","","","","","","4","",""
"","","","","","single-stim-button","222","530521","0.0-3.0-16.0-1.0","5e9af4184c5f7818ccf9a43e","D2","batch4","","1171","","","tol_toboard","","","","","","","","","tol_peg_2","1171","1171","0","[[2,0,0],[3,0],[1]]","1","[[1,2,0],[3,0],[0]]","2","0","","","","","","4","",""
"","","","","","single-stim-button","223","531607","0.0-3.0-16.1-0.1","5e9af4184c5f7818ccf9a43e","D2","batch4","","1084","","","tol_tohand","","","","","","","","","tol_peg_1","1084","1084","0","[[0,0,0],[3,0],[1]]","2","[[1,2,0],[3,0],[0]]","2","0","","","","","","4","",""
"","","","","","single-stim-button","224","532669","0.0-3.0-16.1-1.1","5e9af4184c5f7818ccf9a43e","D2","batch4","","1062","","","tol_toboard","","","","","","","","","tol_peg_2","1062","1062","0","[[0,0,0],[3,2],[1]]","2","[[1,2,0],[3,0],[0]]","2","0","","","","","","4","",""
"","","","","","single-stim-button","225","533725","0.0-3.0-16.2-0.2","5e9af4184c5f7818ccf9a43e","D2","batch4","","1055","","","tol_tohand","","","","","","","","","tol_peg_3","1055","1055","0","[[0,0,0],[3,2],[0]]","3","[[1,2,0],[3,0],[0]]","2","0","","","","","","4","",""
"","","","","","single-stim-button","226","534719","0.0-3.0-16.2-1.2","5e9af4184c5f7818ccf9a43e","D2","batch4","","993","","","tol_toboard","","","","","","","","","tol_peg_1","993","993","0","[[1,0,0],[3,2],[0]]","3","[[1,2,0],[3,0],[0]]","2","0","","","","","","4","",""
"","","","","","single-stim-button","227","535697","0.0-3.0-16.3-0.3","5e9af4184c5f7818ccf9a43e","D2","batch4","","977","","","tol_tohand","","","","","","","","","tol_peg_2","977","977","0","[[1,0,0],[3,0],[0]]","4","[[1,2,0],[3,0],[0]]","2","0","","","","","","4","",""
"","","","","","single-stim-button","228","536458","0.0-3.0-16.3-1.3","5e9af4184c5f7818ccf9a43e","D2","batch4","","760","","","tol_toboard","","","","","","","","","tol_peg_1","760","760","0","[[1,2,0],[3,0],[0]]","4","[[1,2,0],[3,0],[0]]","2","0","","","","","","4","",""
"","","","","","poldrack-single-stim","229","537465","0.0-3.0-17.0","5e9af4184c5f7818ccf9a43e","D2","batch4","","-1","","","tol_feedback","true","","","","","","","","","1000","1000","500","","","","","","-1","none","true","7193","10309","","",""
"","","","","","html-button-response","230","538691","0.0-3.0-18.0","5e9af4184c5f7818ccf9a43e","D2","batch4","","1225.0999999046326","<div class = centerbox><p class = center-block-text>problem <strong>4</strong> out of 25 problems</p></div>","0","tol_trial_num","","","","","","","","","","","","","","","","","","","","","","","","",""
"","","","","","single-stim-button","231","542673","0.0-3.0-19.0-0.0","5e9af4184c5f7818ccf9a43e","D2","batch4","","3981","","","tol_tohand","","","","","","","","","tol_peg_2","3981","3981","0","[[3,0,0],[2,0],[0]]","1","[[3,0,0],[1,0],[2]]","3","0","","","","","","3","",""
"","","","","","single-stim-button","232","543613","0.0-3.0-19.0-1.0","5e9af4184c5f7818ccf9a43e","D2","batch4","","939","","","tol_toboard","","","","","","","","","tol_peg_1","939","939","0","[[3,1,0],[2,0],[0]]","1","[[3,0,0],[1,0],[2]]","3","0","","","","","","3","",""
"","","","","","single-stim-button","233","544287","0.0-3.0-19.1-0.1","5e9af4184c5f7818ccf9a43e","D2","batch4","","673","","","tol_tohand","","","","","","","","","tol_peg_2","673","673","0","[[3,1,0],[0,0],[0]]","2","[[3,0,0],[1,0],[2]]","3","0","","","","","","3","",""
"","","","","","single-stim-button","234","545025","0.0-3.0-19.1-1.1","5e9af4184c5f7818ccf9a43e","D2","batch4","","737","","","tol_toboard","","","","","","","","","tol_peg_3","737","737","0","[[3,1,0],[0,0],[2]]","2","[[3,0,0],[1,0],[2]]","3","0","","","","","","3","",""
"","","","","","single-stim-button","235","545847","0.0-3.0-19.2-0.2","5e9af4184c5f7818ccf9a43e","D2","batch4","","821","","","tol_tohand","","","","","","","","","tol_peg_1","821","821","0","[[3,0,0],[0,0],[2]]","3","[[3,0,0],[1,0],[2]]","3","0","","","","","","3","",""
"","","","","","single-stim-button","236","546569","0.0-3.0-19.2-1.2","5e9af4184c5f7818ccf9a43e","D2","batch4","","722","","","tol_toboard","","","","","","","","","tol_peg_2","722","722","0","[[3,0,0],[1,0],[2]]","3","[[3,0,0],[1,0],[2]]","3","0","","","","","","3","",""
"","","","","","poldrack-single-stim","237","547578","0.0-3.0-20.0","5e9af4184c5f7818ccf9a43e","D2","batch4","","-1","","","tol_feedback","true","","","","","","","","","1000","1000","500","","","","","","-1","none","true","3981","5475","","",""
"","","","","","html-button-response","238","549075","0.0-3.0-21.0","5e9af4184c5f7818ccf9a43e","D2","batch4","","1496.2000000476837","<div class = centerbox><p class = center-block-text>problem <strong>5</strong> out of 25 problems</p></div>","0","tol_trial_num","","","","","","","","","","","","","","","","","","","","","","","","",""
"","","","","","single-stim-button","239","557775","0.0-3.0-22.0-0.0","5e9af4184c5f7818ccf9a43e","D2","batch4","","8699","","","tol_tohand","","","","","","","","","tol_peg_3","8699","8699","0","[[1,0,0],[2,0],[0]]","1","[[0,0,0],[1,2],[3]]","4","0","","","","","","7","",""
"","","","","","single-stim-button","240","559281","0.0-3.0-22.0-1.0","5e9af4184c5f7818ccf9a43e","D2","batch4","","1505","","","tol_toboard","","","","","","","","","tol_peg_1","1505","1505","0","[[1,3,0],[2,0],[0]]","1","[[0,0,0],[1,2],[3]]","4","0","","","","","","7","",""
"","","","","","single-stim-button","241","560001","0.0-3.0-22.1-0.1","5e9af4184c5f7818ccf9a43e","D2","batch4","","718","","","tol_tohand","","","","","","","","","tol_peg_2","718","718","0","[[1,3,0],[0,0],[0]]","2","[[0,0,0],[1,2],[3]]","4","0","","","","","","7","",""
"","","","","","single-stim-button","242","561297","0.0-3.0-22.1-1.1","5e9af4184c5f7818ccf9a43e","D2","batch4","","1296","","","tol_toboard","","","","","","","","","tol_peg_3","1296","1296","0","[[1,3,0],[0,0],[2]]","2","[[0,0,0],[1,2],[3]]","4","0","","","","","","7","",""
"","","","","","single-stim-button","243","564317","0.0-3.0-22.2-0.2","5e9af4184c5f7818ccf9a43e","D2","batch4","","3020","","","tol_tohand","","","","","","","","","tol_peg_1","3020","3020","0","[[1,0,0],[0,0],[2]]","3","[[0,0,0],[1,2],[3]]","4","0","","","","","","7","",""
"","","","","","single-stim-button","244","565419","0.0-3.0-22.2-1.2","5e9af4184c5f7818ccf9a43e","D2","batch4","","1101","","","tol_toboard","","","","","","","","","tol_peg_2","1101","1101","0","[[1,0,0],[3,0],[2]]","3","[[0,0,0],[1,2],[3]]","4","0","","","","","","7","",""
"","","","","","single-stim-button","245","567063","0.0-3.0-22.3-0.3","5e9af4184c5f7818ccf9a43e","D2","batch4","","1643","","","tol_tohand","","","","","","","","","tol_peg_1","1643","1643","0","[[0,0,0],[3,0],[2]]","4","[[0,0,0],[1,2],[3]]","4","0","","","","","","7","",""
"","","","","","single-stim-button","246","568065","0.0-3.0-22.3-1.3","5e9af4184c5f7818ccf9a43e","D2","batch4","","1001","","","tol_toboard","","","","","","","","","tol_peg_2","1001","1001","0","[[0,0,0],[3,1],[2]]","4","[[0,0,0],[1,2],[3]]","4","0","","","","","","7","",""
"","","","","","single-stim-button","247","574211","0.0-3.0-22.4-0.4","5e9af4184c5f7818ccf9a43e","D2","batch4","","6145","","","tol_tohand","","","","","","","","","tol_peg_2","6145","6145","0","[[0,0,0],[3,0],[2]]","5","[[0,0,0],[1,2],[3]]","4","0","","","","","","7","",""
"","","","","","single-stim-button","248","575289","0.0-3.0-22.4-1.4","5e9af4184c5f7818ccf9a43e","D2","batch4","","1077","","","tol_toboard","","","","","","","","","tol_peg_1","1077","1077","0","[[1,0,0],[3,0],[2]]","5","[[0,0,0],[1,2],[3]]","4","0","","","","","","7","",""
"","","","","","single-stim-button","249","577323","0.0-3.0-22.5-0.5","5e9af4184c5f7818ccf9a43e","D2","batch4","","2033","","","tol_tohand","","","","","","","","","tol_peg_2","2033","2033","0","[[1,0,0],[0,0],[2]]","6","[[0,0,0],[1,2],[3]]","4","0","","","","","","7","",""
"","","","","","single-stim-button","250","582661","0.0-3.0-22.5-1.5","5e9af4184c5f7818ccf9a43e","D2","batch4","","5338","","","tol_toboard","","","","","","","","","tol_peg_2","5338","5338","0","[[1,0,0],[3,0],[2]]","6","[[0,0,0],[1,2],[3]]","4","0","","","","","","7","",""
"","","","","","single-stim-button","251","583593","0.0-3.0-22.6-0.6","5e9af4184c5f7818ccf9a43e","D2","batch4","","931","","","tol_tohand","","","","","","","","","tol_peg_3","931","931","0","[[1,0,0],[3,0],[0]]","7","[[0,0,0],[1,2],[3]]","4","0","","","","","","7","",""
"","","","","","single-stim-button","252","584857","0.0-3.0-22.6-1.6","5e9af4184c5f7818ccf9a43e","D2","batch4","","1264","","","tol_toboard","","","","","","","","","tol_peg_1","1264","1264","0","[[1,2,0],[3,0],[0]]","7","[[0,0,0],[1,2],[3]]","4","0","","","","","","7","",""
"","","","","","single-stim-button","253","585843","0.0-3.0-22.7-0.7","5e9af4184c5f7818ccf9a43e","D2","batch4","","985","","","tol_tohand","","","","","","","","","tol_peg_2","985","985","0","[[1,2,0],[0,0],[0]]","8","[[0,0,0],[1,2],[3]]","4","0","","","","","","7","",""
"","","","","","single-stim-button","254","586859","0.0-3.0-22.7-1.7","5e9af4184c5f7818ccf9a43e","D2","batch4","","1015","","","tol_toboard","","","","","","","","","tol_peg_3","1015","1015","0","[[1,2,0],[0,0],[3]]","8","[[0,0,0],[1,2],[3]]","4","0","","","","","","7","",""
"","","","","","single-stim-button","255","588955","0.0-3.0-22.8-0.8","5e9af4184c5f7818ccf9a43e","D2","batch4","","2095","","","tol_tohand","","","","","","","","","tol_peg_1","2095","2095","0","[[1,0,0],[0,0],[3]]","9","[[0,0,0],[1,2],[3]]","4","0","","","","","","7","",""
"","","","","","single-stim-button","256","590888","0.0-3.0-22.8-1.8","5e9af4184c5f7818ccf9a43e","D2","batch4","","1931","","","tol_toboard","","","","","","","","","tol_peg_2","1931","1931","0","[[1,0,0],[2,0],[3]]","9","[[0,0,0],[1,2],[3]]","4","0","","","","","","7","",""
"","","","","","single-stim-button","257","592337","0.0-3.0-22.9-0.9","5e9af4184c5f7818ccf9a43e","D2","batch4","","1449","","","tol_tohand","","","","","","","","","tol_peg_1","1449","1449","0","[[0,0,0],[2,0],[3]]","10","[[0,0,0],[1,2],[3]]","4","0","","","","","","7","",""
"","","","","","single-stim-button","258","593323","0.0-3.0-22.9-1.9","5e9af4184c5f7818ccf9a43e","D2","batch4","","985","","","tol_toboard","","","","","","","","","tol_peg_2","985","985","0","[[0,0,0],[2,1],[3]]","10","[[0,0,0],[1,2],[3]]","4","0","","","","","","7","",""
"","","","","","single-stim-button","259","594317","0.0-3.0-22.10-0.10","5e9af4184c5f7818ccf9a43e","D2","batch4","","994","","","tol_tohand","","","","","","","","","tol_peg_2","994","994","0","[[0,0,0],[2,0],[3]]","11","[[0,0,0],[1,2],[3]]","4","0","","","","","","7","",""
"","","","","","single-stim-button","260","595255","0.0-3.0-22.10-1.10","5e9af4184c5f7818ccf9a43e","D2","batch4","","937","","","tol_toboard","","","","","","","","","tol_peg_1","937","937","0","[[1,0,0],[2,0],[3]]","11","[[0,0,0],[1,2],[3]]","4","0","","","","","","7","",""
"","","","","","single-stim-button","261","596575","0.0-3.0-22.11-0.11","5e9af4184c5f7818ccf9a43e","D2","batch4","","1319","","","tol_tohand","","","","","","","","","tol_peg_3","1319","1319","0","[[1,0,0],[2,0],[0]]","12","[[0,0,0],[1,2],[3]]","4","0","","","","","","7","",""
"","","","","","single-stim-button","262","603371","0.0-3.0-22.11-1.11","5e9af4184c5f7818ccf9a43e","D2","batch4","","6795","","","tol_toboard","","","","","","","","","tol_peg_3","6795","6795","0","[[1,0,0],[2,0],[3]]","12","[[0,0,0],[1,2],[3]]","4","0","","","","","","7","",""
"","","","","","single-stim-button","263","606685","0.0-3.0-22.12-0.12","5e9af4184c5f7818ccf9a43e","D2","batch4","","3313","","","tol_tohand","","","","","","","","","tol_peg_1","3313","3313","0","[[0,0,0],[2,0],[3]]","13","[[0,0,0],[1,2],[3]]","4","0","","","","","","7","",""
"","","","","","single-stim-button","264","607321","0.0-3.0-22.12-1.12","5e9af4184c5f7818ccf9a43e","D2","batch4","","635","","","tol_toboard","","","","","","","","","tol_peg_2","635","635","0","[[0,0,0],[2,1],[3]]","13","[[0,0,0],[1,2],[3]]","4","0","","","","","","7","",""
"","","","","","single-stim-button","265","607988","0.0-3.0-22.13-0.13","5e9af4184c5f7818ccf9a43e","D2","batch4","","666","","","tol_tohand","","","","","","","","","tol_peg_3","666","666","0","[[0,0,0],[2,1],[0]]","14","[[0,0,0],[1,2],[3]]","4","0","","","","","","7","",""
"","","","","","single-stim-button","266","608965","0.0-3.0-22.13-1.13","5e9af4184c5f7818ccf9a43e","D2","batch4","","977","","","tol_toboard","","","","","","","","","tol_peg_1","977","977","0","[[3,0,0],[2,1],[0]]","14","[[0,0,0],[1,2],[3]]","4","0","","","","","","7","",""
"","","","","","single-stim-button","267","612829","0.0-3.0-22.14-0.14","5e9af4184c5f7818ccf9a43e","D2","batch4","","3863","","","tol_tohand","","","","","","","","","tol_peg_2","3863","3863","0","[[3,0,0],[2,0],[0]]","15","[[0,0,0],[1,2],[3]]","4","0","","","","","","7","",""
"","","","","","single-stim-button","268","613785","0.0-3.0-22.14-1.14","5e9af4184c5f7818ccf9a43e","D2","batch4","","955","","","tol_toboard","","","","","","","","","tol_peg_3","955","955","0","[[3,0,0],[2,0],[1]]","15","[[0,0,0],[1,2],[3]]","4","0","","","","","","7","",""
"","","","","","single-stim-button","269","614637","0.0-3.0-22.15-0.15","5e9af4184c5f7818ccf9a43e","D2","batch4","","851","","","tol_tohand","","","","","","","","","tol_peg_2","851","851","0","[[3,0,0],[0,0],[1]]","16","[[0,0,0],[1,2],[3]]","4","0","","","","","","7","",""
"","","","","","single-stim-button","270","615537","0.0-3.0-22.15-1.15","5e9af4184c5f7818ccf9a43e","D2","batch4","","899","","","tol_toboard","","","","","","","","","tol_peg_1","899","899","0","[[3,2,0],[0,0],[1]]","16","[[0,0,0],[1,2],[3]]","4","0","","","","","","7","",""
"","","","","","single-stim-button","271","616313","0.0-3.0-22.16-0.16","5e9af4184c5f7818ccf9a43e","D2","batch4","","775","","","tol_tohand","","","","","","","","","tol_peg_3","775","775","0","[[3,2,0],[0,0],[0]]","17","[[0,0,0],[1,2],[3]]","4","0","","","","","","7","",""
"","","","","","single-stim-button","272","617415","0.0-3.0-22.16-1.16","5e9af4184c5f7818ccf9a43e","D2","batch4","","1101","","","tol_toboard","","","","","","","","","tol_peg_2","1101","1101","0","[[3,2,0],[1,0],[0]]","17","[[0,0,0],[1,2],[3]]","4","0","","","","","","7","",""
"","","","","","single-stim-button","273","618199","0.0-3.0-22.17-0.17","5e9af4184c5f7818ccf9a43e","D2","batch4","","783","","","tol_tohand","","","","","","","","","tol_peg_1","783","783","0","[[3,0,0],[1,0],[0]]","18","[[0,0,0],[1,2],[3]]","4","0","","","","","","7","",""
"","","","","","single-stim-button","274","619145","0.0-3.0-22.17-1.17","5e9af4184c5f7818ccf9a43e","D2","batch4","","945","","","tol_toboard","","","","","","","","","tol_peg_2","945","945","0","[[3,0,0],[1,2],[0]]","18","[[0,0,0],[1,2],[3]]","4","0","","","","","","7","",""
"","","","","","single-stim-button","275","619828","0.0-3.0-22.18-0.18","5e9af4184c5f7818ccf9a43e","D2","batch4","","682","","","tol_tohand","","","","","","","","","tol_peg_1","682","682","0","[[0,0,0],[1,2],[0]]","19","[[0,0,0],[1,2],[3]]","4","0","","","","","","7","",""
"","","","","","single-stim-button","276","621015","0.0-3.0-22.18-1.18","5e9af4184c5f7818ccf9a43e","D2","batch4","","1187","","","tol_toboard","","","","","","","","","tol_peg_3","1187","1187","0","[[0,0,0],[1,2],[3]]","19","[[0,0,0],[1,2],[3]]","4","0","","","","","","7","",""
"","","","","","poldrack-single-stim","277","622018","0.0-3.0-23.0","5e9af4184c5f7818ccf9a43e","D2","batch4","","-1","","","tol_feedback","true","","","","","","","","","1000","1000","500","","","","","","-1","none","true","8699","40964","","",""
"","","","","","html-button-response","278","622947","0.0-3.0-24.0","5e9af4184c5f7818ccf9a43e","D2","batch4","","927.9000000953674","<div class = centerbox><p class = center-block-text>problem <strong>6</strong> out of 25 problems</p></div>","0","tol_trial_num","","","","","","","","","","","","","","","","","","","","","","","","",""
"","","","","","single-stim-button","279","629527","0.0-3.0-25.0-0.0","5e9af4184c5f7818ccf9a43e","D2","batch4","","6579","","","tol_tohand","","","","","","","","","tol_peg_2","6579","6579","0","[[0,0,0],[1,0],[3]]","1","[[1,0,0],[2,3],[0]]","5","0","","","","","","6","",""
"","","","","","single-stim-button","280","635355","0.0-3.0-25.0-1.0","5e9af4184c5f7818ccf9a43e","D2","batch4","","5827","","","tol_toboard","","","","","","","","","tol_peg_1","5827","5827","0","[[2,0,0],[1,0],[3]]","1","[[1,0,0],[2,3],[0]]","5","0","","","","","","6","",""
"","","","","","single-stim-button","281","636789","0.0-3.0-25.1-0.1","5e9af4184c5f7818ccf9a43e","D2","batch4","","1433","","","tol_tohand","","","","","","","","","tol_peg_3","1433","1433","0","[[2,0,0],[1,0],[0]]","2","[[1,0,0],[2,3],[0]]","5","0","","","","","","6","",""
"","","","","","single-stim-button","282","640693","0.0-3.0-25.1-1.1","5e9af4184c5f7818ccf9a43e","D2","batch4","","3904","","","tol_toboard","","","","","","","","","tol_peg_3","3904","3904","0","[[2,0,0],[1,0],[3]]","2","[[1,0,0],[2,3],[0]]","5","0","","","","","","6","",""
"","","","","","single-stim-button","283","649537","0.0-3.0-25.2-0.2","5e9af4184c5f7818ccf9a43e","D2","batch4","","8843","","","tol_tohand","","","","","","","","","tol_peg_2","8843","8843","0","[[2,0,0],[0,0],[3]]","3","[[1,0,0],[2,3],[0]]","5","0","","","","","","6","",""
"","","","","","single-stim-button","284","650817","0.0-3.0-25.2-1.2","5e9af4184c5f7818ccf9a43e","D2","batch4","","1279","","","tol_toboard","","","","","","","","","tol_peg_1","1279","1279","0","[[2,1,0],[0,0],[3]]","3","[[1,0,0],[2,3],[0]]","5","0","","","","","","6","",""
"","","","","","single-stim-button","285","652881","0.0-3.0-25.3-0.3","5e9af4184c5f7818ccf9a43e","D2","batch4","","2064","","","tol_tohand","","","","","","","","","tol_peg_3","2064","2064","0","[[2,1,0],[0,0],[0]]","4","[[1,0,0],[2,3],[0]]","5","0","","","","","","6","",""
"","","","","","single-stim-button","286","660685","0.0-3.0-25.3-1.3","5e9af4184c5f7818ccf9a43e","D2","batch4","","7803","","","tol_toboard","","","","","","","","","tol_peg_2","7803","7803","0","[[2,1,0],[3,0],[0]]","4","[[1,0,0],[2,3],[0]]","5","0","","","","","","6","",""
"","","","","","single-stim-button","287","664037","0.0-3.0-25.4-0.4","5e9af4184c5f7818ccf9a43e","D2","batch4","","3351","","","tol_tohand","","","","","","","","","tol_peg_1","3351","3351","0","[[2,0,0],[3,0],[0]]","5","[[1,0,0],[2,3],[0]]","5","0","","","","","","6","",""
"","","","","","single-stim-button","288","665301","0.0-3.0-25.4-1.4","5e9af4184c5f7818ccf9a43e","D2","batch4","","1263","","","tol_toboard","","","","","","","","","tol_peg_3","1263","1263","0","[[2,0,0],[3,0],[1]]","5","[[1,0,0],[2,3],[0]]","5","0","","","","","","6","",""
"","","","","","single-stim-button","289","666131","0.0-3.0-25.5-0.5","5e9af4184c5f7818ccf9a43e","D2","batch4","","830","","","tol_tohand","","","","","","","","","tol_peg_1","830","830","0","[[0,0,0],[3,0],[1]]","6","[[1,0,0],[2,3],[0]]","5","0","","","","","","6","",""
"","","","","","single-stim-button","290","666937","0.0-3.0-25.5-1.5","5e9af4184c5f7818ccf9a43e","D2","batch4","","805","","","tol_toboard","","","","","","","","","tol_peg_2","805","805","0","[[0,0,0],[3,2],[1]]","6","[[1,0,0],[2,3],[0]]","5","0","","","","","","6","",""
"","","","","","single-stim-button","291","667635","0.0-3.0-25.6-0.6","5e9af4184c5f7818ccf9a43e","D2","batch4","","697","","","tol_tohand","","","","","","","","","tol_peg_3","697","697","0","[[0,0,0],[3,2],[0]]","7","[[1,0,0],[2,3],[0]]","5","0","","","","","","6","",""
"","","","","","single-stim-button","292","668916","0.0-3.0-25.6-1.6","5e9af4184c5f7818ccf9a43e","D2","batch4","","1279","","","tol_toboard","","","","","","","","","tol_peg_1","1279","1279","0","[[1,0,0],[3,2],[0]]","7","[[1,0,0],[2,3],[0]]","5","0","","","","","","6","",""
"","","","","","single-stim-button","293","670049","0.0-3.0-25.7-0.7","5e9af4184c5f7818ccf9a43e","D2","batch4","","1133","","","tol_tohand","","","","","","","","","tol_peg_2","1133","1133","0","[[1,0,0],[3,0],[0]]","8","[[1,0,0],[2,3],[0]]","5","0","","","","","","6","",""
"","","","","","single-stim-button","294","672998","0.0-3.0-25.7-1.7","5e9af4184c5f7818ccf9a43e","D2","batch4","","2949","","","tol_toboard","","","","","","","","","tol_peg_1","2949","2949","0","[[1,2,0],[3,0],[0]]","8","[[1,0,0],[2,3],[0]]","5","0","","","","","","6","",""
"","","","","","single-stim-button","295","673671","0.0-3.0-25.8-0.8","5e9af4184c5f7818ccf9a43e","D2","batch4","","672","","","tol_tohand","","","","","","","","","tol_peg_2","672","672","0","[[1,2,0],[0,0],[0]]","9","[[1,0,0],[2,3],[0]]","5","0","","","","","","6","",""
"","","","","","single-stim-button","296","674401","0.0-3.0-25.8-1.8","5e9af4184c5f7818ccf9a43e","D2","batch4","","729","","","tol_toboard","","","","","","","","","tol_peg_3","729","729","0","[[1,2,0],[0,0],[3]]","9","[[1,0,0],[2,3],[0]]","5","0","","","","","","6","",""
"","","","","","single-stim-button","297","675245","0.0-3.0-25.9-0.9","5e9af4184c5f7818ccf9a43e","D2","batch4","","843","","","tol_tohand","","","","","","","","","tol_peg_1","843","843","0","[[1,0,0],[0,0],[3]]","10","[[1,0,0],[2,3],[0]]","5","0","","","","","","6","",""
"","","","","","single-stim-button","298","675991","0.0-3.0-25.9-1.9","5e9af4184c5f7818ccf9a43e","D2","batch4","","746","","","tol_toboard","","","","","","","","","tol_peg_2","746","746","0","[[1,0,0],[2,0],[3]]","10","[[1,0,0],[2,3],[0]]","5","0","","","","","","6","",""
"","","","","","single-stim-button","299","676611","0.0-3.0-25.10-0.10","5e9af4184c5f7818ccf9a43e","D2","batch4","","620","","","tol_tohand","","","","","","","","","tol_peg_3","620","620","0","[[1,0,0],[2,0],[0]]","11","[[1,0,0],[2,3],[0]]","5","0","","","","","","6","",""
"","","","","","single-stim-button","300","677309","0.0-3.0-25.10-1.10","5e9af4184c5f7818ccf9a43e","D2","batch4","","697","","","tol_toboard","","","","","","","","","tol_peg_2","697","697","0","[[1,0,0],[2,3],[0]]","11","[[1,0,0],[2,3],[0]]","5","0","","","","","","6","",""
"","","","","","poldrack-single-stim","301","678319","0.0-3.0-26.0","5e9af4184c5f7818ccf9a43e","D2","batch4","","-1","","","tol_feedback","true","","","","","","","","","1000","1000","500","","","","","","-1","none","true","6579","27065","","",""
"","","","","","html-button-response","302","682731","0.0-3.0-27.0","5e9af4184c5f7818ccf9a43e","D2","batch4","","4410.600000023842","<div class = centerbox><p class = center-block-text>problem <strong>7</strong> out of 25 problems</p></div>","0","tol_trial_num","","","","","","","","","","","","","","","","","","","","","","","","",""
"","","","","","single-stim-button","303","690533","0.0-3.0-28.0-0.0","5e9af4184c5f7818ccf9a43e","D2","batch4","","7801","","","tol_tohand","","","","","","","","","tol_peg_3","7801","7801","0","[[2,1,0],[0,0],[0]]","1","[[1,2,0],[3,0],[0]]","6","0","","","","","","5","",""
"","","","","","single-stim-button","304","691301","0.0-3.0-28.0-1.0","5e9af4184c5f7818ccf9a43e","D2","batch4","","767","","","tol_toboard","","","","","","","","","tol_peg_2","767","767","0","[[2,1,0],[3,0],[0]]","1","[[1,2,0],[3,0],[0]]","6","0","","","","","","5","",""
"","","","","","single-stim-button","305","693381","0.0-3.0-28.1-0.1","5e9af4184c5f7818ccf9a43e","D2","batch4","","2079","","","tol_tohand","","","","","","","","","tol_peg_1","2079","2079","0","[[2,0,0],[3,0],[0]]","2","[[1,2,0],[3,0],[0]]","6","0","","","","","","5","",""
"","","","","","single-stim-button","306","694947","0.0-3.0-28.1-1.1","5e9af4184c5f7818ccf9a43e","D2","batch4","","1565","","","tol_toboard","","","","","","","","","tol_peg_3","1565","1565","0","[[2,0,0],[3,0],[1]]","2","[[1,2,0],[3,0],[0]]","6","0","","","","","","5","",""
"","","","","","single-stim-button","307","695823","0.0-3.0-28.2-0.2","5e9af4184c5f7818ccf9a43e","D2","batch4","","875","","","tol_tohand","","","","","","","","","tol_peg_1","875","875","0","[[0,0,0],[3,0],[1]]","3","[[1,2,0],[3,0],[0]]","6","0","","","","","","5","",""
"","","","","","single-stim-button","308","696793","0.0-3.0-28.2-1.2","5e9af4184c5f7818ccf9a43e","D2","batch4","","969","","","tol_toboard","","","","","","","","","tol_peg_2","969","969","0","[[0,0,0],[3,2],[1]]","3","[[1,2,0],[3,0],[0]]","6","0","","","","","","5","",""
"","","","","","single-stim-button","309","697583","0.0-3.0-28.3-0.3","5e9af4184c5f7818ccf9a43e","D2","batch4","","789","","","tol_tohand","","","","","","","","","tol_peg_3","789","789","0","[[0,0,0],[3,2],[0]]","4","[[1,2,0],[3,0],[0]]","6","0","","","","","","5","",""
"","","","","","single-stim-button","310","698678","0.0-3.0-28.3-1.3","5e9af4184c5f7818ccf9a43e","D2","batch4","","1095","","","tol_toboard","","","","","","","","","tol_peg_1","1095","1095","0","[[1,0,0],[3,2],[0]]","4","[[1,2,0],[3,0],[0]]","6","0","","","","","","5","",""
"","","","","","single-stim-button","311","699423","0.0-3.0-28.4-0.4","5e9af4184c5f7818ccf9a43e","D2","batch4","","743","","","tol_tohand","","","","","","","","","tol_peg_2","743","743","0","[[1,0,0],[3,0],[0]]","5","[[1,2,0],[3,0],[0]]","6","0","","","","","","5","",""
"","","","","","single-stim-button","312","700213","0.0-3.0-28.4-1.4","5e9af4184c5f7818ccf9a43e","D2","batch4","","790","","","tol_toboard","","","","","","","","","tol_peg_1","790","790","0","[[1,2,0],[3,0],[0]]","5","[[1,2,0],[3,0],[0]]","6","0","","","","","","5","",""
"","","","","","poldrack-single-stim","313","701215","0.0-3.0-29.0","5e9af4184c5f7818ccf9a43e","D2","batch4","","-1","","","tol_feedback","true","","","","","","","","","1000","1000","500","","","","","","-1","none","true","7801","12287","","",""
"","","","","","html-button-response","314","702587","0.0-3.0-30.0","5e9af4184c5f7818ccf9a43e","D2","batch4","","1370.5999999046326","<div class = centerbox><p class = center-block-text>problem <strong>8</strong> out of 25 problems</p></div>","0","tol_trial_num","","","","","","","","","","","","","","","","","","","","","","","","",""
"","","","","","single-stim-button","315","706991","0.0-3.0-31.0-0.0","5e9af4184c5f7818ccf9a43e","D2","batch4","","4403","","","tol_tohand","","","","","","","","","tol_peg_3","4403","4403","0","[[0,0,0],[2,3],[0]]","1","[[1,2,0],[3,0],[0]]","7","0","","","","","","4","",""
"","","","","","single-stim-button","316","707953","0.0-3.0-31.0-1.0","5e9af4184c5f7818ccf9a43e","D2","batch4","","961","","","tol_toboard","","","","","","","","","tol_peg_1","961","961","0","[[1,0,0],[2,3],[0]]","1","[[1,2,0],[3,0],[0]]","7","0","","","","","","4","",""
"","","","","","single-stim-button","317","709009","0.0-3.0-31.1-0.1","5e9af4184c5f7818ccf9a43e","D2","batch4","","1055","","","tol_tohand","","","","","","","","","tol_peg_2","1055","1055","0","[[1,0,0],[2,0],[0]]","2","[[1,2,0],[3,0],[0]]","7","0","","","","","","4","",""
"","","","","","single-stim-button","318","710551","0.0-3.0-31.1-1.1","5e9af4184c5f7818ccf9a43e","D2","batch4","","1541","","","tol_toboard","","","","","","","","","tol_peg_3","1541","1541","0","[[1,0,0],[2,0],[3]]","2","[[1,2,0],[3,0],[0]]","7","0","","","","","","4","",""
"","","","","","single-stim-button","319","711289","0.0-3.0-31.2-0.2","5e9af4184c5f7818ccf9a43e","D2","batch4","","738","","","tol_tohand","","","","","","","","","tol_peg_2","738","738","0","[[1,0,0],[0,0],[3]]","3","[[1,2,0],[3,0],[0]]","7","0","","","","","","4","",""
"","","","","","single-stim-button","320","712243","0.0-3.0-31.2-1.2","5e9af4184c5f7818ccf9a43e","D2","batch4","","953","","","tol_toboard","","","","","","","","","tol_peg_1","953","953","0","[[1,2,0],[0,0],[3]]","3","[[1,2,0],[3,0],[0]]","7","0","","","","","","4","",""
"","","","","","single-stim-button","321","713087","0.0-3.0-31.3-0.3","5e9af4184c5f7818ccf9a43e","D2","batch4","","843","","","tol_tohand","","","","","","","","","tol_peg_3","843","843","0","[[1,2,0],[0,0],[0]]","4","[[1,2,0],[3,0],[0]]","7","0","","","","","","4","",""
"","","","","","single-stim-button","322","713895","0.0-3.0-31.3-1.3","5e9af4184c5f7818ccf9a43e","D2","batch4","","807","","","tol_toboard","","","","","","","","","tol_peg_2","807","807","0","[[1,2,0],[3,0],[0]]","4","[[1,2,0],[3,0],[0]]","7","0","","","","","","4","",""
"","","","","","poldrack-single-stim","323","714907","0.0-3.0-32.0","5e9af4184c5f7818ccf9a43e","D2","batch4","","-1","","","tol_feedback","true","","","","","","","","","1000","1000","500","","","","","","-1","none","true","4403","7039","","",""
"","","","","","html-button-response","324","716189","0.0-3.0-33.0","5e9af4184c5f7818ccf9a43e","D2","batch4","","1280.6999999284744","<div class = centerbox><p class = center-block-text>problem <strong>9</strong> out of 25 problems</p></div>","0","tol_trial_num","","","","","","","","","","","","","","","","","","","","","","","","",""
"","","","","","single-stim-button","325","723117","0.0-3.0-34.0-0.0","5e9af4184c5f7818ccf9a43e","D2","batch4","","6927","","","tol_tohand","","","","","","","","","tol_peg_3","6927","6927","0","[[3,2,0],[0,0],[0]]","1","[[2,1,0],[3,0],[0]]","8","0","","","","","","6","",""
"","","","","","single-stim-button","326","724411","0.0-3.0-34.0-1.0","5e9af4184c5f7818ccf9a43e","D2","batch4","","1293","","","tol_toboard","","","","","","","","","tol_peg_2","1293","1293","0","[[3,2,0],[1,0],[0]]","1","[[2,1,0],[3,0],[0]]","8","0","","","","","","6","",""
"","","","","","single-stim-button","327","725155","0.0-3.0-34.1-0.1","5e9af4184c5f7818ccf9a43e","D2","batch4","","743","","","tol_tohand","","","","","","","","","tol_peg_1","743","743","0","[[3,0,0],[1,0],[0]]","2","[[2,1,0],[3,0],[0]]","8","0","","","","","","6","",""
"","","","","","single-stim-button","328","727187","0.0-3.0-34.1-1.1","5e9af4184c5f7818ccf9a43e","D2","batch4","","2031","","","tol_toboard","","","","","","","","","tol_peg_3","2031","2031","0","[[3,0,0],[1,0],[2]]","2","[[2,1,0],[3,0],[0]]","8","0","","","","","","6","",""
"","","","","","single-stim-button","329","728381","0.0-3.0-34.2-0.2","5e9af4184c5f7818ccf9a43e","D2","batch4","","1193","","","tol_tohand","","","","","","","","","tol_peg_1","1193","1193","0","[[0,0,0],[1,0],[2]]","3","[[2,1,0],[3,0],[0]]","8","0","","","","","","6","",""
"","","","","","single-stim-button","330","729413","0.0-3.0-34.2-1.2","5e9af4184c5f7818ccf9a43e","D2","batch4","","1031","","","tol_toboard","","","","","","","","","tol_peg_2","1031","1031","0","[[0,0,0],[1,3],[2]]","3","[[2,1,0],[3,0],[0]]","8","0","","","","","","6","",""
"","","","","","single-stim-button","331","730111","0.0-3.0-34.3-0.3","5e9af4184c5f7818ccf9a43e","D2","batch4","","697","","","tol_tohand","","","","","","","","","tol_peg_3","697","697","0","[[0,0,0],[1,3],[0]]","4","[[2,1,0],[3,0],[0]]","8","0","","","","","","6","",""
"","","","","","single-stim-button","332","731135","0.0-3.0-34.3-1.3","5e9af4184c5f7818ccf9a43e","D2","batch4","","1023","","","tol_toboard","","","","","","","","","tol_peg_1","1023","1023","0","[[2,0,0],[1,3],[0]]","4","[[2,1,0],[3,0],[0]]","8","0","","","","","","6","",""
"","","","","","single-stim-button","333","731793","0.0-3.0-34.4-0.4","5e9af4184c5f7818ccf9a43e","D2","batch4","","657","","","tol_tohand","","","","","","","","","tol_peg_2","657","657","0","[[2,0,0],[1,0],[0]]","5","[[2,1,0],[3,0],[0]]","8","0","","","","","","6","",""
"","","","","","single-stim-button","334","732809","0.0-3.0-34.4-1.4","5e9af4184c5f7818ccf9a43e","D2","batch4","","1015","","","tol_toboard","","","","","","","","","tol_peg_3","1015","1015","0","[[2,0,0],[1,0],[3]]","5","[[2,1,0],[3,0],[0]]","8","0","","","","","","6","",""
"","","","","","single-stim-button","335","733577","0.0-3.0-34.5-0.5","5e9af4184c5f7818ccf9a43e","D2","batch4","","767","","","tol_tohand","","","","","","","","","tol_peg_2","767","767","0","[[2,0,0],[0,0],[3]]","6","[[2,1,0],[3,0],[0]]","8","0","","","","","","6","",""
"","","","","","single-stim-button","336","734292","0.0-3.0-34.5-1.5","5e9af4184c5f7818ccf9a43e","D2","batch4","","713","","","tol_toboard","","","","","","","","","tol_peg_1","713","713","0","[[2,1,0],[0,0],[3]]","6","[[2,1,0],[3,0],[0]]","8","0","","","","","","6","",""
"","","","","","single-stim-button","337","734987","0.0-3.0-34.6-0.6","5e9af4184c5f7818ccf9a43e","D2","batch4","","695","","","tol_tohand","","","","","","","","","tol_peg_3","695","695","0","[[2,1,0],[0,0],[0]]","7","[[2,1,0],[3,0],[0]]","8","0","","","","","","6","",""
"","","","","","single-stim-button","338","735741","0.0-3.0-34.6-1.6","5e9af4184c5f7818ccf9a43e","D2","batch4","","753","","","tol_toboard","","","","","","","","","tol_peg_2","753","753","0","[[2,1,0],[3,0],[0]]","7","[[2,1,0],[3,0],[0]]","8","0","","","","","","6","",""
"","","","","","poldrack-single-stim","339","736758","0.0-3.0-35.0","5e9af4184c5f7818ccf9a43e","D2","batch4","","-1","","","tol_feedback","true","","","","","","","","","1000","1000","500","","","","","","-1","none","true","6927","11679","","",""
"","","","","","html-button-response","340","737973","0.0-3.0-36.0","5e9af4184c5f7818ccf9a43e","D2","batch4","","1213.2999999523163","<div class = centerbox><p class = center-block-text>problem <strong>10</strong> out of 25 problems</p></div>","0","tol_trial_num","","","","","","","","","","","","","","","","","","","","","","","","",""
"","","","","","single-stim-button","341","742037","0.0-3.0-37.0-0.0","5e9af4184c5f7818ccf9a43e","D2","batch4","","4063","","","tol_tohand","","","","","","","","","tol_peg_2","4063","4063","0","[[3,0,0],[0,0],[2]]","1","[[3,0,0],[2,1],[0]]","9","0","","","","","","3","",""
"","","","","","single-stim-button","342","742969","0.0-3.0-37.0-1.0","5e9af4184c5f7818ccf9a43e","D2","batch4","","931","","","tol_toboard","","","","","","","","","tol_peg_1","931","931","0","[[3,1,0],[0,0],[2]]","1","[[3,0,0],[2,1],[0]]","9","0","","","","","","3","",""
"","","","","","single-stim-button","343","743689","0.0-3.0-37.1-0.1","5e9af4184c5f7818ccf9a43e","D2","batch4","","719","","","tol_tohand","","","","","","","","","tol_peg_3","719","719","0","[[3,1,0],[0,0],[0]]","2","[[3,0,0],[2,1],[0]]","9","0","","","","","","3","",""
"","","","","","single-stim-button","344","744565","0.0-3.0-37.1-1.1","5e9af4184c5f7818ccf9a43e","D2","batch4","","875","","","tol_toboard","","","","","","","","","tol_peg_2","875","875","0","[[3,1,0],[2,0],[0]]","2","[[3,0,0],[2,1],[0]]","9","0","","","","","","3","",""
"","","","","","single-stim-button","345","745318","0.0-3.0-37.2-0.2","5e9af4184c5f7818ccf9a43e","D2","batch4","","751","","","tol_tohand","","","","","","","","","tol_peg_1","751","751","0","[[3,0,0],[2,0],[0]]","3","[[3,0,0],[2,1],[0]]","9","0","","","","","","3","",""
"","","","","","single-stim-button","346","746101","0.0-3.0-37.2-1.2","5e9af4184c5f7818ccf9a43e","D2","batch4","","783","","","tol_toboard","","","","","","","","","tol_peg_2","783","783","0","[[3,0,0],[2,1],[0]]","3","[[3,0,0],[2,1],[0]]","9","0","","","","","","3","",""
"","","","","","poldrack-single-stim","347","747108","0.0-3.0-38.0","5e9af4184c5f7818ccf9a43e","D2","batch4","","-1","","","tol_feedback","true","","","","","","","","","1000","1000","500","","","","","","-1","none","true","4063","5533","","",""
"","","","","","html-button-response","348","749141","0.0-3.0-39.0","5e9af4184c5f7818ccf9a43e","D2","batch4","","2032.1000000238419","<div class = centerbox><p class = center-block-text>problem <strong>11</strong> out of 25 problems</p></div>","0","tol_trial_num","","","","","","","","","","","","","","","","","","","","","","","","",""
