"success","timeout","failed_images","failed_audio","failed_video","trial_type","trial_index","time_elapsed","internal_node_id","subject_id","study_id","session_id","task","rt","stimulus","response","item","answer","correct","spm_correct","spm_rt","view_history","fiar_detect_rt","fiar_detect_correct","total_correct_fiar_detect","post_trial_gap","choices","mouse_click","stim_duration","block_duration","timing_post_trial","current_position","tol_num_moves_made","tol_target","tol_problem_id","tol_rt","key_press","possible_responses","tol_correct","preplanning","tol_rt_per_trial","tol_min_moves"
"true","false","[]","[]","[]","preload","0","9424","0.0-0.0","5ea340a26c3ed82b0dbd4d9f","E1","batch5","","","","","","","","","","","","","","","","","","","","","","","","","","","","","",""
"true","","","","","fullscreen","1","20880","0.0-1.0-0.0","5ea340a26c3ed82b0dbd4d9f","E1","batch5","","","","","","","","","","","","","","","","","","","","","","","","","","","","","",""
"true","","","","","fullscreen","2","23624","0.0-2.0-0.0","5ea340a26c3ed82b0dbd4d9f","E1","batch5","spm_fullscreen","","","","","","","","","","","","","","","","","","","","","","","","","","","","",""
"","","","","","html-button-response","3","34805","0.0-2.0-1.0","5ea340a26c3ed82b0dbd4d9f","E1","batch5","","11178.799999713898","<p class = block-text><b>Instructions</b> <br>This is a widely used intelligence test in research. <br>In this test, a figure with a missing piece will be presented.<br>Below the figure are alternative pieces to complete the figure, only one of which is correct.<br> Different figures might involve different principles for obtaining the missing piece<br>Your job is to select the most logical piece to complete the figure.</p>","0","","","","","","","","","","","","","","","","","","","","","","","","","",""
"","","","","","html-keyboard-response","4","35609","0.0-2.0-2.0-0.0","5ea340a26c3ed82b0dbd4d9f","E1","batch5","spm_show_trial_num","null","<p class=block-text>Trial 1 out of 60</p>","null","","","","","","","","","","","","","","","","","","","","","","","","","",""
"","","","","","image-button-response","5","51163","0.0-2.0-2.0-1.0","5ea340a26c3ed82b0dbd4d9f","E1","batch5","spm_respsonse","15542.200000286102","img/question_1_1.jpeg","3","mat_01","4","1","1","15542.200000286102","","","","","","","","","","","","","","","","","","","","",""
"","","","","","html-keyboard-response","6","52225","0.0-2.0-2.0-0.1","5ea340a26c3ed82b0dbd4d9f","E1","batch5","spm_show_trial_num","null","<p class=block-text>Trial 2 out of 60</p>","null","","","","","","","","","","","","","","","","","","","","","","","","","",""
"","","","","","image-button-response","7","55099","0.0-2.0-2.0-1.1","5ea340a26c3ed82b0dbd4d9f","E1","batch5","spm_respsonse","2872.300000190735","img/question_1_2.jpeg","4","mat_02","5","1","1","2872.300000190735","","","","","","","","","","","","","","","","","","","","",""
"","","","","","html-keyboard-response","8","56161","0.0-2.0-2.0-0.2","5ea340a26c3ed82b0dbd4d9f","E1","batch5","spm_show_trial_num","null","<p class=block-text>Trial 3 out of 60</p>","null","","","","","","","","","","","","","","","","","","","","","","","","","",""
"","","","","","image-button-response","9","60820","0.0-2.0-2.0-1.2","5ea340a26c3ed82b0dbd4d9f","E1","batch5","spm_respsonse","4656.200000286102","img/question_1_3.jpeg","0","mat_03","1","1","1","4656.200000286102","","","","","","","","","","","","","","","","","","","","",""
"","","","","","html-keyboard-response","10","61878","0.0-2.0-2.0-0.3","5ea340a26c3ed82b0dbd4d9f","E1","batch5","spm_show_trial_num","null","<p class=block-text>Trial 4 out of 60</p>","null","","","","","","","","","","","","","","","","","","","","","","","","","",""
"","","","","","image-button-response","11","64039","0.0-2.0-2.0-1.3","5ea340a26c3ed82b0dbd4d9f","E1","batch5","spm_respsonse","2158.4000000953674","img/question_1_4.jpeg","1","mat_04","2","1","1","2158.4000000953674","","","","","","","","","","","","","","","","","","","","",""
"","","","","","html-keyboard-response","12","65095","0.0-2.0-2.0-0.4","5ea340a26c3ed82b0dbd4d9f","E1","batch5","spm_show_trial_num","null","<p class=block-text>Trial 5 out of 60</p>","null","","","","","","","","","","","","","","","","","","","","","","","","","",""
"","","","","","image-button-response","13","69535","0.0-2.0-2.0-1.4","5ea340a26c3ed82b0dbd4d9f","E1","batch5","spm_respsonse","4437.400000095367","img/question_1_5.jpeg","5","mat_05","6","1","1","4437.400000095367","","","","","","","","","","","","","","","","","","","","",""
"","","","","","html-keyboard-response","14","70589","0.0-2.0-2.0-0.5","5ea340a26c3ed82b0dbd4d9f","E1","batch5","spm_show_trial_num","null","<p class=block-text>Trial 6 out of 60</p>","null","","","","","","","","","","","","","","","","","","","","","","","","","",""
"","","","","","image-button-response","15","73295","0.0-2.0-2.0-1.5","5ea340a26c3ed82b0dbd4d9f","E1","batch5","spm_respsonse","2704.0999999046326","img/question_1_6.jpeg","2","mat_06","3","1","1","2704.0999999046326","","","","","","","","","","","","","","","","","","","","",""
"","","","","","html-keyboard-response","16","74349","0.0-2.0-2.0-0.6","5ea340a26c3ed82b0dbd4d9f","E1","batch5","spm_show_trial_num","null","<p class=block-text>Trial 7 out of 60</p>","null","","","","","","","","","","","","","","","","","","","","","","","","","",""
"","","","","","image-button-response","17","78391","0.0-2.0-2.0-1.6","5ea340a26c3ed82b0dbd4d9f","E1","batch5","spm_respsonse","4040.199999809265","img/question_1_7.jpeg","5","mat_07","6","1","1","4040.199999809265","","","","","","","","","","","","","","","","","","","","",""
"","","","","","html-keyboard-response","18","79446","0.0-2.0-2.0-0.7","5ea340a26c3ed82b0dbd4d9f","E1","batch5","spm_show_trial_num","null","<p class=block-text>Trial 8 out of 60</p>","null","","","","","","","","","","","","","","","","","","","","","","","","","",""
"","","","","","image-button-response","19","82459","0.0-2.0-2.0-1.7","5ea340a26c3ed82b0dbd4d9f","E1","batch5","spm_respsonse","3011.2000002861023","img/question_1_8.jpeg","1","mat_08","2","1","1","3011.2000002861023","","","","","","","","","","","","","","","","","","","","",""
"","","","","","html-keyboard-response","20","83511","0.0-2.0-2.0-0.8","5ea340a26c3ed82b0dbd4d9f","E1","batch5","spm_show_trial_num","null","<p class=block-text>Trial 9 out of 60</p>","null","","","","","","","","","","","","","","","","","","","","","","","","","",""
"","","","","","image-button-response","21","87110","0.0-2.0-2.0-1.8","5ea340a26c3ed82b0dbd4d9f","E1","batch5","spm_respsonse","3596.5","img/question_1_9.jpeg","0","mat_09","1","1","1","3596.5","","","","","","","","","","","","","","","","","","","","",""
"","","","","","html-keyboard-response","22","88163","0.0-2.0-2.0-0.9","5ea340a26c3ed82b0dbd4d9f","E1","batch5","spm_show_trial_num","null","<p class=block-text>Trial 10 out of 60</p>","null","","","","","","","","","","","","","","","","","","","","","","","","","",""
"","","","","","image-button-response","23","93742","0.0-2.0-2.0-1.9","5ea340a26c3ed82b0dbd4d9f","E1","batch5","spm_respsonse","5577.400000095367","img/question_1_10.jpeg","2","mat_10","3","1","1","5577.400000095367","","","","","","","","","","","","","","","","","","","","",""
"","","","","","html-keyboard-response","24","94804","0.0-2.0-2.0-0.10","5ea340a26c3ed82b0dbd4d9f","E1","batch5","spm_show_trial_num","null","<p class=block-text>Trial 11 out of 60</p>","null","","","","","","","","","","","","","","","","","","","","","","","","","",""
"","","","","","image-button-response","25","100525","0.0-2.0-2.0-1.10","5ea340a26c3ed82b0dbd4d9f","E1","batch5","spm_respsonse","5718.400000095367","img/question_1_11.jpeg","3","mat_11","4","1","1","5718.400000095367","","","","","","","","","","","","","","","","","","","","",""
"","","","","","html-keyboard-response","26","101584","0.0-2.0-2.0-0.11","5ea340a26c3ed82b0dbd4d9f","E1","batch5","spm_show_trial_num","null","<p class=block-text>Trial 12 out of 60</p>","null","","","","","","","","","","","","","","","","","","","","","","","","","",""
"","","","","","image-button-response","27","107672","0.0-2.0-2.0-1.11","5ea340a26c3ed82b0dbd4d9f","E1","batch5","spm_respsonse","6085.199999809265","img/question_1_12.jpeg","0","mat_12","5","0","0","6085.199999809265","","","","","","","","","","","","","","","","","","","","",""
"","","","","","html-keyboard-response","28","108733","0.0-2.0-2.0-0.12","5ea340a26c3ed82b0dbd4d9f","E1","batch5","spm_show_trial_num","null","<p class=block-text>Trial 13 out of 60</p>","null","","","","","","","","","","","","","","","","","","","","","","","","","",""
"","","","","","image-button-response","29","124488","0.0-2.0-2.0-1.12","5ea340a26c3ed82b0dbd4d9f","E1","batch5","spm_respsonse","15752.5","img/question_2_1.jpeg","1","mat_13","2","1","1","15752.5","","","","","","","","","","","","","","","","","","","","",""
"","","","","","html-keyboard-response","30","125548","0.0-2.0-2.0-0.13","5ea340a26c3ed82b0dbd4d9f","E1","batch5","spm_show_trial_num","null","<p class=block-text>Trial 14 out of 60</p>","null","","","","","","","","","","","","","","","","","","","","","","","","","",""
"","","","","","image-button-response","31","128715","0.0-2.0-2.0-1.13","5ea340a26c3ed82b0dbd4d9f","E1","batch5","spm_respsonse","3165.800000190735","img/question_2_2.jpeg","5","mat_14","6","1","1","3165.800000190735","","","","","","","","","","","","","","","","","","","","",""
"","","","","","html-keyboard-response","32","129773","0.0-2.0-2.0-0.14","5ea340a26c3ed82b0dbd4d9f","E1","batch5","spm_show_trial_num","null","<p class=block-text>Trial 15 out of 60</p>","null","","","","","","","","","","","","","","","","","","","","","","","","","",""
"","","","","","image-button-response","33","132850","0.0-2.0-2.0-1.14","5ea340a26c3ed82b0dbd4d9f","E1","batch5","spm_respsonse","3075.1000003814697","img/question_2_3.jpeg","0","mat_15","1","1","1","3075.1000003814697","","","","","","","","","","","","","","","","","","","","",""
"","","","","","html-keyboard-response","34","133911","0.0-2.0-2.0-0.15","5ea340a26c3ed82b0dbd4d9f","E1","batch5","spm_show_trial_num","null","<p class=block-text>Trial 16 out of 60</p>","null","","","","","","","","","","","","","","","","","","","","","","","","","",""
"","","","","","image-button-response","35","136816","0.0-2.0-2.0-1.15","5ea340a26c3ed82b0dbd4d9f","E1","batch5","spm_respsonse","2903.1000003814697","img/question_2_4.jpeg","1","mat_16","2","1","1","2903.1000003814697","","","","","","","","","","","","","","","","","","","","",""
"","","","","","html-keyboard-response","36","137875","0.0-2.0-2.0-0.16","5ea340a26c3ed82b0dbd4d9f","E1","batch5","spm_show_trial_num","null","<p class=block-text>Trial 17 out of 60</p>","null","","","","","","","","","","","","","","","","","","","","","","","","","",""
"","","","","","image-button-response","37","141582","0.0-2.0-2.0-1.16","5ea340a26c3ed82b0dbd4d9f","E1","batch5","spm_respsonse","3704.8999996185303","img/question_2_5.jpeg","0","mat_17","1","1","1","3704.8999996185303","","","","","","","","","","","","","","","","","","","","",""
"","","","","","html-keyboard-response","38","142642","0.0-2.0-2.0-0.17","5ea340a26c3ed82b0dbd4d9f","E1","batch5","spm_show_trial_num","null","<p class=block-text>Trial 18 out of 60</p>","null","","","","","","","","","","","","","","","","","","","","","","","","","",""
"","","","","","image-button-response","39","146582","0.0-2.0-2.0-1.17","5ea340a26c3ed82b0dbd4d9f","E1","batch5","spm_respsonse","3937.7000002861023","img/question_2_6.jpeg","2","mat_18","3","1","1","3937.7000002861023","","","","","","","","","","","","","","","","","","","","",""
"","","","","","html-keyboard-response","40","147641","0.0-2.0-2.0-0.18","5ea340a26c3ed82b0dbd4d9f","E1","batch5","spm_show_trial_num","null","<p class=block-text>Trial 19 out of 60</p>","null","","","","","","","","","","","","","","","","","","","","","","","","","",""
"","","","","","image-button-response","41","152135","0.0-2.0-2.0-1.18","5ea340a26c3ed82b0dbd4d9f","E1","batch5","spm_respsonse","4491.900000095367","img/question_2_7.jpeg","5","mat_19","5","0","0","4491.900000095367","","","","","","","","","","","","","","","","","","","","",""
"","","","","","html-keyboard-response","42","153195","0.0-2.0-2.0-0.19","5ea340a26c3ed82b0dbd4d9f","E1","batch5","spm_show_trial_num","null","<p class=block-text>Trial 20 out of 60</p>","null","","","","","","","","","","","","","","","","","","","","","","","","","",""
"","","","","","image-button-response","43","157158","0.0-2.0-2.0-1.19","5ea340a26c3ed82b0dbd4d9f","E1","batch5","spm_respsonse","3961.5999999046326","img/question_2_8.jpeg","5","mat_20","6","1","1","3961.5999999046326","","","","","","","","","","","","","","","","","","","","",""
"","","","","","html-keyboard-response","44","158215","0.0-2.0-2.0-0.20","5ea340a26c3ed82b0dbd4d9f","E1","batch5","spm_show_trial_num","null","<p class=block-text>Trial 21 out of 60</p>","null","","","","","","","","","","","","","","","","","","","","","","","","","",""
"","","","","","image-button-response","45","162795","0.0-2.0-2.0-1.20","5ea340a26c3ed82b0dbd4d9f","E1","batch5","spm_respsonse","4577.699999809265","img/question_2_9.jpeg","3","mat_21","4","1","1","4577.699999809265","","","","","","","","","","","","","","","","","","","","",""
"","","","","","html-keyboard-response","46","163854","0.0-2.0-2.0-0.21","5ea340a26c3ed82b0dbd4d9f","E1","batch5","spm_show_trial_num","null","<p class=block-text>Trial 22 out of 60</p>","null","","","","","","","","","","","","","","","","","","","","","","","","","",""
"","","","","","image-button-response","47","168100","0.0-2.0-2.0-1.21","5ea340a26c3ed82b0dbd4d9f","E1","batch5","spm_respsonse","4243.699999809265","img/question_2_10.jpeg","2","mat_22","3","1","1","4243.699999809265","","","","","","","","","","","","","","","","","","","","",""
"","","","","","html-keyboard-response","48","169162","0.0-2.0-2.0-0.22","5ea340a26c3ed82b0dbd4d9f","E1","batch5","spm_show_trial_num","null","<p class=block-text>Trial 23 out of 60</p>","null","","","","","","","","","","","","","","","","","","","","","","","","","",""
"","","","","","image-button-response","49","173003","0.0-2.0-2.0-1.22","5ea340a26c3ed82b0dbd4d9f","E1","batch5","spm_respsonse","3839.4000000953674","img/question_2_11.jpeg","3","mat_23","4","1","1","3839.4000000953674","","","","","","","","","","","","","","","","","","","","",""
"","","","","","html-keyboard-response","50","174058","0.0-2.0-2.0-0.23","5ea340a26c3ed82b0dbd4d9f","E1","batch5","spm_show_trial_num","null","<p class=block-text>Trial 24 out of 60</p>","null","","","","","","","","","","","","","","","","","","","","","","","","","",""
"","","","","","image-button-response","51","188913","0.0-2.0-2.0-1.23","5ea340a26c3ed82b0dbd4d9f","E1","batch5","spm_respsonse","14852.300000190735","img/question_2_12.jpeg","3","mat_24","5","0","0","14852.300000190735","","","","","","","","","","","","","","","","","","","","",""
"","","","","","html-button-response","52","191240","0.0-2.0-3.0","5ea340a26c3ed82b0dbd4d9f","E1","batch5","attention_check","2072.6000003814697","<p class = block-text>Attention check: Please choose 1<br></p>","0","","","true","","","","","","","","","","","","","","","","","","","","","","",""
"","","","","","html-keyboard-response","53","192041","0.0-2.0-4.0-0.0","5ea340a26c3ed82b0dbd4d9f","E1","batch5","spm_show_trial_num","null","<p class=block-text>Trial 25 out of 60</p>","null","","","","","","","","","","","","","","","","","","","","","","","","","",""
"","","","","","image-button-response","54","200291","0.0-2.0-4.0-1.0","5ea340a26c3ed82b0dbd4d9f","E1","batch5","spm_respsonse","8247.199999809265","img/question_3_1.jpeg","7","mat_25","8","1","1","8247.199999809265","","","","","","","","","","","","","","","","","","","","",""
"","","","","","html-keyboard-response","55","201349","0.0-2.0-4.0-0.1","5ea340a26c3ed82b0dbd4d9f","E1","batch5","spm_show_trial_num","null","<p class=block-text>Trial 26 out of 60</p>","null","","","","","","","","","","","","","","","","","","","","","","","","","",""
"","","","","","image-button-response","56","204906","0.0-2.0-4.0-1.1","5ea340a26c3ed82b0dbd4d9f","E1","batch5","spm_respsonse","3553.5999999046326","img/question_3_2.jpeg","1","mat_26","2","1","1","3553.5999999046326","","","","","","","","","","","","","","","","","","","","",""
"","","","","","html-keyboard-response","57","205967","0.0-2.0-4.0-0.2","5ea340a26c3ed82b0dbd4d9f","E1","batch5","spm_show_trial_num","null","<p class=block-text>Trial 27 out of 60</p>","null","","","","","","","","","","","","","","","","","","","","","","","","","",""
"","","","","","image-button-response","58","217289","0.0-2.0-4.0-1.2","5ea340a26c3ed82b0dbd4d9f","E1","batch5","spm_respsonse","11319.89999961853","img/question_3_3.jpeg","2","mat_27","3","1","1","11319.89999961853","","","","","","","","","","","","","","","","","","","","",""
"","","","","","html-keyboard-response","59","218346","0.0-2.0-4.0-0.3","5ea340a26c3ed82b0dbd4d9f","E1","batch5","spm_show_trial_num","null","<p class=block-text>Trial 28 out of 60</p>","null","","","","","","","","","","","","","","","","","","","","","","","","","",""
"","","","","","image-button-response","60","237516","0.0-2.0-4.0-1.3","5ea340a26c3ed82b0dbd4d9f","E1","batch5","spm_respsonse","19166.599999904633","img/question_3_4.jpeg","7","mat_28","8","1","1","19166.599999904633","","","","","","","","","","","","","","","","","","","","",""
"","","","","","html-keyboard-response","61","238577","0.0-2.0-4.0-0.4","5ea340a26c3ed82b0dbd4d9f","E1","batch5","spm_show_trial_num","null","<p class=block-text>Trial 29 out of 60</p>","null","","","","","","","","","","","","","","","","","","","","","","","","","",""
"","","","","","image-button-response","62","241417","0.0-2.0-4.0-1.4","5ea340a26c3ed82b0dbd4d9f","E1","batch5","spm_respsonse","2837.0999999046326","img/question_3_5.jpeg","6","mat_29","7","1","1","2837.0999999046326","","","","","","","","","","","","","","","","","","","","",""
"","","","","","html-keyboard-response","63","242474","0.0-2.0-4.0-0.5","5ea340a26c3ed82b0dbd4d9f","E1","batch5","spm_show_trial_num","null","<p class=block-text>Trial 30 out of 60</p>","null","","","","","","","","","","","","","","","","","","","","","","","","","",""
"","","","","","image-button-response","64","247298","0.0-2.0-4.0-1.5","5ea340a26c3ed82b0dbd4d9f","E1","batch5","spm_respsonse","4821.599999904633","img/question_3_6.jpeg","3","mat_30","4","1","1","4821.599999904633","","","","","","","","","","","","","","","","","","","","",""
"","","","","","html-keyboard-response","65","248355","0.0-2.0-4.0-0.6","5ea340a26c3ed82b0dbd4d9f","E1","batch5","spm_show_trial_num","null","<p class=block-text>Trial 31 out of 60</p>","null","","","","","","","","","","","","","","","","","","","","","","","","","",""
"","","","","","image-button-response","66","256176","0.0-2.0-4.0-1.6","5ea340a26c3ed82b0dbd4d9f","E1","batch5","spm_respsonse","7818.400000095367","img/question_3_7.jpeg","4","mat_31","5","1","1","7818.400000095367","","","","","","","","","","","","","","","","","","","","",""
"","","","","","html-keyboard-response","67","257236","0.0-2.0-4.0-0.7","5ea340a26c3ed82b0dbd4d9f","E1","batch5","spm_show_trial_num","null","<p class=block-text>Trial 32 out of 60</p>","null","","","","","","","","","","","","","","","","","","","","","","","","","",""
"","","","","","image-button-response","68","292679","0.0-2.0-4.0-1.7","5ea340a26c3ed82b0dbd4d9f","E1","batch5","spm_respsonse","35440.800000190735","img/question_3_8.jpeg","0","mat_32","1","1","1","35440.800000190735","","","","","","","","","","","","","","","","","","","","",""
"","","","","","html-keyboard-response","69","293736","0.0-2.0-4.0-0.8","5ea340a26c3ed82b0dbd4d9f","E1","batch5","spm_show_trial_num","null","<p class=block-text>Trial 33 out of 60</p>","null","","","","","","","","","","","","","","","","","","","","","","","","","",""
"","","","","","image-button-response","70","300660","0.0-2.0-4.0-1.8","5ea340a26c3ed82b0dbd4d9f","E1","batch5","spm_respsonse","6922.400000095367","img/question_3_9.jpeg","0","mat_33","7","0","0","6922.400000095367","","","","","","","","","","","","","","","","","","","","",""
"","","","","","html-keyboard-response","71","301719","0.0-2.0-4.0-0.9","5ea340a26c3ed82b0dbd4d9f","E1","batch5","spm_show_trial_num","null","<p class=block-text>Trial 34 out of 60</p>","null","","","","","","","","","","","","","","","","","","","","","","","","","",""
"","","","","","image-button-response","72","309311","0.0-2.0-4.0-1.9","5ea340a26c3ed82b0dbd4d9f","E1","batch5","spm_respsonse","7590.400000095367","img/question_3_10.jpeg","3","mat_34","6","0","0","7590.400000095367","","","","","","","","","","","","","","","","","","","","",""
"","","","","","html-keyboard-response","73","310371","0.0-2.0-4.0-0.10","5ea340a26c3ed82b0dbd4d9f","E1","batch5","spm_show_trial_num","null","<p class=block-text>Trial 35 out of 60</p>","null","","","","","","","","","","","","","","","","","","","","","","","","","",""
"","","","","","image-button-response","74","330245","0.0-2.0-4.0-1.10","5ea340a26c3ed82b0dbd4d9f","E1","batch5","spm_respsonse","19872.099999904633","img/question_3_11.jpeg","4","mat_35","1","0","0","19872.099999904633","","","","","","","","","","","","","","","","","","","","",""
"","","","","","html-keyboard-response","75","331303","0.0-2.0-4.0-0.11","5ea340a26c3ed82b0dbd4d9f","E1","batch5","spm_show_trial_num","null","<p class=block-text>Trial 36 out of 60</p>","null","","","","","","","","","","","","","","","","","","","","","","","","","",""
"","","","","","image-button-response","76","341294","0.0-2.0-4.0-1.11","5ea340a26c3ed82b0dbd4d9f","E1","batch5","spm_respsonse","9988.300000190735","img/question_3_12.jpeg","1","mat_36","2","1","1","9988.300000190735","","","","","","","","","","","","","","","","","","","","",""
"","","","","","html-keyboard-response","77","342352","0.0-2.0-4.0-0.12","5ea340a26c3ed82b0dbd4d9f","E1","batch5","spm_show_trial_num","null","<p class=block-text>Trial 37 out of 60</p>","null","","","","","","","","","","","","","","","","","","","","","","","","","",""
"","","","","","image-button-response","78","344928","0.0-2.0-4.0-1.12","5ea340a26c3ed82b0dbd4d9f","E1","batch5","spm_respsonse","2574.300000190735","img/question_4_1.jpeg","2","mat_37","3","1","1","2574.300000190735","","","","","","","","","","","","","","","","","","","","",""
"","","","","","html-keyboard-response","79","345984","0.0-2.0-4.0-0.13","5ea340a26c3ed82b0dbd4d9f","E1","batch5","spm_show_trial_num","null","<p class=block-text>Trial 38 out of 60</p>","null","","","","","","","","","","","","","","","","","","","","","","","","","",""
"","","","","","image-button-response","80","352395","0.0-2.0-4.0-1.13","5ea340a26c3ed82b0dbd4d9f","E1","batch5","spm_respsonse","6407.900000095367","img/question_4_2.jpeg","3","mat_38","4","1","1","6407.900000095367","","","","","","","","","","","","","","","","","","","","",""
"","","","","","html-keyboard-response","81","353451","0.0-2.0-4.0-0.14","5ea340a26c3ed82b0dbd4d9f","E1","batch5","spm_show_trial_num","null","<p class=block-text>Trial 39 out of 60</p>","null","","","","","","","","","","","","","","","","","","","","","","","","","",""
"","","","","","image-button-response","82","361329","0.0-2.0-4.0-1.14","5ea340a26c3ed82b0dbd4d9f","E1","batch5","spm_respsonse","7873.099999904633","img/question_4_3.jpeg","2","mat_39","3","1","1","7873.099999904633","","","","","","","","","","","","","","","","","","","","",""
"","","","","","html-keyboard-response","83","362387","0.0-2.0-4.0-0.15","5ea340a26c3ed82b0dbd4d9f","E1","batch5","spm_show_trial_num","null","<p class=block-text>Trial 40 out of 60</p>","null","","","","","","","","","","","","","","","","","","","","","","","","","",""
"","","","","","image-button-response","84","368142","0.0-2.0-4.0-1.15","5ea340a26c3ed82b0dbd4d9f","E1","batch5","spm_respsonse","5751.199999809265","img/question_4_4.jpeg","6","mat_40","7","1","1","5751.199999809265","","","","","","","","","","","","","","","","","","","","",""
"","","","","","html-keyboard-response","85","369201","0.0-2.0-4.0-0.16","5ea340a26c3ed82b0dbd4d9f","E1","batch5","spm_show_trial_num","null","<p class=block-text>Trial 41 out of 60</p>","null","","","","","","","","","","","","","","","","","","","","","","","","","",""
"","","","","","image-button-response","86","382447","0.0-2.0-4.0-1.16","5ea340a26c3ed82b0dbd4d9f","E1","batch5","spm_respsonse","13241","img/question_4_5.jpeg","7","mat_41","8","1","1","13241","","","","","","","","","","","","","","","","","","","","",""
"","","","","","html-keyboard-response","87","383504","0.0-2.0-4.0-0.17","5ea340a26c3ed82b0dbd4d9f","E1","batch5","spm_show_trial_num","null","<p class=block-text>Trial 42 out of 60</p>","null","","","","","","","","","","","","","","","","","","","","","","","","","",""
"","","","","","image-button-response","88","392530","0.0-2.0-4.0-1.17","5ea340a26c3ed82b0dbd4d9f","E1","batch5","spm_respsonse","9023.400000095367","img/question_4_6.jpeg","5","mat_42","6","1","1","9023.400000095367","","","","","","","","","","","","","","","","","","","","",""
"","","","","","html-keyboard-response","89","393591","0.0-2.0-4.0-0.18","5ea340a26c3ed82b0dbd4d9f","E1","batch5","spm_show_trial_num","null","<p class=block-text>Trial 43 out of 60</p>","null","","","","","","","","","","","","","","","","","","","","","","","","","",""
"","","","","","image-button-response","90","404449","0.0-2.0-4.0-1.18","5ea340a26c3ed82b0dbd4d9f","E1","batch5","spm_respsonse","10854.599999904633","img/question_4_7.jpeg","4","mat_43","5","1","1","10854.599999904633","","","","","","","","","","","","","","","","","","","","",""
"","","","","","html-keyboard-response","91","405501","0.0-2.0-4.0-0.19","5ea340a26c3ed82b0dbd4d9f","E1","batch5","spm_show_trial_num","null","<p class=block-text>Trial 44 out of 60</p>","null","","","","","","","","","","","","","","","","","","","","","","","","","",""
"","","","","","image-button-response","92","443011","0.0-2.0-4.0-1.19","5ea340a26c3ed82b0dbd4d9f","E1","batch5","spm_respsonse","37507.09999990463","img/question_4_8.jpeg","3","mat_44","4","1","1","37507.09999990463","","","","","","","","","","","","","","","","","","","","",""
"","","","","","html-keyboard-response","93","444069","0.0-2.0-4.0-0.20","5ea340a26c3ed82b0dbd4d9f","E1","batch5","spm_show_trial_num","null","<p class=block-text>Trial 45 out of 60</p>","null","","","","","","","","","","","","","","","","","","","","","","","","","",""
"","","","","","image-button-response","94","465624","0.0-2.0-4.0-1.20","5ea340a26c3ed82b0dbd4d9f","E1","batch5","spm_respsonse","21551.599999904633","img/question_4_9.jpeg","0","mat_45","1","1","1","21551.599999904633","","","","","","","","","","","","","","","","","","","","",""
"","","","","","html-keyboard-response","95","466684","0.0-2.0-4.0-0.21","5ea340a26c3ed82b0dbd4d9f","E1","batch5","spm_show_trial_num","null","<p class=block-text>Trial 46 out of 60</p>","null","","","","","","","","","","","","","","","","","","","","","","","","","",""
"","","","","","image-button-response","96","485123","0.0-2.0-4.0-1.21","5ea340a26c3ed82b0dbd4d9f","E1","batch5","spm_respsonse","18436.299999713898","img/question_4_10.jpeg","1","mat_46","2","1","1","18436.299999713898","","","","","","","","","","","","","","","","","","","","",""
"","","","","","html-keyboard-response","97","486180","0.0-2.0-4.0-0.22","5ea340a26c3ed82b0dbd4d9f","E1","batch5","spm_show_trial_num","null","<p class=block-text>Trial 47 out of 60</p>","null","","","","","","","","","","","","","","","","","","","","","","","","","",""
"","","","","","image-button-response","98","499760","0.0-2.0-4.0-1.22","5ea340a26c3ed82b0dbd4d9f","E1","batch5","spm_respsonse","13578","img/question_4_11.jpeg","1","mat_47","5","0","0","13578","","","","","","","","","","","","","","","","","","","","",""
"","","","","","html-keyboard-response","99","500822","0.0-2.0-4.0-0.23","5ea340a26c3ed82b0dbd4d9f","E1","batch5","spm_show_trial_num","null","<p class=block-text>Trial 48 out of 60</p>","null","","","","","","","","","","","","","","","","","","","","","","","","","",""
"","","","","","image-button-response","100","536484","0.0-2.0-4.0-1.23","5ea340a26c3ed82b0dbd4d9f","E1","batch5","spm_respsonse","35659.60000038147","img/question_4_12.jpeg","0","mat_48","6","0","0","35659.60000038147","","","","","","","","","","","","","","","","","","","","",""
"","","","","","html-keyboard-response","101","537542","0.0-2.0-4.0-0.24","5ea340a26c3ed82b0dbd4d9f","E1","batch5","spm_show_trial_num","null","<p class=block-text>Trial 49 out of 60</p>","null","","","","","","","","","","","","","","","","","","","","","","","","","",""
"","","","","","image-button-response","102","551773","0.0-2.0-4.0-1.24","5ea340a26c3ed82b0dbd4d9f","E1","batch5","spm_respsonse","14228.200000286102","img/question_5_1.jpeg","6","mat_49","7","1","1","14228.200000286102","","","","","","","","","","","","","","","","","","","","",""
"","","","","","html-keyboard-response","103","552831","0.0-2.0-4.0-0.25","5ea340a26c3ed82b0dbd4d9f","E1","batch5","spm_show_trial_num","null","<p class=block-text>Trial 50 out of 60</p>","null","","","","","","","","","","","","","","","","","","","","","","","","","",""
"","","","","","image-button-response","104","571091","0.0-2.0-4.0-1.25","5ea340a26c3ed82b0dbd4d9f","E1","batch5","spm_respsonse","18256.5","img/question_5_2.jpeg","5","mat_50","6","1","1","18256.5","","","","","","","","","","","","","","","","","","","","",""
"","","","","","html-keyboard-response","105","572153","0.0-2.0-4.0-0.26","5ea340a26c3ed82b0dbd4d9f","E1","batch5","spm_show_trial_num","null","<p class=block-text>Trial 51 out of 60</p>","null","","","","","","","","","","","","","","","","","","","","","","","","","",""
"","","","","","image-button-response","106","581896","0.0-2.0-4.0-1.26","5ea340a26c3ed82b0dbd4d9f","E1","batch5","spm_respsonse","9740.099999904633","img/question_5_3.jpeg","2","mat_51","8","0","0","9740.099999904633","","","","","","","","","","","","","","","","","","","","",""
"","","","","","html-keyboard-response","107","582956","0.0-2.0-4.0-0.27","5ea340a26c3ed82b0dbd4d9f","E1","batch5","spm_show_trial_num","null","<p class=block-text>Trial 52 out of 60</p>","null","","","","","","","","","","","","","","","","","","","","","","","","","",""
"","","","","","image-button-response","108","601933","0.0-2.0-4.0-1.27","5ea340a26c3ed82b0dbd4d9f","E1","batch5","spm_respsonse","18973.800000190735","img/question_5_4.jpeg","2","mat_52","2","0","0","18973.800000190735","","","","","","","","","","","","","","","","","","","","",""
"","","","","","html-keyboard-response","109","602992","0.0-2.0-4.0-0.28","5ea340a26c3ed82b0dbd4d9f","E1","batch5","spm_show_trial_num","null","<p class=block-text>Trial 53 out of 60</p>","null","","","","","","","","","","","","","","","","","","","","","","","","","",""
"","","","","","image-button-response","110","620738","0.0-2.0-4.0-1.28","5ea340a26c3ed82b0dbd4d9f","E1","batch5","spm_respsonse","17743.300000190735","img/question_5_5.jpeg","0","mat_53","1","1","1","17743.300000190735","","","","","","","","","","","","","","","","","","","","",""
"","","","","","html-keyboard-response","111","621800","0.0-2.0-4.0-0.29","5ea340a26c3ed82b0dbd4d9f","E1","batch5","spm_show_trial_num","null","<p class=block-text>Trial 54 out of 60</p>","null","","","","","","","","","","","","","","","","","","","","","","","","","",""
"","","","","","image-button-response","112","632999","0.0-2.0-4.0-1.29","5ea340a26c3ed82b0dbd4d9f","E1","batch5","spm_respsonse","11195.800000190735","img/question_5_6.jpeg","4","mat_54","5","1","1","11195.800000190735","","","","","","","","","","","","","","","","","","","","",""
"","","","","","html-keyboard-response","113","634057","0.0-2.0-4.0-0.30","5ea340a26c3ed82b0dbd4d9f","E1","batch5","spm_show_trial_num","null","<p class=block-text>Trial 55 out of 60</p>","null","","","","","","","","","","","","","","","","","","","","","","","","","",""
"","","","","","image-button-response","114","643739","0.0-2.0-4.0-1.30","5ea340a26c3ed82b0dbd4d9f","E1","batch5","spm_respsonse","9679.400000095367","img/question_5_7.jpeg","5","mat_55","1","0","0","9679.400000095367","","","","","","","","","","","","","","","","","","","","",""
"","","","","","html-keyboard-response","115","644801","0.0-2.0-4.0-0.31","5ea340a26c3ed82b0dbd4d9f","E1","batch5","spm_show_trial_num","null","<p class=block-text>Trial 56 out of 60</p>","null","","","","","","","","","","","","","","","","","","","","","","","","","",""
"","","","","","image-button-response","116","697845","0.0-2.0-4.0-1.31","5ea340a26c3ed82b0dbd4d9f","E1","batch5","spm_respsonse","53040.699999809265","img/question_5_8.jpeg","7","mat_56","6","0","0","53040.699999809265","","","","","","","","","","","","","","","","","","","","",""
"","","","","","html-keyboard-response","117","698907","0.0-2.0-4.0-0.32","5ea340a26c3ed82b0dbd4d9f","E1","batch5","spm_show_trial_num","null","<p class=block-text>Trial 57 out of 60</p>","null","","","","","","","","","","","","","","","","","","","","","","","","","",""
"","","","","","image-button-response","118","709081","0.0-2.0-4.0-1.32","5ea340a26c3ed82b0dbd4d9f","E1","batch5","spm_respsonse","10171.599999904633","img/question_5_9.jpeg","4","mat_57","3","0","0","10171.599999904633","","","","","","","","","","","","","","","","","","","","",""
"","","","","","html-keyboard-response","119","710140","0.0-2.0-4.0-0.33","5ea340a26c3ed82b0dbd4d9f","E1","batch5","spm_show_trial_num","null","<p class=block-text>Trial 58 out of 60</p>","null","","","","","","","","","","","","","","","","","","","","","","","","","",""
"","","","","","image-button-response","120","720994","0.0-2.0-4.0-1.33","5ea340a26c3ed82b0dbd4d9f","E1","batch5","spm_respsonse","10851.200000286102","img/question_5_10.jpeg","0","mat_58","2","0","0","10851.200000286102","","","","","","","","","","","","","","","","","","","","",""
"","","","","","html-keyboard-response","121","722053","0.0-2.0-4.0-0.34","5ea340a26c3ed82b0dbd4d9f","E1","batch5","spm_show_trial_num","null","<p class=block-text>Trial 59 out of 60</p>","null","","","","","","","","","","","","","","","","","","","","","","","","","",""
"","","","","","image-button-response","122","725830","0.0-2.0-4.0-1.34","5ea340a26c3ed82b0dbd4d9f","E1","batch5","spm_respsonse","3773.699999809265","img/question_5_11.jpeg","2","mat_59","4","0","0","3773.699999809265","","","","","","","","","","","","","","","","","","","","",""
"","","","","","html-keyboard-response","123","726889","0.0-2.0-4.0-0.35","5ea340a26c3ed82b0dbd4d9f","E1","batch5","spm_show_trial_num","null","<p class=block-text>Trial 60 out of 60</p>","null","","","","","","","","","","","","","","","","","","","","","","","","","",""
"","","","","","image-button-response","124","735747","0.0-2.0-4.0-1.35","5ea340a26c3ed82b0dbd4d9f","E1","batch5","spm_respsonse","8855.400000095367","img/question_5_12.jpeg","5","mat_60","5","0","0","8855.400000095367","","","","","","","","","","","","","","","","","","","","",""
"","","","","","html-button-response","125","748671","0.0-2.0-5.0","5ea340a26c3ed82b0dbd4d9f","E1","batch5","spm_goodbye","12666.199999809265","<p class= block-text>This concludes the Standard Progressive Matrix game. Thank you for your responses!<br> When you are ready, click the button continue</p>","0","","","","","","","","","","","","","","","","","","","","","","","","","",""
"true","","","","","fullscreen","126","766109","0.0-3.0-0.0","5ea340a26c3ed82b0dbd4d9f","E1","batch5","","","","","","","","","","","","","","","","","","","","","","","","","","","","","",""
"","","","","","instructions","127","781493","0.0-3.0-1.0-0.0","5ea340a26c3ed82b0dbd4d9f","E1","batch5","","15383.300000190735","","","","","","","","[{""page_index"":0,""viewing_time"":12193.599999904633},{""page_index"":1,""viewing_time"":3189.300000190735}]","","","","","","","","","","","","","","","","","","","",""
"","","","","","html-button-response","128","782893","0.0-3.0-1.0-1.0-0.0","5ea340a26c3ed82b0dbd4d9f","E1","batch5","pattern_enter_quiz","1398.9000000953674","<p class=block-text> Let's answer a few questions <br>","0","","","","","","","","","","","","","","","","","","","","","","","","","",""
"","","","","","html-button-response","129","788551","0.0-3.0-1.0-1.0-1.0","5ea340a26c3ed82b0dbd4d9f","E1","batch5","pattern_quiz","5656","<p class = block-text>True or False: You will have as much time as you want to make each choice. <br></p>","1","","","true","","","","","","","","","","","","","","","","","","","","","","",""
"","","","","","html-button-response","130","789982","0.0-3.0-1.0-1.0-2.0","5ea340a26c3ed82b0dbd4d9f","E1","batch5","pattern_quiz_feedback","1429.7999997138977","<p class = block-text>Correct! You should make your choice <strong> as fast as you can</strong>.</p>","0","","","","","","","","","","","","","","","","","","","","","","","","","",""
"","","","","","html-button-response","131","814303","0.0-3.0-1.0-1.0-3.0","5ea340a26c3ed82b0dbd4d9f","E1","batch5","pattern_quiz","24319.5","<p class = block-text>True or False: You will look for 4 pieces in black or white color connected in a row either horizontally, vertically or diagonally. <br></p>","0","","","true","","","","","","","","","","","","","","","","","","","","","","",""
"","","","","","html-button-response","132","815195","0.0-3.0-1.0-1.0-4.0","5ea340a26c3ed82b0dbd4d9f","E1","batch5","pattern_quiz_feedback","889.8000001907349","<p class = block-text>Correct! </p>","0","","","","","","","","","","","","","","","","","","","","","","","","","",""
"","","","","","html-button-response","133","816986","0.0-3.0-2.0","5ea340a26c3ed82b0dbd4d9f","E1","batch5","pattern_enter_practice","1788.7999997138977","<p class=block-text> Now that you've understood the game, let's do a few practice trials before we start!<br> <br>","0","","","","","","","","","","","","","","","","","","","","","","","","","",""
"","","","","","image-keyboard-response","134","819581","0.0-3.0-3.0-0.0","5ea340a26c3ed82b0dbd4d9f","E1","batch5","pattern_practice","2592.4000000953674","stim/prac_yes_20_dia_b1.png","j","","f","false","","","","","","","","","","","","","","","","","","","","","","",""
"","","","","","html-keyboard-response","135","820587","0.0-3.0-3.0-1.0","5ea340a26c3ed82b0dbd4d9f","E1","batch5","pattern_feedback","null","<p style=""font-size:30px;color:red;"">Wrong.</p>","null","","","","","","","","","","","","","","","","","","","","","","","","","",""
"","","","","","image-keyboard-response","136","821751","0.0-3.0-3.0-0.1","5ea340a26c3ed82b0dbd4d9f","E1","batch5","pattern_practice","1162","stim/prac_yes_16_ver_w1.png","f","","f","true","","","","","","","","","","","","","","","","","","","","","","",""
"","","","","","html-keyboard-response","137","822761","0.0-3.0-3.0-1.1","5ea340a26c3ed82b0dbd4d9f","E1","batch5","pattern_feedback","null","<p style=""font-size:30px;color:green;"">Correct!</p>","null","","","","","","","","","","","","","","","","","","","","","","","","","",""
"","","","","","image-keyboard-response","138","824669","0.0-3.0-3.0-0.2","5ea340a26c3ed82b0dbd4d9f","E1","batch5","pattern_practice","1905.9000000953674","stim/prac_no_16_1.png","j","","j","true","","","","","","","","","","","","","","","","","","","","","","",""
"","","","","","html-keyboard-response","139","825680","0.0-3.0-3.0-1.2","5ea340a26c3ed82b0dbd4d9f","E1","batch5","pattern_feedback","null","<p style=""font-size:30px;color:green;"">Correct!</p>","null","","","","","","","","","","","","","","","","","","","","","","","","","",""
"","","","","","image-keyboard-response","140","826530","0.0-3.0-3.0-0.3","5ea340a26c3ed82b0dbd4d9f","E1","batch5","pattern_practice","848.7999997138977","stim/prac_yes_18_hor_w1.png","f","","f","true","","","","","","","","","","","","","","","","","","","","","","",""
"","","","","","html-keyboard-response","141","827538","0.0-3.0-3.0-1.3","5ea340a26c3ed82b0dbd4d9f","E1","batch5","pattern_feedback","null","<p style=""font-size:30px;color:green;"">Correct!</p>","null","","","","","","","","","","","","","","","","","","","","","","","","","",""
"","","","","","image-keyboard-response","142","828816","0.0-3.0-3.0-0.4","5ea340a26c3ed82b0dbd4d9f","E1","batch5","pattern_practice","1276.2000002861023","stim/prac_no_18_1.png","j","","j","true","","","","","","","","","","","","","","","","","","","","","","",""
"","","","","","html-keyboard-response","143","829819","0.0-3.0-3.0-1.4","5ea340a26c3ed82b0dbd4d9f","E1","batch5","pattern_feedback","null","<p style=""font-size:30px;color:green;"">Correct!</p>","null","","","","","","","","","","","","","","","","","","","","","","","","","",""
"","","","","","html-button-response","144","833011","0.0-3.0-4.0","5ea340a26c3ed82b0dbd4d9f","E1","batch5","pattern_enter_official_trials","3190.800000190735","<p class=block-text> Good job! You are done with practice trials!<br>
        You responded correctly on 80% of the trials.<br>
        Press the button below to start official trials. Now you won't see any feedback about your response</p>","0","","","","","","","","","","","","","","","","","","","","","","","","","",""
"","","","","","html-keyboard-response","145","833815","0.0-3.0-5.0-0.0","5ea340a26c3ed82b0dbd4d9f","E1","batch5","pattern_show_trial_num","null","<p class=block-text>Trial 1 out of 78</p>","null","","","","","","","","","","","","","","","","","","","","","","","","","",""
"","","","","","image-keyboard-response","146","835622","0.0-3.0-5.0-1.0","5ea340a26c3ed82b0dbd4d9f","E1","batch5","pattern_response","1805.6000003814697","stim/yes_58_dia_w1_w.png","f","pattern_76","f","true","","","","1805.6000003814697","true","1","","","","","","","","","","","","","","","","",""
"","","","","","html-keyboard-response","147","836928","0.0-3.0-5.0-0.1","5ea340a26c3ed82b0dbd4d9f","E1","batch5","pattern_show_trial_num","null","<p class=block-text>Trial 2 out of 78</p>","null","","","","","","","","","","","","","","","","","","","","","","","","","",""
"","","","","","image-keyboard-response","148","838784","0.0-3.0-5.0-1.1","5ea340a26c3ed82b0dbd4d9f","E1","batch5","pattern_response","1854.5","stim/no_33_1_b.png","f","pattern_15","j","false","","","","1854.5","false","1","","","","","","","","","","","","","","","","",""
"","","","","","html-keyboard-response","149","840094","0.0-3.0-5.0-0.2","5ea340a26c3ed82b0dbd4d9f","E1","batch5","pattern_show_trial_num","null","<p class=block-text>Trial 3 out of 78</p>","null","","","","","","","","","","","","","","","","","","","","","","","","","",""
"","","","","","image-keyboard-response","150","843094","0.0-3.0-5.0-1.2","5ea340a26c3ed82b0dbd4d9f","E1","batch5","pattern_response","2998.5","stim/no_47_1_b.png","f","pattern_27","j","false","","","","2998.5","false","1","","","","","","","","","","","","","","","","",""
"","","","","","html-keyboard-response","151","844404","0.0-3.0-5.0-0.3","5ea340a26c3ed82b0dbd4d9f","E1","batch5","pattern_show_trial_num","null","<p class=block-text>Trial 4 out of 78</p>","null","","","","","","","","","","","","","","","","","","","","","","","","","",""
"","","","","","image-keyboard-response","152","848080","0.0-3.0-5.0-1.3","5ea340a26c3ed82b0dbd4d9f","E1","batch5","pattern_response","3673.800000190735","stim/no_58_1_w.png","j","pattern_35","j","true","","","","3673.800000190735","true","2","","","","","","","","","","","","","","","","",""
"","","","","","html-keyboard-response","153","849391","0.0-3.0-5.0-0.4","5ea340a26c3ed82b0dbd4d9f","E1","batch5","pattern_show_trial_num","null","<p class=block-text>Trial 5 out of 78</p>","null","","","","","","","","","","","","","","","","","","","","","","","","","",""
"","","","","","image-keyboard-response","154","850805","0.0-3.0-5.0-1.4","5ea340a26c3ed82b0dbd4d9f","E1","batch5","pattern_response","1412.6999998092651","stim/yes_26_dia_w2_w.png","j","pattern_50","f","false","","","","1412.6999998092651","false","2","","","","","","","","","","","","","","","","",""
"","","","","","html-keyboard-response","155","852115","0.0-3.0-5.0-0.5","5ea340a26c3ed82b0dbd4d9f","E1","batch5","pattern_show_trial_num","null","<p class=block-text>Trial 6 out of 78</p>","null","","","","","","","","","","","","","","","","","","","","","","","","","",""
"","","","","","image-keyboard-response","156","853628","0.0-3.0-5.0-1.5","5ea340a26c3ed82b0dbd4d9f","E1","batch5","pattern_response","1511.0999999046326","stim/yes_70_ver_b1.png","f","pattern_80","f","true","","","","1511.0999999046326","true","3","","","","","","","","","","","","","","","","",""
"","","","","","html-keyboard-response","157","854932","0.0-3.0-5.0-0.6","5ea340a26c3ed82b0dbd4d9f","E1","batch5","pattern_show_trial_num","null","<p class=block-text>Trial 7 out of 78</p>","null","","","","","","","","","","","","","","","","","","","","","","","","","",""
"","","","","","image-keyboard-response","158","856885","0.0-3.0-5.0-1.6","5ea340a26c3ed82b0dbd4d9f","E1","batch5","pattern_response","1951.5","stim/no_25_1_b.png","j","pattern_09","j","true","","","","1951.5","true","4","","","","","","","","","","","","","","","","",""
"","","","","","html-keyboard-response","159","858191","0.0-3.0-5.0-0.7","5ea340a26c3ed82b0dbd4d9f","E1","batch5","pattern_show_trial_num","null","<p class=block-text>Trial 8 out of 78</p>","null","","","","","","","","","","","","","","","","","","","","","","","","","",""
"","","","","","image-keyboard-response","160","859443","0.0-3.0-5.0-1.7","5ea340a26c3ed82b0dbd4d9f","E1","batch5","pattern_response","1249.5999999046326","stim/yes_33_dia_w1_w.png","f","pattern_56","f","true","","","","1249.5999999046326","true","5","","","","","","","","","","","","","","","","",""
"","","","","","html-keyboard-response","161","860747","0.0-3.0-5.0-0.8","5ea340a26c3ed82b0dbd4d9f","E1","batch5","pattern_show_trial_num","null","<p class=block-text>Trial 9 out of 78</p>","null","","","","","","","","","","","","","","","","","","","","","","","","","",""
"","","","","","image-keyboard-response","162","862065","0.0-3.0-5.0-1.8","5ea340a26c3ed82b0dbd4d9f","E1","batch5","pattern_response","1316.0999999046326","stim/yes_37_hor_w1_w.png","f","pattern_60","f","true","","","","1316.0999999046326","true","6","","","","","","","","","","","","","","","","",""
"","","","","","html-keyboard-response","163","863373","0.0-3.0-5.0-0.9","5ea340a26c3ed82b0dbd4d9f","E1","batch5","pattern_show_trial_num","null","<p class=block-text>Trial 10 out of 78</p>","null","","","","","","","","","","","","","","","","","","","","","","","","","",""
"","","","","","image-keyboard-response","164","866392","0.0-3.0-5.0-1.9","5ea340a26c3ed82b0dbd4d9f","E1","batch5","pattern_response","3017.0999999046326","stim/yes_44_ver_w1_w.png","j","pattern_66","f","false","","","","3017.0999999046326","false","6","","","","","","","","","","","","","","","","",""
"","","","","","html-keyboard-response","165","867701","0.0-3.0-5.0-0.10","5ea340a26c3ed82b0dbd4d9f","E1","batch5","pattern_show_trial_num","null","<p class=block-text>Trial 11 out of 78</p>","null","","","","","","","","","","","","","","","","","","","","","","","","","",""
"","","","","","image-keyboard-response","166","870888","0.0-3.0-5.0-1.10","5ea340a26c3ed82b0dbd4d9f","E1","batch5","pattern_response","3184.9000000953674","stim/no_53_1_b.png","f","pattern_33","j","false","","","","3184.9000000953674","false","6","","","","","","","","","","","","","","","","",""
"","","","","","html-keyboard-response","167","872197","0.0-3.0-5.0-0.11","5ea340a26c3ed82b0dbd4d9f","E1","batch5","pattern_show_trial_num","null","<p class=block-text>Trial 12 out of 78</p>","null","","","","","","","","","","","","","","","","","","","","","","","","","",""
"","","","","","image-keyboard-response","168","873636","0.0-3.0-5.0-1.11","5ea340a26c3ed82b0dbd4d9f","E1","batch5","pattern_response","1437.5","stim/no_18_1_b.png","j","pattern_05","j","true","","","","1437.5","true","7","","","","","","","","","","","","","","","","",""
"","","","","","html-keyboard-response","169","874947","0.0-3.0-5.0-0.12","5ea340a26c3ed82b0dbd4d9f","E1","batch5","pattern_show_trial_num","null","<p class=block-text>Trial 13 out of 78</p>","null","","","","","","","","","","","","","","","","","","","","","","","","","",""
"","","","","","image-keyboard-response","170","875915","0.0-3.0-5.0-1.12","5ea340a26c3ed82b0dbd4d9f","E1","batch5","pattern_response","966.0999999046326","stim/yes_36_ver_w1_w.png","f","pattern_58","f","true","","","","966.0999999046326","true","8","","","","","","","","","","","","","","","","",""
"","","","","","html-keyboard-response","171","877222","0.0-3.0-5.0-0.13","5ea340a26c3ed82b0dbd4d9f","E1","batch5","pattern_show_trial_num","null","<p class=block-text>Trial 14 out of 78</p>","null","","","","","","","","","","","","","","","","","","","","","","","","","",""
"","","","","","image-keyboard-response","172","880513","0.0-3.0-5.0-1.13","5ea340a26c3ed82b0dbd4d9f","E1","batch5","pattern_response","3289.199999809265","stim/yes_51_dia_b1.png","j","pattern_72","f","false","","","","3289.199999809265","false","8","","","","","","","","","","","","","","","","",""
"","","","","","html-keyboard-response","173","881819","0.0-3.0-5.0-0.14","5ea340a26c3ed82b0dbd4d9f","E1","batch5","pattern_show_trial_num","null","<p class=block-text>Trial 15 out of 78</p>","null","","","","","","","","","","","","","","","","","","","","","","","","","",""
"","","","","","image-keyboard-response","174","883520","0.0-3.0-5.0-1.14","5ea340a26c3ed82b0dbd4d9f","E1","batch5","pattern_response","1699.8000001907349","stim/yes_30_ver_b1_b.png","j","pattern_54","f","false","","","","1699.8000001907349","false","8","","","","","","","","","","","","","","","","",""
"","","","","","html-keyboard-response","175","884830","0.0-3.0-5.0-0.15","5ea340a26c3ed82b0dbd4d9f","E1","batch5","pattern_show_trial_num","null","<p class=block-text>Trial 16 out of 78</p>","null","","","","","","","","","","","","","","","","","","","","","","","","","",""
"","","","","","image-keyboard-response","176","886521","0.0-3.0-5.0-1.15","5ea340a26c3ed82b0dbd4d9f","E1","batch5","pattern_response","1688.5999999046326","stim/yes_15_dia_b1u_b.png","f","pattern_44","f","true","","","","1688.5999999046326","true","9","","","","","","","","","","","","","","","","",""
"","","","","","html-keyboard-response","177","887827","0.0-3.0-5.0-0.16","5ea340a26c3ed82b0dbd4d9f","E1","batch5","pattern_show_trial_num","null","<p class=block-text>Trial 17 out of 78</p>","null","","","","","","","","","","","","","","","","","","","","","","","","","",""
"","","","","","image-keyboard-response","178","889136","0.0-3.0-5.0-1.16","5ea340a26c3ed82b0dbd4d9f","E1","batch5","pattern_response","1307.3999996185303","stim/yes_17_ver_b1_b.png","f","pattern_46","f","true","","","","1307.3999996185303","true","10","","","","","","","","","","","","","","","","",""
"","","","","","html-keyboard-response","179","890438","0.0-3.0-5.0-0.17","5ea340a26c3ed82b0dbd4d9f","E1","batch5","pattern_show_trial_num","null","<p class=block-text>Trial 18 out of 78</p>","null","","","","","","","","","","","","","","","","","","","","","","","","","",""
"","","","","","image-keyboard-response","180","891759","0.0-3.0-5.0-1.17","5ea340a26c3ed82b0dbd4d9f","E1","batch5","pattern_response","1318.7999997138977","stim/yes_46_ver_b1_b.png","f","pattern_68","f","true","","","","1318.7999997138977","true","11","","","","","","","","","","","","","","","","",""
"","","","","","html-keyboard-response","181","893066","0.0-3.0-5.0-0.18","5ea340a26c3ed82b0dbd4d9f","E1","batch5","pattern_show_trial_num","null","<p class=block-text>Trial 19 out of 78</p>","null","","","","","","","","","","","","","","","","","","","","","","","","","",""
"","","","","","image-keyboard-response","182","895993","0.0-3.0-5.0-1.18","5ea340a26c3ed82b0dbd4d9f","E1","batch5","pattern_response","2925.699999809265","stim/no_49_2_b.png","j","pattern_29","j","true","","","","2925.699999809265","true","12","","","","","","","","","","","","","","","","",""
"","","","","","html-keyboard-response","183","897300","0.0-3.0-5.0-0.19","5ea340a26c3ed82b0dbd4d9f","E1","batch5","pattern_show_trial_num","null","<p class=block-text>Trial 20 out of 78</p>","null","","","","","","","","","","","","","","","","","","","","","","","","","",""
"","","","","","image-keyboard-response","184","898242","0.0-3.0-5.0-1.19","5ea340a26c3ed82b0dbd4d9f","E1","batch5","pattern_response","940.4000000953674","stim/yes_12_hor_w1_w.png","f","pattern_42","f","true","","","","940.4000000953674","true","13","","","","","","","","","","","","","","","","",""
"","","","","","html-keyboard-response","185","899547","0.0-3.0-5.0-0.20","5ea340a26c3ed82b0dbd4d9f","E1","batch5","pattern_show_trial_num","null","<p class=block-text>Trial 21 out of 78</p>","null","","","","","","","","","","","","","","","","","","","","","","","","","",""
"","","","","","image-keyboard-response","186","902864","0.0-3.0-5.0-1.20","5ea340a26c3ed82b0dbd4d9f","E1","batch5","pattern_response","3316.0999999046326","stim/no_67_1.png","j","pattern_39","j","true","","","","3316.0999999046326","true","14","","","","","","","","","","","","","","","","",""
"","","","","","html-keyboard-response","187","904170","0.0-3.0-5.0-0.21","5ea340a26c3ed82b0dbd4d9f","E1","batch5","pattern_show_trial_num","null","<p class=block-text>Trial 22 out of 78</p>","null","","","","","","","","","","","","","","","","","","","","","","","","","",""
"","","","","","image-keyboard-response","188","905270","0.0-3.0-5.0-1.21","5ea340a26c3ed82b0dbd4d9f","E1","batch5","pattern_response","1098.2000002861023","stim/yes_29_hor_b1_b.png","f","pattern_52","f","true","","","","1098.2000002861023","true","15","","","","","","","","","","","","","","","","",""
"","","","","","html-keyboard-response","189","906578","0.0-3.0-5.0-0.22","5ea340a26c3ed82b0dbd4d9f","E1","batch5","pattern_show_trial_num","null","<p class=block-text>Trial 23 out of 78</p>","null","","","","","","","","","","","","","","","","","","","","","","","","","",""
"","","","","","image-keyboard-response","190","907679","0.0-3.0-5.0-1.22","5ea340a26c3ed82b0dbd4d9f","E1","batch5","pattern_response","1099.3000001907349","stim/no_30_1_b.png","j","pattern_13","j","true","","","","1099.3000001907349","true","16","","","","","","","","","","","","","","","","",""
"","","","","","html-keyboard-response","191","908983","0.0-3.0-5.0-0.23","5ea340a26c3ed82b0dbd4d9f","E1","batch5","pattern_show_trial_num","null","<p class=block-text>Trial 24 out of 78</p>","null","","","","","","","","","","","","","","","","","","","","","","","","","",""
"","","","","","image-keyboard-response","192","912407","0.0-3.0-5.0-1.23","5ea340a26c3ed82b0dbd4d9f","E1","batch5","pattern_response","3422.7000002861023","stim/yes_63_dia_b1.png","f","pattern_78","f","true","","","","3422.7000002861023","true","17","","","","","","","","","","","","","","","","",""
"","","","","","html-keyboard-response","193","913718","0.0-3.0-5.0-0.24","5ea340a26c3ed82b0dbd4d9f","E1","batch5","pattern_show_trial_num","null","<p class=block-text>Trial 25 out of 78</p>","null","","","","","","","","","","","","","","","","","","","","","","","","","",""
"","","","","","image-keyboard-response","194","916475","0.0-3.0-5.0-1.24","5ea340a26c3ed82b0dbd4d9f","E1","batch5","pattern_response","2755.2999997138977","stim/yes_42_dia_w1_w.png","f","pattern_64","f","true","","","","2755.2999997138977","true","18","","","","","","","","","","","","","","","","",""
"","","","","","html-keyboard-response","195","917783","0.0-3.0-5.0-0.25","5ea340a26c3ed82b0dbd4d9f","E1","batch5","pattern_show_trial_num","null","<p class=block-text>Trial 26 out of 78</p>","null","","","","","","","","","","","","","","","","","","","","","","","","","",""
"","","","","","image-keyboard-response","196","919224","0.0-3.0-5.0-1.25","5ea340a26c3ed82b0dbd4d9f","E1","batch5","pattern_response","1438.4000000953674","stim/yes_23_ver_b1.png","f","pattern_48","f","true","","","","1438.4000000953674","true","19","","","","","","","","","","","","","","","","",""
"","","","","","html-keyboard-response","197","920531","0.0-3.0-5.0-0.26","5ea340a26c3ed82b0dbd4d9f","E1","batch5","pattern_show_trial_num","null","<p class=block-text>Trial 27 out of 78</p>","null","","","","","","","","","","","","","","","","","","","","","","","","","",""
"","","","","","image-keyboard-response","198","922026","0.0-3.0-5.0-1.26","5ea340a26c3ed82b0dbd4d9f","E1","batch5","pattern_response","1494","stim/yes_49_hor_w1_b.png","f","pattern_70","f","true","","","","1494","true","20","","","","","","","","","","","","","","","","",""
"","","","","","html-keyboard-response","199","923332","0.0-3.0-5.0-0.27","5ea340a26c3ed82b0dbd4d9f","E1","batch5","pattern_show_trial_num","null","<p class=block-text>Trial 28 out of 78</p>","null","","","","","","","","","","","","","","","","","","","","","","","","","",""
"","","","","","image-keyboard-response","200","925213","0.0-3.0-5.0-1.27","5ea340a26c3ed82b0dbd4d9f","E1","batch5","pattern_response","1880.1999998092651","stim/no_22_1_b.png","j","pattern_07","j","true","","","","1880.1999998092651","true","21","","","","","","","","","","","","","","","","",""
"","","","","","html-keyboard-response","201","926524","0.0-3.0-5.0-0.28","5ea340a26c3ed82b0dbd4d9f","E1","batch5","pattern_show_trial_num","null","<p class=block-text>Trial 29 out of 78</p>","null","","","","","","","","","","","","","","","","","","","","","","","","","",""
"","","","","","image-keyboard-response","202","928471","0.0-3.0-5.0-1.28","5ea340a26c3ed82b0dbd4d9f","E1","batch5","pattern_response","1945.4000000953674","stim/no_15_1_w.png","j","pattern_03","j","true","","","","1945.4000000953674","true","22","","","","","","","","","","","","","","","","",""
"","","","","","html-keyboard-response","203","929779","0.0-3.0-5.0-0.29","5ea340a26c3ed82b0dbd4d9f","E1","batch5","pattern_show_trial_num","null","<p class=block-text>Trial 30 out of 78</p>","null","","","","","","","","","","","","","","","","","","","","","","","","","",""
"","","","","","image-keyboard-response","204","930566","0.0-3.0-5.0-1.29","5ea340a26c3ed82b0dbd4d9f","E1","batch5","pattern_response","786.5","stim/yes_39_hor_w1_w.png","f","pattern_62","f","true","","","","786.5","true","23","","","","","","","","","","","","","","","","",""
"","","","","","html-keyboard-response","205","931877","0.0-3.0-5.0-0.30","5ea340a26c3ed82b0dbd4d9f","E1","batch5","pattern_show_trial_num","null","<p class=block-text>Trial 31 out of 78</p>","null","","","","","","","","","","","","","","","","","","","","","","","","","",""
"","","","","","image-keyboard-response","206","933469","0.0-3.0-5.0-1.30","5ea340a26c3ed82b0dbd4d9f","E1","batch5","pattern_response","1590.1999998092651","stim/no_28_2.png","j","pattern_11","j","true","","","","1590.1999998092651","true","24","","","","","","","","","","","","","","","","",""
"","","","","","html-keyboard-response","207","934774","0.0-3.0-5.0-0.31","5ea340a26c3ed82b0dbd4d9f","E1","batch5","pattern_show_trial_num","null","<p class=block-text>Trial 32 out of 78</p>","null","","","","","","","","","","","","","","","","","","","","","","","","","",""
"","","","","","image-keyboard-response","208","937443","0.0-3.0-5.0-1.31","5ea340a26c3ed82b0dbd4d9f","E1","batch5","pattern_response","2667.2999997138977","stim/no_37_2_w.png","j","pattern_19","j","true","","","","2667.2999997138977","true","25","","","","","","","","","","","","","","","","",""
"","","","","","html-keyboard-response","209","938753","0.0-3.0-5.0-0.32","5ea340a26c3ed82b0dbd4d9f","E1","batch5","pattern_show_trial_num","null","<p class=block-text>Trial 33 out of 78</p>","null","","","","","","","","","","","","","","","","","","","","","","","","","",""
"","","","","","image-keyboard-response","210","940965","0.0-3.0-5.0-1.32","5ea340a26c3ed82b0dbd4d9f","E1","batch5","pattern_response","2209.2000002861023","stim/no_36_1_b.png","j","pattern_17","j","true","","","","2209.2000002861023","true","26","","","","","","","","","","","","","","","","",""
"","","","","","html-keyboard-response","211","942274","0.0-3.0-5.0-0.33","5ea340a26c3ed82b0dbd4d9f","E1","batch5","pattern_show_trial_num","null","<p class=block-text>Trial 34 out of 78</p>","null","","","","","","","","","","","","","","","","","","","","","","","","","",""
"","","","","","image-keyboard-response","212","943330","0.0-3.0-5.0-1.33","5ea340a26c3ed82b0dbd4d9f","E1","batch5","pattern_response","1054.8999996185303","stim/no_12_1.png","j","pattern_01","j","true","","","","1054.8999996185303","true","27","","","","","","","","","","","","","","","","",""
"","","","","","html-keyboard-response","213","944639","0.0-3.0-5.0-0.34","5ea340a26c3ed82b0dbd4d9f","E1","batch5","pattern_show_trial_num","null","<p class=block-text>Trial 35 out of 78</p>","null","","","","","","","","","","","","","","","","","","","","","","","","","",""
"","","","","","image-keyboard-response","214","947678","0.0-3.0-5.0-1.34","5ea340a26c3ed82b0dbd4d9f","E1","batch5","pattern_response","3036.9000000953674","stim/no_45_1_w.png","j","pattern_25","j","true","","","","3036.9000000953674","true","28","","","","","","","","","","","","","","","","",""
"","","","","","html-keyboard-response","215","948984","0.0-3.0-5.0-0.35","5ea340a26c3ed82b0dbd4d9f","E1","batch5","pattern_show_trial_num","null","<p class=block-text>Trial 36 out of 78</p>","null","","","","","","","","","","","","","","","","","","","","","","","","","",""
"","","","","","image-keyboard-response","216","951694","0.0-3.0-5.0-1.35","5ea340a26c3ed82b0dbd4d9f","E1","batch5","pattern_response","2707.9000000953674","stim/no_43_2_b.png","j","pattern_23","j","true","","","","2707.9000000953674","true","29","","","","","","","","","","","","","","","","",""
"","","","","","html-keyboard-response","217","953004","0.0-3.0-5.0-0.36","5ea340a26c3ed82b0dbd4d9f","E1","batch5","pattern_show_trial_num","null","<p class=block-text>Trial 37 out of 78</p>","null","","","","","","","","","","","","","","","","","","","","","","","","","",""
"","","","","","image-keyboard-response","218","956950","0.0-3.0-5.0-1.36","5ea340a26c3ed82b0dbd4d9f","E1","batch5","pattern_response","3944","stim/yes_53_ver_b1_b.png","j","pattern_74","f","false","","","","3944","false","29","","","","","","","","","","","","","","","","",""
"","","","","","html-keyboard-response","219","958259","0.0-3.0-5.0-0.37","5ea340a26c3ed82b0dbd4d9f","E1","batch5","pattern_show_trial_num","null","<p class=block-text>Trial 38 out of 78</p>","null","","","","","","","","","","","","","","","","","","","","","","","","","",""
"","","","","","image-keyboard-response","220","963053","0.0-3.0-5.0-1.37","5ea340a26c3ed82b0dbd4d9f","E1","batch5","pattern_response","4791.799999713898","stim/no_39_1_w.png","j","pattern_21","j","true","","","","4791.799999713898","true","30","","","","","","","","","","","","","","","","",""
"","","","","","html-keyboard-response","221","964362","0.0-3.0-5.0-0.38","5ea340a26c3ed82b0dbd4d9f","E1","batch5","pattern_show_trial_num","null","<p class=block-text>Trial 39 out of 78</p>","null","","","","","","","","","","","","","","","","","","","","","","","","","",""
"","","","","","image-keyboard-response","222","968232","0.0-3.0-5.0-1.38","5ea340a26c3ed82b0dbd4d9f","E1","batch5","pattern_response","3868","stim/no_51_1.png","j","pattern_31","j","true","","","","3868","true","31","","","","","","","","","","","","","","","","",""
"","","","","","image-keyboard-response","223","970754","0.0-3.0-6.0","5ea340a26c3ed82b0dbd4d9f","E1","batch5","attention_check","2019.2000002861023","stim/empty_board.png","j","","j","true","","","","","","","500","[""f"",""j""]","","","","","","","","","","","","","","",""
"","","","","","html-keyboard-response","224","971558","0.0-3.0-7.0-0.0","5ea340a26c3ed82b0dbd4d9f","E1","batch5","pattern_show_trial_num","null","<p class=block-text>Trial 40 out of 78</p>","null","","","","","","","","","","","","","","","","","","","","","","","","","",""
"","","","","","image-keyboard-response","225","974253","0.0-3.0-7.0-1.0","5ea340a26c3ed82b0dbd4d9f","E1","batch5","pattern_response","2692.8999996185303","stim/yes_43_ver_w1_w.png","f","pattern_65","f","true","","","","2692.8999996185303","true","32","","","","","","","","","","","","","","","","",""
"","","","","","html-keyboard-response","226","975564","0.0-3.0-7.0-0.1","5ea340a26c3ed82b0dbd4d9f","E1","batch5","pattern_show_trial_num","null","<p class=block-text>Trial 41 out of 78</p>","null","","","","","","","","","","","","","","","","","","","","","","","","","",""
"","","","","","image-keyboard-response","227","977538","0.0-3.0-7.0-1.1","5ea340a26c3ed82b0dbd4d9f","E1","batch5","pattern_response","1972.0999999046326","stim/no_55_1_w.png","j","pattern_34","j","true","","","","1972.0999999046326","true","33","","","","","","","","","","","","","","","","",""
"","","","","","html-keyboard-response","228","978849","0.0-3.0-7.0-0.2","5ea340a26c3ed82b0dbd4d9f","E1","batch5","pattern_show_trial_num","null","<p class=block-text>Trial 42 out of 78</p>","null","","","","","","","","","","","","","","","","","","","","","","","","","",""
"","","","","","image-keyboard-response","229","979789","0.0-3.0-7.0-1.2","5ea340a26c3ed82b0dbd4d9f","E1","batch5","pattern_response","939.0999999046326","stim/no_23_1.png","j","pattern_08","j","true","","","","939.0999999046326","true","34","","","","","","","","","","","","","","","","",""
"","","","","","html-keyboard-response","230","981098","0.0-3.0-7.0-0.3","5ea340a26c3ed82b0dbd4d9f","E1","batch5","pattern_show_trial_num","null","<p class=block-text>Trial 43 out of 78</p>","null","","","","","","","","","","","","","","","","","","","","","","","","","",""
"","","","","","image-keyboard-response","231","982416","0.0-3.0-7.0-1.3","5ea340a26c3ed82b0dbd4d9f","E1","batch5","pattern_response","1316.5","stim/yes_28_ver_b1.png","f","pattern_51","f","true","","","","1316.5","true","35","","","","","","","","","","","","","","","","",""
"","","","","","html-keyboard-response","232","983721","0.0-3.0-7.0-0.4","5ea340a26c3ed82b0dbd4d9f","E1","batch5","pattern_show_trial_num","null","<p class=block-text>Trial 44 out of 78</p>","null","","","","","","","","","","","","","","","","","","","","","","","","","",""
"","","","","","image-keyboard-response","233","985094","0.0-3.0-7.0-1.4","5ea340a26c3ed82b0dbd4d9f","E1","batch5","pattern_response","1371.8000001907349","stim/yes_55_hor_w1_w.png","f","pattern_75","f","true","","","","1371.8000001907349","true","36","","","","","","","","","","","","","","","","",""
"","","","","","html-keyboard-response","234","986399","0.0-3.0-7.0-0.5","5ea340a26c3ed82b0dbd4d9f","E1","batch5","pattern_show_trial_num","null","<p class=block-text>Trial 45 out of 78</p>","null","","","","","","","","","","","","","","","","","","","","","","","","","",""
"","","","","","image-keyboard-response","235","989521","0.0-3.0-7.0-1.5","5ea340a26c3ed82b0dbd4d9f","E1","batch5","pattern_response","3120.199999809265","stim/yes_60_ver_b1_b.png","f","pattern_77","f","true","","","","3120.199999809265","true","37","","","","","","","","","","","","","","","","",""
"","","","","","html-keyboard-response","236","990829","0.0-3.0-7.0-0.6","5ea340a26c3ed82b0dbd4d9f","E1","batch5","pattern_show_trial_num","null","<p class=block-text>Trial 46 out of 78</p>","null","","","","","","","","","","","","","","","","","","","","","","","","","",""
"","","","","","image-keyboard-response","237","993093","0.0-3.0-7.0-1.6","5ea340a26c3ed82b0dbd4d9f","E1","batch5","pattern_response","2261.300000190735","stim/no_44_1.png","j","pattern_24","j","true","","","","2261.300000190735","true","38","","","","","","","","","","","","","","","","",""
"","","","","","html-keyboard-response","238","994397","0.0-3.0-7.0-0.7","5ea340a26c3ed82b0dbd4d9f","E1","batch5","pattern_show_trial_num","null","<p class=block-text>Trial 47 out of 78</p>","null","","","","","","","","","","","","","","","","","","","","","","","","","",""
"","","","","","image-keyboard-response","239","995654","0.0-3.0-7.0-1.7","5ea340a26c3ed82b0dbd4d9f","E1","batch5","pattern_response","1255.7000002861023","stim/no_42_1_w.png","j","pattern_22","j","true","","","","1255.7000002861023","true","39","","","","","","","","","","","","","","","","",""
"","","","","","html-keyboard-response","240","996963","0.0-3.0-7.0-0.8","5ea340a26c3ed82b0dbd4d9f","E1","batch5","pattern_show_trial_num","null","<p class=block-text>Trial 48 out of 78</p>","null","","","","","","","","","","","","","","","","","","","","","","","","","",""
"","","","","","image-keyboard-response","241","1000704","0.0-3.0-7.0-1.8","5ea340a26c3ed82b0dbd4d9f","E1","batch5","pattern_response","3739","stim/no_46_1_b.png","j","pattern_26","j","true","","","","3739","true","40","","","","","","","","","","","","","","","","",""
"","","","","","html-keyboard-response","242","1002007","0.0-3.0-7.0-0.9","5ea340a26c3ed82b0dbd4d9f","E1","batch5","pattern_show_trial_num","null","<p class=block-text>Trial 49 out of 78</p>","null","","","","","","","","","","","","","","","","","","","","","","","","","",""
"","","","","","image-keyboard-response","243","1003922","0.0-3.0-7.0-1.9","5ea340a26c3ed82b0dbd4d9f","E1","batch5","pattern_response","1912.5999999046326","stim/yes_67_hor_b1.png","f","pattern_79","f","true","","","","1912.5999999046326","true","41","","","","","","","","","","","","","","","","",""
"","","","","","html-keyboard-response","244","1005229","0.0-3.0-7.0-0.10","5ea340a26c3ed82b0dbd4d9f","E1","batch5","pattern_show_trial_num","null","<p class=block-text>Trial 50 out of 78</p>","null","","","","","","","","","","","","","","","","","","","","","","","","","",""
"","","","","","image-keyboard-response","245","1006247","0.0-3.0-7.0-1.10","5ea340a26c3ed82b0dbd4d9f","E1","batch5","pattern_response","1016.2999997138977","stim/yes_14_hor_b1_w.png","f","pattern_43","f","true","","","","1016.2999997138977","true","42","","","","","","","","","","","","","","","","",""
"","","","","","html-keyboard-response","246","1007551","0.0-3.0-7.0-0.11","5ea340a26c3ed82b0dbd4d9f","E1","batch5","pattern_show_trial_num","null","<p class=block-text>Trial 51 out of 78</p>","null","","","","","","","","","","","","","","","","","","","","","","","","","",""
"","","","","","image-keyboard-response","247","1008478","0.0-3.0-7.0-1.11","5ea340a26c3ed82b0dbd4d9f","E1","batch5","pattern_response","924.7999997138977","stim/no_20_1_w.png","j","pattern_06","j","true","","","","924.7999997138977","true","43","","","","","","","","","","","","","","","","",""
"","","","","","html-keyboard-response","248","1009784","0.0-3.0-7.0-0.12","5ea340a26c3ed82b0dbd4d9f","E1","batch5","pattern_show_trial_num","null","<p class=block-text>Trial 52 out of 78</p>","null","","","","","","","","","","","","","","","","","","","","","","","","","",""
"","","","","","image-keyboard-response","249","1013954","0.0-3.0-7.0-1.12","5ea340a26c3ed82b0dbd4d9f","E1","batch5","pattern_response","4167.599999904633","stim/no_70_2.png","j","pattern_40","j","true","","","","4167.599999904633","true","44","","","","","","","","","","","","","","","","",""
"","","","","","html-keyboard-response","250","1015264","0.0-3.0-7.0-0.13","5ea340a26c3ed82b0dbd4d9f","E1","batch5","pattern_show_trial_num","null","<p class=block-text>Trial 53 out of 78</p>","null","","","","","","","","","","","","","","","","","","","","","","","","","",""
"","","","","","image-keyboard-response","251","1018220","0.0-3.0-7.0-1.13","5ea340a26c3ed82b0dbd4d9f","E1","batch5","pattern_response","2953.7000002861023","stim/no_65_1_b.png","j","pattern_38","j","true","","","","2953.7000002861023","true","45","","","","","","","","","","","","","","","","",""
"","","","","","html-keyboard-response","252","1019524","0.0-3.0-7.0-0.14","5ea340a26c3ed82b0dbd4d9f","E1","batch5","pattern_show_trial_num","null","<p class=block-text>Trial 54 out of 78</p>","null","","","","","","","","","","","","","","","","","","","","","","","","","",""
"","","","","","image-keyboard-response","253","1021874","0.0-3.0-7.0-1.14","5ea340a26c3ed82b0dbd4d9f","E1","batch5","pattern_response","2347.800000190735","stim/no_36_2_w.png","j","pattern_18","j","true","","","","2347.800000190735","true","46","","","","","","","","","","","","","","","","",""
"","","","","","html-keyboard-response","254","1023185","0.0-3.0-7.0-0.15","5ea340a26c3ed82b0dbd4d9f","E1","batch5","pattern_show_trial_num","null","<p class=block-text>Trial 55 out of 78</p>","null","","","","","","","","","","","","","","","","","","","","","","","","","",""
"","","","","","image-keyboard-response","255","1026001","0.0-3.0-7.0-1.15","5ea340a26c3ed82b0dbd4d9f","E1","batch5","pattern_response","2814.7000002861023","stim/no_50_1.png","j","pattern_30","j","true","","","","2814.7000002861023","true","47","","","","","","","","","","","","","","","","",""
"","","","","","html-keyboard-response","256","1027303","0.0-3.0-7.0-0.16","5ea340a26c3ed82b0dbd4d9f","E1","batch5","pattern_show_trial_num","null","<p class=block-text>Trial 56 out of 78</p>","null","","","","","","","","","","","","","","","","","","","","","","","","","",""
"","","","","","image-keyboard-response","257","1029042","0.0-3.0-7.0-1.16","5ea340a26c3ed82b0dbd4d9f","E1","batch5","pattern_response","1737","stim/yes_17_dia_w1.png","f","pattern_45","f","true","","","","1737","true","48","","","","","","","","","","","","","","","","",""
"","","","","","html-keyboard-response","258","1030346","0.0-3.0-7.0-0.17","5ea340a26c3ed82b0dbd4d9f","E1","batch5","pattern_show_trial_num","null","<p class=block-text>Trial 57 out of 78</p>","null","","","","","","","","","","","","","","","","","","","","","","","","","",""
"","","","","","image-keyboard-response","259","1033401","0.0-3.0-7.0-1.17","5ea340a26c3ed82b0dbd4d9f","E1","batch5","pattern_response","3053.300000190735","stim/no_38_1_b.png","j","pattern_20","j","true","","","","3053.300000190735","true","49","","","","","","","","","","","","","","","","",""
"","","","","","html-keyboard-response","260","1034704","0.0-3.0-7.0-0.18","5ea340a26c3ed82b0dbd4d9f","E1","batch5","pattern_show_trial_num","null","<p class=block-text>Trial 58 out of 78</p>","null","","","","","","","","","","","","","","","","","","","","","","","","","",""
"","","","","","image-keyboard-response","261","1036427","0.0-3.0-7.0-1.18","5ea340a26c3ed82b0dbd4d9f","E1","batch5","pattern_response","1721.4000000953674","stim/no_26_1_w.png","j","pattern_10","j","true","","","","1721.4000000953674","true","50","","","","","","","","","","","","","","","","",""
"","","","","","html-keyboard-response","262","1037736","0.0-3.0-7.0-0.19","5ea340a26c3ed82b0dbd4d9f","E1","batch5","pattern_show_trial_num","null","<p class=block-text>Trial 59 out of 78</p>","null","","","","","","","","","","","","","","","","","","","","","","","","","",""
"","","","","","image-keyboard-response","263","1041709","0.0-3.0-7.0-1.19","5ea340a26c3ed82b0dbd4d9f","E1","batch5","pattern_response","3971.5","stim/no_62_1_w.png","j","pattern_36","j","true","","","","3971.5","true","51","","","","","","","","","","","","","","","","",""
"","","","","","html-keyboard-response","264","1043015","0.0-3.0-7.0-0.20","5ea340a26c3ed82b0dbd4d9f","E1","batch5","pattern_show_trial_num","null","<p class=block-text>Trial 60 out of 78</p>","null","","","","","","","","","","","","","","","","","","","","","","","","","",""
"","","","","","image-keyboard-response","265","1047683","0.0-3.0-7.0-1.20","5ea340a26c3ed82b0dbd4d9f","E1","batch5","pattern_response","4665.699999809265","stim/no_52_1.png","j","pattern_32","j","true","","","","4665.699999809265","true","52","","","","","","","","","","","","","","","","",""
"","","","","","html-keyboard-response","266","1048987","0.0-3.0-7.0-0.21","5ea340a26c3ed82b0dbd4d9f","E1","batch5","pattern_show_trial_num","null","<p class=block-text>Trial 61 out of 78</p>","null","","","","","","","","","","","","","","","","","","","","","","","","","",""
"","","","","","image-keyboard-response","267","1051385","0.0-3.0-7.0-1.21","5ea340a26c3ed82b0dbd4d9f","E1","batch5","pattern_response","2396.300000190735","stim/yes_22_ver_w1.png","f","pattern_47","f","true","","","","2396.300000190735","true","53","","","","","","","","","","","","","","","","",""
"","","","","","html-keyboard-response","268","1052692","0.0-3.0-7.0-0.22","5ea340a26c3ed82b0dbd4d9f","E1","batch5","pattern_show_trial_num","null","<p class=block-text>Trial 62 out of 78</p>","null","","","","","","","","","","","","","","","","","","","","","","","","","",""
"","","","","","image-keyboard-response","269","1055133","0.0-3.0-7.0-1.22","5ea340a26c3ed82b0dbd4d9f","E1","batch5","pattern_response","2438.9000000953674","stim/no_13_2_b.png","j","pattern_02","j","true","","","","2438.9000000953674","true","54","","","","","","","","","","","","","","","","",""
"","","","","","html-keyboard-response","270","1056444","0.0-3.0-7.0-0.23","5ea340a26c3ed82b0dbd4d9f","E1","batch5","pattern_show_trial_num","null","<p class=block-text>Trial 63 out of 78</p>","null","","","","","","","","","","","","","","","","","","","","","","","","","",""
"","","","","","image-keyboard-response","271","1059060","0.0-3.0-7.0-1.23","5ea340a26c3ed82b0dbd4d9f","E1","batch5","pattern_response","2614.3999996185303","stim/no_48_1_w.png","j","pattern_28","j","true","","","","2614.3999996185303","true","55","","","","","","","","","","","","","","","","",""
"","","","","","html-keyboard-response","272","1060371","0.0-3.0-7.0-0.24","5ea340a26c3ed82b0dbd4d9f","E1","batch5","pattern_show_trial_num","null","<p class=block-text>Trial 64 out of 78</p>","null","","","","","","","","","","","","","","","","","","","","","","","","","",""
"","","","","","image-keyboard-response","273","1063869","0.0-3.0-7.0-1.24","5ea340a26c3ed82b0dbd4d9f","E1","batch5","pattern_response","3496","stim/yes_37_dia_w1.png","j","pattern_59","f","false","","","","3496","false","55","","","","","","","","","","","","","","","","",""
"","","","","","html-keyboard-response","274","1065177","0.0-3.0-7.0-0.25","5ea340a26c3ed82b0dbd4d9f","E1","batch5","pattern_show_trial_num","null","<p class=block-text>Trial 65 out of 78</p>","null","","","","","","","","","","","","","","","","","","","","","","","","","",""
"","","","","","image-keyboard-response","275","1066121","0.0-3.0-7.0-1.25","5ea340a26c3ed82b0dbd4d9f","E1","batch5","pattern_response","942.6999998092651","stim/yes_45_hor_b2_b.png","f","pattern_67","f","true","","","","942.6999998092651","true","56","","","","","","","","","","","","","","","","",""
"","","","","","html-keyboard-response","276","1067430","0.0-3.0-7.0-0.26","5ea340a26c3ed82b0dbd4d9f","E1","batch5","pattern_show_trial_num","null","<p class=block-text>Trial 66 out of 78</p>","null","","","","","","","","","","","","","","","","","","","","","","","","","",""
"","","","","","image-keyboard-response","277","1068456","0.0-3.0-7.0-1.26","5ea340a26c3ed82b0dbd4d9f","E1","batch5","pattern_response","1024.8000001907349","stim/yes_29_ver_w1.png","f","pattern_53","f","true","","","","1024.8000001907349","true","57","","","","","","","","","","","","","","","","",""
"","","","","","html-keyboard-response","278","1069767","0.0-3.0-7.0-0.27","5ea340a26c3ed82b0dbd4d9f","E1","batch5","pattern_show_trial_num","null","<p class=block-text>Trial 67 out of 78</p>","null","","","","","","","","","","","","","","","","","","","","","","","","","",""
"","","","","","image-keyboard-response","279","1071958","0.0-3.0-7.0-1.27","5ea340a26c3ed82b0dbd4d9f","E1","batch5","pattern_response","2189.699999809265","stim/no_17_1_w.png","j","pattern_04","j","true","","","","2189.699999809265","true","58","","","","","","","","","","","","","","","","",""
"","","","","","html-keyboard-response","280","1073268","0.0-3.0-7.0-0.28","5ea340a26c3ed82b0dbd4d9f","E1","batch5","pattern_show_trial_num","null","<p class=block-text>Trial 68 out of 78</p>","null","","","","","","","","","","","","","","","","","","","","","","","","","",""
"","","","","","image-keyboard-response","281","1074653","0.0-3.0-7.0-1.28","5ea340a26c3ed82b0dbd4d9f","E1","batch5","pattern_response","1383.1999998092651","stim/yes_52_ver_w1.png","f","pattern_73","f","true","","","","1383.1999998092651","true","59","","","","","","","","","","","","","","","","",""
"","","","","","html-keyboard-response","282","1075960","0.0-3.0-7.0-0.29","5ea340a26c3ed82b0dbd4d9f","E1","batch5","pattern_show_trial_num","null","<p class=block-text>Trial 69 out of 78</p>","null","","","","","","","","","","","","","","","","","","","","","","","","","",""
"","","","","","image-keyboard-response","283","1078019","0.0-3.0-7.0-1.29","5ea340a26c3ed82b0dbd4d9f","E1","batch5","pattern_response","2057.199999809265","stim/yes_35_dia_b1.png","f","pattern_57","f","true","","","","2057.199999809265","true","60","","","","","","","","","","","","","","","","",""
"","","","","","html-keyboard-response","284","1079330","0.0-3.0-7.0-0.30","5ea340a26c3ed82b0dbd4d9f","E1","batch5","pattern_show_trial_num","null","<p class=block-text>Trial 70 out of 78</p>","null","","","","","","","","","","","","","","","","","","","","","","","","","",""
"","","","","","image-keyboard-response","285","1083598","0.0-3.0-7.0-1.30","5ea340a26c3ed82b0dbd4d9f","E1","batch5","pattern_response","4266.099999904633","stim/yes_48_dia_w1_w.png","j","pattern_69","f","false","","","","4266.099999904633","false","60","","","","","","","","","","","","","","","","",""
"","","","","","html-keyboard-response","286","1084908","0.0-3.0-7.0-0.31","5ea340a26c3ed82b0dbd4d9f","E1","batch5","pattern_show_trial_num","null","<p class=block-text>Trial 71 out of 78</p>","null","","","","","","","","","","","","","","","","","","","","","","","","","",""
"","","","","","image-keyboard-response","287","1088369","0.0-3.0-7.0-1.31","5ea340a26c3ed82b0dbd4d9f","E1","batch5","pattern_response","3459.5999999046326","stim/no_29_1_b.png","j","pattern_12","j","true","","","","3459.5999999046326","true","61","","","","","","","","","","","","","","","","",""
"","","","","","html-keyboard-response","288","1089677","0.0-3.0-7.0-0.32","5ea340a26c3ed82b0dbd4d9f","E1","batch5","pattern_show_trial_num","null","<p class=block-text>Trial 72 out of 78</p>","null","","","","","","","","","","","","","","","","","","","","","","","","","",""
"","","","","","image-keyboard-response","289","1091466","0.0-3.0-7.0-1.32","5ea340a26c3ed82b0dbd4d9f","E1","batch5","pattern_response","1787.4000000953674","stim/no_32_1_w.png","j","pattern_14","j","true","","","","1787.4000000953674","true","62","","","","","","","","","","","","","","","","",""
"","","","","","html-keyboard-response","290","1092777","0.0-3.0-7.0-0.33","5ea340a26c3ed82b0dbd4d9f","E1","batch5","pattern_show_trial_num","null","<p class=block-text>Trial 73 out of 78</p>","null","","","","","","","","","","","","","","","","","","","","","","","","","",""
"","","","","","image-keyboard-response","291","1094084","0.0-3.0-7.0-1.33","5ea340a26c3ed82b0dbd4d9f","E1","batch5","pattern_response","1305.5","stim/yes_25_hor_b1_b.png","f","pattern_49","f","true","","","","1305.5","true","63","","","","","","","","","","","","","","","","",""
"","","","","","html-keyboard-response","292","1095392","0.0-3.0-7.0-0.34","5ea340a26c3ed82b0dbd4d9f","E1","batch5","pattern_show_trial_num","null","<p class=block-text>Trial 74 out of 78</p>","null","","","","","","","","","","","","","","","","","","","","","","","","","",""
"","","","","","image-keyboard-response","293","1097485","0.0-3.0-7.0-1.34","5ea340a26c3ed82b0dbd4d9f","E1","batch5","pattern_response","2091.5","stim/no_34_1_b.png","j","pattern_16","j","true","","","","2091.5","true","64","","","","","","","","","","","","","","","","",""
"","","","","","html-keyboard-response","294","1098786","0.0-3.0-7.0-0.35","5ea340a26c3ed82b0dbd4d9f","E1","batch5","pattern_show_trial_num","null","<p class=block-text>Trial 75 out of 78</p>","null","","","","","","","","","","","","","","","","","","","","","","","","","",""
"","","","","","image-keyboard-response","295","1100723","0.0-3.0-7.0-1.35","5ea340a26c3ed82b0dbd4d9f","E1","batch5","pattern_response","1936.2000002861023","stim/yes_31_hor_b1.png","j","pattern_55","f","false","","","","1936.2000002861023","false","64","","","","","","","","","","","","","","","","",""
"","","","","","html-keyboard-response","296","1102028","0.0-3.0-7.0-0.36","5ea340a26c3ed82b0dbd4d9f","E1","batch5","pattern_show_trial_num","null","<p class=block-text>Trial 76 out of 78</p>","null","","","","","","","","","","","","","","","","","","","","","","","","","",""
"","","","","","image-keyboard-response","297","1104215","0.0-3.0-7.0-1.36","5ea340a26c3ed82b0dbd4d9f","E1","batch5","pattern_response","2184.7000002861023","stim/yes_50_dia_w1.png","j","pattern_71","f","false","","","","2184.7000002861023","false","64","","","","","","","","","","","","","","","","",""
"","","","","","html-keyboard-response","298","1105517","0.0-3.0-7.0-0.37","5ea340a26c3ed82b0dbd4d9f","E1","batch5","pattern_show_trial_num","null","<p class=block-text>Trial 77 out of 78</p>","null","","","","","","","","","","","","","","","","","","","","","","","","","",""
"","","","","","image-keyboard-response","299","1106264","0.0-3.0-7.0-1.37","5ea340a26c3ed82b0dbd4d9f","E1","batch5","pattern_response","745.4000000953674","stim/yes_38_hor_b1_b.png","f","pattern_61","f","true","","","","745.4000000953674","true","65","","","","","","","","","","","","","","","","",""
"","","","","","html-keyboard-response","300","1107571","0.0-3.0-7.0-0.38","5ea340a26c3ed82b0dbd4d9f","E1","batch5","pattern_show_trial_num","null","<p class=block-text>Trial 78 out of 78</p>","null","","","","","","","","","","","","","","","","","","","","","","","","","",""
"","","","","","image-keyboard-response","301","1109136","0.0-3.0-7.0-1.38","5ea340a26c3ed82b0dbd4d9f","E1","batch5","pattern_response","1564.5","stim/yes_40_dia_b1_b.png","j","pattern_63","f","false","","","","1564.5","false","65","","","","","","","","","","","","","","","","",""
"","","","","","html-button-response","302","1113098","0.0-3.0-8.0","5ea340a26c3ed82b0dbd4d9f","E1","batch5","","3460","<p class = block-text>This concludes the 4-in-a-row detection game.Thank you for your responses!<br>
            You responded correctly on 83% of the trials.<br>
            When you are ready, press ""Continue"" button to continue </p>","0","","","","","","","","","","","","","","","","","","","","","","","","","",""
"true","","","","","fullscreen","303","1115580","0.0-4.0-0.0","5ea340a26c3ed82b0dbd4d9f","E1","batch5","","","","","","","","","","","","","","","","","","","","","","","","","","","","","",""
"","","","","","instructions","304","1171605","0.0-4.0-1.0-0.0-0.0","5ea340a26c3ed82b0dbd4d9f","E1","batch5","tol-instructions","56022.40000009537","","","","","","","","[{""page_index"":0,""viewing_time"":9042.199999809265},{""page_index"":1,""viewing_time"":6455.300000190735},{""page_index"":2,""viewing_time"":8859.400000095367},{""page_index"":3,""viewing_time"":12373.599999904633},{""page_index"":4,""viewing_time"":8787},{""page_index"":5,""viewing_time"":7375},{""page_index"":6,""viewing_time"":3129.5999999046326}]","","","","","","","","","","","","","","","","","","","",""
"","","","","","html-button-response","305","1172549","0.0-4.0-1.0-1.0-0.0","5ea340a26c3ed82b0dbd4d9f","E1","batch5","tol_enter_quiz","943","<p class=block-text> Let's answer a few questions <br>","0","","","","","","","","","","","","","","","","","","","","","","","","","",""
"","","","","","html-button-response","306","1178259","0.0-4.0-1.0-1.0-1.0","5ea340a26c3ed82b0dbd4d9f","E1","batch5","tol_quiz","5706","<p class = block-text>True or False: You can only move the ball on top of a peg. <br></p>","1","","","false","","","","","","","","","","","","","","","","","","","","","","",""
"","","","","","html-button-response","307","1181872","0.0-4.0-1.0-1.0-2.0","5ea340a26c3ed82b0dbd4d9f","E1","batch5","tol_quiz_feedback","3610.7999997138977","<p class = block-text>Incorrect. Remember, you can only move the ball on top of a peg.</p>","0","","","","","","","","","","","","","","","","","","","","","","","","","",""
"","","","","","html-button-response","308","1184831","0.0-4.0-1.0-1.0-3.0","5ea340a26c3ed82b0dbd4d9f","E1","batch5","tol_quiz","2957.5","<p class = block-text>True or False: You should try to match your board with the target board with fewest moves possible. <br></p>","0","","","true","","","","","","","","","","","","","","","","","","","","","","",""
"","","","","","html-button-response","309","1185627","0.0-4.0-1.0-1.0-4.0","5ea340a26c3ed82b0dbd4d9f","E1","batch5","tol_quiz_feedback","794.1999998092651","<p class = block-text>Correct! </p>","0","","","","","","","","","","","","","","","","","","","","","","","","","",""
"","","","","","html-button-response","310","1187978","0.0-4.0-1.0-2.0-0.0","5ea340a26c3ed82b0dbd4d9f","E1","batch5","","2350.2999997138977","<p class = block-text>You made too many incorrect choices.</p><p class = block-text>You will now repeat the instructions and quiz</p>","0","","","","","","","","","","","","","","","","","","","","","","","","","",""
"","","","","","instructions","311","1213817","0.0-4.0-1.1-0.1-0.1","5ea340a26c3ed82b0dbd4d9f","E1","batch5","tol-instructions","25837.099999904633","","","","","","","","[{""page_index"":0,""viewing_time"":4570.199999809265},{""page_index"":1,""viewing_time"":1892.4000000953674},{""page_index"":2,""viewing_time"":2220.800000190735},{""page_index"":3,""viewing_time"":4254.199999809265},{""page_index"":4,""viewing_time"":7374.800000190735},{""page_index"":5,""viewing_time"":2126.5},{""page_index"":6,""viewing_time"":3397.7999997138977}]","","","","","","","","","","","","","","","","","","","",""
"","","","","","html-button-response","312","1214891","0.0-4.0-1.1-1.1-0.1","5ea340a26c3ed82b0dbd4d9f","E1","batch5","tol_enter_quiz","1071.1999998092651","<p class=block-text> Let's answer a few questions <br>","0","","","","","","","","","","","","","","","","","","","","","","","","","",""
"","","","","","html-button-response","313","1216360","0.0-4.0-1.1-1.1-1.1","5ea340a26c3ed82b0dbd4d9f","E1","batch5","tol_quiz","1466","<p class = block-text>True or False: You can only move the ball on top of a peg. <br></p>","0","","","true","","","","","","","","","","","","","","","","","","","","","","",""
"","","","","","html-button-response","314","1217287","0.0-4.0-1.1-1.1-2.1","5ea340a26c3ed82b0dbd4d9f","E1","batch5","tol_quiz_feedback","925.5","<p class = block-text>Correct! You can only move the ball on top of a peg.</p>","0","","","","","","","","","","","","","","","","","","","","","","","","","",""
"","","","","","html-button-response","315","1219155","0.0-4.0-1.1-1.1-3.1","5ea340a26c3ed82b0dbd4d9f","E1","batch5","tol_quiz","1865.5999999046326","<p class = block-text>True or False: You should try to match your board with the target board with fewest moves possible. <br></p>","0","","","true","","","","","","","","","","","","","","","","","","","","","","",""
"","","","","","html-button-response","316","1219997","0.0-4.0-1.1-1.1-4.1","5ea340a26c3ed82b0dbd4d9f","E1","batch5","tol_quiz_feedback","840.6999998092651","<p class = block-text>Correct! </p>","0","","","","","","","","","","","","","","","","","","","","","","","","","",""
"","","","","","html-button-response","317","1221440","0.0-4.0-2.0","5ea340a26c3ed82b0dbd4d9f","E1","batch5","","1441.5999999046326","<p class=block-text> Now that you've understood the game, let's practice a few easier examples before we start!<br> <br>","0","","","","","","","","","","","","","","","","","","","","","","","","","",""
"","","","","","single-stim-button","318","1232169","0.0-4.0-3.0-0.0","5ea340a26c3ed82b0dbd4d9f","E1","batch5","tol_practice","10727","","","","","","","","","","","","","","tol_peg_2","10727","10727","0","[[1,2,0],[0,0],[0]]","1","[[1,2,0],[0,0],[3]]","practice","10727","","","","","",""
"","","","","","single-stim-button","319","1233173","0.0-4.0-3.0-1.0","5ea340a26c3ed82b0dbd4d9f","E1","batch5","tol_practice","1003","","","","","","","","","","","","","","tol_peg_3","1003","1003","0","[[1,2,0],[0,0],[3]]","1","[[1,2,0],[0,0],[3]]","practice","1003","","","","","",""
"","","","","","poldrack-single-stim","320","1234176","0.0-4.0-4.0","5ea340a26c3ed82b0dbd4d9f","E1","batch5","tol_feedback","-1","","","","","true","","","","","","","","","","1000","1000","500","","","","","","-1","none","true","","0",""
"","","","","","single-stim-button","321","1239370","0.0-4.0-5.0-0.0","5ea340a26c3ed82b0dbd4d9f","E1","batch5","tol_practice","5193","","","","","","","","","","","","","","tol_peg_1","5193","5193","0","[[1,0,0],[3,0],[0]]","2","[[0,0,0],[3,1],[2]]","practice","5193","","","","","",""
"","","","","","single-stim-button","322","1240546","0.0-4.0-5.0-1.0","5ea340a26c3ed82b0dbd4d9f","E1","batch5","tol_practice","1176","","","","","","","","","","","","","","tol_peg_3","1176","1176","0","[[1,0,0],[3,0],[2]]","2","[[0,0,0],[3,1],[2]]","practice","1176","","","","","",""
"","","","","","single-stim-button","323","1241521","0.0-4.0-5.1-0.1","5ea340a26c3ed82b0dbd4d9f","E1","batch5","tol_practice","973","","","","","","","","","","","","","","tol_peg_1","973","973","0","[[0,0,0],[3,0],[2]]","3","[[0,0,0],[3,1],[2]]","practice","973","","","","","",""
"","","","","","single-stim-button","324","1242310","0.0-4.0-5.1-1.1","5ea340a26c3ed82b0dbd4d9f","E1","batch5","tol_practice","789","","","","","","","","","","","","","","tol_peg_2","789","789","0","[[0,0,0],[3,1],[2]]","3","[[0,0,0],[3,1],[2]]","practice","789","","","","","",""
"","","","","","poldrack-single-stim","325","1243317","0.0-4.0-6.0","5ea340a26c3ed82b0dbd4d9f","E1","batch5","tol_feedback","-1","","","","","true","","","","","","","","","","1000","1000","500","","","","","","-1","none","true","","0",""
"","","","","","single-stim-button","326","1245702","0.0-4.0-7.0-0.0","5ea340a26c3ed82b0dbd4d9f","E1","batch5","tol_practice","2385","","","","","","","","","","","","","","tol_peg_2","2385","2385","0","[[1,2,0],[0,0],[0]]","4","[[1,0,0],[2,0],[3]]","practice","2385","","","","","",""
"","","","","","single-stim-button","327","1246474","0.0-4.0-7.0-1.0","5ea340a26c3ed82b0dbd4d9f","E1","batch5","tol_practice","770","","","","","","","","","","","","","","tol_peg_3","770","770","0","[[1,2,0],[0,0],[3]]","4","[[1,0,0],[2,0],[3]]","practice","770","","","","","",""
"","","","","","single-stim-button","328","1247278","0.0-4.0-7.1-0.1","5ea340a26c3ed82b0dbd4d9f","E1","batch5","tol_practice","803","","","","","","","","","","","","","","tol_peg_1","803","803","0","[[1,0,0],[0,0],[3]]","5","[[1,0,0],[2,0],[3]]","practice","803","","","","","",""
"","","","","","single-stim-button","329","1248118","0.0-4.0-7.1-1.1","5ea340a26c3ed82b0dbd4d9f","E1","batch5","tol_practice","839","","","","","","","","","","","","","","tol_peg_2","839","839","0","[[1,0,0],[2,0],[3]]","5","[[1,0,0],[2,0],[3]]","practice","839","","","","","",""
"","","","","","poldrack-single-stim","330","1249124","0.0-4.0-8.0","5ea340a26c3ed82b0dbd4d9f","E1","batch5","tol_feedback","-1","","","","","true","","","","","","","","","","1000","1000","500","","","","","","-1","none","true","","0",""
"","","","","","html-button-response","331","1251111","0.0-4.0-9.0","5ea340a26c3ed82b0dbd4d9f","E1","batch5","tol_instruction","1986.2000002861023","<div class = centerbox><p class = center-block-text>Great job! You are done with practice trials<br>You are about to start official trials.<br> <br> Problem <strong>1</strong> out of 25 problems</p></div>","0","","","","","","","","","","","","","","","","","","","","","","","","","",""
"","","","","","single-stim-button","332","1257987","0.0-4.0-10.0-0.0","5ea340a26c3ed82b0dbd4d9f","E1","batch5","tol_tohand","5870","","","","","","","","","","","","","","tol_peg_1","5870","5870","0","[[1,0,0],[3,0],[0]]","1","[[1,3,0],[2,0],[0]]","0","0","","","","","","3"
"","","","","","single-stim-button","333","1259027","0.0-4.0-10.0-1.0","5ea340a26c3ed82b0dbd4d9f","E1","batch5","tol_toboard","1039","","","","","","","","","","","","","","tol_peg_3","1039","1039","0","[[1,0,0],[3,0],[2]]","1","[[1,3,0],[2,0],[0]]","0","0","","","","","","3"
"","","","","","single-stim-button","334","1260370","0.0-4.0-10.1-0.1","5ea340a26c3ed82b0dbd4d9f","E1","batch5","tol_tohand","1341","","","","","","","","","","","","","","tol_peg_2","1341","1341","0","[[1,0,0],[0,0],[2]]","2","[[1,3,0],[2,0],[0]]","0","0","","","","","","3"
"","","","","","single-stim-button","335","1261274","0.0-4.0-10.1-1.1","5ea340a26c3ed82b0dbd4d9f","E1","batch5","tol_toboard","903","","","","","","","","","","","","","","tol_peg_1","903","903","0","[[1,3,0],[0,0],[2]]","2","[[1,3,0],[2,0],[0]]","0","0","","","","","","3"
"","","","","","single-stim-button","336","1262044","0.0-4.0-10.2-0.2","5ea340a26c3ed82b0dbd4d9f","E1","batch5","tol_tohand","768","","","","","","","","","","","","","","tol_peg_3","768","768","0","[[1,3,0],[0,0],[0]]","3","[[1,3,0],[2,0],[0]]","0","0","","","","","","3"
"","","","","","single-stim-button","337","1262749","0.0-4.0-10.2-1.2","5ea340a26c3ed82b0dbd4d9f","E1","batch5","tol_toboard","704","","","","","","","","","","","","","","tol_peg_2","704","704","0","[[1,3,0],[2,0],[0]]","3","[[1,3,0],[2,0],[0]]","0","0","","","","","","3"
"","","","","","poldrack-single-stim","338","1263754","0.0-4.0-11.0","5ea340a26c3ed82b0dbd4d9f","E1","batch5","tol_feedback","-1","","","","","true","","","","","","","","","","1000","1000","500","","","","","","-1","none","true","5870","7979",""
"","","","","","html-button-response","339","1264863","0.0-4.0-12.0","5ea340a26c3ed82b0dbd4d9f","E1","batch5","tol_trial_num","1107.4000000953674","<div class = centerbox><p class = center-block-text>problem <strong>2</strong> out of 25 problems</p></div>","0","","","","","","","","","","","","","","","","","","","","","","","","","",""
"","","","","","single-stim-button","340","1267686","0.0-4.0-13.0-0.0","5ea340a26c3ed82b0dbd4d9f","E1","batch5","tol_tohand","2821","","","","","","","","","","","","","","tol_peg_1","2821","2821","0","[[1,0,0],[3,0],[0]]","1","[[2,1,3],[0,0],[0]]","1","0","","","","","","5"
"","","","","","single-stim-button","341","1268459","0.0-4.0-13.0-1.0","5ea340a26c3ed82b0dbd4d9f","E1","batch5","tol_toboard","771","","","","","","","","","","","","","","tol_peg_3","771","771","0","[[1,0,0],[3,0],[2]]","1","[[2,1,3],[0,0],[0]]","1","0","","","","","","5"
"","","","","","single-stim-button","342","1270364","0.0-4.0-13.1-0.1","5ea340a26c3ed82b0dbd4d9f","E1","batch5","tol_tohand","1904","","","","","","","","","","","","","","tol_peg_1","1904","1904","0","[[0,0,0],[3,0],[2]]","2","[[2,1,3],[0,0],[0]]","1","0","","","","","","5"
"","","","","","single-stim-button","343","1273201","0.0-4.0-13.1-1.1","5ea340a26c3ed82b0dbd4d9f","E1","batch5","tol_toboard","2837","","","","","","","","","","","","","","tol_peg_2","2837","2837","0","[[0,0,0],[3,1],[2]]","2","[[2,1,3],[0,0],[0]]","1","0","","","","","","5"
"","","","","","single-stim-button","344","1274191","0.0-4.0-13.2-0.2","5ea340a26c3ed82b0dbd4d9f","E1","batch5","tol_tohand","989","","","","","","","","","","","","","","tol_peg_3","989","989","0","[[0,0,0],[3,1],[0]]","3","[[2,1,3],[0,0],[0]]","1","0","","","","","","5"
