"success","timeout","failed_images","failed_audio","failed_video","trial_type","trial_index","time_elapsed","internal_node_id","subject_id","study_id","session_id","view_history","rt","stimulus","response","task","correct","answer","item","fiar_detect_rt","fiar_detect_correct","total_correct_fiar_detect","post_trial_gap","choices","mouse_click","stim_duration","block_duration","timing_post_trial","current_position","tol_num_moves_made","tol_target","tol_problem_id","tol_rt","key_press","possible_responses","tol_correct","preplanning","tol_rt_per_trial","tol_min_moves","spm_correct","spm_rt"
"true","false","[]","[]","[]","preload","0","1472","0.0-0.0","5ea511caa6974a4e8de26ac1","D2","batch4","","","","","","","","","","","","","","","","","","","","","","","","","","","","","",""
"true","","","","","fullscreen","1","6513","0.0-1.0-0.0","5ea511caa6974a4e8de26ac1","D2","batch4","","","","","","","","","","","","","","","","","","","","","","","","","","","","","",""
"true","","","","","fullscreen","2","8958","0.0-2.0-0.0","5ea511caa6974a4e8de26ac1","D2","batch4","","","","","","","","","","","","","","","","","","","","","","","","","","","","","",""
"","","","","","instructions","3","17534","0.0-2.0-1.0-0.0","5ea511caa6974a4e8de26ac1","D2","batch4","[{""page_index"":0,""viewing_time"":3055.099999997765},{""page_index"":1,""viewing_time"":5519.400000002235}]","8574.89999999851","","","","","","","","","","","","","","","","","","","","","","","","","","","",""
"","","","","","html-button-response","4","18599","0.0-2.0-1.0-1.0-0.0","5ea511caa6974a4e8de26ac1","D2","batch4","","1062.9000000022352","<p class=block-text> Let's answer a few questions <br>","0","pattern_enter_quiz","","","","","","","","","","","","","","","","","","","","","","","","",""
"","","","","","html-button-response","5","20599","0.0-2.0-1.0-1.0-1.0","5ea511caa6974a4e8de26ac1","D2","batch4","","1998.0999999977648","<p class = block-text>True or False: You will have as much time as you want to make each choice. <br></p>","1","pattern_quiz","true","","","","","","","","","","","","","","","","","","","","","","","",""
"","","","","","html-button-response","6","21515","0.0-2.0-1.0-1.0-2.0","5ea511caa6974a4e8de26ac1","D2","batch4","","914.8000000007451","<p class = block-text>Correct! You should make your choice <strong> as fast as you can</strong>.</p>","0","pattern_quiz_feedback","","","","","","","","","","","","","","","","","","","","","","","","",""
"","","","","","html-button-response","7","24069","0.0-2.0-1.0-1.0-3.0","5ea511caa6974a4e8de26ac1","D2","batch4","","2552.300000000745","<p class = block-text>True or False: You will look for 4 pieces in black or white color connected in a row either horizontally, vertically or diagonally. <br></p>","0","pattern_quiz","true","","","","","","","","","","","","","","","","","","","","","","","",""
"","","","","","html-button-response","8","24867","0.0-2.0-1.0-1.0-4.0","5ea511caa6974a4e8de26ac1","D2","batch4","","797","<p class = block-text>Correct! </p>","0","pattern_quiz_feedback","","","","","","","","","","","","","","","","","","","","","","","","",""
"","","","","","html-button-response","9","26034","0.0-2.0-2.0","5ea511caa6974a4e8de26ac1","D2","batch4","","1164.6000000014901","<p class=block-text> Now that you've understood the game, let's do a few practice trials before we start!<br> <br>","0","pattern_enter_practice","","","","","","","","","","","","","","","","","","","","","","","","",""
"","","","","","image-keyboard-response","10","28861","0.0-2.0-3.0-0.0","5ea511caa6974a4e8de26ac1","D2","batch4","","2818.5","stim/prac_yes_16_ver_w1.png","f","pattern_practice","true","f","","","","","","","","","","","","","","","","","","","","","","",""
"","","","","","html-keyboard-response","11","29877","0.0-2.0-3.0-1.0","5ea511caa6974a4e8de26ac1","D2","batch4","","null","<p style=""font-size:30px;color:green;"">Correct!</p>","null","pattern_feedback","","","","","","","","","","","","","","","","","","","","","","","","",""
"","","","","","image-keyboard-response","12","31364","0.0-2.0-3.0-0.1","5ea511caa6974a4e8de26ac1","D2","batch4","","1483.5999999977648","stim/prac_yes_18_hor_w1.png","f","pattern_practice","true","f","","","","","","","","","","","","","","","","","","","","","","",""
"","","","","","html-keyboard-response","13","32374","0.0-2.0-3.0-1.1","5ea511caa6974a4e8de26ac1","D2","batch4","","null","<p style=""font-size:30px;color:green;"">Correct!</p>","null","pattern_feedback","","","","","","","","","","","","","","","","","","","","","","","","",""
"","","","","","image-keyboard-response","14","33322","0.0-2.0-3.0-0.2","5ea511caa6974a4e8de26ac1","D2","batch4","","945","stim/prac_yes_20_dia_b1.png","j","pattern_practice","false","f","","","","","","","","","","","","","","","","","","","","","","",""
"","","","","","html-keyboard-response","15","34341","0.0-2.0-3.0-1.2","5ea511caa6974a4e8de26ac1","D2","batch4","","null","<p style=""font-size:30px;color:red;"">Wrong.</p>","null","pattern_feedback","","","","","","","","","","","","","","","","","","","","","","","","",""
"","","","","","image-keyboard-response","16","36651","0.0-2.0-3.0-0.3","5ea511caa6974a4e8de26ac1","D2","batch4","","2307.800000000745","stim/prac_no_18_1.png","j","pattern_practice","true","j","","","","","","","","","","","","","","","","","","","","","","",""
"","","","","","html-keyboard-response","17","37662","0.0-2.0-3.0-1.3","5ea511caa6974a4e8de26ac1","D2","batch4","","null","<p style=""font-size:30px;color:green;"">Correct!</p>","null","pattern_feedback","","","","","","","","","","","","","","","","","","","","","","","","",""
"","","","","","image-keyboard-response","18","40019","0.0-2.0-3.0-0.4","5ea511caa6974a4e8de26ac1","D2","batch4","","2354.800000000745","stim/prac_no_16_1.png","j","pattern_practice","true","j","","","","","","","","","","","","","","","","","","","","","","",""
"","","","","","html-keyboard-response","19","41030","0.0-2.0-3.0-1.4","5ea511caa6974a4e8de26ac1","D2","batch4","","null","<p style=""font-size:30px;color:green;"">Correct!</p>","null","pattern_feedback","","","","","","","","","","","","","","","","","","","","","","","","",""
"","","","","","html-button-response","20","43035","0.0-2.0-4.0","5ea511caa6974a4e8de26ac1","D2","batch4","","2003.4000000022352","<p class=block-text> Good job! You are done with practice trials!<br>
        You responded correctly on 80% of the trials.<br>
        Press the button below to start official trials. Now you won't see any feedback about your response</p>","0","pattern_enter_official_trials","","","","","","","","","","","","","","","","","","","","","","","","",""
"","","","","","html-keyboard-response","21","43844","0.0-2.0-5.0-0.0","5ea511caa6974a4e8de26ac1","D2","batch4","","null","<p class=block-text>Trial 1 out of 78</p>","null","pattern_show_trial_num","","","","","","","","","","","","","","","","","","","","","","","","",""
"","","","","","image-keyboard-response","22","46487","0.0-2.0-5.0-1.0","5ea511caa6974a4e8de26ac1","D2","batch4","","2640.2000000029802","stim/no_33_1_b.png","f","pattern_response","false","j","pattern_15","2640.2000000029802","false","0","","","","","","","","","","","","","","","","","","",""
"","","","","","html-keyboard-response","23","47797","0.0-2.0-5.0-0.1","5ea511caa6974a4e8de26ac1","D2","batch4","","null","<p class=block-text>Trial 2 out of 78</p>","null","pattern_show_trial_num","","","","","","","","","","","","","","","","","","","","","","","","",""
"","","","","","image-keyboard-response","24","53082","0.0-2.0-5.0-1.1","5ea511caa6974a4e8de26ac1","D2","batch4","","5283.79999999702","stim/no_37_2_w.png","j","pattern_response","true","j","pattern_19","5283.79999999702","true","1","","","","","","","","","","","","","","","","","","",""
"","","","","","html-keyboard-response","25","54400","0.0-2.0-5.0-0.2","5ea511caa6974a4e8de26ac1","D2","batch4","","null","<p class=block-text>Trial 3 out of 78</p>","null","pattern_show_trial_num","","","","","","","","","","","","","","","","","","","","","","","","",""
"","","","","","image-keyboard-response","26","55484","0.0-2.0-5.0-1.2","5ea511caa6974a4e8de26ac1","D2","batch4","","1081.2999999970198","stim/no_67_1.png","f","pattern_response","false","j","pattern_39","1081.2999999970198","false","1","","","","","","","","","","","","","","","","","","",""
"","","","","","html-keyboard-response","27","56800","0.0-2.0-5.0-0.3","5ea511caa6974a4e8de26ac1","D2","batch4","","null","<p class=block-text>Trial 4 out of 78</p>","null","pattern_show_trial_num","","","","","","","","","","","","","","","","","","","","","","","","",""
"","","","","","image-keyboard-response","28","57740","0.0-2.0-5.0-1.3","5ea511caa6974a4e8de26ac1","D2","batch4","","938.6999999992549","stim/no_18_1_b.png","j","pattern_response","true","j","pattern_05","938.6999999992549","true","2","","","","","","","","","","","","","","","","","","",""
"","","","","","html-keyboard-response","29","59055","0.0-2.0-5.0-0.4","5ea511caa6974a4e8de26ac1","D2","batch4","","null","<p class=block-text>Trial 5 out of 78</p>","null","pattern_show_trial_num","","","","","","","","","","","","","","","","","","","","","","","","",""
"","","","","","image-keyboard-response","30","60195","0.0-2.0-5.0-1.4","5ea511caa6974a4e8de26ac1","D2","batch4","","1139.6000000014901","stim/yes_49_hor_w1_b.png","f","pattern_response","true","f","pattern_70","1139.6000000014901","true","3","","","","","","","","","","","","","","","","","","",""
"","","","","","html-keyboard-response","31","61554","0.0-2.0-5.0-0.5","5ea511caa6974a4e8de26ac1","D2","batch4","","null","<p class=block-text>Trial 6 out of 78</p>","null","pattern_show_trial_num","","","","","","","","","","","","","","","","","","","","","","","","",""
"","","","","","image-keyboard-response","32","65390","0.0-2.0-5.0-1.5","5ea511caa6974a4e8de26ac1","D2","batch4","","3834.89999999851","stim/yes_44_ver_w1_w.png","f","pattern_response","true","f","pattern_66","3834.89999999851","true","4","","","","","","","","","","","","","","","","","","",""
"","","","","","html-keyboard-response","33","66701","0.0-2.0-5.0-0.6","5ea511caa6974a4e8de26ac1","D2","batch4","","null","<p class=block-text>Trial 7 out of 78</p>","null","pattern_show_trial_num","","","","","","","","","","","","","","","","","","","","","","","","",""
"","","","","","image-keyboard-response","34","69973","0.0-2.0-5.0-1.6","5ea511caa6974a4e8de26ac1","D2","batch4","","3270","stim/yes_37_hor_w1_w.png","f","pattern_response","true","f","pattern_60","3270","true","5","","","","","","","","","","","","","","","","","","",""
"","","","","","html-keyboard-response","35","71283","0.0-2.0-5.0-0.7","5ea511caa6974a4e8de26ac1","D2","batch4","","null","<p class=block-text>Trial 8 out of 78</p>","null","pattern_show_trial_num","","","","","","","","","","","","","","","","","","","","","","","","",""
"","","","","","image-keyboard-response","36","72460","0.0-2.0-5.0-1.7","5ea511caa6974a4e8de26ac1","D2","batch4","","1176.1000000014901","stim/yes_63_dia_b1.png","f","pattern_response","true","f","pattern_78","1176.1000000014901","true","6","","","","","","","","","","","","","","","","","","",""
"","","","","","html-keyboard-response","37","73775","0.0-2.0-5.0-0.8","5ea511caa6974a4e8de26ac1","D2","batch4","","null","<p class=block-text>Trial 9 out of 78</p>","null","pattern_show_trial_num","","","","","","","","","","","","","","","","","","","","","","","","",""
"","","","","","image-keyboard-response","38","79679","0.0-2.0-5.0-1.8","5ea511caa6974a4e8de26ac1","D2","batch4","","5903","stim/yes_58_dia_w1_w.png","j","pattern_response","false","f","pattern_76","5903","false","6","","","","","","","","","","","","","","","","","","",""
"","","","","","html-keyboard-response","39","80996","0.0-2.0-5.0-0.9","5ea511caa6974a4e8de26ac1","D2","batch4","","null","<p class=block-text>Trial 10 out of 78</p>","null","pattern_show_trial_num","","","","","","","","","","","","","","","","","","","","","","","","",""
"","","","","","image-keyboard-response","40","83361","0.0-2.0-5.0-1.9","5ea511caa6974a4e8de26ac1","D2","batch4","","2363.39999999851","stim/yes_51_dia_b1.png","j","pattern_response","false","f","pattern_72","2363.39999999851","false","6","","","","","","","","","","","","","","","","","","",""
"","","","","","html-keyboard-response","41","84679","0.0-2.0-5.0-0.10","5ea511caa6974a4e8de26ac1","D2","batch4","","null","<p class=block-text>Trial 11 out of 78</p>","null","pattern_show_trial_num","","","","","","","","","","","","","","","","","","","","","","","","",""
"","","","","","image-keyboard-response","42","86920","0.0-2.0-5.0-1.10","5ea511caa6974a4e8de26ac1","D2","batch4","","2239.5","stim/no_53_1_b.png","j","pattern_response","true","j","pattern_33","2239.5","true","7","","","","","","","","","","","","","","","","","","",""
"","","","","","html-keyboard-response","43","88235","0.0-2.0-5.0-0.11","5ea511caa6974a4e8de26ac1","D2","batch4","","null","<p class=block-text>Trial 12 out of 78</p>","null","pattern_show_trial_num","","","","","","","","","","","","","","","","","","","","","","","","",""
"","","","","","image-keyboard-response","44","89814","0.0-2.0-5.0-1.11","5ea511caa6974a4e8de26ac1","D2","batch4","","1576.9000000022352","stim/yes_17_ver_b1_b.png","f","pattern_response","true","f","pattern_46","1576.9000000022352","true","8","","","","","","","","","","","","","","","","","","",""
"","","","","","html-keyboard-response","45","91123","0.0-2.0-5.0-0.12","5ea511caa6974a4e8de26ac1","D2","batch4","","null","<p class=block-text>Trial 13 out of 78</p>","null","pattern_show_trial_num","","","","","","","","","","","","","","","","","","","","","","","","",""
"","","","","","image-keyboard-response","46","92954","0.0-2.0-5.0-1.12","5ea511caa6974a4e8de26ac1","D2","batch4","","1830.3999999985099","stim/yes_36_ver_w1_w.png","f","pattern_response","true","f","pattern_58","1830.3999999985099","true","9","","","","","","","","","","","","","","","","","","",""
"","","","","","html-keyboard-response","47","94266","0.0-2.0-5.0-0.13","5ea511caa6974a4e8de26ac1","D2","batch4","","null","<p class=block-text>Trial 14 out of 78</p>","null","pattern_show_trial_num","","","","","","","","","","","","","","","","","","","","","","","","",""
"","","","","","image-keyboard-response","48","98051","0.0-2.0-5.0-1.13","5ea511caa6974a4e8de26ac1","D2","batch4","","3784","stim/no_43_2_b.png","j","pattern_response","true","j","pattern_23","3784","true","10","","","","","","","","","","","","","","","","","","",""
"","","","","","html-keyboard-response","49","99364","0.0-2.0-5.0-0.14","5ea511caa6974a4e8de26ac1","D2","batch4","","null","<p class=block-text>Trial 15 out of 78</p>","null","pattern_show_trial_num","","","","","","","","","","","","","","","","","","","","","","","","",""
"","","","","","image-keyboard-response","50","105283","0.0-2.0-5.0-1.14","5ea511caa6974a4e8de26ac1","D2","batch4","","5917.5","stim/no_51_1.png","j","pattern_response","true","j","pattern_31","5917.5","true","11","","","","","","","","","","","","","","","","","","",""
"","","","","","html-keyboard-response","51","106595","0.0-2.0-5.0-0.15","5ea511caa6974a4e8de26ac1","D2","batch4","","null","<p class=block-text>Trial 16 out of 78</p>","null","pattern_show_trial_num","","","","","","","","","","","","","","","","","","","","","","","","",""
"","","","","","image-keyboard-response","52","108551","0.0-2.0-5.0-1.15","5ea511caa6974a4e8de26ac1","D2","batch4","","1954.300000000745","stim/yes_39_hor_w1_w.png","f","pattern_response","true","f","pattern_62","1954.300000000745","true","12","","","","","","","","","","","","","","","","","","",""
"","","","","","html-keyboard-response","53","109867","0.0-2.0-5.0-0.16","5ea511caa6974a4e8de26ac1","D2","batch4","","null","<p class=block-text>Trial 17 out of 78</p>","null","pattern_show_trial_num","","","","","","","","","","","","","","","","","","","","","","","","",""
"","","","","","image-keyboard-response","54","114973","0.0-2.0-5.0-1.16","5ea511caa6974a4e8de26ac1","D2","batch4","","5104.900000002235","stim/no_49_2_b.png","j","pattern_response","true","j","pattern_29","5104.900000002235","true","13","","","","","","","","","","","","","","","","","","",""
"","","","","","html-keyboard-response","55","116291","0.0-2.0-5.0-0.17","5ea511caa6974a4e8de26ac1","D2","batch4","","null","<p class=block-text>Trial 18 out of 78</p>","null","pattern_show_trial_num","","","","","","","","","","","","","","","","","","","","","","","","",""
"","","","","","image-keyboard-response","56","121477","0.0-2.0-5.0-1.17","5ea511caa6974a4e8de26ac1","D2","batch4","","5184.400000002235","stim/no_39_1_w.png","j","pattern_response","true","j","pattern_21","5184.400000002235","true","14","","","","","","","","","","","","","","","","","","",""
"","","","","","html-keyboard-response","57","122798","0.0-2.0-5.0-0.18","5ea511caa6974a4e8de26ac1","D2","batch4","","null","<p class=block-text>Trial 19 out of 78</p>","null","pattern_show_trial_num","","","","","","","","","","","","","","","","","","","","","","","","",""
"","","","","","image-keyboard-response","58","124991","0.0-2.0-5.0-1.18","5ea511caa6974a4e8de26ac1","D2","batch4","","2192.2999999970198","stim/yes_30_ver_b1_b.png","f","pattern_response","true","f","pattern_54","2192.2999999970198","true","15","","","","","","","","","","","","","","","","","","",""
"","","","","","html-keyboard-response","59","126304","0.0-2.0-5.0-0.19","5ea511caa6974a4e8de26ac1","D2","batch4","","null","<p class=block-text>Trial 20 out of 78</p>","null","pattern_show_trial_num","","","","","","","","","","","","","","","","","","","","","","","","",""
"","","","","","image-keyboard-response","60","128727","0.0-2.0-5.0-1.19","5ea511caa6974a4e8de26ac1","D2","batch4","","2420.800000000745","stim/yes_42_dia_w1_w.png","f","pattern_response","true","f","pattern_64","2420.800000000745","true","16","","","","","","","","","","","","","","","","","","",""
"","","","","","html-keyboard-response","61","130040","0.0-2.0-5.0-0.20","5ea511caa6974a4e8de26ac1","D2","batch4","","null","<p class=block-text>Trial 21 out of 78</p>","null","pattern_show_trial_num","","","","","","","","","","","","","","","","","","","","","","","","",""
"","","","","","image-keyboard-response","62","131502","0.0-2.0-5.0-1.20","5ea511caa6974a4e8de26ac1","D2","batch4","","1461","stim/yes_29_hor_b1_b.png","j","pattern_response","false","f","pattern_52","1461","false","16","","","","","","","","","","","","","","","","","","",""
"","","","","","html-keyboard-response","63","132817","0.0-2.0-5.0-0.21","5ea511caa6974a4e8de26ac1","D2","batch4","","null","<p class=block-text>Trial 22 out of 78</p>","null","pattern_show_trial_num","","","","","","","","","","","","","","","","","","","","","","","","",""
"","","","","","image-keyboard-response","64","133891","0.0-2.0-5.0-1.21","5ea511caa6974a4e8de26ac1","D2","batch4","","1074","stim/no_22_1_b.png","f","pattern_response","false","j","pattern_07","1074","false","16","","","","","","","","","","","","","","","","","","",""
"","","","","","html-keyboard-response","65","135201","0.0-2.0-5.0-0.22","5ea511caa6974a4e8de26ac1","D2","batch4","","null","<p class=block-text>Trial 23 out of 78</p>","null","pattern_show_trial_num","","","","","","","","","","","","","","","","","","","","","","","","",""
"","","","","","image-keyboard-response","66","137380","0.0-2.0-5.0-1.22","5ea511caa6974a4e8de26ac1","D2","batch4","","2178.300000000745","stim/yes_33_dia_w1_w.png","j","pattern_response","false","f","pattern_56","2178.300000000745","false","16","","","","","","","","","","","","","","","","","","",""
"","","","","","html-keyboard-response","67","138696","0.0-2.0-5.0-0.23","5ea511caa6974a4e8de26ac1","D2","batch4","","null","<p class=block-text>Trial 24 out of 78</p>","null","pattern_show_trial_num","","","","","","","","","","","","","","","","","","","","","","","","",""
"","","","","","image-keyboard-response","68","142557","0.0-2.0-5.0-1.23","5ea511caa6974a4e8de26ac1","D2","batch4","","3859.89999999851","stim/no_47_1_b.png","j","pattern_response","true","j","pattern_27","3859.89999999851","true","17","","","","","","","","","","","","","","","","","","",""
"","","","","","html-keyboard-response","69","143877","0.0-2.0-5.0-0.24","5ea511caa6974a4e8de26ac1","D2","batch4","","null","<p class=block-text>Trial 25 out of 78</p>","null","pattern_show_trial_num","","","","","","","","","","","","","","","","","","","","","","","","",""
"","","","","","image-keyboard-response","70","146105","0.0-2.0-5.0-1.24","5ea511caa6974a4e8de26ac1","D2","batch4","","2227","stim/no_25_1_b.png","j","pattern_response","true","j","pattern_09","2227","true","18","","","","","","","","","","","","","","","","","","",""
"","","","","","html-keyboard-response","71","147417","0.0-2.0-5.0-0.25","5ea511caa6974a4e8de26ac1","D2","batch4","","null","<p class=block-text>Trial 26 out of 78</p>","null","pattern_show_trial_num","","","","","","","","","","","","","","","","","","","","","","","","",""
"","","","","","image-keyboard-response","72","149599","0.0-2.0-5.0-1.25","5ea511caa6974a4e8de26ac1","D2","batch4","","2180.599999997765","stim/yes_70_ver_b1.png","f","pattern_response","true","f","pattern_80","2180.599999997765","true","19","","","","","","","","","","","","","","","","","","",""
"","","","","","html-keyboard-response","73","150916","0.0-2.0-5.0-0.26","5ea511caa6974a4e8de26ac1","D2","batch4","","null","<p class=block-text>Trial 27 out of 78</p>","null","pattern_show_trial_num","","","","","","","","","","","","","","","","","","","","","","","","",""
"","","","","","image-keyboard-response","74","151814","0.0-2.0-5.0-1.26","5ea511caa6974a4e8de26ac1","D2","batch4","","895.8000000007451","stim/yes_53_ver_b1_b.png","f","pattern_response","true","f","pattern_74","895.8000000007451","true","20","","","","","","","","","","","","","","","","","","",""
"","","","","","html-keyboard-response","75","153128","0.0-2.0-5.0-0.27","5ea511caa6974a4e8de26ac1","D2","batch4","","null","<p class=block-text>Trial 28 out of 78</p>","null","pattern_show_trial_num","","","","","","","","","","","","","","","","","","","","","","","","",""
"","","","","","image-keyboard-response","76","154623","0.0-2.0-5.0-1.27","5ea511caa6974a4e8de26ac1","D2","batch4","","1493.699999999255","stim/yes_23_ver_b1.png","f","pattern_response","true","f","pattern_48","1493.699999999255","true","21","","","","","","","","","","","","","","","","","","",""
"","","","","","html-keyboard-response","77","155940","0.0-2.0-5.0-0.28","5ea511caa6974a4e8de26ac1","D2","batch4","","null","<p class=block-text>Trial 29 out of 78</p>","null","pattern_show_trial_num","","","","","","","","","","","","","","","","","","","","","","","","",""
"","","","","","image-keyboard-response","78","158062","0.0-2.0-5.0-1.28","5ea511caa6974a4e8de26ac1","D2","batch4","","2120.699999999255","stim/yes_46_ver_b1_b.png","f","pattern_response","true","f","pattern_68","2120.699999999255","true","22","","","","","","","","","","","","","","","","","","",""
"","","","","","html-keyboard-response","79","159371","0.0-2.0-5.0-0.29","5ea511caa6974a4e8de26ac1","D2","batch4","","null","<p class=block-text>Trial 30 out of 78</p>","null","pattern_show_trial_num","","","","","","","","","","","","","","","","","","","","","","","","",""
"","","","","","image-keyboard-response","80","160597","0.0-2.0-5.0-1.29","5ea511caa6974a4e8de26ac1","D2","batch4","","1225","stim/no_15_1_w.png","j","pattern_response","true","j","pattern_03","1225","true","23","","","","","","","","","","","","","","","","","","",""
"","","","","","html-keyboard-response","81","161914","0.0-2.0-5.0-0.30","5ea511caa6974a4e8de26ac1","D2","batch4","","null","<p class=block-text>Trial 31 out of 78</p>","null","pattern_show_trial_num","","","","","","","","","","","","","","","","","","","","","","","","",""
"","","","","","image-keyboard-response","82","162815","0.0-2.0-5.0-1.30","5ea511caa6974a4e8de26ac1","D2","batch4","","899.3000000007451","stim/yes_26_dia_w2_w.png","f","pattern_response","true","f","pattern_50","899.3000000007451","true","24","","","","","","","","","","","","","","","","","","",""
"","","","","","html-keyboard-response","83","164131","0.0-2.0-5.0-0.31","5ea511caa6974a4e8de26ac1","D2","batch4","","null","<p class=block-text>Trial 32 out of 78</p>","null","pattern_show_trial_num","","","","","","","","","","","","","","","","","","","","","","","","",""
"","","","","","image-keyboard-response","84","165414","0.0-2.0-5.0-1.31","5ea511caa6974a4e8de26ac1","D2","batch4","","1281.300000000745","stim/no_12_1.png","j","pattern_response","true","j","pattern_01","1281.300000000745","true","25","","","","","","","","","","","","","","","","","","",""
"","","","","","html-keyboard-response","85","166727","0.0-2.0-5.0-0.32","5ea511caa6974a4e8de26ac1","D2","batch4","","null","<p class=block-text>Trial 33 out of 78</p>","null","pattern_show_trial_num","","","","","","","","","","","","","","","","","","","","","","","","",""
"","","","","","image-keyboard-response","86","168248","0.0-2.0-5.0-1.32","5ea511caa6974a4e8de26ac1","D2","batch4","","1520.5","stim/no_30_1_b.png","j","pattern_response","true","j","pattern_13","1520.5","true","26","","","","","","","","","","","","","","","","","","",""
"","","","","","html-keyboard-response","87","169564","0.0-2.0-5.0-0.33","5ea511caa6974a4e8de26ac1","D2","batch4","","null","<p class=block-text>Trial 34 out of 78</p>","null","pattern_show_trial_num","","","","","","","","","","","","","","","","","","","","","","","","",""
"","","","","","image-keyboard-response","88","170954","0.0-2.0-5.0-1.33","5ea511caa6974a4e8de26ac1","D2","batch4","","1389.199999999255","stim/no_28_2.png","j","pattern_response","true","j","pattern_11","1389.199999999255","true","27","","","","","","","","","","","","","","","","","","",""
"","","","","","html-keyboard-response","89","172268","0.0-2.0-5.0-0.34","5ea511caa6974a4e8de26ac1","D2","batch4","","null","<p class=block-text>Trial 35 out of 78</p>","null","pattern_show_trial_num","","","","","","","","","","","","","","","","","","","","","","","","",""
"","","","","","image-keyboard-response","90","176155","0.0-2.0-5.0-1.34","5ea511caa6974a4e8de26ac1","D2","batch4","","3886.5","stim/no_45_1_w.png","j","pattern_response","true","j","pattern_25","3886.5","true","28","","","","","","","","","","","","","","","","","","",""
"","","","","","html-keyboard-response","91","177475","0.0-2.0-5.0-0.35","5ea511caa6974a4e8de26ac1","D2","batch4","","null","<p class=block-text>Trial 36 out of 78</p>","null","pattern_show_trial_num","","","","","","","","","","","","","","","","","","","","","","","","",""
"","","","","","image-keyboard-response","92","183533","0.0-2.0-5.0-1.35","5ea511caa6974a4e8de26ac1","D2","batch4","","6057","stim/no_58_1_w.png","j","pattern_response","true","j","pattern_35","6057","true","29","","","","","","","","","","","","","","","","","","",""
"","","","","","html-keyboard-response","93","184848","0.0-2.0-5.0-0.36","5ea511caa6974a4e8de26ac1","D2","batch4","","null","<p class=block-text>Trial 37 out of 78</p>","null","pattern_show_trial_num","","","","","","","","","","","","","","","","","","","","","","","","",""
"","","","","","image-keyboard-response","94","186257","0.0-2.0-5.0-1.36","5ea511caa6974a4e8de26ac1","D2","batch4","","1407.9000000022352","stim/yes_15_dia_b1u_b.png","f","pattern_response","true","f","pattern_44","1407.9000000022352","true","30","","","","","","","","","","","","","","","","","","",""
"","","","","","html-keyboard-response","95","187567","0.0-2.0-5.0-0.37","5ea511caa6974a4e8de26ac1","D2","batch4","","null","<p class=block-text>Trial 38 out of 78</p>","null","pattern_show_trial_num","","","","","","","","","","","","","","","","","","","","","","","","",""
"","","","","","image-keyboard-response","96","189926","0.0-2.0-5.0-1.37","5ea511caa6974a4e8de26ac1","D2","batch4","","2357.699999999255","stim/no_36_1_b.png","j","pattern_response","true","j","pattern_17","2357.699999999255","true","31","","","","","","","","","","","","","","","","","","",""
"","","","","","html-keyboard-response","97","191242","0.0-2.0-5.0-0.38","5ea511caa6974a4e8de26ac1","D2","batch4","","null","<p class=block-text>Trial 39 out of 78</p>","null","pattern_show_trial_num","","","","","","","","","","","","","","","","","","","","","","","","",""
"","","","","","image-keyboard-response","98","192448","0.0-2.0-5.0-1.38","5ea511caa6974a4e8de26ac1","D2","batch4","","1204","stim/yes_12_hor_w1_w.png","f","pattern_response","true","f","pattern_42","1204","true","32","","","","","","","","","","","","","","","","","","",""
"","","","","","image-keyboard-response","99","194821","0.0-2.0-6.0","5ea511caa6974a4e8de26ac1","D2","batch4","","1865.5","stim/empty_board.png","j","attention_check","true","j","","","","","500","[""f"",""j""]","","","","","","","","","","","","","","","","",""
"","","","","","html-keyboard-response","100","195622","0.0-2.0-7.0-0.0","5ea511caa6974a4e8de26ac1","D2","batch4","","null","<p class=block-text>Trial 40 out of 78</p>","null","pattern_show_trial_num","","","","","","","","","","","","","","","","","","","","","","","","",""
"","","","","","image-keyboard-response","101","198736","0.0-2.0-7.0-1.0","5ea511caa6974a4e8de26ac1","D2","batch4","","3112.699999999255","stim/no_13_2_b.png","j","pattern_response","true","j","pattern_02","3112.699999999255","true","33","","","","","","","","","","","","","","","","","","",""
"","","","","","html-keyboard-response","102","200049","0.0-2.0-7.0-0.1","5ea511caa6974a4e8de26ac1","D2","batch4","","null","<p class=block-text>Trial 41 out of 78</p>","null","pattern_show_trial_num","","","","","","","","","","","","","","","","","","","","","","","","",""
"","","","","","image-keyboard-response","103","201177","0.0-2.0-7.0-1.1","5ea511caa6974a4e8de26ac1","D2","batch4","","1126.2999999970198","stim/yes_22_ver_w1.png","f","pattern_response","true","f","pattern_47","1126.2999999970198","true","34","","","","","","","","","","","","","","","","","","",""
"","","","","","html-keyboard-response","104","202488","0.0-2.0-7.0-0.2","5ea511caa6974a4e8de26ac1","D2","batch4","","null","<p class=block-text>Trial 42 out of 78</p>","null","pattern_show_trial_num","","","","","","","","","","","","","","","","","","","","","","","","",""
"","","","","","image-keyboard-response","105","205237","0.0-2.0-7.0-1.2","5ea511caa6974a4e8de26ac1","D2","batch4","","2748","stim/no_62_1_w.png","j","pattern_response","true","j","pattern_36","2748","true","35","","","","","","","","","","","","","","","","","","",""
"","","","","","html-keyboard-response","106","206550","0.0-2.0-7.0-0.3","5ea511caa6974a4e8de26ac1","D2","batch4","","null","<p class=block-text>Trial 43 out of 78</p>","null","pattern_show_trial_num","","","","","","","","","","","","","","","","","","","","","","","","",""
"","","","","","image-keyboard-response","107","207382","0.0-2.0-7.0-1.3","5ea511caa6974a4e8de26ac1","D2","batch4","","831.2000000029802","stim/yes_28_ver_b1.png","f","pattern_response","true","f","pattern_51","831.2000000029802","true","36","","","","","","","","","","","","","","","","","","",""
"","","","","","html-keyboard-response","108","208697","0.0-2.0-7.0-0.4","5ea511caa6974a4e8de26ac1","D2","batch4","","null","<p class=block-text>Trial 44 out of 78</p>","null","pattern_show_trial_num","","","","","","","","","","","","","","","","","","","","","","","","",""
"","","","","","image-keyboard-response","109","210501","0.0-2.0-7.0-1.4","5ea511caa6974a4e8de26ac1","D2","batch4","","1802.6000000014901","stim/no_32_1_w.png","j","pattern_response","true","j","pattern_14","1802.6000000014901","true","37","","","","","","","","","","","","","","","","","","",""
"","","","","","html-keyboard-response","110","211807","0.0-2.0-7.0-0.5","5ea511caa6974a4e8de26ac1","D2","batch4","","null","<p class=block-text>Trial 45 out of 78</p>","null","pattern_show_trial_num","","","","","","","","","","","","","","","","","","","","","","","","",""
"","","","","","image-keyboard-response","111","217007","0.0-2.0-7.0-1.5","5ea511caa6974a4e8de26ac1","D2","batch4","","5198.699999999255","stim/no_46_1_b.png","f","pattern_response","false","j","pattern_26","5198.699999999255","false","37","","","","","","","","","","","","","","","","","","",""
"","","","","","html-keyboard-response","112","218322","0.0-2.0-7.0-0.6","5ea511caa6974a4e8de26ac1","D2","batch4","","null","<p class=block-text>Trial 46 out of 78</p>","null","pattern_show_trial_num","","","","","","","","","","","","","","","","","","","","","","","","",""
"","","","","","image-keyboard-response","113","220584","0.0-2.0-7.0-1.6","5ea511caa6974a4e8de26ac1","D2","batch4","","2261.5","stim/no_34_1_b.png","j","pattern_response","true","j","pattern_16","2261.5","true","38","","","","","","","","","","","","","","","","","","",""
"","","","","","html-keyboard-response","114","221904","0.0-2.0-7.0-0.7","5ea511caa6974a4e8de26ac1","D2","batch4","","null","<p class=block-text>Trial 47 out of 78</p>","null","pattern_show_trial_num","","","","","","","","","","","","","","","","","","","","","","","","",""
"","","","","","image-keyboard-response","115","223310","0.0-2.0-7.0-1.7","5ea511caa6974a4e8de26ac1","D2","batch4","","1404.5","stim/yes_17_dia_w1.png","f","pattern_response","true","f","pattern_45","1404.5","true","39","","","","","","","","","","","","","","","","","","",""
"","","","","","html-keyboard-response","116","224623","0.0-2.0-7.0-0.8","5ea511caa6974a4e8de26ac1","D2","batch4","","null","<p class=block-text>Trial 48 out of 78</p>","null","pattern_show_trial_num","","","","","","","","","","","","","","","","","","","","","","","","",""
"","","","","","image-keyboard-response","117","225412","0.0-2.0-7.0-1.8","5ea511caa6974a4e8de26ac1","D2","batch4","","787.9000000022352","stim/yes_14_hor_b1_w.png","f","pattern_response","true","f","pattern_43","787.9000000022352","true","40","","","","","","","","","","","","","","","","","","",""
"","","","","","html-keyboard-response","118","226724","0.0-2.0-7.0-0.9","5ea511caa6974a4e8de26ac1","D2","batch4","","null","<p class=block-text>Trial 49 out of 78</p>","null","pattern_show_trial_num","","","","","","","","","","","","","","","","","","","","","","","","",""
"","","","","","image-keyboard-response","119","228098","0.0-2.0-7.0-1.9","5ea511caa6974a4e8de26ac1","D2","batch4","","1373.199999999255","stim/no_23_1.png","j","pattern_response","true","j","pattern_08","1373.199999999255","true","41","","","","","","","","","","","","","","","","","","",""
"","","","","","html-keyboard-response","120","229415","0.0-2.0-7.0-0.10","5ea511caa6974a4e8de26ac1","D2","batch4","","null","<p class=block-text>Trial 50 out of 78</p>","null","pattern_show_trial_num","","","","","","","","","","","","","","","","","","","","","","","","",""
"","","","","","image-keyboard-response","121","233133","0.0-2.0-7.0-1.10","5ea511caa6974a4e8de26ac1","D2","batch4","","3717.800000000745","stim/no_42_1_w.png","j","pattern_response","true","j","pattern_22","3717.800000000745","true","42","","","","","","","","","","","","","","","","","","",""
"","","","","","html-keyboard-response","122","234445","0.0-2.0-7.0-0.11","5ea511caa6974a4e8de26ac1","D2","batch4","","null","<p class=block-text>Trial 51 out of 78</p>","null","pattern_show_trial_num","","","","","","","","","","","","","","","","","","","","","","","","",""
"","","","","","image-keyboard-response","123","238426","0.0-2.0-7.0-1.11","5ea511caa6974a4e8de26ac1","D2","batch4","","3979.300000000745","stim/no_65_1_b.png","j","pattern_response","true","j","pattern_38","3979.300000000745","true","43","","","","","","","","","","","","","","","","","","",""
"","","","","","html-keyboard-response","124","239743","0.0-2.0-7.0-0.12","5ea511caa6974a4e8de26ac1","D2","batch4","","null","<p class=block-text>Trial 52 out of 78</p>","null","pattern_show_trial_num","","","","","","","","","","","","","","","","","","","","","","","","",""
"","","","","","image-keyboard-response","125","242244","0.0-2.0-7.0-1.12","5ea511caa6974a4e8de26ac1","D2","batch4","","2500","stim/no_52_1.png","j","pattern_response","true","j","pattern_32","2500","true","44","","","","","","","","","","","","","","","","","","",""
"","","","","","html-keyboard-response","126","243561","0.0-2.0-7.0-0.13","5ea511caa6974a4e8de26ac1","D2","batch4","","null","<p class=block-text>Trial 53 out of 78</p>","null","pattern_show_trial_num","","","","","","","","","","","","","","","","","","","","","","","","",""
"","","","","","image-keyboard-response","127","246467","0.0-2.0-7.0-1.13","5ea511caa6974a4e8de26ac1","D2","batch4","","2905.400000002235","stim/no_29_1_b.png","j","pattern_response","true","j","pattern_12","2905.400000002235","true","45","","","","","","","","","","","","","","","","","","",""
"","","","","","html-keyboard-response","128","247781","0.0-2.0-7.0-0.14","5ea511caa6974a4e8de26ac1","D2","batch4","","null","<p class=block-text>Trial 54 out of 78</p>","null","pattern_show_trial_num","","","","","","","","","","","","","","","","","","","","","","","","",""
"","","","","","image-keyboard-response","129","249594","0.0-2.0-7.0-1.14","5ea511caa6974a4e8de26ac1","D2","batch4","","1811.300000000745","stim/yes_55_hor_w1_w.png","f","pattern_response","true","f","pattern_75","1811.300000000745","true","46","","","","","","","","","","","","","","","","","","",""
"","","","","","html-keyboard-response","130","250908","0.0-2.0-7.0-0.15","5ea511caa6974a4e8de26ac1","D2","batch4","","null","<p class=block-text>Trial 55 out of 78</p>","null","pattern_show_trial_num","","","","","","","","","","","","","","","","","","","","","","","","",""
"","","","","","image-keyboard-response","131","254905","0.0-2.0-7.0-1.15","5ea511caa6974a4e8de26ac1","D2","batch4","","3995.400000002235","stim/yes_52_ver_w1.png","f","pattern_response","true","f","pattern_73","3995.400000002235","true","47","","","","","","","","","","","","","","","","","","",""
"","","","","","html-keyboard-response","132","256224","0.0-2.0-7.0-0.16","5ea511caa6974a4e8de26ac1","D2","batch4","","null","<p class=block-text>Trial 56 out of 78</p>","null","pattern_show_trial_num","","","","","","","","","","","","","","","","","","","","","","","","",""
"","","","","","image-keyboard-response","133","257180","0.0-2.0-7.0-1.16","5ea511caa6974a4e8de26ac1","D2","batch4","","954.9000000022352","stim/yes_29_ver_w1.png","f","pattern_response","true","f","pattern_53","954.9000000022352","true","48","","","","","","","","","","","","","","","","","","",""
"","","","","","html-keyboard-response","134","258493","0.0-2.0-7.0-0.17","5ea511caa6974a4e8de26ac1","D2","batch4","","null","<p class=block-text>Trial 57 out of 78</p>","null","pattern_show_trial_num","","","","","","","","","","","","","","","","","","","","","","","","",""
"","","","","","image-keyboard-response","135","262074","0.0-2.0-7.0-1.17","5ea511caa6974a4e8de26ac1","D2","batch4","","3579.39999999851","stim/yes_50_dia_w1.png","j","pattern_response","false","f","pattern_71","3579.39999999851","false","48","","","","","","","","","","","","","","","","","","",""
"","","","","","html-keyboard-response","136","263388","0.0-2.0-7.0-0.18","5ea511caa6974a4e8de26ac1","D2","batch4","","null","<p class=block-text>Trial 58 out of 78</p>","null","pattern_show_trial_num","","","","","","","","","","","","","","","","","","","","","","","","",""
"","","","","","image-keyboard-response","137","264987","0.0-2.0-7.0-1.18","5ea511caa6974a4e8de26ac1","D2","batch4","","1598.300000000745","stim/no_50_1.png","j","pattern_response","true","j","pattern_30","1598.300000000745","true","49","","","","","","","","","","","","","","","","","","",""
"","","","","","html-keyboard-response","138","266302","0.0-2.0-7.0-0.19","5ea511caa6974a4e8de26ac1","D2","batch4","","null","<p class=block-text>Trial 59 out of 78</p>","null","pattern_show_trial_num","","","","","","","","","","","","","","","","","","","","","","","","",""
"","","","","","image-keyboard-response","139","269535","0.0-2.0-7.0-1.19","5ea511caa6974a4e8de26ac1","D2","batch4","","3231.099999997765","stim/yes_60_ver_b1_b.png","f","pattern_response","true","f","pattern_77","3231.099999997765","true","50","","","","","","","","","","","","","","","","","","",""
"","","","","","html-keyboard-response","140","270848","0.0-2.0-7.0-0.20","5ea511caa6974a4e8de26ac1","D2","batch4","","null","<p class=block-text>Trial 60 out of 78</p>","null","pattern_show_trial_num","","","","","","","","","","","","","","","","","","","","","","","","",""
"","","","","","image-keyboard-response","141","271684","0.0-2.0-7.0-1.20","5ea511caa6974a4e8de26ac1","D2","batch4","","834.8000000007451","stim/yes_43_ver_w1_w.png","f","pattern_response","true","f","pattern_65","834.8000000007451","true","51","","","","","","","","","","","","","","","","","","",""
"","","","","","html-keyboard-response","142","272996","0.0-2.0-7.0-0.21","5ea511caa6974a4e8de26ac1","D2","batch4","","null","<p class=block-text>Trial 61 out of 78</p>","null","pattern_show_trial_num","","","","","","","","","","","","","","","","","","","","","","","","",""
"","","","","","image-keyboard-response","143","274304","0.0-2.0-7.0-1.21","5ea511caa6974a4e8de26ac1","D2","batch4","","1307.5","stim/yes_40_dia_b1_b.png","f","pattern_response","true","f","pattern_63","1307.5","true","52","","","","","","","","","","","","","","","","","","",""
"","","","","","html-keyboard-response","144","275620","0.0-2.0-7.0-0.22","5ea511caa6974a4e8de26ac1","D2","batch4","","null","<p class=block-text>Trial 62 out of 78</p>","null","pattern_show_trial_num","","","","","","","","","","","","","","","","","","","","","","","","",""
"","","","","","image-keyboard-response","145","276840","0.0-2.0-7.0-1.22","5ea511caa6974a4e8de26ac1","D2","batch4","","1219.800000000745","stim/no_20_1_w.png","j","pattern_response","true","j","pattern_06","1219.800000000745","true","53","","","","","","","","","","","","","","","","","","",""
"","","","","","html-keyboard-response","146","278157","0.0-2.0-7.0-0.23","5ea511caa6974a4e8de26ac1","D2","batch4","","null","<p class=block-text>Trial 63 out of 78</p>","null","pattern_show_trial_num","","","","","","","","","","","","","","","","","","","","","","","","",""
"","","","","","image-keyboard-response","147","281028","0.0-2.0-7.0-1.23","5ea511caa6974a4e8de26ac1","D2","batch4","","2869.599999997765","stim/yes_45_hor_b2_b.png","f","pattern_response","true","f","pattern_67","2869.599999997765","true","54","","","","","","","","","","","","","","","","","","",""
"","","","","","html-keyboard-response","148","282343","0.0-2.0-7.0-0.24","5ea511caa6974a4e8de26ac1","D2","batch4","","null","<p class=block-text>Trial 64 out of 78</p>","null","pattern_show_trial_num","","","","","","","","","","","","","","","","","","","","","","","","",""
"","","","","","image-keyboard-response","149","286473","0.0-2.0-7.0-1.24","5ea511caa6974a4e8de26ac1","D2","batch4","","4128.199999999255","stim/yes_37_dia_w1.png","f","pattern_response","true","f","pattern_59","4128.199999999255","true","55","","","","","","","","","","","","","","","","","","",""
"","","","","","html-keyboard-response","150","287791","0.0-2.0-7.0-0.25","5ea511caa6974a4e8de26ac1","D2","batch4","","null","<p class=block-text>Trial 65 out of 78</p>","null","pattern_show_trial_num","","","","","","","","","","","","","","","","","","","","","","","","",""
"","","","","","image-keyboard-response","151","289878","0.0-2.0-7.0-1.25","5ea511caa6974a4e8de26ac1","D2","batch4","","2085.60000000149","stim/yes_31_hor_b1.png","j","pattern_response","false","f","pattern_55","2085.60000000149","false","55","","","","","","","","","","","","","","","","","","",""
"","","","","","html-keyboard-response","152","291197","0.0-2.0-7.0-0.26","5ea511caa6974a4e8de26ac1","D2","batch4","","null","<p class=block-text>Trial 66 out of 78</p>","null","pattern_show_trial_num","","","","","","","","","","","","","","","","","","","","","","","","",""
"","","","","","image-keyboard-response","153","293772","0.0-2.0-7.0-1.26","5ea511caa6974a4e8de26ac1","D2","batch4","","2573.89999999851","stim/no_70_2.png","j","pattern_response","true","j","pattern_40","2573.89999999851","true","56","","","","","","","","","","","","","","","","","","",""
"","","","","","html-keyboard-response","154","295084","0.0-2.0-7.0-0.27","5ea511caa6974a4e8de26ac1","D2","batch4","","null","<p class=block-text>Trial 67 out of 78</p>","null","pattern_show_trial_num","","","","","","","","","","","","","","","","","","","","","","","","",""
"","","","","","image-keyboard-response","155","296765","0.0-2.0-7.0-1.27","5ea511caa6974a4e8de26ac1","D2","batch4","","1679.3999999985099","stim/no_38_1_b.png","j","pattern_response","true","j","pattern_20","1679.3999999985099","true","57","","","","","","","","","","","","","","","","","","",""
"","","","","","html-keyboard-response","156","298075","0.0-2.0-7.0-0.28","5ea511caa6974a4e8de26ac1","D2","batch4","","null","<p class=block-text>Trial 68 out of 78</p>","null","pattern_show_trial_num","","","","","","","","","","","","","","","","","","","","","","","","",""
"","","","","","image-keyboard-response","157","299220","0.0-2.0-7.0-1.28","5ea511caa6974a4e8de26ac1","D2","batch4","","1144.800000000745","stim/yes_67_hor_b1.png","f","pattern_response","true","f","pattern_79","1144.800000000745","true","58","","","","","","","","","","","","","","","","","","",""
"","","","","","html-keyboard-response","158","300533","0.0-2.0-7.0-0.29","5ea511caa6974a4e8de26ac1","D2","batch4","","null","<p class=block-text>Trial 69 out of 78</p>","null","pattern_show_trial_num","","","","","","","","","","","","","","","","","","","","","","","","",""
"","","","","","image-keyboard-response","159","303639","0.0-2.0-7.0-1.29","5ea511caa6974a4e8de26ac1","D2","batch4","","3105","stim/no_44_1.png","j","pattern_response","true","j","pattern_24","3105","true","59","","","","","","","","","","","","","","","","","","",""
"","","","","","html-keyboard-response","160","304953","0.0-2.0-7.0-0.30","5ea511caa6974a4e8de26ac1","D2","batch4","","null","<p class=block-text>Trial 70 out of 78</p>","null","pattern_show_trial_num","","","","","","","","","","","","","","","","","","","","","","","","",""
"","","","","","image-keyboard-response","161","306244","0.0-2.0-7.0-1.30","5ea511caa6974a4e8de26ac1","D2","batch4","","1289.9000000022352","stim/no_17_1_w.png","j","pattern_response","true","j","pattern_04","1289.9000000022352","true","60","","","","","","","","","","","","","","","","","","",""
"","","","","","html-keyboard-response","162","307557","0.0-2.0-7.0-0.31","5ea511caa6974a4e8de26ac1","D2","batch4","","null","<p class=block-text>Trial 71 out of 78</p>","null","pattern_show_trial_num","","","","","","","","","","","","","","","","","","","","","","","","",""
"","","","","","image-keyboard-response","163","310813","0.0-2.0-7.0-1.31","5ea511caa6974a4e8de26ac1","D2","batch4","","3255.2999999970198","stim/no_48_1_w.png","j","pattern_response","true","j","pattern_28","3255.2999999970198","true","61","","","","","","","","","","","","","","","","","","",""
"","","","","","html-keyboard-response","164","312125","0.0-2.0-7.0-0.32","5ea511caa6974a4e8de26ac1","D2","batch4","","null","<p class=block-text>Trial 72 out of 78</p>","null","pattern_show_trial_num","","","","","","","","","","","","","","","","","","","","","","","","",""
"","","","","","image-keyboard-response","165","314635","0.0-2.0-7.0-1.32","5ea511caa6974a4e8de26ac1","D2","batch4","","2508.800000000745","stim/yes_35_dia_b1.png","f","pattern_response","true","f","pattern_57","2508.800000000745","true","62","","","","","","","","","","","","","","","","","","",""
"","","","","","html-keyboard-response","166","315948","0.0-2.0-7.0-0.33","5ea511caa6974a4e8de26ac1","D2","batch4","","null","<p class=block-text>Trial 73 out of 78</p>","null","pattern_show_trial_num","","","","","","","","","","","","","","","","","","","","","","","","",""
"","","","","","image-keyboard-response","167","319334","0.0-2.0-7.0-1.33","5ea511caa6974a4e8de26ac1","D2","batch4","","3384.199999999255","stim/yes_48_dia_w1_w.png","f","pattern_response","true","f","pattern_69","3384.199999999255","true","63","","","","","","","","","","","","","","","","","","",""
"","","","","","html-keyboard-response","168","320649","0.0-2.0-7.0-0.34","5ea511caa6974a4e8de26ac1","D2","batch4","","null","<p class=block-text>Trial 74 out of 78</p>","null","pattern_show_trial_num","","","","","","","","","","","","","","","","","","","","","","","","",""
"","","","","","image-keyboard-response","169","323016","0.0-2.0-7.0-1.34","5ea511caa6974a4e8de26ac1","D2","batch4","","2365.2000000029802","stim/no_36_2_w.png","j","pattern_response","true","j","pattern_18","2365.2000000029802","true","64","","","","","","","","","","","","","","","","","","",""
"","","","","","html-keyboard-response","170","324333","0.0-2.0-7.0-0.35","5ea511caa6974a4e8de26ac1","D2","batch4","","null","<p class=block-text>Trial 75 out of 78</p>","null","pattern_show_trial_num","","","","","","","","","","","","","","","","","","","","","","","","",""
"","","","","","image-keyboard-response","171","326479","0.0-2.0-7.0-1.35","5ea511caa6974a4e8de26ac1","D2","batch4","","2121.300000000745","stim/no_55_1_w.png","j","pattern_response","true","j","pattern_34","2121.300000000745","true","65","","","","","","","","","","","","","","","","","","",""
"","","","","","html-keyboard-response","172","327797","0.0-2.0-7.0-0.36","5ea511caa6974a4e8de26ac1","D2","batch4","","null","<p class=block-text>Trial 76 out of 78</p>","null","pattern_show_trial_num","","","","","","","","","","","","","","","","","","","","","","","","",""
"","","","","","image-keyboard-response","173","328868","0.0-2.0-7.0-1.36","5ea511caa6974a4e8de26ac1","D2","batch4","","1070.199999999255","stim/no_26_1_w.png","j","pattern_response","true","j","pattern_10","1070.199999999255","true","66","","","","","","","","","","","","","","","","","","",""
"","","","","","html-keyboard-response","174","330187","0.0-2.0-7.0-0.37","5ea511caa6974a4e8de26ac1","D2","batch4","","null","<p class=block-text>Trial 77 out of 78</p>","null","pattern_show_trial_num","","","","","","","","","","","","","","","","","","","","","","","","",""
"","","","","","image-keyboard-response","175","330985","0.0-2.0-7.0-1.37","5ea511caa6974a4e8de26ac1","D2","batch4","","797","stim/yes_25_hor_b1_b.png","f","pattern_response","true","f","pattern_49","797","true","67","","","","","","","","","","","","","","","","","","",""
"","","","","","html-keyboard-response","176","332297","0.0-2.0-7.0-0.38","5ea511caa6974a4e8de26ac1","D2","batch4","","null","<p class=block-text>Trial 78 out of 78</p>","null","pattern_show_trial_num","","","","","","","","","","","","","","","","","","","","","","","","",""
"","","","","","image-keyboard-response","177","334236","0.0-2.0-7.0-1.38","5ea511caa6974a4e8de26ac1","D2","batch4","","1937.1000000014901","stim/yes_38_hor_b1_b.png","f","pattern_response","true","f","pattern_61","1937.1000000014901","true","68","","","","","","","","","","","","","","","","","","",""
"","","","","","html-button-response","178","419263","0.0-2.0-8.0","5ea511caa6974a4e8de26ac1","D2","batch4","","84516.30000000075","<p class = block-text>This concludes the 4-in-a-row detection game.Thank you for your responses!<br>
            You responded correctly on 87% of the trials.<br>
            When you are ready, press ""Continue"" button to continue </p>","0","","","","","","","","","","","","","","","","","","","","","","","","","",""
"true","","","","","fullscreen","179","421350","0.0-3.0-0.0","5ea511caa6974a4e8de26ac1","D2","batch4","","","","","","","","","","","","","","","","","","","","","","","","","","","","","",""
"","","","","","instructions","180","453611","0.0-3.0-1.0-0.0-0.0","5ea511caa6974a4e8de26ac1","D2","batch4","[{""page_index"":0,""viewing_time"":4996.5},{""page_index"":1,""viewing_time"":2080.300000000745},{""page_index"":2,""viewing_time"":2321.800000000745},{""page_index"":3,""viewing_time"":15016.300000000745},{""page_index"":4,""viewing_time"":3781.800000000745},{""page_index"":5,""viewing_time"":2281.699999999255},{""page_index"":6,""viewing_time"":1783.5}]","32262.20000000298","","","tol-instructions","","","","","","","","","","","","","","","","","","","","","","","","",""
"","","","","","html-button-response","181","454430","0.0-3.0-1.0-1.0-0.0","5ea511caa6974a4e8de26ac1","D2","batch4","","818","<p class=block-text> Let's answer a few questions <br>","0","tol_enter_quiz","","","","","","","","","","","","","","","","","","","","","","","","",""
"","","","","","html-button-response","182","460832","0.0-3.0-1.0-1.0-1.0","5ea511caa6974a4e8de26ac1","D2","batch4","","6399.800000000745","<p class = block-text>True or False: You can only move the ball on top of a peg. <br></p>","0","tol_quiz","true","","","","","","","","","","","","","","","","","","","","","","","",""
"","","","","","html-button-response","183","461763","0.0-3.0-1.0-1.0-2.0","5ea511caa6974a4e8de26ac1","D2","batch4","","930.3000000007451","<p class = block-text>Correct! You can only move the ball on top of a peg.</p>","0","tol_quiz_feedback","","","","","","","","","","","","","","","","","","","","","","","","",""
"","","","","","html-button-response","184","464245","0.0-3.0-1.0-1.0-3.0","5ea511caa6974a4e8de26ac1","D2","batch4","","2480.5","<p class = block-text>True or False: You should try to match your board with the target board with fewest moves possible. <br></p>","0","tol_quiz","true","","","","","","","","","","","","","","","","","","","","","","","",""
"","","","","","html-button-response","185","465145","0.0-3.0-1.0-1.0-4.0","5ea511caa6974a4e8de26ac1","D2","batch4","","898.4000000022352","<p class = block-text>Correct! </p>","0","tol_quiz_feedback","","","","","","","","","","","","","","","","","","","","","","","","",""
"","","","","","html-button-response","186","465994","0.0-3.0-2.0","5ea511caa6974a4e8de26ac1","D2","batch4","","847.8999999985099","<p class=block-text> Now that you've understood the game, let's practice a few easier examples before we start!<br> <br>","0","","","","","","","","","","","","","","","","","","","","","","","","","",""
"","","","","","single-stim-button","187","467683","0.0-3.0-3.0-0.0","5ea511caa6974a4e8de26ac1","D2","batch4","","1686","","","tol_practice","","","","","","","","","tol_peg_2","1686","1686","0","[[1,2,0],[0,0],[0]]","1","[[1,2,0],[0,0],[3]]","practice","1686","","","","","","","",""
"","","","","","single-stim-button","188","469281","0.0-3.0-3.0-1.0","5ea511caa6974a4e8de26ac1","D2","batch4","","1597","","","tol_practice","","","","","","","","","tol_peg_3","1597","1597","0","[[1,2,0],[0,0],[3]]","1","[[1,2,0],[0,0],[3]]","practice","1597","","","","","","","",""
"","","","","","poldrack-single-stim","189","470296","0.0-3.0-4.0","5ea511caa6974a4e8de26ac1","D2","batch4","","-1","","","tol_feedback","true","","","","","","","","","1000","1000","500","","","","","","-1","none","true","","0","","",""
"","","","","","single-stim-button","190","473698","0.0-3.0-5.0-0.0","5ea511caa6974a4e8de26ac1","D2","batch4","","3401","","","tol_practice","","","","","","","","","tol_peg_1","3401","3401","0","[[1,0,0],[3,0],[0]]","2","[[0,0,0],[3,1],[2]]","practice","3401","","","","","","","",""
"","","","","","single-stim-button","191","474732","0.0-3.0-5.0-1.0","5ea511caa6974a4e8de26ac1","D2","batch4","","1032","","","tol_practice","","","","","","","","","tol_peg_3","1032","1032","0","[[1,0,0],[3,0],[2]]","2","[[0,0,0],[3,1],[2]]","practice","1032","","","","","","","",""
"","","","","","single-stim-button","192","475562","0.0-3.0-5.1-0.1","5ea511caa6974a4e8de26ac1","D2","batch4","","830","","","tol_practice","","","","","","","","","tol_peg_1","830","830","0","[[0,0,0],[3,0],[2]]","3","[[0,0,0],[3,1],[2]]","practice","830","","","","","","","",""
"","","","","","single-stim-button","193","476148","0.0-3.0-5.1-1.1","5ea511caa6974a4e8de26ac1","D2","batch4","","585","","","tol_practice","","","","","","","","","tol_peg_2","585","585","0","[[0,0,0],[3,1],[2]]","3","[[0,0,0],[3,1],[2]]","practice","585","","","","","","","",""
"","","","","","poldrack-single-stim","194","477156","0.0-3.0-6.0","5ea511caa6974a4e8de26ac1","D2","batch4","","-1","","","tol_feedback","true","","","","","","","","","1000","1000","500","","","","","","-1","none","true","","0","","",""
"","","","","","single-stim-button","195","479562","0.0-3.0-7.0-0.0","5ea511caa6974a4e8de26ac1","D2","batch4","","2406","","","tol_practice","","","","","","","","","tol_peg_2","2406","2406","0","[[1,2,0],[0,0],[0]]","4","[[1,0,0],[2,0],[3]]","practice","2406","","","","","","","",""
"","","","","","single-stim-button","196","480512","0.0-3.0-7.0-1.0","5ea511caa6974a4e8de26ac1","D2","batch4","","949","","","tol_practice","","","","","","","","","tol_peg_3","949","949","0","[[1,2,0],[0,0],[3]]","4","[[1,0,0],[2,0],[3]]","practice","949","","","","","","","",""
"","","","","","single-stim-button","197","481515","0.0-3.0-7.1-0.1","5ea511caa6974a4e8de26ac1","D2","batch4","","1002","","","tol_practice","","","","","","","","","tol_peg_1","1002","1002","0","[[1,0,0],[0,0],[3]]","5","[[1,0,0],[2,0],[3]]","practice","1002","","","","","","","",""
"","","","","","single-stim-button","198","482562","0.0-3.0-7.1-1.1","5ea511caa6974a4e8de26ac1","D2","batch4","","1046","","","tol_practice","","","","","","","","","tol_peg_2","1046","1046","0","[[1,0,0],[2,0],[3]]","5","[[1,0,0],[2,0],[3]]","practice","1046","","","","","","","",""
"","","","","","poldrack-single-stim","199","483573","0.0-3.0-8.0","5ea511caa6974a4e8de26ac1","D2","batch4","","-1","","","tol_feedback","true","","","","","","","","","1000","1000","500","","","","","","-1","none","true","","0","","",""
"","","","","","html-button-response","200","486679","0.0-3.0-9.0","5ea511caa6974a4e8de26ac1","D2","batch4","","3104.699999999255","<div class = centerbox><p class = center-block-text>Great job! You are done with practice trials<br>You are about to start official trials.<br> <br> Problem <strong>1</strong> out of 25 problems</p></div>","0","tol_instruction","","","","","","","","","","","","","","","","","","","","","","","","",""
"","","","","","single-stim-button","201","491816","0.0-3.0-10.0-0.0","5ea511caa6974a4e8de26ac1","D2","batch4","","4127","","","tol_tohand","","","","","","","","","tol_peg_1","4127","4127","0","[[1,0,0],[3,0],[0]]","1","[[1,3,0],[2,0],[0]]","0","0","","","","","","3","",""
"","","","","","single-stim-button","202","493012","0.0-3.0-10.0-1.0","5ea511caa6974a4e8de26ac1","D2","batch4","","1195","","","tol_toboard","","","","","","","","","tol_peg_3","1195","1195","0","[[1,0,0],[3,0],[2]]","1","[[1,3,0],[2,0],[0]]","0","0","","","","","","3","",""
"","","","","","single-stim-button","203","493762","0.0-3.0-10.1-0.1","5ea511caa6974a4e8de26ac1","D2","batch4","","749","","","tol_tohand","","","","","","","","","tol_peg_2","749","749","0","[[1,0,0],[0,0],[2]]","2","[[1,3,0],[2,0],[0]]","0","0","","","","","","3","",""
"","","","","","single-stim-button","204","494549","0.0-3.0-10.1-1.1","5ea511caa6974a4e8de26ac1","D2","batch4","","785","","","tol_toboard","","","","","","","","","tol_peg_1","785","785","0","[[1,3,0],[0,0],[2]]","2","[[1,3,0],[2,0],[0]]","0","0","","","","","","3","",""
"","","","","","single-stim-button","205","496082","0.0-3.0-10.2-0.2","5ea511caa6974a4e8de26ac1","D2","batch4","","1532","","","tol_tohand","","","","","","","","","tol_peg_3","1532","1532","0","[[1,3,0],[0,0],[0]]","3","[[1,3,0],[2,0],[0]]","0","0","","","","","","3","",""
"","","","","","single-stim-button","206","496912","0.0-3.0-10.2-1.2","5ea511caa6974a4e8de26ac1","D2","batch4","","830","","","tol_toboard","","","","","","","","","tol_peg_2","830","830","0","[[1,3,0],[2,0],[0]]","3","[[1,3,0],[2,0],[0]]","0","0","","","","","","3","",""
"","","","","","poldrack-single-stim","207","497924","0.0-3.0-11.0","5ea511caa6974a4e8de26ac1","D2","batch4","","-1","","","tol_feedback","true","","","","","","","","","1000","1000","500","","","","","","-1","none","true","4127","6408","","",""
"","","","","","html-button-response","208","499046","0.0-3.0-12.0","5ea511caa6974a4e8de26ac1","D2","batch4","","1121","<div class = centerbox><p class = center-block-text>problem <strong>2</strong> out of 25 problems</p></div>","0","tol_trial_num","","","","","","","","","","","","","","","","","","","","","","","","",""
"","","","","","single-stim-button","209","502548","0.0-3.0-13.0-0.0","5ea511caa6974a4e8de26ac1","D2","batch4","","3501","","","tol_tohand","","","","","","","","","tol_peg_1","3501","3501","0","[[1,0,0],[3,0],[0]]","1","[[2,1,3],[0,0],[0]]","1","0","","","","","","5","",""
"","","","","","single-stim-button","210","503483","0.0-3.0-13.0-1.0","5ea511caa6974a4e8de26ac1","D2","batch4","","933","","","tol_toboard","","","","","","","","","tol_peg_3","933","933","0","[[1,0,0],[3,0],[2]]","1","[[2,1,3],[0,0],[0]]","1","0","","","","","","5","",""
"","","","","","single-stim-button","211","505562","0.0-3.0-13.1-0.1","5ea511caa6974a4e8de26ac1","D2","batch4","","2079","","","tol_tohand","","","","","","","","","tol_peg_1","2079","2079","0","[[0,0,0],[3,0],[2]]","2","[[2,1,3],[0,0],[0]]","1","0","","","","","","5","",""
"","","","","","single-stim-button","212","506179","0.0-3.0-13.1-1.1","5ea511caa6974a4e8de26ac1","D2","batch4","","616","","","tol_toboard","","","","","","","","","tol_peg_2","616","616","0","[[0,0,0],[3,1],[2]]","2","[[2,1,3],[0,0],[0]]","1","0","","","","","","5","",""
"","","","","","single-stim-button","213","506679","0.0-3.0-13.2-0.2","5ea511caa6974a4e8de26ac1","D2","batch4","","499","","","tol_tohand","","","","","","","","","tol_peg_3","499","499","0","[[0,0,0],[3,1],[0]]","3","[[2,1,3],[0,0],[0]]","1","0","","","","","","5","",""
"","","","","","single-stim-button","214","507601","0.0-3.0-13.2-1.2","5ea511caa6974a4e8de26ac1","D2","batch4","","921","","","tol_toboard","","","","","","","","","tol_peg_1","921","921","0","[[2,0,0],[3,1],[0]]","3","[[2,1,3],[0,0],[0]]","1","0","","","","","","5","",""
"","","","","","single-stim-button","215","508382","0.0-3.0-13.3-0.3","5ea511caa6974a4e8de26ac1","D2","batch4","","780","","","tol_tohand","","","","","","","","","tol_peg_2","780","780","0","[[2,0,0],[3,0],[0]]","4","[[2,1,3],[0,0],[0]]","1","0","","","","","","5","",""
"","","","","","single-stim-button","216","508915","0.0-3.0-13.3-1.3","5ea511caa6974a4e8de26ac1","D2","batch4","","532","","","tol_toboard","","","","","","","","","tol_peg_1","532","532","0","[[2,1,0],[3,0],[0]]","4","[[2,1,3],[0,0],[0]]","1","0","","","","","","5","",""
"","","","","","single-stim-button","217","509362","0.0-3.0-13.4-0.4","5ea511caa6974a4e8de26ac1","D2","batch4","","446","","","tol_tohand","","","","","","","","","tol_peg_2","446","446","0","[[2,1,0],[0,0],[0]]","5","[[2,1,3],[0,0],[0]]","1","0","","","","","","5","",""
"","","","","","single-stim-button","218","509829","0.0-3.0-13.4-1.4","5ea511caa6974a4e8de26ac1","D2","batch4","","466","","","tol_toboard","","","","","","","","","tol_peg_1","466","466","0","[[2,1,3],[0,0],[0]]","5","[[2,1,3],[0,0],[0]]","1","0","","","","","","5","",""
"","","","","","poldrack-single-stim","219","510834","0.0-3.0-14.0","5ea511caa6974a4e8de26ac1","D2","batch4","","-1","","","tol_feedback","true","","","","","","","","","1000","1000","500","","","","","","-1","none","true","3501","7305","","",""
"","","","","","html-button-response","220","511846","0.0-3.0-15.0","5ea511caa6974a4e8de26ac1","D2","batch4","","1011.3999999985099","<div class = centerbox><p class = center-block-text>problem <strong>3</strong> out of 25 problems</p></div>","0","tol_trial_num","","","","","","","","","","","","","","","","","","","","","","","","",""
"","","","","","single-stim-button","221","516929","0.0-3.0-16.0-0.0","5ea511caa6974a4e8de26ac1","D2","batch4","","5082","","","tol_tohand","","","","","","","","","tol_peg_1","5082","5082","0","[[2,0,0],[0,0],[1]]","1","[[1,2,0],[3,0],[0]]","2","0","","","","","","4","",""
"","","","","","single-stim-button","222","517730","0.0-3.0-16.0-1.0","5ea511caa6974a4e8de26ac1","D2","batch4","","799","","","tol_toboard","","","","","","","","","tol_peg_2","799","799","0","[[2,0,0],[3,0],[1]]","1","[[1,2,0],[3,0],[0]]","2","0","","","","","","4","",""
"","","","","","single-stim-button","223","518299","0.0-3.0-16.1-0.1","5ea511caa6974a4e8de26ac1","D2","batch4","","567","","","tol_tohand","","","","","","","","","tol_peg_1","567","567","0","[[0,0,0],[3,0],[1]]","2","[[1,2,0],[3,0],[0]]","2","0","","","","","","4","",""
"","","","","","single-stim-button","224","518767","0.0-3.0-16.1-1.1","5ea511caa6974a4e8de26ac1","D2","batch4","","467","","","tol_toboard","","","","","","","","","tol_peg_2","467","467","0","[[0,0,0],[3,2],[1]]","2","[[1,2,0],[3,0],[0]]","2","0","","","","","","4","",""
"","","","","","single-stim-button","225","519346","0.0-3.0-16.2-0.2","5ea511caa6974a4e8de26ac1","D2","batch4","","579","","","tol_tohand","","","","","","","","","tol_peg_3","579","579","0","[[0,0,0],[3,2],[0]]","3","[[1,2,0],[3,0],[0]]","2","0","","","","","","4","",""
"","","","","","single-stim-button","226","520082","0.0-3.0-16.2-1.2","5ea511caa6974a4e8de26ac1","D2","batch4","","735","","","tol_toboard","","","","","","","","","tol_peg_1","735","735","0","[[1,0,0],[3,2],[0]]","3","[[1,2,0],[3,0],[0]]","2","0","","","","","","4","",""
"","","","","","single-stim-button","227","520999","0.0-3.0-16.3-0.3","5ea511caa6974a4e8de26ac1","D2","batch4","","916","","","tol_tohand","","","","","","","","","tol_peg_2","916","916","0","[[1,0,0],[3,0],[0]]","4","[[1,2,0],[3,0],[0]]","2","0","","","","","","4","",""
"","","","","","single-stim-button","228","521799","0.0-3.0-16.3-1.3","5ea511caa6974a4e8de26ac1","D2","batch4","","800","","","tol_toboard","","","","","","","","","tol_peg_1","800","800","0","[[1,2,0],[3,0],[0]]","4","[[1,2,0],[3,0],[0]]","2","0","","","","","","4","",""
"","","","","","poldrack-single-stim","229","522801","0.0-3.0-17.0","5ea511caa6974a4e8de26ac1","D2","batch4","","-1","","","tol_feedback","true","","","","","","","","","1000","1000","500","","","","","","-1","none","true","5082","7144","","",""
"","","","","","html-button-response","230","524349","0.0-3.0-18.0","5ea511caa6974a4e8de26ac1","D2","batch4","","1547.5999999977648","<div class = centerbox><p class = center-block-text>problem <strong>4</strong> out of 25 problems</p></div>","0","tol_trial_num","","","","","","","","","","","","","","","","","","","","","","","","",""
"","","","","","single-stim-button","231","527530","0.0-3.0-19.0-0.0","5ea511caa6974a4e8de26ac1","D2","batch4","","3180","","","tol_tohand","","","","","","","","","tol_peg_2","3180","3180","0","[[3,0,0],[2,0],[0]]","1","[[3,0,0],[1,0],[2]]","3","0","","","","","","3","",""
"","","","","","single-stim-button","232","528650","0.0-3.0-19.0-1.0","5ea511caa6974a4e8de26ac1","D2","batch4","","1119","","","tol_toboard","","","","","","","","","tol_peg_1","1119","1119","0","[[3,1,0],[2,0],[0]]","1","[[3,0,0],[1,0],[2]]","3","0","","","","","","3","",""
"","","","","","single-stim-button","233","529565","0.0-3.0-19.1-0.1","5ea511caa6974a4e8de26ac1","D2","batch4","","914","","","tol_tohand","","","","","","","","","tol_peg_2","914","914","0","[[3,1,0],[0,0],[0]]","2","[[3,0,0],[1,0],[2]]","3","0","","","","","","3","",""
"","","","","","single-stim-button","234","530567","0.0-3.0-19.1-1.1","5ea511caa6974a4e8de26ac1","D2","batch4","","1000","","","tol_toboard","","","","","","","","","tol_peg_3","1000","1000","0","[[3,1,0],[0,0],[2]]","2","[[3,0,0],[1,0],[2]]","3","0","","","","","","3","",""
"","","","","","single-stim-button","235","531513","0.0-3.0-19.2-0.2","5ea511caa6974a4e8de26ac1","D2","batch4","","946","","","tol_tohand","","","","","","","","","tol_peg_1","946","946","0","[[3,0,0],[0,0],[2]]","3","[[3,0,0],[1,0],[2]]","3","0","","","","","","3","",""
"","","","","","single-stim-button","236","532564","0.0-3.0-19.2-1.2","5ea511caa6974a4e8de26ac1","D2","batch4","","1049","","","tol_toboard","","","","","","","","","tol_peg_2","1049","1049","0","[[3,0,0],[1,0],[2]]","3","[[3,0,0],[1,0],[2]]","3","0","","","","","","3","",""
"","","","","","poldrack-single-stim","237","533569","0.0-3.0-20.0","5ea511caa6974a4e8de26ac1","D2","batch4","","-1","","","tol_feedback","true","","","","","","","","","1000","1000","500","","","","","","-1","none","true","3180","5040","","",""
"","","","","","html-button-response","238","534750","0.0-3.0-21.0","5ea511caa6974a4e8de26ac1","D2","batch4","","1179.9000000022352","<div class = centerbox><p class = center-block-text>problem <strong>5</strong> out of 25 problems</p></div>","0","tol_trial_num","","","","","","","","","","","","","","","","","","","","","","","","",""
"","","","","","single-stim-button","239","537449","0.0-3.0-22.0-0.0","5ea511caa6974a4e8de26ac1","D2","batch4","","2698","","","tol_tohand","","","","","","","","","tol_peg_2","2698","2698","0","[[1,0,0],[0,0],[3]]","1","[[0,0,0],[1,2],[3]]","4","0","","","","","","7","",""
"","","","","","single-stim-button","240","543883","0.0-3.0-22.0-1.0","5ea511caa6974a4e8de26ac1","D2","batch4","","6432","","","tol_toboard","","","","","","","","","tol_peg_2","6432","6432","0","[[1,0,0],[2,0],[3]]","1","[[0,0,0],[1,2],[3]]","4","0","","","","","","7","",""
"","","","","","single-stim-button","241","544714","0.0-3.0-22.1-0.1","5ea511caa6974a4e8de26ac1","D2","batch4","","830","","","tol_tohand","","","","","","","","","tol_peg_3","830","830","0","[[1,0,0],[2,0],[0]]","2","[[0,0,0],[1,2],[3]]","4","0","","","","","","7","",""
"","","","","","single-stim-button","242","545432","0.0-3.0-22.1-1.1","5ea511caa6974a4e8de26ac1","D2","batch4","","718","","","tol_toboard","","","","","","","","","tol_peg_1","718","718","0","[[1,3,0],[2,0],[0]]","2","[[0,0,0],[1,2],[3]]","4","0","","","","","","7","",""
"","","","","","single-stim-button","243","545899","0.0-3.0-22.2-0.2","5ea511caa6974a4e8de26ac1","D2","batch4","","466","","","tol_tohand","","","","","","","","","tol_peg_2","466","466","0","[[1,3,0],[0,0],[0]]","3","[[0,0,0],[1,2],[3]]","4","0","","","","","","7","",""
"","","","","","single-stim-button","244","546697","0.0-3.0-22.2-1.2","5ea511caa6974a4e8de26ac1","D2","batch4","","797","","","tol_toboard","","","","","","","","","tol_peg_3","797","797","0","[[1,3,0],[0,0],[2]]","3","[[0,0,0],[1,2],[3]]","4","0","","","","","","7","",""
"","","","","","single-stim-button","245","548114","0.0-3.0-22.3-0.3","5ea511caa6974a4e8de26ac1","D2","batch4","","1415","","","tol_tohand","","","","","","","","","tol_peg_1","1415","1415","0","[[1,0,0],[0,0],[2]]","4","[[0,0,0],[1,2],[3]]","4","0","","","","","","7","",""
"","","","","","single-stim-button","246","550368","0.0-3.0-22.3-1.3","5ea511caa6974a4e8de26ac1","D2","batch4","","2254","","","tol_toboard","","","","","","","","","tol_peg_2","2254","2254","0","[[1,0,0],[3,0],[2]]","4","[[0,0,0],[1,2],[3]]","4","0","","","","","","7","",""
"","","","","","single-stim-button","247","553750","0.0-3.0-22.4-0.4","5ea511caa6974a4e8de26ac1","D2","batch4","","3381","","","tol_tohand","","","","","","","","","tol_peg_3","3381","3381","0","[[1,0,0],[3,0],[0]]","5","[[0,0,0],[1,2],[3]]","4","0","","","","","","7","",""
"","","","","","single-stim-button","248","554283","0.0-3.0-22.4-1.4","5ea511caa6974a4e8de26ac1","D2","batch4","","532","","","tol_toboard","","","","","","","","","tol_peg_2","532","532","0","[[1,0,0],[3,2],[0]]","5","[[0,0,0],[1,2],[3]]","4","0","","","","","","7","",""
"","","","","","single-stim-button","249","554850","0.0-3.0-22.5-0.5","5ea511caa6974a4e8de26ac1","D2","batch4","","566","","","tol_tohand","","","","","","","","","tol_peg_1","566","566","0","[[0,0,0],[3,2],[0]]","6","[[0,0,0],[1,2],[3]]","4","0","","","","","","7","",""
"","","","","","single-stim-button","250","555597","0.0-3.0-22.5-1.5","5ea511caa6974a4e8de26ac1","D2","batch4","","746","","","tol_toboard","","","","","","","","","tol_peg_3","746","746","0","[[0,0,0],[3,2],[1]]","6","[[0,0,0],[1,2],[3]]","4","0","","","","","","7","",""
"","","","","","single-stim-button","251","556200","0.0-3.0-22.6-0.6","5ea511caa6974a4e8de26ac1","D2","batch4","","602","","","tol_tohand","","","","","","","","","tol_peg_2","602","602","0","[[0,0,0],[3,0],[1]]","7","[[0,0,0],[1,2],[3]]","4","0","","","","","","7","",""
"","","","","","single-stim-button","252","556764","0.0-3.0-22.6-1.6","5ea511caa6974a4e8de26ac1","D2","batch4","","564","","","tol_toboard","","","","","","","","","tol_peg_1","564","564","0","[[2,0,0],[3,0],[1]]","7","[[0,0,0],[1,2],[3]]","4","0","","","","","","7","",""
"","","","","","single-stim-button","253","557350","0.0-3.0-22.7-0.7","5ea511caa6974a4e8de26ac1","D2","batch4","","585","","","tol_tohand","","","","","","","","","tol_peg_2","585","585","0","[[2,0,0],[0,0],[1]]","8","[[0,0,0],[1,2],[3]]","4","0","","","","","","7","",""
"","","","","","single-stim-button","254","558050","0.0-3.0-22.7-1.7","5ea511caa6974a4e8de26ac1","D2","batch4","","699","","","tol_toboard","","","","","","","","","tol_peg_1","699","699","0","[[2,3,0],[0,0],[1]]","8","[[0,0,0],[1,2],[3]]","4","0","","","","","","7","",""
"","","","","","single-stim-button","255","559014","0.0-3.0-22.8-0.8","5ea511caa6974a4e8de26ac1","D2","batch4","","963","","","tol_tohand","","","","","","","","","tol_peg_3","963","963","0","[[2,3,0],[0,0],[0]]","9","[[0,0,0],[1,2],[3]]","4","0","","","","","","7","",""
"","","","","","single-stim-button","256","559764","0.0-3.0-22.8-1.8","5ea511caa6974a4e8de26ac1","D2","batch4","","749","","","tol_toboard","","","","","","","","","tol_peg_2","749","749","0","[[2,3,0],[1,0],[0]]","9","[[0,0,0],[1,2],[3]]","4","0","","","","","","7","",""
"","","","","","single-stim-button","257","560598","0.0-3.0-22.9-0.9","5ea511caa6974a4e8de26ac1","D2","batch4","","833","","","tol_tohand","","","","","","","","","tol_peg_1","833","833","0","[[2,0,0],[1,0],[0]]","10","[[0,0,0],[1,2],[3]]","4","0","","","","","","7","",""
"","","","","","single-stim-button","258","561417","0.0-3.0-22.9-1.9","5ea511caa6974a4e8de26ac1","D2","batch4","","817","","","tol_toboard","","","","","","","","","tol_peg_3","817","817","0","[[2,0,0],[1,0],[3]]","10","[[0,0,0],[1,2],[3]]","4","0","","","","","","7","",""
"","","","","","single-stim-button","259","562083","0.0-3.0-22.10-0.10","5ea511caa6974a4e8de26ac1","D2","batch4","","666","","","tol_tohand","","","","","","","","","tol_peg_1","666","666","0","[[0,0,0],[1,0],[3]]","11","[[0,0,0],[1,2],[3]]","4","0","","","","","","7","",""
"","","","","","single-stim-button","260","562650","0.0-3.0-22.10-1.10","5ea511caa6974a4e8de26ac1","D2","batch4","","566","","","tol_toboard","","","","","","","","","tol_peg_2","566","566","0","[[0,0,0],[1,2],[3]]","11","[[0,0,0],[1,2],[3]]","4","0","","","","","","7","",""
"","","","","","poldrack-single-stim","261","563655","0.0-3.0-23.0","5ea511caa6974a4e8de26ac1","D2","batch4","","-1","","","tol_feedback","true","","","","","","","","","1000","1000","500","","","","","","-1","none","true","2698","13005","","",""
"","","","","","html-button-response","262","565516","0.0-3.0-24.0","5ea511caa6974a4e8de26ac1","D2","batch4","","1860.5999999977648","<div class = centerbox><p class = center-block-text>problem <strong>6</strong> out of 25 problems</p></div>","0","tol_trial_num","","","","","","","","","","","","","","","","","","","","","","","","",""
"","","","","","single-stim-button","263","585699","0.0-3.0-25.0-0.0","5ea511caa6974a4e8de26ac1","D2","batch4","","20181","","","tol_tohand","","","","","","","","","tol_peg_3","20181","20181","0","[[0,0,0],[1,2],[0]]","1","[[1,0,0],[2,3],[0]]","5","0","","","","","","6","",""
"","","","","","single-stim-button","264","586598","0.0-3.0-25.0-1.0","5ea511caa6974a4e8de26ac1","D2","batch4","","899","","","tol_toboard","","","","","","","","","tol_peg_1","899","899","0","[[3,0,0],[1,2],[0]]","1","[[1,0,0],[2,3],[0]]","5","0","","","","","","6","",""
"","","","","","single-stim-button","265","588348","0.0-3.0-25.1-0.1","5ea511caa6974a4e8de26ac1","D2","batch4","","1749","","","tol_tohand","","","","","","","","","tol_peg_2","1749","1749","0","[[3,0,0],[1,0],[0]]","2","[[1,0,0],[2,3],[0]]","5","0","","","","","","6","",""
"","","","","","single-stim-button","266","589067","0.0-3.0-25.1-1.1","5ea511caa6974a4e8de26ac1","D2","batch4","","718","","","tol_toboard","","","","","","","","","tol_peg_1","718","718","0","[[3,2,0],[1,0],[0]]","2","[[1,0,0],[2,3],[0]]","5","0","","","","","","6","",""
"","","","","","single-stim-button","267","589984","0.0-3.0-25.2-0.2","5ea511caa6974a4e8de26ac1","D2","batch4","","916","","","tol_tohand","","","","","","","","","tol_peg_2","916","916","0","[[3,2,0],[0,0],[0]]","3","[[1,0,0],[2,3],[0]]","5","0","","","","","","6","",""
"","","","","","single-stim-button","268","590851","0.0-3.0-25.2-1.2","5ea511caa6974a4e8de26ac1","D2","batch4","","866","","","tol_toboard","","","","","","","","","tol_peg_3","866","866","0","[[3,2,0],[0,0],[1]]","3","[[1,0,0],[2,3],[0]]","5","0","","","","","","6","",""
"","","","","","single-stim-button","269","591600","0.0-3.0-25.3-0.3","5ea511caa6974a4e8de26ac1","D2","batch4","","748","","","tol_tohand","","","","","","","","","tol_peg_1","748","748","0","[[3,0,0],[0,0],[1]]","4","[[1,0,0],[2,3],[0]]","5","0","","","","","","6","",""
"","","","","","single-stim-button","270","592352","0.0-3.0-25.3-1.3","5ea511caa6974a4e8de26ac1","D2","batch4","","750","","","tol_toboard","","","","","","","","","tol_peg_2","750","750","0","[[3,0,0],[2,0],[1]]","4","[[1,0,0],[2,3],[0]]","5","0","","","","","","6","",""
"","","","","","single-stim-button","271","593050","0.0-3.0-25.4-0.4","5ea511caa6974a4e8de26ac1","D2","batch4","","698","","","tol_tohand","","","","","","","","","tol_peg_1","698","698","0","[[0,0,0],[2,0],[1]]","5","[[1,0,0],[2,3],[0]]","5","0","","","","","","6","",""
"","","","","","single-stim-button","272","593551","0.0-3.0-25.4-1.4","5ea511caa6974a4e8de26ac1","D2","batch4","","500","","","tol_toboard","","","","","","","","","tol_peg_2","500","500","0","[[0,0,0],[2,3],[1]]","5","[[1,0,0],[2,3],[0]]","5","0","","","","","","6","",""
"","","","","","single-stim-button","273","594017","0.0-3.0-25.5-0.5","5ea511caa6974a4e8de26ac1","D2","batch4","","465","","","tol_tohand","","","","","","","","","tol_peg_3","465","465","0","[[0,0,0],[2,3],[0]]","6","[[1,0,0],[2,3],[0]]","5","0","","","","","","6","",""
"","","","","","single-stim-button","274","595115","0.0-3.0-25.5-1.5","5ea511caa6974a4e8de26ac1","D2","batch4","","1097","","","tol_toboard","","","","","","","","","tol_peg_1","1097","1097","0","[[1,0,0],[2,3],[0]]","6","[[1,0,0],[2,3],[0]]","5","0","","","","","","6","",""
"","","","","","poldrack-single-stim","275","596121","0.0-3.0-26.0","5ea511caa6974a4e8de26ac1","D2","batch4","","-1","","","tol_feedback","true","","","","","","","","","1000","1000","500","","","","","","-1","none","true","20181","24757","","",""
"","","","","","html-button-response","276","596918","0.0-3.0-27.0","5ea511caa6974a4e8de26ac1","D2","batch4","","795.5","<div class = centerbox><p class = center-block-text>problem <strong>7</strong> out of 25 problems</p></div>","0","tol_trial_num","","","","","","","","","","","","","","","","","","","","","","","","",""
"","","","","","single-stim-button","277","602932","0.0-3.0-28.0-0.0","5ea511caa6974a4e8de26ac1","D2","batch4","","6013","","","tol_tohand","","","","","","","","","tol_peg_3","6013","6013","0","[[2,1,0],[0,0],[0]]","1","[[1,2,0],[3,0],[0]]","6","0","","","","","","5","",""
"","","","","","single-stim-button","278","603632","0.0-3.0-28.0-1.0","5ea511caa6974a4e8de26ac1","D2","batch4","","699","","","tol_toboard","","","","","","","","","tol_peg_2","699","699","0","[[2,1,0],[3,0],[0]]","1","[[1,2,0],[3,0],[0]]","6","0","","","","","","5","",""
"","","","","","single-stim-button","279","604249","0.0-3.0-28.1-0.1","5ea511caa6974a4e8de26ac1","D2","batch4","","616","","","tol_tohand","","","","","","","","","tol_peg_1","616","616","0","[[2,0,0],[3,0],[0]]","2","[[1,2,0],[3,0],[0]]","6","0","","","","","","5","",""
"","","","","","single-stim-button","280","605232","0.0-3.0-28.1-1.1","5ea511caa6974a4e8de26ac1","D2","batch4","","983","","","tol_toboard","","","","","","","","","tol_peg_3","983","983","0","[[2,0,0],[3,0],[1]]","2","[[1,2,0],[3,0],[0]]","6","0","","","","","","5","",""
"","","","","","single-stim-button","281","605983","0.0-3.0-28.2-0.2","5ea511caa6974a4e8de26ac1","D2","batch4","","749","","","tol_tohand","","","","","","","","","tol_peg_1","749","749","0","[[0,0,0],[3,0],[1]]","3","[[1,2,0],[3,0],[0]]","6","0","","","","","","5","",""
"","","","","","single-stim-button","282","606399","0.0-3.0-28.2-1.2","5ea511caa6974a4e8de26ac1","D2","batch4","","416","","","tol_toboard","","","","","","","","","tol_peg_2","416","416","0","[[0,0,0],[3,2],[1]]","3","[[1,2,0],[3,0],[0]]","6","0","","","","","","5","",""
"","","","","","single-stim-button","283","606898","0.0-3.0-28.3-0.3","5ea511caa6974a4e8de26ac1","D2","batch4","","499","","","tol_tohand","","","","","","","","","tol_peg_3","499","499","0","[[0,0,0],[3,2],[0]]","4","[[1,2,0],[3,0],[0]]","6","0","","","","","","5","",""
"","","","","","single-stim-button","284","607902","0.0-3.0-28.3-1.3","5ea511caa6974a4e8de26ac1","D2","batch4","","1004","","","tol_toboard","","","","","","","","","tol_peg_1","1004","1004","0","[[1,0,0],[3,2],[0]]","4","[[1,2,0],[3,0],[0]]","6","0","","","","","","5","",""
"","","","","","single-stim-button","285","608617","0.0-3.0-28.4-0.4","5ea511caa6974a4e8de26ac1","D2","batch4","","714","","","tol_tohand","","","","","","","","","tol_peg_2","714","714","0","[[1,0,0],[3,0],[0]]","5","[[1,2,0],[3,0],[0]]","6","0","","","","","","5","",""
"","","","","","single-stim-button","286","609198","0.0-3.0-28.4-1.4","5ea511caa6974a4e8de26ac1","D2","batch4","","580","","","tol_toboard","","","","","","","","","tol_peg_1","580","580","0","[[1,2,0],[3,0],[0]]","5","[[1,2,0],[3,0],[0]]","6","0","","","","","","5","",""
"","","","","","poldrack-single-stim","287","610206","0.0-3.0-29.0","5ea511caa6974a4e8de26ac1","D2","batch4","","-1","","","tol_feedback","true","","","","","","","","","1000","1000","500","","","","","","-1","none","true","6013","8591","","",""
"","","","","","html-button-response","288","611136","0.0-3.0-30.0","5ea511caa6974a4e8de26ac1","D2","batch4","","929.1000000014901","<div class = centerbox><p class = center-block-text>problem <strong>8</strong> out of 25 problems</p></div>","0","tol_trial_num","","","","","","","","","","","","","","","","","","","","","","","","",""
"","","","","","single-stim-button","289","613366","0.0-3.0-31.0-0.0","5ea511caa6974a4e8de26ac1","D2","batch4","","2230","","","tol_tohand","","","","","","","","","tol_peg_3","2230","2230","0","[[0,0,0],[2,3],[0]]","1","[[1,2,0],[3,0],[0]]","7","0","","","","","","4","",""
"","","","","","single-stim-button","290","614317","0.0-3.0-31.0-1.0","5ea511caa6974a4e8de26ac1","D2","batch4","","951","","","tol_toboard","","","","","","","","","tol_peg_1","951","951","0","[[1,0,0],[2,3],[0]]","1","[[1,2,0],[3,0],[0]]","7","0","","","","","","4","",""
"","","","","","single-stim-button","291","615048","0.0-3.0-31.1-0.1","5ea511caa6974a4e8de26ac1","D2","batch4","","731","","","tol_tohand","","","","","","","","","tol_peg_2","731","731","0","[[1,0,0],[2,0],[0]]","2","[[1,2,0],[3,0],[0]]","7","0","","","","","","4","",""
"","","","","","single-stim-button","292","615666","0.0-3.0-31.1-1.1","5ea511caa6974a4e8de26ac1","D2","batch4","","618","","","tol_toboard","","","","","","","","","tol_peg_3","618","618","0","[[1,0,0],[2,0],[3]]","2","[[1,2,0],[3,0],[0]]","7","0","","","","","","4","",""
"","","","","","single-stim-button","293","616181","0.0-3.0-31.2-0.2","5ea511caa6974a4e8de26ac1","D2","batch4","","514","","","tol_tohand","","","","","","","","","tol_peg_2","514","514","0","[[1,0,0],[0,0],[3]]","3","[[1,2,0],[3,0],[0]]","7","0","","","","","","4","",""
"","","","","","single-stim-button","294","617149","0.0-3.0-31.2-1.2","5ea511caa6974a4e8de26ac1","D2","batch4","","967","","","tol_toboard","","","","","","","","","tol_peg_1","967","967","0","[[1,2,0],[0,0],[3]]","3","[[1,2,0],[3,0],[0]]","7","0","","","","","","4","",""
"","","","","","single-stim-button","295","617898","0.0-3.0-31.3-0.3","5ea511caa6974a4e8de26ac1","D2","batch4","","748","","","tol_tohand","","","","","","","","","tol_peg_3","748","748","0","[[1,2,0],[0,0],[0]]","4","[[1,2,0],[3,0],[0]]","7","0","","","","","","4","",""
"","","","","","single-stim-button","296","618617","0.0-3.0-31.3-1.3","5ea511caa6974a4e8de26ac1","D2","batch4","","718","","","tol_toboard","","","","","","","","","tol_peg_2","718","718","0","[[1,2,0],[3,0],[0]]","4","[[1,2,0],[3,0],[0]]","7","0","","","","","","4","",""
"","","","","","poldrack-single-stim","297","619621","0.0-3.0-32.0","5ea511caa6974a4e8de26ac1","D2","batch4","","-1","","","tol_feedback","true","","","","","","","","","1000","1000","500","","","","","","-1","none","true","2230","4223","","",""
"","","","","","html-button-response","298","620418","0.0-3.0-33.0","5ea511caa6974a4e8de26ac1","D2","batch4","","796.3000000007451","<div class = centerbox><p class = center-block-text>problem <strong>9</strong> out of 25 problems</p></div>","0","tol_trial_num","","","","","","","","","","","","","","","","","","","","","","","","",""
"","","","","","single-stim-button","299","627801","0.0-3.0-34.0-0.0","5ea511caa6974a4e8de26ac1","D2","batch4","","7382","","","tol_tohand","","","","","","","","","tol_peg_3","7382","7382","0","[[3,2,0],[0,0],[0]]","1","[[2,1,0],[3,0],[0]]","8","0","","","","","","6","",""
"","","","","","single-stim-button","300","628369","0.0-3.0-34.0-1.0","5ea511caa6974a4e8de26ac1","D2","batch4","","567","","","tol_toboard","","","","","","","","","tol_peg_2","567","567","0","[[3,2,0],[1,0],[0]]","1","[[2,1,0],[3,0],[0]]","8","0","","","","","","6","",""
"","","","","","single-stim-button","301","629466","0.0-3.0-34.1-0.1","5ea511caa6974a4e8de26ac1","D2","batch4","","1096","","","tol_tohand","","","","","","","","","tol_peg_1","1096","1096","0","[[3,0,0],[1,0],[0]]","2","[[2,1,0],[3,0],[0]]","8","0","","","","","","6","",""
"","","","","","single-stim-button","302","630502","0.0-3.0-34.1-1.1","5ea511caa6974a4e8de26ac1","D2","batch4","","1035","","","tol_toboard","","","","","","","","","tol_peg_3","1035","1035","0","[[3,0,0],[1,0],[2]]","2","[[2,1,0],[3,0],[0]]","8","0","","","","","","6","",""
"","","","","","single-stim-button","303","631303","0.0-3.0-34.2-0.2","5ea511caa6974a4e8de26ac1","D2","batch4","","799","","","tol_tohand","","","","","","","","","tol_peg_1","799","799","0","[[0,0,0],[1,0],[2]]","3","[[2,1,0],[3,0],[0]]","8","0","","","","","","6","",""
"","","","","","single-stim-button","304","632200","0.0-3.0-34.2-1.2","5ea511caa6974a4e8de26ac1","D2","batch4","","896","","","tol_toboard","","","","","","","","","tol_peg_2","896","896","0","[[0,0,0],[1,3],[2]]","3","[[2,1,0],[3,0],[0]]","8","0","","","","","","6","",""
"","","","","","single-stim-button","305","632749","0.0-3.0-34.3-0.3","5ea511caa6974a4e8de26ac1","D2","batch4","","548","","","tol_tohand","","","","","","","","","tol_peg_3","548","548","0","[[0,0,0],[1,3],[0]]","4","[[2,1,0],[3,0],[0]]","8","0","","","","","","6","",""
"","","","","","single-stim-button","306","633835","0.0-3.0-34.3-1.3","5ea511caa6974a4e8de26ac1","D2","batch4","","1086","","","tol_toboard","","","","","","","","","tol_peg_1","1086","1086","0","[[2,0,0],[1,3],[0]]","4","[[2,1,0],[3,0],[0]]","8","0","","","","","","6","",""
"","","","","","single-stim-button","307","634550","0.0-3.0-34.4-0.4","5ea511caa6974a4e8de26ac1","D2","batch4","","713","","","tol_tohand","","","","","","","","","tol_peg_2","713","713","0","[[2,0,0],[1,0],[0]]","5","[[2,1,0],[3,0],[0]]","8","0","","","","","","6","",""
"","","","","","single-stim-button","308","635286","0.0-3.0-34.4-1.4","5ea511caa6974a4e8de26ac1","D2","batch4","","735","","","tol_toboard","","","","","","","","","tol_peg_3","735","735","0","[[2,0,0],[1,0],[3]]","5","[[2,1,0],[3,0],[0]]","8","0","","","","","","6","",""
"","","","","","single-stim-button","309","635766","0.0-3.0-34.5-0.5","5ea511caa6974a4e8de26ac1","D2","batch4","","480","","","tol_tohand","","","","","","","","","tol_peg_2","480","480","0","[[2,0,0],[0,0],[3]]","6","[[2,1,0],[3,0],[0]]","8","0","","","","","","6","",""
"","","","","","single-stim-button","310","636386","0.0-3.0-34.5-1.5","5ea511caa6974a4e8de26ac1","D2","batch4","","618","","","tol_toboard","","","","","","","","","tol_peg_1","618","618","0","[[2,1,0],[0,0],[3]]","6","[[2,1,0],[3,0],[0]]","8","0","","","","","","6","",""
"","","","","","single-stim-button","311","637200","0.0-3.0-34.6-0.6","5ea511caa6974a4e8de26ac1","D2","batch4","","813","","","tol_tohand","","","","","","","","","tol_peg_3","813","813","0","[[2,1,0],[0,0],[0]]","7","[[2,1,0],[3,0],[0]]","8","0","","","","","","6","",""
"","","","","","single-stim-button","312","637700","0.0-3.0-34.6-1.6","5ea511caa6974a4e8de26ac1","D2","batch4","","500","","","tol_toboard","","","","","","","","","tol_peg_2","500","500","0","[[2,1,0],[3,0],[0]]","7","[[2,1,0],[3,0],[0]]","8","0","","","","","","6","",""
"","","","","","poldrack-single-stim","313","638711","0.0-3.0-35.0","5ea511caa6974a4e8de26ac1","D2","batch4","","-1","","","tol_feedback","true","","","","","","","","","1000","1000","500","","","","","","-1","none","true","7382","11831","","",""
"","","","","","html-button-response","314","639499","0.0-3.0-36.0","5ea511caa6974a4e8de26ac1","D2","batch4","","787.1000000014901","<div class = centerbox><p class = center-block-text>problem <strong>10</strong> out of 25 problems</p></div>","0","tol_trial_num","","","","","","","","","","","","","","","","","","","","","","","","",""
"","","","","","single-stim-button","315","642286","0.0-3.0-37.0-0.0","5ea511caa6974a4e8de26ac1","D2","batch4","","2786","","","tol_tohand","","","","","","","","","tol_peg_2","2786","2786","0","[[3,0,0],[0,0],[2]]","1","[[3,0,0],[2,1],[0]]","9","0","","","","","","3","",""
"","","","","","single-stim-button","316","642850","0.0-3.0-37.0-1.0","5ea511caa6974a4e8de26ac1","D2","batch4","","563","","","tol_toboard","","","","","","","","","tol_peg_1","563","563","0","[[3,1,0],[0,0],[2]]","1","[[3,0,0],[2,1],[0]]","9","0","","","","","","3","",""
"","","","","","single-stim-button","317","643433","0.0-3.0-37.1-0.1","5ea511caa6974a4e8de26ac1","D2","batch4","","582","","","tol_tohand","","","","","","","","","tol_peg_3","582","582","0","[[3,1,0],[0,0],[0]]","2","[[3,0,0],[2,1],[0]]","9","0","","","","","","3","",""
"","","","","","single-stim-button","318","643852","0.0-3.0-37.1-1.1","5ea511caa6974a4e8de26ac1","D2","batch4","","418","","","tol_toboard","","","","","","","","","tol_peg_2","418","418","0","[[3,1,0],[2,0],[0]]","2","[[3,0,0],[2,1],[0]]","9","0","","","","","","3","",""
"","","","","","single-stim-button","319","644403","0.0-3.0-37.2-0.2","5ea511caa6974a4e8de26ac1","D2","batch4","","549","","","tol_tohand","","","","","","","","","tol_peg_1","549","549","0","[[3,0,0],[2,0],[0]]","3","[[3,0,0],[2,1],[0]]","9","0","","","","","","3","",""
"","","","","","single-stim-button","320","644918","0.0-3.0-37.2-1.2","5ea511caa6974a4e8de26ac1","D2","batch4","","515","","","tol_toboard","","","","","","","","","tol_peg_2","515","515","0","[[3,0,0],[2,1],[0]]","3","[[3,0,0],[2,1],[0]]","9","0","","","","","","3","",""
"","","","","","poldrack-single-stim","321","645928","0.0-3.0-38.0","5ea511caa6974a4e8de26ac1","D2","batch4","","-1","","","tol_feedback","true","","","","","","","","","1000","1000","500","","","","","","-1","none","true","2786","3917","","",""
"","","","","","html-button-response","322","646702","0.0-3.0-39.0","5ea511caa6974a4e8de26ac1","D2","batch4","","772.6999999992549","<div class = centerbox><p class = center-block-text>problem <strong>11</strong> out of 25 problems</p></div>","0","tol_trial_num","","","","","","","","","","","","","","","","","","","","","","","","",""
"","","","","","single-stim-button","323","650987","0.0-3.0-40.0-0.0","5ea511caa6974a4e8de26ac1","D2","batch4","","4284","","","tol_tohand","","","","","","","","","tol_peg_2","4284","4284","0","[[1,2,0],[0,0],[0]]","1","[[2,0,0],[1,3],[0]]","10","0","","","","","","6","",""
"","","","","","single-stim-button","324","653599","0.0-3.0-40.0-1.0","5ea511caa6974a4e8de26ac1","D2","batch4","","2611","","","tol_toboard","","","","","","","","","tol_peg_3","2611","2611","0","[[1,2,0],[0,0],[3]]","1","[[2,0,0],[1,3],[0]]","10","0","","","","","","6","",""
"","","","","","single-stim-button","325","654317","0.0-3.0-40.1-0.1","5ea511caa6974a4e8de26ac1","D2","batch4","","717","","","tol_tohand","","","","","","","","","tol_peg_1","717","717","0","[[1,0,0],[0,0],[3]]","2","[[2,0,0],[1,3],[0]]","10","0","","","","","","6","",""
"","","","","","single-stim-button","326","655069","0.0-3.0-40.1-1.1","5ea511caa6974a4e8de26ac1","D2","batch4","","751","","","tol_toboard","","","","","","","","","tol_peg_2","751","751","0","[[1,0,0],[2,0],[3]]","2","[[2,0,0],[1,3],[0]]","10","0","","","","","","6","",""
"","","","","","single-stim-button","327","659183","0.0-3.0-40.2-0.2","5ea511caa6974a4e8de26ac1","D2","batch4","","4113","","","tol_tohand","","","","","","","","","tol_peg_3","4113","4113","0","[[1,0,0],[2,0],[0]]","3","[[2,0,0],[1,3],[0]]","10","0","","","","","","6","",""
"","","","","","single-stim-button","328","659650","0.0-3.0-40.2-1.2","5ea511caa6974a4e8de26ac1","D2","batch4","","466","","","tol_toboard","","","","","","","","","tol_peg_2","466","466","0","[[1,0,0],[2,3],[0]]","3","[[2,0,0],[1,3],[0]]","10","0","","","","","","6","",""
"","","","","","single-stim-button","329","660266","0.0-3.0-40.3-0.3","5ea511caa6974a4e8de26ac1","D2","batch4","","615","","","tol_tohand","","","","","","","","","tol_peg_1","615","615","0","[[0,0,0],[2,3],[0]]","4","[[2,0,0],[1,3],[0]]","10","0","","","","","","6","",""
"","","","","","single-stim-button","330","660949","0.0-3.0-40.3-1.3","5ea511caa6974a4e8de26ac1","D2","batch4","","682","","","tol_toboard","","","","","","","","","tol_peg_3","682","682","0","[[0,0,0],[2,3],[1]]","4","[[2,0,0],[1,3],[0]]","10","0","","","","","","6","",""
"","","","","","single-stim-button","331","661818","0.0-3.0-40.4-0.4","5ea511caa6974a4e8de26ac1","D2","batch4","","868","","","tol_tohand","","","","","","","","","tol_peg_2","868","868","0","[[0,0,0],[2,0],[1]]","5","[[2,0,0],[1,3],[0]]","10","0","","","","","","6","",""
"","","","","","single-stim-button","332","665134","0.0-3.0-40.4-1.4","5ea511caa6974a4e8de26ac1","D2","batch4","","3316","","","tol_toboard","","","","","","","","","tol_peg_1","3316","3316","0","[[3,0,0],[2,0],[1]]","5","[[2,0,0],[1,3],[0]]","10","0","","","","","","6","",""
"","","","","","single-stim-button","333","665651","0.0-3.0-40.5-0.5","5ea511caa6974a4e8de26ac1","D2","batch4","","516","","","tol_tohand","","","","","","","","","tol_peg_2","516","516","0","[[3,0,0],[0,0],[1]]","6","[[2,0,0],[1,3],[0]]","10","0","","","","","","6","",""
"","","","","","single-stim-button","334","666551","0.0-3.0-40.5-1.5","5ea511caa6974a4e8de26ac1","D2","batch4","","898","","","tol_toboard","","","","","","","","","tol_peg_1","898","898","0","[[3,2,0],[0,0],[1]]","6","[[2,0,0],[1,3],[0]]","10","0","","","","","","6","",""
"","","","","","single-stim-button","335","667318","0.0-3.0-40.6-0.6","5ea511caa6974a4e8de26ac1","D2","batch4","","767","","","tol_tohand","","","","","","","","","tol_peg_3","767","767","0","[[3,2,0],[0,0],[0]]","7","[[2,0,0],[1,3],[0]]","10","0","","","","","","6","",""
"","","","","","single-stim-button","336","667885","0.0-3.0-40.6-1.6","5ea511caa6974a4e8de26ac1","D2","batch4","","566","","","tol_toboard","","","","","","","","","tol_peg_2","566","566","0","[[3,2,0],[1,0],[0]]","7","[[2,0,0],[1,3],[0]]","10","0","","","","","","6","",""
"","","","","","single-stim-button","337","669118","0.0-3.0-40.7-0.7","5ea511caa6974a4e8de26ac1","D2","batch4","","1232","","","tol_tohand","","","","","","","","","tol_peg_1","1232","1232","0","[[3,0,0],[1,0],[0]]","8","[[2,0,0],[1,3],[0]]","10","0","","","","","","6","",""
"","","","","","single-stim-button","338","670601","0.0-3.0-40.7-1.7","5ea511caa6974a4e8de26ac1","D2","batch4","","1482","","","tol_toboard","","","","","","","","","tol_peg_3","1482","1482","0","[[3,0,0],[1,0],[2]]","8","[[2,0,0],[1,3],[0]]","10","0","","","","","","6","",""
"","","","","","single-stim-button","339","671238","0.0-3.0-40.8-0.8","5ea511caa6974a4e8de26ac1","D2","batch4","","635","","","tol_tohand","","","","","","","","","tol_peg_1","635","635","0","[[0,0,0],[1,0],[2]]","9","[[2,0,0],[1,3],[0]]","10","0","","","","","","6","",""
"","","","","","single-stim-button","340","671651","0.0-3.0-40.8-1.8","5ea511caa6974a4e8de26ac1","D2","batch4","","412","","","tol_toboard","","","","","","","","","tol_peg_2","412","412","0","[[0,0,0],[1,3],[2]]","9","[[2,0,0],[1,3],[0]]","10","0","","","","","","6","",""
"","","","","","single-stim-button","341","672116","0.0-3.0-40.9-0.9","5ea511caa6974a4e8de26ac1","D2","batch4","","465","","","tol_tohand","","","","","","","","","tol_peg_3","465","465","0","[[0,0,0],[1,3],[0]]","10","[[2,0,0],[1,3],[0]]","10","0","","","","","","6","",""
"","","","","","single-stim-button","342","672851","0.0-3.0-40.9-1.9","5ea511caa6974a4e8de26ac1","D2","batch4","","734","","","tol_toboard","","","","","","","","","tol_peg_1","734","734","0","[[2,0,0],[1,3],[0]]","10","[[2,0,0],[1,3],[0]]","10","0","","","","","","6","",""
"","","","","","poldrack-single-stim","343","673858","0.0-3.0-41.0","5ea511caa6974a4e8de26ac1","D2","batch4","","-1","","","tol_feedback","true","","","","","","","","","1000","1000","500","","","","","","-1","none","true","4284","14212","","",""
"","","","","","html-button-response","344","674682","0.0-3.0-42.0","5ea511caa6974a4e8de26ac1","D2","batch4","","742.5","<div class = centerbox><p class = center-block-text>problem <strong>12</strong> out of 25 problems</p></div>","0","tol_trial_num","","","","","","","","","","","","","","","","","","","","","","","","",""
"","","","","","single-stim-button","345","684185","0.0-3.0-43.0-0.0","5ea511caa6974a4e8de26ac1","D2","batch4","","9501","","","tol_tohand","","","","","","","","","tol_peg_1","9501","9501","0","[[1,0,0],[3,0],[0]]","1","[[2,3,0],[0,0],[1]]","11","0","","","","","","4","",""
"","","","","","single-stim-button","346","684799","0.0-3.0-43.0-1.0","5ea511caa6974a4e8de26ac1","D2","batch4","","613","","","tol_toboard","","","","","","","","","tol_peg_2","613","613","0","[[1,0,0],[3,2],[0]]","1","[[2,3,0],[0,0],[1]]","11","0","","","","","","4","",""
"","","","","","single-stim-button","347","685835","0.0-3.0-43.1-0.1","5ea511caa6974a4e8de26ac1","D2","batch4","","1036","","","tol_tohand","","","","","","","","","tol_peg_1","1036","1036","0","[[0,0,0],[3,2],[0]]","2","[[2,3,0],[0,0],[1]]","11","0","","","","","","4","",""
"","","","","","single-stim-button","348","686568","0.0-3.0-43.1-1.1","5ea511caa6974a4e8de26ac1","D2","batch4","","732","","","tol_toboard","","","","","","","","","tol_peg_3","732","732","0","[[0,0,0],[3,2],[1]]","2","[[2,3,0],[0,0],[1]]","11","0","","","","","","4","",""
"","","","","","single-stim-button","349","687265","0.0-3.0-43.2-0.2","5ea511caa6974a4e8de26ac1","D2","batch4","","696","","","tol_tohand","","","","","","","","","tol_peg_2","696","696","0","[[0,0,0],[3,0],[1]]","3","[[2,3,0],[0,0],[1]]","11","0","","","","","","4","",""
