"success","timeout","failed_images","failed_audio","failed_video","trial_type","trial_index","time_elapsed","internal_node_id","subject_id","study_id","session_id","view_history","rt","task","stimulus","response","correct","mouse_click","stim_duration","block_duration","timing_post_trial","current_position","tol_num_moves_made","tol_target","tol_problem_id","tol_rt","key_press","possible_responses","tol_correct","preplanning","tol_rt_per_trial","tol_min_moves","answer","item","fiar_detect_rt","fiar_detect_correct","total_correct_fiar_detect","post_trial_gap","choices","spm_correct","spm_rt"
"true","false","[]","[]","[]","preload","0","16031","0.0-0.0","5eaf76ae6665cc671414ab73","D2","batch4","","","","","","","","","","","","","","","","","","","","","","","","","","","","","",""
"true","","","","","fullscreen","1","28211","0.0-1.0-0.0","5eaf76ae6665cc671414ab73","D2","batch4","","","","","","","","","","","","","","","","","","","","","","","","","","","","","",""
"true","","","","","fullscreen","2","31512","0.0-2.0-0.0","5eaf76ae6665cc671414ab73","D2","batch4","","","","","","","","","","","","","","","","","","","","","","","","","","","","","",""
"","","","","","instructions","3","101798","0.0-2.0-1.0-0.0-0.0","5eaf76ae6665cc671414ab73","D2","batch4","[{""page_index"":0,""viewing_time"":19619.69999998808},{""page_index"":1,""viewing_time"":6580.699999988079},{""page_index"":2,""viewing_time"":3274.300000011921},{""page_index"":3,""viewing_time"":12230.600000023842},{""page_index"":4,""viewing_time"":6680.299999952316},{""page_index"":5,""viewing_time"":16708.5},{""page_index"":6,""viewing_time"":5186.900000035763}]","70282.19999998808","tol-instructions","","","","","","","","","","","","","","","","","","","","","","","","","","",""
"","","","","","html-button-response","4","103149","0.0-2.0-1.0-1.0-0.0","5eaf76ae6665cc671414ab73","D2","batch4","","1345.6000000238419","tol_enter_quiz","<p class=block-text> Let's answer a few questions <br>","0","","","","","","","","","","","","","","","","","","","","","","","","",""
"","","","","","html-button-response","5","107333","0.0-2.0-1.0-1.0-1.0","5eaf76ae6665cc671414ab73","D2","batch4","","4178.699999988079","tol_quiz","<p class = block-text>True or False: You can only move the ball on top of a peg. <br></p>","0","true","","","","","","","","","","","","","","","","","","","","","","","",""
"","","","","","html-button-response","6","108763","0.0-2.0-1.0-1.0-2.0","5eaf76ae6665cc671414ab73","D2","batch4","","1422.9000000357628","tol_quiz_feedback","<p class = block-text>Correct! You can only move the ball on top of a peg.</p>","0","","","","","","","","","","","","","","","","","","","","","","","","",""
"","","","","","html-button-response","7","112728","0.0-2.0-1.0-1.0-3.0","5eaf76ae6665cc671414ab73","D2","batch4","","3962","tol_quiz","<p class = block-text>True or False: You should try to match your board with the target board with fewest moves possible. <br></p>","0","true","","","","","","","","","","","","","","","","","","","","","","","",""
"","","","","","html-button-response","8","113941","0.0-2.0-1.0-1.0-4.0","5eaf76ae6665cc671414ab73","D2","batch4","","1209.8999999761581","tol_quiz_feedback","<p class = block-text>Correct! </p>","0","","","","","","","","","","","","","","","","","","","","","","","","",""
"","","","","","html-button-response","9","116202","0.0-2.0-2.0","5eaf76ae6665cc671414ab73","D2","batch4","","2254.899999976158","","<p class=block-text> Now that you've understood the game, let's practice a few easier examples before we start!<br> <br>","0","","","","","","","","","","","","","","","","","","","","","","","","",""
"","","","","","single-stim-button","10","118264","0.0-2.0-3.0-0.0","5eaf76ae6665cc671414ab73","D2","batch4","","2053","tol_practice","","","","tol_peg_2","2053","2053","0","[[1,2,0],[0,0],[0]]","1","[[1,2,0],[0,0],[3]]","practice","2053","","","","","","","","","","","","","","",""
"","","","","","single-stim-button","11","119562","0.0-2.0-3.0-1.0","5eaf76ae6665cc671414ab73","D2","batch4","","1292","tol_practice","","","","tol_peg_3","1292","1292","0","[[1,2,0],[0,0],[3]]","1","[[1,2,0],[0,0],[3]]","practice","1292","","","","","","","","","","","","","","",""
"","","","","","poldrack-single-stim","12","120570","0.0-2.0-4.0","5eaf76ae6665cc671414ab73","D2","batch4","","-1","tol_feedback","","","true","","1000","1000","500","","","","","","-1","none","true","","0","","","","","","","","","",""
"","","","","","single-stim-button","13","123474","0.0-2.0-5.0-0.0","5eaf76ae6665cc671414ab73","D2","batch4","","2901","tol_practice","","","","tol_peg_1","2901","2901","0","[[1,0,0],[3,0],[0]]","2","[[0,0,0],[3,1],[2]]","practice","2901","","","","","","","","","","","","","","",""
"","","","","","single-stim-button","14","125487","0.0-2.0-5.0-1.0","5eaf76ae6665cc671414ab73","D2","batch4","","2010","tol_practice","","","","tol_peg_3","2010","2010","0","[[1,0,0],[3,0],[2]]","2","[[0,0,0],[3,1],[2]]","practice","2010","","","","","","","","","","","","","","",""
"","","","","","single-stim-button","15","126519","0.0-2.0-5.1-0.1","5eaf76ae6665cc671414ab73","D2","batch4","","1027","tol_practice","","","","tol_peg_1","1027","1027","0","[[0,0,0],[3,0],[2]]","3","[[0,0,0],[3,1],[2]]","practice","1027","","","","","","","","","","","","","","",""
"","","","","","single-stim-button","16","128160","0.0-2.0-5.1-1.1","5eaf76ae6665cc671414ab73","D2","batch4","","1638","tol_practice","","","","tol_peg_2","1638","1638","0","[[0,0,0],[3,1],[2]]","3","[[0,0,0],[3,1],[2]]","practice","1638","","","","","","","","","","","","","","",""
"","","","","","poldrack-single-stim","17","129191","0.0-2.0-6.0","5eaf76ae6665cc671414ab73","D2","batch4","","-1","tol_feedback","","","true","","1000","1000","500","","","","","","-1","none","true","","0","","","","","","","","","",""
"","","","","","single-stim-button","18","132417","0.0-2.0-7.0-0.0","5eaf76ae6665cc671414ab73","D2","batch4","","3223","tol_practice","","","","tol_peg_2","3223","3223","0","[[1,2,0],[0,0],[0]]","4","[[1,0,0],[2,0],[3]]","practice","3223","","","","","","","","","","","","","","",""
"","","","","","single-stim-button","19","133718","0.0-2.0-7.0-1.0","5eaf76ae6665cc671414ab73","D2","batch4","","1298","tol_practice","","","","tol_peg_3","1298","1298","0","[[1,2,0],[0,0],[3]]","4","[[1,0,0],[2,0],[3]]","practice","1298","","","","","","","","","","","","","","",""
"","","","","","single-stim-button","20","134832","0.0-2.0-7.1-0.1","5eaf76ae6665cc671414ab73","D2","batch4","","1111","tol_practice","","","","tol_peg_1","1111","1111","0","[[1,0,0],[0,0],[3]]","5","[[1,0,0],[2,0],[3]]","practice","1111","","","","","","","","","","","","","","",""
"","","","","","single-stim-button","21","136020","0.0-2.0-7.1-1.1","5eaf76ae6665cc671414ab73","D2","batch4","","1186","tol_practice","","","","tol_peg_2","1186","1186","0","[[1,0,0],[2,0],[3]]","5","[[1,0,0],[2,0],[3]]","practice","1186","","","","","","","","","","","","","","",""
"","","","","","poldrack-single-stim","22","137029","0.0-2.0-8.0","5eaf76ae6665cc671414ab73","D2","batch4","","-1","tol_feedback","","","true","","1000","1000","500","","","","","","-1","none","true","","0","","","","","","","","","",""
"","","","","","html-button-response","23","140324","0.0-2.0-9.0","5eaf76ae6665cc671414ab73","D2","batch4","","3291.900000035763","tol_instruction","<div class = centerbox><p class = center-block-text>Great job! You are done with practice trials<br>You are about to start official trials.<br> <br> Problem <strong>1</strong> out of 25 problems</p></div>","0","","","","","","","","","","","","","","","","","","","","","","","","",""
"","","","","","single-stim-button","24","144479","0.0-2.0-10.0-0.0","5eaf76ae6665cc671414ab73","D2","batch4","","3150","tol_tohand","","","","tol_peg_2","3150","3150","0","[[1,2,0],[0,0],[0]]","1","[[1,3,0],[2,0],[0]]","0","0","","","","","","3","","","","","","","","",""
"","","","","","single-stim-button","25","152540","0.0-2.0-10.0-1.0","5eaf76ae6665cc671414ab73","D2","batch4","","8058","tol_toboard","","","","tol_peg_2","8058","8058","0","[[1,2,0],[3,0],[0]]","1","[[1,3,0],[2,0],[0]]","0","0","","","","","","3","","","","","","","","",""
"","","","","","single-stim-button","26","153423","0.0-2.0-10.1-0.1","5eaf76ae6665cc671414ab73","D2","batch4","","878","tol_tohand","","","","tol_peg_1","878","878","0","[[1,0,0],[3,0],[0]]","2","[[1,3,0],[2,0],[0]]","0","0","","","","","","3","","","","","","","","",""
"","","","","","single-stim-button","27","155406","0.0-2.0-10.1-1.1","5eaf76ae6665cc671414ab73","D2","batch4","","1981","tol_toboard","","","","tol_peg_3","1981","1981","0","[[1,0,0],[3,0],[2]]","2","[[1,3,0],[2,0],[0]]","0","0","","","","","","3","","","","","","","","",""
"","","","","","single-stim-button","28","156639","0.0-2.0-10.2-0.2","5eaf76ae6665cc671414ab73","D2","batch4","","1230","tol_tohand","","","","tol_peg_2","1230","1230","0","[[1,0,0],[0,0],[2]]","3","[[1,3,0],[2,0],[0]]","0","0","","","","","","3","","","","","","","","",""
"","","","","","single-stim-button","29","158037","0.0-2.0-10.2-1.2","5eaf76ae6665cc671414ab73","D2","batch4","","1396","tol_toboard","","","","tol_peg_1","1396","1396","0","[[1,3,0],[0,0],[2]]","3","[[1,3,0],[2,0],[0]]","0","0","","","","","","3","","","","","","","","",""
"","","","","","single-stim-button","30","158983","0.0-2.0-10.3-0.3","5eaf76ae6665cc671414ab73","D2","batch4","","944","tol_tohand","","","","tol_peg_3","944","944","0","[[1,3,0],[0,0],[0]]","4","[[1,3,0],[2,0],[0]]","0","0","","","","","","3","","","","","","","","",""
"","","","","","single-stim-button","31","160322","0.0-2.0-10.3-1.3","5eaf76ae6665cc671414ab73","D2","batch4","","1336","tol_toboard","","","","tol_peg_2","1336","1336","0","[[1,3,0],[2,0],[0]]","4","[[1,3,0],[2,0],[0]]","0","0","","","","","","3","","","","","","","","",""
"","","","","","poldrack-single-stim","32","161339","0.0-2.0-11.0","5eaf76ae6665cc671414ab73","D2","batch4","","-1","tol_feedback","","","true","","1000","1000","500","","","","","","-1","none","true","3150","6202","","","","","","","","","",""
"","","","","","html-button-response","33","162535","0.0-2.0-12.0","5eaf76ae6665cc671414ab73","D2","batch4","","1192.300000011921","tol_trial_num","<div class = centerbox><p class = center-block-text>problem <strong>2</strong> out of 25 problems</p></div>","0","","","","","","","","","","","","","","","","","","","","","","","","",""
"","","","","","single-stim-button","34","177404","0.0-2.0-13.0-0.0","5eaf76ae6665cc671414ab73","D2","batch4","","14866","tol_tohand","","","","tol_peg_1","14866","14866","0","[[1,0,0],[3,0],[0]]","1","[[2,1,3],[0,0],[0]]","1","0","","","","","","5","","","","","","","","",""
"","","","","","single-stim-button","35","178677","0.0-2.0-13.0-1.0","5eaf76ae6665cc671414ab73","D2","batch4","","1270","tol_toboard","","","","tol_peg_3","1270","1270","0","[[1,0,0],[3,0],[2]]","1","[[2,1,3],[0,0],[0]]","1","0","","","","","","5","","","","","","","","",""
"","","","","","single-stim-button","36","179595","0.0-2.0-13.1-0.1","5eaf76ae6665cc671414ab73","D2","batch4","","915","tol_tohand","","","","tol_peg_1","915","915","0","[[0,0,0],[3,0],[2]]","2","[[2,1,3],[0,0],[0]]","1","0","","","","","","5","","","","","","","","",""
"","","","","","single-stim-button","37","180828","0.0-2.0-13.1-1.1","5eaf76ae6665cc671414ab73","D2","batch4","","1231","tol_toboard","","","","tol_peg_2","1231","1231","0","[[0,0,0],[3,1],[2]]","2","[[2,1,3],[0,0],[0]]","1","0","","","","","","5","","","","","","","","",""
"","","","","","single-stim-button","38","181795","0.0-2.0-13.2-0.2","5eaf76ae6665cc671414ab73","D2","batch4","","965","tol_tohand","","","","tol_peg_3","965","965","0","[[0,0,0],[3,1],[0]]","3","[[2,1,3],[0,0],[0]]","1","0","","","","","","5","","","","","","","","",""
"","","","","","single-stim-button","39","182825","0.0-2.0-13.2-1.2","5eaf76ae6665cc671414ab73","D2","batch4","","1028","tol_toboard","","","","tol_peg_1","1028","1028","0","[[2,0,0],[3,1],[0]]","3","[[2,1,3],[0,0],[0]]","1","0","","","","","","5","","","","","","","","",""
"","","","","","single-stim-button","40","183741","0.0-2.0-13.3-0.3","5eaf76ae6665cc671414ab73","D2","batch4","","914","tol_tohand","","","","tol_peg_2","914","914","0","[[2,0,0],[3,0],[0]]","4","[[2,1,3],[0,0],[0]]","1","0","","","","","","5","","","","","","","","",""
"","","","","","single-stim-button","41","184890","0.0-2.0-13.3-1.3","5eaf76ae6665cc671414ab73","D2","batch4","","1147","tol_toboard","","","","tol_peg_1","1147","1147","0","[[2,1,0],[3,0],[0]]","4","[[2,1,3],[0,0],[0]]","1","0","","","","","","5","","","","","","","","",""
"","","","","","single-stim-button","42","185939","0.0-2.0-13.4-0.4","5eaf76ae6665cc671414ab73","D2","batch4","","1048","tol_tohand","","","","tol_peg_2","1048","1048","0","[[2,1,0],[0,0],[0]]","5","[[2,1,3],[0,0],[0]]","1","0","","","","","","5","","","","","","","","",""
"","","","","","single-stim-button","43","187107","0.0-2.0-13.4-1.4","5eaf76ae6665cc671414ab73","D2","batch4","","1165","tol_toboard","","","","tol_peg_1","1165","1165","0","[[2,1,3],[0,0],[0]]","5","[[2,1,3],[0,0],[0]]","1","0","","","","","","5","","","","","","","","",""
"","","","","","poldrack-single-stim","44","188123","0.0-2.0-14.0","5eaf76ae6665cc671414ab73","D2","batch4","","-1","tol_feedback","","","true","","1000","1000","500","","","","","","-1","none","true","14866","18708","","","","","","","","","",""
"","","","","","html-button-response","45","189276","0.0-2.0-15.0","5eaf76ae6665cc671414ab73","D2","batch4","","1150.6000000238419","tol_trial_num","<div class = centerbox><p class = center-block-text>problem <strong>3</strong> out of 25 problems</p></div>","0","","","","","","","","","","","","","","","","","","","","","","","","",""
"","","","","","single-stim-button","46","194636","0.0-2.0-16.0-0.0","5eaf76ae6665cc671414ab73","D2","batch4","","5357","tol_tohand","","","","tol_peg_1","5357","5357","0","[[2,0,0],[0,0],[1]]","1","[[1,2,0],[3,0],[0]]","2","0","","","","","","4","","","","","","","","",""
"","","","","","single-stim-button","47","196421","0.0-2.0-16.0-1.0","5eaf76ae6665cc671414ab73","D2","batch4","","1782","tol_toboard","","","","tol_peg_2","1782","1782","0","[[2,0,0],[3,0],[1]]","1","[[1,2,0],[3,0],[0]]","2","0","","","","","","4","","","","","","","","",""
"","","","","","single-stim-button","48","202199","0.0-2.0-16.1-0.1","5eaf76ae6665cc671414ab73","D2","batch4","","5776","tol_tohand","","","","tol_peg_3","5776","5776","0","[[2,0,0],[3,0],[0]]","2","[[1,2,0],[3,0],[0]]","2","0","","","","","","4","","","","","","","","",""
"","","","","","single-stim-button","49","203328","0.0-2.0-16.1-1.1","5eaf76ae6665cc671414ab73","D2","batch4","","1126","tol_toboard","","","","tol_peg_2","1126","1126","0","[[2,0,0],[3,1],[0]]","2","[[1,2,0],[3,0],[0]]","2","0","","","","","","4","","","","","","","","",""
"","","","","","single-stim-button","50","204501","0.0-2.0-16.2-0.2","5eaf76ae6665cc671414ab73","D2","batch4","","1170","tol_tohand","","","","tol_peg_1","1170","1170","0","[[0,0,0],[3,1],[0]]","3","[[1,2,0],[3,0],[0]]","2","0","","","","","","4","","","","","","","","",""
"","","","","","single-stim-button","51","206480","0.0-2.0-16.2-1.2","5eaf76ae6665cc671414ab73","D2","batch4","","1977","tol_toboard","","","","tol_peg_3","1977","1977","0","[[0,0,0],[3,1],[2]]","3","[[1,2,0],[3,0],[0]]","2","0","","","","","","4","","","","","","","","",""
"","","","","","single-stim-button","52","208560","0.0-2.0-16.3-0.3","5eaf76ae6665cc671414ab73","D2","batch4","","2077","tol_tohand","","","","tol_peg_2","2077","2077","0","[[0,0,0],[3,0],[2]]","4","[[1,2,0],[3,0],[0]]","2","0","","","","","","4","","","","","","","","",""
"","","","","","single-stim-button","53","209535","0.0-2.0-16.3-1.3","5eaf76ae6665cc671414ab73","D2","batch4","","973","tol_toboard","","","","tol_peg_1","973","973","0","[[1,0,0],[3,0],[2]]","4","[[1,2,0],[3,0],[0]]","2","0","","","","","","4","","","","","","","","",""
"","","","","","single-stim-button","54","210560","0.0-2.0-16.4-0.4","5eaf76ae6665cc671414ab73","D2","batch4","","1023","tol_tohand","","","","tol_peg_3","1023","1023","0","[[1,0,0],[3,0],[0]]","5","[[1,2,0],[3,0],[0]]","2","0","","","","","","4","","","","","","","","",""
"","","","","","single-stim-button","55","211595","0.0-2.0-16.4-1.4","5eaf76ae6665cc671414ab73","D2","batch4","","1032","tol_toboard","","","","tol_peg_1","1032","1032","0","[[1,2,0],[3,0],[0]]","5","[[1,2,0],[3,0],[0]]","2","0","","","","","","4","","","","","","","","",""
"","","","","","poldrack-single-stim","56","212608","0.0-2.0-17.0","5eaf76ae6665cc671414ab73","D2","batch4","","-1","tol_feedback","","","true","","1000","1000","500","","","","","","-1","none","true","5357","15403","","","","","","","","","",""
"","","","","","html-button-response","57","213628","0.0-2.0-18.0","5eaf76ae6665cc671414ab73","D2","batch4","","1017","tol_trial_num","<div class = centerbox><p class = center-block-text>problem <strong>4</strong> out of 25 problems</p></div>","0","","","","","","","","","","","","","","","","","","","","","","","","",""
"","","","","","single-stim-button","58","219212","0.0-2.0-19.0-0.0","5eaf76ae6665cc671414ab73","D2","batch4","","5581","tol_tohand","","","","tol_peg_2","5581","5581","0","[[3,0,0],[2,0],[0]]","1","[[3,0,0],[1,0],[2]]","3","0","","","","","","3","","","","","","","","",""
"","","","","","single-stim-button","59","220284","0.0-2.0-19.0-1.0","5eaf76ae6665cc671414ab73","D2","batch4","","1069","tol_toboard","","","","tol_peg_1","1069","1069","0","[[3,1,0],[2,0],[0]]","1","[[3,0,0],[1,0],[2]]","3","0","","","","","","3","","","","","","","","",""
"","","","","","single-stim-button","60","221425","0.0-2.0-19.1-0.1","5eaf76ae6665cc671414ab73","D2","batch4","","1138","tol_tohand","","","","tol_peg_2","1138","1138","0","[[3,1,0],[0,0],[0]]","2","[[3,0,0],[1,0],[2]]","3","0","","","","","","3","","","","","","","","",""
"","","","","","single-stim-button","61","222573","0.0-2.0-19.1-1.1","5eaf76ae6665cc671414ab73","D2","batch4","","1146","tol_toboard","","","","tol_peg_3","1146","1146","0","[[3,1,0],[0,0],[2]]","2","[[3,0,0],[1,0],[2]]","3","0","","","","","","3","","","","","","","","",""
"","","","","","single-stim-button","62","223689","0.0-2.0-19.2-0.2","5eaf76ae6665cc671414ab73","D2","batch4","","1114","tol_tohand","","","","tol_peg_1","1114","1114","0","[[3,0,0],[0,0],[2]]","3","[[3,0,0],[1,0],[2]]","3","0","","","","","","3","","","","","","","","",""
"","","","","","single-stim-button","63","224944","0.0-2.0-19.2-1.2","5eaf76ae6665cc671414ab73","D2","batch4","","1254","tol_toboard","","","","tol_peg_2","1254","1254","0","[[3,0,0],[1,0],[2]]","3","[[3,0,0],[1,0],[2]]","3","0","","","","","","3","","","","","","","","",""
"","","","","","poldrack-single-stim","64","225950","0.0-2.0-20.0","5eaf76ae6665cc671414ab73","D2","batch4","","-1","tol_feedback","","","true","","1000","1000","500","","","","","","-1","none","true","5581","7833","","","","","","","","","",""
"","","","","","html-button-response","65","227343","0.0-2.0-21.0","5eaf76ae6665cc671414ab73","D2","batch4","","1390.2000000476837","tol_trial_num","<div class = centerbox><p class = center-block-text>problem <strong>5</strong> out of 25 problems</p></div>","0","","","","","","","","","","","","","","","","","","","","","","","","",""
"","","","","","single-stim-button","66","262152","0.0-2.0-22.0-0.0","5eaf76ae6665cc671414ab73","D2","batch4","","34807","tol_tohand","","","","tol_peg_1","34807","34807","0","[[0,0,0],[2,0],[3]]","1","[[0,0,0],[1,2],[3]]","4","0","","","","","","7","","","","","","","","",""
"","","","","","single-stim-button","67","263505","0.0-2.0-22.0-1.0","5eaf76ae6665cc671414ab73","D2","batch4","","1350","tol_toboard","","","","tol_peg_2","1350","1350","0","[[0,0,0],[2,1],[3]]","1","[[0,0,0],[1,2],[3]]","4","0","","","","","","7","","","","","","","","",""
"","","","","","single-stim-button","68","279395","0.0-2.0-22.1-0.1","5eaf76ae6665cc671414ab73","D2","batch4","","15887","tol_tohand","","","","tol_peg_3","15887","15887","0","[[0,0,0],[2,1],[0]]","2","[[0,0,0],[1,2],[3]]","4","0","","","","","","7","","","","","","","","",""
"","","","","","single-stim-button","69","280902","0.0-2.0-22.1-1.1","5eaf76ae6665cc671414ab73","D2","batch4","","1504","tol_toboard","","","","tol_peg_1","1504","1504","0","[[3,0,0],[2,1],[0]]","2","[[0,0,0],[1,2],[3]]","4","0","","","","","","7","","","","","","","","",""
"","","","","","single-stim-button","70","282009","0.0-2.0-22.2-0.2","5eaf76ae6665cc671414ab73","D2","batch4","","1105","tol_tohand","","","","tol_peg_2","1105","1105","0","[[3,0,0],[2,0],[0]]","3","[[0,0,0],[1,2],[3]]","4","0","","","","","","7","","","","","","","","",""
"","","","","","single-stim-button","71","291389","0.0-2.0-22.2-1.2","5eaf76ae6665cc671414ab73","D2","batch4","","9377","tol_toboard","","","","tol_peg_1","9377","9377","0","[[3,1,0],[2,0],[0]]","3","[[0,0,0],[1,2],[3]]","4","0","","","","","","7","","","","","","","","",""
"","","","","","single-stim-button","72","292555","0.0-2.0-22.3-0.3","5eaf76ae6665cc671414ab73","D2","batch4","","1163","tol_tohand","","","","tol_peg_2","1163","1163","0","[[3,1,0],[0,0],[0]]","4","[[0,0,0],[1,2],[3]]","4","0","","","","","","7","","","","","","","","",""
"","","","","","single-stim-button","73","296436","0.0-2.0-22.3-1.3","5eaf76ae6665cc671414ab73","D2","batch4","","3879","tol_toboard","","","","tol_peg_3","3879","3879","0","[[3,1,0],[0,0],[2]]","4","[[0,0,0],[1,2],[3]]","4","0","","","","","","7","","","","","","","","",""
"","","","","","single-stim-button","74","297341","0.0-2.0-22.4-0.4","5eaf76ae6665cc671414ab73","D2","batch4","","902","tol_tohand","","","","tol_peg_1","902","902","0","[[3,0,0],[0,0],[2]]","5","[[0,0,0],[1,2],[3]]","4","0","","","","","","7","","","","","","","","",""
"","","","","","single-stim-button","75","298586","0.0-2.0-22.4-1.4","5eaf76ae6665cc671414ab73","D2","batch4","","1243","tol_toboard","","","","tol_peg_2","1243","1243","0","[[3,0,0],[1,0],[2]]","5","[[0,0,0],[1,2],[3]]","4","0","","","","","","7","","","","","","","","",""
"","","","","","single-stim-button","76","299384","0.0-2.0-22.5-0.5","5eaf76ae6665cc671414ab73","D2","batch4","","796","tol_tohand","","","","tol_peg_3","796","796","0","[[3,0,0],[1,0],[0]]","6","[[0,0,0],[1,2],[3]]","4","0","","","","","","7","","","","","","","","",""
"","","","","","single-stim-button","77","300309","0.0-2.0-22.5-1.5","5eaf76ae6665cc671414ab73","D2","batch4","","923","tol_toboard","","","","tol_peg_2","923","923","0","[[3,0,0],[1,2],[0]]","6","[[0,0,0],[1,2],[3]]","4","0","","","","","","7","","","","","","","","",""
"","","","","","single-stim-button","78","301134","0.0-2.0-22.6-0.6","5eaf76ae6665cc671414ab73","D2","batch4","","822","tol_tohand","","","","tol_peg_1","822","822","0","[[0,0,0],[1,2],[0]]","7","[[0,0,0],[1,2],[3]]","4","0","","","","","","7","","","","","","","","",""
"","","","","","single-stim-button","79","302652","0.0-2.0-22.6-1.6","5eaf76ae6665cc671414ab73","D2","batch4","","1516","tol_toboard","","","","tol_peg_3","1516","1516","0","[[0,0,0],[1,2],[3]]","7","[[0,0,0],[1,2],[3]]","4","0","","","","","","7","","","","","","","","",""
"","","","","","poldrack-single-stim","80","303659","0.0-2.0-23.0","5eaf76ae6665cc671414ab73","D2","batch4","","-1","tol_feedback","","","true","","1000","1000","500","","","","","","-1","none","true","34807","55482","","","","","","","","","",""
"","","","","","html-button-response","81","305012","0.0-2.0-24.0","5eaf76ae6665cc671414ab73","D2","batch4","","1350.1000000238419","tol_trial_num","<div class = centerbox><p class = center-block-text>problem <strong>6</strong> out of 25 problems</p></div>","0","","","","","","","","","","","","","","","","","","","","","","","","",""
"","","","","","single-stim-button","82","330102","0.0-2.0-25.0-0.0","5eaf76ae6665cc671414ab73","D2","batch4","","25087","tol_tohand","","","","tol_peg_3","25087","25087","0","[[0,0,0],[1,2],[0]]","1","[[1,0,0],[2,3],[0]]","5","0","","","","","","6","","","","","","","","",""
"","","","","","single-stim-button","83","332851","0.0-2.0-25.0-1.0","5eaf76ae6665cc671414ab73","D2","batch4","","2745","tol_toboard","","","","tol_peg_1","2745","2745","0","[[3,0,0],[1,2],[0]]","1","[[1,0,0],[2,3],[0]]","5","0","","","","","","6","","","","","","","","",""
"","","","","","single-stim-button","84","334798","0.0-2.0-25.1-0.1","5eaf76ae6665cc671414ab73","D2","batch4","","1945","tol_tohand","","","","tol_peg_2","1945","1945","0","[[3,0,0],[1,0],[0]]","2","[[1,0,0],[2,3],[0]]","5","0","","","","","","6","","","","","","","","",""
"","","","","","single-stim-button","85","336482","0.0-2.0-25.1-1.1","5eaf76ae6665cc671414ab73","D2","batch4","","1682","tol_toboard","","","","tol_peg_1","1682","1682","0","[[3,2,0],[1,0],[0]]","2","[[1,0,0],[2,3],[0]]","5","0","","","","","","6","","","","","","","","",""
"","","","","","single-stim-button","86","337434","0.0-2.0-25.2-0.2","5eaf76ae6665cc671414ab73","D2","batch4","","949","tol_tohand","","","","tol_peg_2","949","949","0","[[3,2,0],[0,0],[0]]","3","[[1,0,0],[2,3],[0]]","5","0","","","","","","6","","","","","","","","",""
"","","","","","single-stim-button","87","338764","0.0-2.0-25.2-1.2","5eaf76ae6665cc671414ab73","D2","batch4","","1328","tol_toboard","","","","tol_peg_3","1328","1328","0","[[3,2,0],[0,0],[1]]","3","[[1,0,0],[2,3],[0]]","5","0","","","","","","6","","","","","","","","",""
"","","","","","single-stim-button","88","339691","0.0-2.0-25.3-0.3","5eaf76ae6665cc671414ab73","D2","batch4","","924","tol_tohand","","","","tol_peg_1","924","924","0","[[3,0,0],[0,0],[1]]","4","[[1,0,0],[2,3],[0]]","5","0","","","","","","6","","","","","","","","",""
"","","","","","single-stim-button","89","342149","0.0-2.0-25.3-1.3","5eaf76ae6665cc671414ab73","D2","batch4","","2455","tol_toboard","","","","tol_peg_2","2455","2455","0","[[3,0,0],[2,0],[1]]","4","[[1,0,0],[2,3],[0]]","5","0","","","","","","6","","","","","","","","",""
"","","","","","single-stim-button","90","343035","0.0-2.0-25.4-0.4","5eaf76ae6665cc671414ab73","D2","batch4","","883","tol_tohand","","","","tol_peg_1","883","883","0","[[0,0,0],[2,0],[1]]","5","[[1,0,0],[2,3],[0]]","5","0","","","","","","6","","","","","","","","",""
"","","","","","single-stim-button","91","344047","0.0-2.0-25.4-1.4","5eaf76ae6665cc671414ab73","D2","batch4","","1009","tol_toboard","","","","tol_peg_2","1009","1009","0","[[0,0,0],[2,3],[1]]","5","[[1,0,0],[2,3],[0]]","5","0","","","","","","6","","","","","","","","",""
"","","","","","single-stim-button","92","344880","0.0-2.0-25.5-0.5","5eaf76ae6665cc671414ab73","D2","batch4","","830","tol_tohand","","","","tol_peg_3","830","830","0","[[0,0,0],[2,3],[0]]","6","[[1,0,0],[2,3],[0]]","5","0","","","","","","6","","","","","","","","",""
"","","","","","single-stim-button","93","346129","0.0-2.0-25.5-1.5","5eaf76ae6665cc671414ab73","D2","batch4","","1246","tol_toboard","","","","tol_peg_1","1246","1246","0","[[1,0,0],[2,3],[0]]","6","[[1,0,0],[2,3],[0]]","5","0","","","","","","6","","","","","","","","",""
"","","","","","poldrack-single-stim","94","347135","0.0-2.0-26.0","5eaf76ae6665cc671414ab73","D2","batch4","","-1","tol_feedback","","","true","","1000","1000","500","","","","","","-1","none","true","25087","30618","","","","","","","","","",""
"","","","","","html-button-response","95","348126","0.0-2.0-27.0","5eaf76ae6665cc671414ab73","D2","batch4","","987.5999999642372","tol_trial_num","<div class = centerbox><p class = center-block-text>problem <strong>7</strong> out of 25 problems</p></div>","0","","","","","","","","","","","","","","","","","","","","","","","","",""
"","","","","","single-stim-button","96","355325","0.0-2.0-28.0-0.0","5eaf76ae6665cc671414ab73","D2","batch4","","7196","tol_tohand","","","","tol_peg_3","7196","7196","0","[[2,1,0],[0,0],[0]]","1","[[1,2,0],[3,0],[0]]","6","0","","","","","","5","","","","","","","","",""
"","","","","","single-stim-button","97","356472","0.0-2.0-28.0-1.0","5eaf76ae6665cc671414ab73","D2","batch4","","1143","tol_toboard","","","","tol_peg_2","1143","1143","0","[[2,1,0],[3,0],[0]]","1","[[1,2,0],[3,0],[0]]","6","0","","","","","","5","","","","","","","","",""
"","","","","","single-stim-button","98","360356","0.0-2.0-28.1-0.1","5eaf76ae6665cc671414ab73","D2","batch4","","3881","tol_tohand","","","","tol_peg_1","3881","3881","0","[[2,0,0],[3,0],[0]]","2","[[1,2,0],[3,0],[0]]","6","0","","","","","","5","","","","","","","","",""
"","","","","","single-stim-button","99","361551","0.0-2.0-28.1-1.1","5eaf76ae6665cc671414ab73","D2","batch4","","1193","tol_toboard","","","","tol_peg_2","1193","1193","0","[[2,0,0],[3,1],[0]]","2","[[1,2,0],[3,0],[0]]","6","0","","","","","","5","","","","","","","","",""
"","","","","","single-stim-button","100","362569","0.0-2.0-28.2-0.2","5eaf76ae6665cc671414ab73","D2","batch4","","1015","tol_tohand","","","","tol_peg_1","1015","1015","0","[[0,0,0],[3,1],[0]]","3","[[1,2,0],[3,0],[0]]","6","0","","","","","","5","","","","","","","","",""
"","","","","","single-stim-button","101","363752","0.0-2.0-28.2-1.2","5eaf76ae6665cc671414ab73","D2","batch4","","1180","tol_toboard","","","","tol_peg_3","1180","1180","0","[[0,0,0],[3,1],[2]]","3","[[1,2,0],[3,0],[0]]","6","0","","","","","","5","","","","","","","","",""
"","","","","","single-stim-button","102","364773","0.0-2.0-28.3-0.3","5eaf76ae6665cc671414ab73","D2","batch4","","1019","tol_tohand","","","","tol_peg_2","1019","1019","0","[[0,0,0],[3,0],[2]]","4","[[1,2,0],[3,0],[0]]","6","0","","","","","","5","","","","","","","","",""
"","","","","","single-stim-button","103","366000","0.0-2.0-28.3-1.3","5eaf76ae6665cc671414ab73","D2","batch4","","1225","tol_toboard","","","","tol_peg_1","1225","1225","0","[[1,0,0],[3,0],[2]]","4","[[1,2,0],[3,0],[0]]","6","0","","","","","","5","","","","","","","","",""
"","","","","","single-stim-button","104","367168","0.0-2.0-28.4-0.4","5eaf76ae6665cc671414ab73","D2","batch4","","1165","tol_tohand","","","","tol_peg_3","1165","1165","0","[[1,0,0],[3,0],[0]]","5","[[1,2,0],[3,0],[0]]","6","0","","","","","","5","","","","","","","","",""
"","","","","","single-stim-button","105","368303","0.0-2.0-28.4-1.4","5eaf76ae6665cc671414ab73","D2","batch4","","1133","tol_toboard","","","","tol_peg_1","1133","1133","0","[[1,2,0],[3,0],[0]]","5","[[1,2,0],[3,0],[0]]","6","0","","","","","","5","","","","","","","","",""
"","","","","","poldrack-single-stim","106","369315","0.0-2.0-29.0","5eaf76ae6665cc671414ab73","D2","batch4","","-1","tol_feedback","","","true","","1000","1000","500","","","","","","-1","none","true","7196","14276","","","","","","","","","",""
"","","","","","html-button-response","107","370483","0.0-2.0-30.0","5eaf76ae6665cc671414ab73","D2","batch4","","1165.5","tol_trial_num","<div class = centerbox><p class = center-block-text>problem <strong>8</strong> out of 25 problems</p></div>","0","","","","","","","","","","","","","","","","","","","","","","","","",""
"","","","","","single-stim-button","108","373032","0.0-2.0-31.0-0.0","5eaf76ae6665cc671414ab73","D2","batch4","","2546","tol_tohand","","","","tol_peg_3","2546","2546","0","[[0,0,0],[2,3],[0]]","1","[[1,2,0],[3,0],[0]]","7","0","","","","","","4","","","","","","","","",""
"","","","","","single-stim-button","109","374997","0.0-2.0-31.0-1.0","5eaf76ae6665cc671414ab73","D2","batch4","","1962","tol_toboard","","","","tol_peg_1","1962","1962","0","[[1,0,0],[2,3],[0]]","1","[[1,2,0],[3,0],[0]]","7","0","","","","","","4","","","","","","","","",""
"","","","","","single-stim-button","110","376047","0.0-2.0-31.1-0.1","5eaf76ae6665cc671414ab73","D2","batch4","","1047","tol_tohand","","","","tol_peg_2","1047","1047","0","[[1,0,0],[2,0],[0]]","2","[[1,2,0],[3,0],[0]]","7","0","","","","","","4","","","","","","","","",""
"","","","","","single-stim-button","111","377481","0.0-2.0-31.1-1.1","5eaf76ae6665cc671414ab73","D2","batch4","","1432","tol_toboard","","","","tol_peg_3","1432","1432","0","[[1,0,0],[2,0],[3]]","2","[[1,2,0],[3,0],[0]]","7","0","","","","","","4","","","","","","","","",""
"","","","","","single-stim-button","112","378352","0.0-2.0-31.2-0.2","5eaf76ae6665cc671414ab73","D2","batch4","","868","tol_tohand","","","","tol_peg_2","868","868","0","[[1,0,0],[0,0],[3]]","3","[[1,2,0],[3,0],[0]]","7","0","","","","","","4","","","","","","","","",""
"","","","","","single-stim-button","113","379529","0.0-2.0-31.2-1.2","5eaf76ae6665cc671414ab73","D2","batch4","","1174","tol_toboard","","","","tol_peg_1","1174","1174","0","[[1,2,0],[0,0],[3]]","3","[[1,2,0],[3,0],[0]]","7","0","","","","","","4","","","","","","","","",""
"","","","","","single-stim-button","114","380545","0.0-2.0-31.3-0.3","5eaf76ae6665cc671414ab73","D2","batch4","","1014","tol_tohand","","","","tol_peg_3","1014","1014","0","[[1,2,0],[0,0],[0]]","4","[[1,2,0],[3,0],[0]]","7","0","","","","","","4","","","","","","","","",""
"","","","","","single-stim-button","115","381552","0.0-2.0-31.3-1.3","5eaf76ae6665cc671414ab73","D2","batch4","","1005","tol_toboard","","","","tol_peg_2","1005","1005","0","[[1,2,0],[3,0],[0]]","4","[[1,2,0],[3,0],[0]]","7","0","","","","","","4","","","","","","","","",""
"","","","","","poldrack-single-stim","116","382558","0.0-2.0-32.0","5eaf76ae6665cc671414ab73","D2","batch4","","-1","tol_feedback","","","true","","1000","1000","500","","","","","","-1","none","true","2546","5475","","","","","","","","","",""
"","","","","","html-button-response","117","383724","0.0-2.0-33.0","5eaf76ae6665cc671414ab73","D2","batch4","","1163.3999999761581","tol_trial_num","<div class = centerbox><p class = center-block-text>problem <strong>9</strong> out of 25 problems</p></div>","0","","","","","","","","","","","","","","","","","","","","","","","","",""
"","","","","","single-stim-button","118","391193","0.0-2.0-34.0-0.0","5eaf76ae6665cc671414ab73","D2","batch4","","7466","tol_tohand","","","","tol_peg_1","7466","7466","0","[[3,0,0],[0,0],[1]]","1","[[2,1,0],[3,0],[0]]","8","0","","","","","","6","","","","","","","","",""
"","","","","","single-stim-button","119","392308","0.0-2.0-34.0-1.0","5eaf76ae6665cc671414ab73","D2","batch4","","1112","tol_toboard","","","","tol_peg_2","1112","1112","0","[[3,0,0],[2,0],[1]]","1","[[2,1,0],[3,0],[0]]","8","0","","","","","","6","","","","","","","","",""
"","","","","","single-stim-button","120","401442","0.0-2.0-34.1-0.1","5eaf76ae6665cc671414ab73","D2","batch4","","9132","tol_tohand","","","","tol_peg_3","9132","9132","0","[[3,0,0],[2,0],[0]]","2","[[2,1,0],[3,0],[0]]","8","0","","","","","","6","","","","","","","","",""
"","","","","","single-stim-button","121","404903","0.0-2.0-34.1-1.1","5eaf76ae6665cc671414ab73","D2","batch4","","3457","tol_toboard","","","","tol_peg_2","3457","3457","0","[[3,0,0],[2,1],[0]]","2","[[2,1,0],[3,0],[0]]","8","0","","","","","","6","","","","","","","","",""
"","","","","","single-stim-button","122","405965","0.0-2.0-34.2-0.2","5eaf76ae6665cc671414ab73","D2","batch4","","1059","tol_tohand","","","","tol_peg_1","1059","1059","0","[[0,0,0],[2,1],[0]]","3","[[2,1,0],[3,0],[0]]","8","0","","","","","","6","","","","","","","","",""
"","","","","","single-stim-button","123","407014","0.0-2.0-34.2-1.2","5eaf76ae6665cc671414ab73","D2","batch4","","1046","tol_toboard","","","","tol_peg_3","1046","1046","0","[[0,0,0],[2,1],[3]]","3","[[2,1,0],[3,0],[0]]","8","0","","","","","","6","","","","","","","","",""
"","","","","","single-stim-button","124","408750","0.0-2.0-34.3-0.3","5eaf76ae6665cc671414ab73","D2","batch4","","1733","tol_tohand","","","","tol_peg_2","1733","1733","0","[[0,0,0],[2,0],[3]]","4","[[2,1,0],[3,0],[0]]","8","0","","","","","","6","","","","","","","","",""
"","","","","","single-stim-button","125","415446","0.0-2.0-34.3-1.3","5eaf76ae6665cc671414ab73","D2","batch4","","6694","tol_toboard","","","","tol_peg_1","6694","6694","0","[[1,0,0],[2,0],[3]]","4","[[2,1,0],[3,0],[0]]","8","0","","","","","","6","","","","","","","","",""
"","","","","","single-stim-button","126","416976","0.0-2.0-34.4-0.4","5eaf76ae6665cc671414ab73","D2","batch4","","1527","tol_tohand","","","","tol_peg_2","1527","1527","0","[[1,0,0],[0,0],[3]]","5","[[2,1,0],[3,0],[0]]","8","0","","","","","","6","","","","","","","","",""
"","","","","","single-stim-button","127","418877","0.0-2.0-34.4-1.4","5eaf76ae6665cc671414ab73","D2","batch4","","1898","tol_toboard","","","","tol_peg_1","1898","1898","0","[[1,2,0],[0,0],[3]]","5","[[2,1,0],[3,0],[0]]","8","0","","","","","","6","","","","","","","","",""
"","","","","","single-stim-button","128","420627","0.0-2.0-34.5-0.5","5eaf76ae6665cc671414ab73","D2","batch4","","1747","tol_tohand","","","","tol_peg_3","1747","1747","0","[[1,2,0],[0,0],[0]]","6","[[2,1,0],[3,0],[0]]","8","0","","","","","","6","","","","","","","","",""
"","","","","","single-stim-button","129","422457","0.0-2.0-34.5-1.5","5eaf76ae6665cc671414ab73","D2","batch4","","1828","tol_toboard","","","","tol_peg_2","1828","1828","0","[[1,2,0],[3,0],[0]]","6","[[2,1,0],[3,0],[0]]","8","0","","","","","","6","","","","","","","","",""
"","","","","","single-stim-button","130","423292","0.0-2.0-34.6-0.6","5eaf76ae6665cc671414ab73","D2","batch4","","833","tol_tohand","","","","tol_peg_1","833","833","0","[[1,0,0],[3,0],[0]]","7","[[2,1,0],[3,0],[0]]","8","0","","","","","","6","","","","","","","","",""
"","","","","","single-stim-button","131","424141","0.0-2.0-34.6-1.6","5eaf76ae6665cc671414ab73","D2","batch4","","847","tol_toboard","","","","tol_peg_2","847","847","0","[[1,0,0],[3,2],[0]]","7","[[2,1,0],[3,0],[0]]","8","0","","","","","","6","","","","","","","","",""
"","","","","","single-stim-button","132","424939","0.0-2.0-34.7-0.7","5eaf76ae6665cc671414ab73","D2","batch4","","795","tol_tohand","","","","tol_peg_1","795","795","0","[[0,0,0],[3,2],[0]]","8","[[2,1,0],[3,0],[0]]","8","0","","","","","","6","","","","","","","","",""
"","","","","","single-stim-button","133","426071","0.0-2.0-34.7-1.7","5eaf76ae6665cc671414ab73","D2","batch4","","1130","tol_toboard","","","","tol_peg_3","1130","1130","0","[[0,0,0],[3,2],[1]]","8","[[2,1,0],[3,0],[0]]","8","0","","","","","","6","","","","","","","","",""
"","","","","","single-stim-button","134","427056","0.0-2.0-34.8-0.8","5eaf76ae6665cc671414ab73","D2","batch4","","982","tol_tohand","","","","tol_peg_2","982","982","0","[[0,0,0],[3,0],[1]]","9","[[2,1,0],[3,0],[0]]","8","0","","","","","","6","","","","","","","","",""
"","","","","","single-stim-button","135","428105","0.0-2.0-34.8-1.8","5eaf76ae6665cc671414ab73","D2","batch4","","1047","tol_toboard","","","","tol_peg_1","1047","1047","0","[[2,0,0],[3,0],[1]]","9","[[2,1,0],[3,0],[0]]","8","0","","","","","","6","","","","","","","","",""
"","","","","","single-stim-button","136","429014","0.0-2.0-34.9-0.9","5eaf76ae6665cc671414ab73","D2","batch4","","906","tol_tohand","","","","tol_peg_3","906","906","0","[[2,0,0],[3,0],[0]]","10","[[2,1,0],[3,0],[0]]","8","0","","","","","","6","","","","","","","","",""
"","","","","","single-stim-button","137","429909","0.0-2.0-34.9-1.9","5eaf76ae6665cc671414ab73","D2","batch4","","892","tol_toboard","","","","tol_peg_1","892","892","0","[[2,1,0],[3,0],[0]]","10","[[2,1,0],[3,0],[0]]","8","0","","","","","","6","","","","","","","","",""
"","","","","","poldrack-single-stim","138","430916","0.0-2.0-35.0","5eaf76ae6665cc671414ab73","D2","batch4","","-1","tol_feedback","","","true","","1000","1000","500","","","","","","-1","none","true","7466","26180","","","","","","","","","",""
"","","","","","html-button-response","139","431900","0.0-2.0-36.0","5eaf76ae6665cc671414ab73","D2","batch4","","980.5","tol_trial_num","<div class = centerbox><p class = center-block-text>problem <strong>10</strong> out of 25 problems</p></div>","0","","","","","","","","","","","","","","","","","","","","","","","","",""
"","","","","","single-stim-button","140","435632","0.0-2.0-37.0-0.0","5eaf76ae6665cc671414ab73","D2","batch4","","3731","tol_tohand","","","","tol_peg_2","3731","3731","0","[[3,0,0],[0,0],[2]]","1","[[3,0,0],[2,1],[0]]","9","0","","","","","","3","","","","","","","","",""
"","","","","","single-stim-button","141","436752","0.0-2.0-37.0-1.0","5eaf76ae6665cc671414ab73","D2","batch4","","1117","tol_toboard","","","","tol_peg_1","1117","1117","0","[[3,1,0],[0,0],[2]]","1","[[3,0,0],[2,1],[0]]","9","0","","","","","","3","","","","","","","","",""
"","","","","","single-stim-button","142","437551","0.0-2.0-37.1-0.1","5eaf76ae6665cc671414ab73","D2","batch4","","796","tol_tohand","","","","tol_peg_3","796","796","0","[[3,1,0],[0,0],[0]]","2","[[3,0,0],[2,1],[0]]","9","0","","","","","","3","","","","","","","","",""
"","","","","","single-stim-button","143","438690","0.0-2.0-37.1-1.1","5eaf76ae6665cc671414ab73","D2","batch4","","1137","tol_toboard","","","","tol_peg_2","1137","1137","0","[[3,1,0],[2,0],[0]]","2","[[3,0,0],[2,1],[0]]","9","0","","","","","","3","","","","","","","","",""
"","","","","","single-stim-button","144","439668","0.0-2.0-37.2-0.2","5eaf76ae6665cc671414ab73","D2","batch4","","975","tol_tohand","","","","tol_peg_1","975","975","0","[[3,0,0],[2,0],[0]]","3","[[3,0,0],[2,1],[0]]","9","0","","","","","","3","","","","","","","","",""
"","","","","","single-stim-button","145","440598","0.0-2.0-37.2-1.2","5eaf76ae6665cc671414ab73","D2","batch4","","927","tol_toboard","","","","tol_peg_2","927","927","0","[[3,0,0],[2,1],[0]]","3","[[3,0,0],[2,1],[0]]","9","0","","","","","","3","","","","","","","","",""
"","","","","","poldrack-single-stim","146","441604","0.0-2.0-38.0","5eaf76ae6665cc671414ab73","D2","batch4","","-1","tol_feedback","","","true","","1000","1000","500","","","","","","-1","none","true","3731","5502","","","","","","","","","",""
"","","","","","html-button-response","147","442722","0.0-2.0-39.0","5eaf76ae6665cc671414ab73","D2","batch4","","1116.4000000357628","tol_trial_num","<div class = centerbox><p class = center-block-text>problem <strong>11</strong> out of 25 problems</p></div>","0","","","","","","","","","","","","","","","","","","","","","","","","",""
"","","","","","single-stim-button","148","460820","0.0-2.0-40.0-0.0","5eaf76ae6665cc671414ab73","D2","batch4","","18095","tol_tohand","","","","tol_peg_2","18095","18095","0","[[1,2,0],[0,0],[0]]","1","[[2,0,0],[1,3],[0]]","10","0","","","","","","6","","","","","","","","",""
"","","","","","single-stim-button","149","462243","0.0-2.0-40.0-1.0","5eaf76ae6665cc671414ab73","D2","batch4","","1419","tol_toboard","","","","tol_peg_3","1419","1419","0","[[1,2,0],[0,0],[3]]","1","[[2,0,0],[1,3],[0]]","10","0","","","","","","6","","","","","","","","",""
"","","","","","single-stim-button","150","476912","0.0-2.0-40.1-0.1","5eaf76ae6665cc671414ab73","D2","batch4","","14666","tol_tohand","","","","tol_peg_1","14666","14666","0","[[1,0,0],[0,0],[3]]","2","[[2,0,0],[1,3],[0]]","10","0","","","","","","6","","","","","","","","",""
"","","","","","single-stim-button","151","478680","0.0-2.0-40.1-1.1","5eaf76ae6665cc671414ab73","D2","batch4","","1765","tol_toboard","","","","tol_peg_2","1765","1765","0","[[1,0,0],[2,0],[3]]","2","[[2,0,0],[1,3],[0]]","10","0","","","","","","6","","","","","","","","",""
"","","","","","single-stim-button","152","479696","0.0-2.0-40.2-0.2","5eaf76ae6665cc671414ab73","D2","batch4","","1013","tol_tohand","","","","tol_peg_1","1013","1013","0","[[0,0,0],[2,0],[3]]","3","[[2,0,0],[1,3],[0]]","10","0","","","","","","6","","","","","","","","",""
"","","","","","single-stim-button","153","481770","0.0-2.0-40.2-1.2","5eaf76ae6665cc671414ab73","D2","batch4","","2071","tol_toboard","","","","tol_peg_2","2071","2071","0","[[0,0,0],[2,1],[3]]","3","[[2,0,0],[1,3],[0]]","10","0","","","","","","6","","","","","","","","",""
"","","","","","single-stim-button","154","483244","0.0-2.0-40.3-0.3","5eaf76ae6665cc671414ab73","D2","batch4","","1471","tol_tohand","","","","tol_peg_3","1471","1471","0","[[0,0,0],[2,1],[0]]","4","[[2,0,0],[1,3],[0]]","10","0","","","","","","6","","","","","","","","",""
"","","","","","single-stim-button","155","488074","0.0-2.0-40.3-1.3","5eaf76ae6665cc671414ab73","D2","batch4","","4828","tol_toboard","","","","tol_peg_1","4828","4828","0","[[3,0,0],[2,1],[0]]","4","[[2,0,0],[1,3],[0]]","10","0","","","","","","6","","","","","","","","",""
"","","","","","single-stim-button","156","489530","0.0-2.0-40.4-0.4","5eaf76ae6665cc671414ab73","D2","batch4","","1453","tol_tohand","","","","tol_peg_2","1453","1453","0","[[3,0,0],[2,0],[0]]","5","[[2,0,0],[1,3],[0]]","10","0","","","","","","6","","","","","","","","",""
"","","","","","single-stim-button","157","491373","0.0-2.0-40.4-1.4","5eaf76ae6665cc671414ab73","D2","batch4","","1841","tol_toboard","","","","tol_peg_3","1841","1841","0","[[3,0,0],[2,0],[1]]","5","[[2,0,0],[1,3],[0]]","10","0","","","","","","6","","","","","","","","",""
"","","","","","single-stim-button","158","492489","0.0-2.0-40.5-0.5","5eaf76ae6665cc671414ab73","D2","batch4","","1113","tol_tohand","","","","tol_peg_2","1113","1113","0","[[3,0,0],[0,0],[1]]","6","[[2,0,0],[1,3],[0]]","10","0","","","","","","6","","","","","","","","",""
"","","","","","single-stim-button","159","493430","0.0-2.0-40.5-1.5","5eaf76ae6665cc671414ab73","D2","batch4","","939","tol_toboard","","","","tol_peg_1","939","939","0","[[3,2,0],[0,0],[1]]","6","[[2,0,0],[1,3],[0]]","10","0","","","","","","6","","","","","","","","",""
"","","","","","single-stim-button","160","494441","0.0-2.0-40.6-0.6","5eaf76ae6665cc671414ab73","D2","batch4","","1009","tol_tohand","","","","tol_peg_3","1009","1009","0","[[3,2,0],[0,0],[0]]","7","[[2,0,0],[1,3],[0]]","10","0","","","","","","6","","","","","","","","",""
"","","","","","single-stim-button","161","495615","0.0-2.0-40.6-1.6","5eaf76ae6665cc671414ab73","D2","batch4","","1171","tol_toboard","","","","tol_peg_2","1171","1171","0","[[3,2,0],[1,0],[0]]","7","[[2,0,0],[1,3],[0]]","10","0","","","","","","6","","","","","","","","",""
"","","","","","single-stim-button","162","496479","0.0-2.0-40.7-0.7","5eaf76ae6665cc671414ab73","D2","batch4","","861","tol_tohand","","","","tol_peg_1","861","861","0","[[3,0,0],[1,0],[0]]","8","[[2,0,0],[1,3],[0]]","10","0","","","","","","6","","","","","","","","",""
"","","","","","single-stim-button","163","497959","0.0-2.0-40.7-1.7","5eaf76ae6665cc671414ab73","D2","batch4","","1479","tol_toboard","","","","tol_peg_3","1479","1479","0","[[3,0,0],[1,0],[2]]","8","[[2,0,0],[1,3],[0]]","10","0","","","","","","6","","","","","","","","",""
"","","","","","single-stim-button","164","498835","0.0-2.0-40.8-0.8","5eaf76ae6665cc671414ab73","D2","batch4","","873","tol_tohand","","","","tol_peg_1","873","873","0","[[0,0,0],[1,0],[2]]","9","[[2,0,0],[1,3],[0]]","10","0","","","","","","6","","","","","","","","",""
"","","","","","single-stim-button","165","499992","0.0-2.0-40.8-1.8","5eaf76ae6665cc671414ab73","D2","batch4","","1155","tol_toboard","","","","tol_peg_2","1155","1155","0","[[0,0,0],[1,3],[2]]","9","[[2,0,0],[1,3],[0]]","10","0","","","","","","6","","","","","","","","",""
"","","","","","single-stim-button","166","500793","0.0-2.0-40.9-0.9","5eaf76ae6665cc671414ab73","D2","batch4","","798","tol_tohand","","","","tol_peg_3","798","798","0","[[0,0,0],[1,3],[0]]","10","[[2,0,0],[1,3],[0]]","10","0","","","","","","6","","","","","","","","",""
"","","","","","single-stim-button","167","501883","0.0-2.0-40.9-1.9","5eaf76ae6665cc671414ab73","D2","batch4","","1087","tol_toboard","","","","tol_peg_1","1087","1087","0","[[2,0,0],[1,3],[0]]","10","[[2,0,0],[1,3],[0]]","10","0","","","","","","6","","","","","","","","",""
"","","","","","poldrack-single-stim","168","502896","0.0-2.0-41.0","5eaf76ae6665cc671414ab73","D2","batch4","","-1","tol_feedback","","","true","","1000","1000","500","","","","","","-1","none","true","18095","41352","","","","","","","","","",""
"","","","","","html-button-response","169","503605","0.0-2.0-42.0","5eaf76ae6665cc671414ab73","D2","batch4","","705.6999999880791","tol_trial_num","<div class = centerbox><p class = center-block-text>problem <strong>12</strong> out of 25 problems</p></div>","0","","","","","","","","","","","","","","","","","","","","","","","","",""
"","","","","","single-stim-button","170","510765","0.0-2.0-43.0-0.0","5eaf76ae6665cc671414ab73","D2","batch4","","7157","tol_tohand","","","","tol_peg_1","7157","7157","0","[[1,0,0],[3,0],[0]]","1","[[2,3,0],[0,0],[1]]","11","0","","","","","","4","","","","","","","","",""
"","","","","","single-stim-button","171","512112","0.0-2.0-43.0-1.0","5eaf76ae6665cc671414ab73","D2","batch4","","1344","tol_toboard","","","","tol_peg_2","1344","1344","0","[[1,0,0],[3,2],[0]]","1","[[2,3,0],[0,0],[1]]","11","0","","","","","","4","","","","","","","","",""
"","","","","","single-stim-button","172","512920","0.0-2.0-43.1-0.1","5eaf76ae6665cc671414ab73","D2","batch4","","805","tol_tohand","","","","tol_peg_1","805","805","0","[[0,0,0],[3,2],[0]]","2","[[2,3,0],[0,0],[1]]","11","0","","","","","","4","","","","","","","","",""
"","","","","","single-stim-button","173","514445","0.0-2.0-43.1-1.1","5eaf76ae6665cc671414ab73","D2","batch4","","1522","tol_toboard","","","","tol_peg_3","1522","1522","0","[[0,0,0],[3,2],[1]]","2","[[2,3,0],[0,0],[1]]","11","0","","","","","","4","","","","","","","","",""
"","","","","","single-stim-button","174","515552","0.0-2.0-43.2-0.2","5eaf76ae6665cc671414ab73","D2","batch4","","1105","tol_tohand","","","","tol_peg_2","1105","1105","0","[[0,0,0],[3,0],[1]]","3","[[2,3,0],[0,0],[1]]","11","0","","","","","","4","","","","","","","","",""
"","","","","","single-stim-button","175","517009","0.0-2.0-43.2-1.2","5eaf76ae6665cc671414ab73","D2","batch4","","1455","tol_toboard","","","","tol_peg_1","1455","1455","0","[[2,0,0],[3,0],[1]]","3","[[2,3,0],[0,0],[1]]","11","0","","","","","","4","","","","","","","","",""
"","","","","","single-stim-button","176","517907","0.0-2.0-43.3-0.3","5eaf76ae6665cc671414ab73","D2","batch4","","895","tol_tohand","","","","tol_peg_2","895","895","0","[[2,0,0],[0,0],[1]]","4","[[2,3,0],[0,0],[1]]","11","0","","","","","","4","","","","","","","","",""
"","","","","","single-stim-button","177","518790","0.0-2.0-43.3-1.3","5eaf76ae6665cc671414ab73","D2","batch4","","882","tol_toboard","","","","tol_peg_1","882","882","0","[[2,3,0],[0,0],[1]]","4","[[2,3,0],[0,0],[1]]","11","0","","","","","","4","","","","","","","","",""
"","","","","","poldrack-single-stim","178","519795","0.0-2.0-44.0","5eaf76ae6665cc671414ab73","D2","batch4","","-1","tol_feedback","","","true","","1000","1000","500","","","","","","-1","none","true","7157","9962","","","","","","","","","",""
"","","","","","html-button-response","179","521174","0.0-2.0-45.0","5eaf76ae6665cc671414ab73","D2","batch4","","1376.4000000357628","tol_trial_num","<div class = centerbox><p class = center-block-text>problem <strong>13</strong> out of 25 problems</p></div>","0","","","","","","","","","","","","","","","","","","","","","","","","",""
"","","","","","single-stim-button","180","528449","0.0-2.0-46.0-0.0","5eaf76ae6665cc671414ab73","D2","batch4","","7271","tol_tohand","","","","tol_peg_1","7271","7271","0","[[1,0,0],[3,0],[0]]","1","[[0,0,0],[2,3],[1]]","12","0","","","","","","4","","","","","","","","",""
"","","","","","single-stim-button","181","531138","0.0-2.0-46.0-1.0","5eaf76ae6665cc671414ab73","D2","batch4","","2686","tol_toboard","","","","tol_peg_2","2686","2686","0","[[1,0,0],[3,2],[0]]","1","[[0,0,0],[2,3],[1]]","12","0","","","","","","4","","","","","","","","",""
"","","","","","single-stim-button","182","531998","0.0-2.0-46.1-0.1","5eaf76ae6665cc671414ab73","D2","batch4","","857","tol_tohand","","","","tol_peg_1","857","857","0","[[0,0,0],[3,2],[0]]","2","[[0,0,0],[2,3],[1]]","12","0","","","","","","4","","","","","","","","",""
"","","","","","single-stim-button","183","533518","0.0-2.0-46.1-1.1","5eaf76ae6665cc671414ab73","D2","batch4","","1517","tol_toboard","","","","tol_peg_3","1517","1517","0","[[0,0,0],[3,2],[1]]","2","[[0,0,0],[2,3],[1]]","12","0","","","","","","4","","","","","","","","",""
"","","","","","single-stim-button","184","536133","0.0-2.0-46.2-0.2","5eaf76ae6665cc671414ab73","D2","batch4","","2612","tol_tohand","","","","tol_peg_2","2612","2612","0","[[0,0,0],[3,0],[1]]","3","[[0,0,0],[2,3],[1]]","12","0","","","","","","4","","","","","","","","",""
"","","","","","single-stim-button","185","537674","0.0-2.0-46.2-1.2","5eaf76ae6665cc671414ab73","D2","batch4","","1538","tol_toboard","","","","tol_peg_1","1538","1538","0","[[2,0,0],[3,0],[1]]","3","[[0,0,0],[2,3],[1]]","12","0","","","","","","4","","","","","","","","",""
"","","","","","single-stim-button","186","540711","0.0-2.0-46.3-0.3","5eaf76ae6665cc671414ab73","D2","batch4","","3035","tol_tohand","","","","tol_peg_3","3035","3035","0","[[2,0,0],[3,0],[0]]","4","[[0,0,0],[2,3],[1]]","12","0","","","","","","4","","","","","","","","",""
"","","","","","single-stim-button","187","541783","0.0-2.0-46.3-1.3","5eaf76ae6665cc671414ab73","D2","batch4","","1069","tol_toboard","","","","tol_peg_2","1069","1069","0","[[2,0,0],[3,1],[0]]","4","[[0,0,0],[2,3],[1]]","12","0","","","","","","4","","","","","","","","",""
"","","","","","single-stim-button","188","542680","0.0-2.0-46.4-0.4","5eaf76ae6665cc671414ab73","D2","batch4","","894","tol_tohand","","","","tol_peg_1","894","894","0","[[0,0,0],[3,1],[0]]","5","[[0,0,0],[2,3],[1]]","12","0","","","","","","4","","","","","","","","",""
"","","","","","single-stim-button","189","543896","0.0-2.0-46.4-1.4","5eaf76ae6665cc671414ab73","D2","batch4","","1214","tol_toboard","","","","tol_peg_3","1214","1214","0","[[0,0,0],[3,1],[2]]","5","[[0,0,0],[2,3],[1]]","12","0","","","","","","4","","","","","","","","",""
"","","","","","single-stim-button","190","544931","0.0-2.0-46.5-0.5","5eaf76ae6665cc671414ab73","D2","batch4","","1032","tol_tohand","","","","tol_peg_2","1032","1032","0","[[0,0,0],[3,0],[2]]","6","[[0,0,0],[2,3],[1]]","12","0","","","","","","4","","","","","","","","",""
"","","","","","single-stim-button","191","546079","0.0-2.0-46.5-1.5","5eaf76ae6665cc671414ab73","D2","batch4","","1146","tol_toboard","","","","tol_peg_1","1146","1146","0","[[1,0,0],[3,0],[2]]","6","[[0,0,0],[2,3],[1]]","12","0","","","","","","4","","","","","","","","",""
"","","","","","single-stim-button","192","547216","0.0-2.0-46.6-0.6","5eaf76ae6665cc671414ab73","D2","batch4","","1134","tol_tohand","","","","tol_peg_2","1134","1134","0","[[1,0,0],[0,0],[2]]","7","[[0,0,0],[2,3],[1]]","12","0","","","","","","4","","","","","","","","",""
"","","","","","single-stim-button","193","548192","0.0-2.0-46.6-1.6","5eaf76ae6665cc671414ab73","D2","batch4","","973","tol_toboard","","","","tol_peg_1","973","973","0","[[1,3,0],[0,0],[2]]","7","[[0,0,0],[2,3],[1]]","12","0","","","","","","4","","","","","","","","",""
"","","","","","single-stim-button","194","549267","0.0-2.0-46.7-0.7","5eaf76ae6665cc671414ab73","D2","batch4","","1073","tol_tohand","","","","tol_peg_3","1073","1073","0","[[1,3,0],[0,0],[0]]","8","[[0,0,0],[2,3],[1]]","12","0","","","","","","4","","","","","","","","",""
"","","","","","single-stim-button","195","550413","0.0-2.0-46.7-1.7","5eaf76ae6665cc671414ab73","D2","batch4","","1144","tol_toboard","","","","tol_peg_2","1144","1144","0","[[1,3,0],[2,0],[0]]","8","[[0,0,0],[2,3],[1]]","12","0","","","","","","4","","","","","","","","",""
"","","","","","single-stim-button","196","551330","0.0-2.0-46.8-0.8","5eaf76ae6665cc671414ab73","D2","batch4","","915","tol_tohand","","","","tol_peg_1","915","915","0","[[1,0,0],[2,0],[0]]","9","[[0,0,0],[2,3],[1]]","12","0","","","","","","4","","","","","","","","",""
"","","","","","single-stim-button","197","552233","0.0-2.0-46.8-1.8","5eaf76ae6665cc671414ab73","D2","batch4","","901","tol_toboard","","","","tol_peg_2","901","901","0","[[1,0,0],[2,3],[0]]","9","[[0,0,0],[2,3],[1]]","12","0","","","","","","4","","","","","","","","",""
"","","","","","single-stim-button","198","552992","0.0-2.0-46.9-0.9","5eaf76ae6665cc671414ab73","D2","batch4","","756","tol_tohand","","","","tol_peg_1","756","756","0","[[0,0,0],[2,3],[0]]","10","[[0,0,0],[2,3],[1]]","12","0","","","","","","4","","","","","","","","",""
"","","","","","single-stim-button","199","553977","0.0-2.0-46.9-1.9","5eaf76ae6665cc671414ab73","D2","batch4","","983","tol_toboard","","","","tol_peg_3","983","983","0","[[0,0,0],[2,3],[1]]","10","[[0,0,0],[2,3],[1]]","12","0","","","","","","4","","","","","","","","",""
"","","","","","poldrack-single-stim","200","554987","0.0-2.0-47.0","5eaf76ae6665cc671414ab73","D2","batch4","","-1","tol_feedback","","","true","","1000","1000","500","","","","","","-1","none","true","7271","19579","","","","","","","","","",""
"","","","","","html-button-response","201","558805","0.0-2.0-48.0","5eaf76ae6665cc671414ab73","D2","batch4","","3814.899999976158","attention_check","<p class = block-text>How many balls are in your board<br></p>","1","true","","","","","","","","","","","","","","","","","","","","","","","",""
"","","","","","html-button-response","202","560397","0.0-2.0-49.0","5eaf76ae6665cc671414ab73","D2","batch4","","1588.199999988079","tol_trial_num","<div class = centerbox><p class = center-block-text>problem <strong>14</strong> out of 25 problems</p></div>","0","","","","","","","","","","","","","","","","","","","","","","","","",""
"","","","","","single-stim-button","203","564372","0.0-2.0-50.0-0.0","5eaf76ae6665cc671414ab73","D2","batch4","","3973","tol_tohand","","","","tol_peg_1","3973","3973","0","[[2,0,0],[3,0],[0]]","1","[[1,2,0],[3,0],[0]]","13","0","","","","","","4","","","","","","","","",""
"","","","","","single-stim-button","204","566552","0.0-2.0-50.0-1.0","5eaf76ae6665cc671414ab73","D2","batch4","","2176","tol_toboard","","","","tol_peg_2","2176","2176","0","[[2,0,0],[3,1],[0]]","1","[[1,2,0],[3,0],[0]]","13","0","","","","","","4","","","","","","","","",""
"","","","","","single-stim-button","205","567405","0.0-2.0-50.1-0.1","5eaf76ae6665cc671414ab73","D2","batch4","","850","tol_tohand","","","","tol_peg_1","850","850","0","[[0,0,0],[3,1],[0]]","2","[[1,2,0],[3,0],[0]]","13","0","","","","","","4","","","","","","","","",""
"","","","","","single-stim-button","206","568352","0.0-2.0-50.1-1.1","5eaf76ae6665cc671414ab73","D2","batch4","","944","tol_toboard","","","","tol_peg_3","944","944","0","[[0,0,0],[3,1],[2]]","2","[[1,2,0],[3,0],[0]]","13","0","","","","","","4","","","","","","","","",""
"","","","","","single-stim-button","207","569150","0.0-2.0-50.2-0.2","5eaf76ae6665cc671414ab73","D2","batch4","","796","tol_tohand","","","","tol_peg_2","796","796","0","[[0,0,0],[3,0],[2]]","3","[[1,2,0],[3,0],[0]]","13","0","","","","","","4","","","","","","","","",""
"","","","","","single-stim-button","208","570267","0.0-2.0-50.2-1.2","5eaf76ae6665cc671414ab73","D2","batch4","","1114","tol_toboard","","","","tol_peg_1","1114","1114","0","[[1,0,0],[3,0],[2]]","3","[[1,2,0],[3,0],[0]]","13","0","","","","","","4","","","","","","","","",""
"","","","","","single-stim-button","209","571257","0.0-2.0-50.3-0.3","5eaf76ae6665cc671414ab73","D2","batch4","","987","tol_tohand","","","","tol_peg_3","987","987","0","[[1,0,0],[3,0],[0]]","4","[[1,2,0],[3,0],[0]]","13","0","","","","","","4","","","","","","","","",""
"","","","","","single-stim-button","210","572867","0.0-2.0-50.3-1.3","5eaf76ae6665cc671414ab73","D2","batch4","","1607","tol_toboard","","","","tol_peg_1","1607","1607","0","[[1,2,0],[3,0],[0]]","4","[[1,2,0],[3,0],[0]]","13","0","","","","","","4","","","","","","","","",""
"","","","","","poldrack-single-stim","211","573881","0.0-2.0-51.0","5eaf76ae6665cc671414ab73","D2","batch4","","-1","tol_feedback","","","true","","1000","1000","500","","","","","","-1","none","true","3973","6606","","","","","","","","","",""
"","","","","","html-button-response","212","575740","0.0-2.0-52.0","5eaf76ae6665cc671414ab73","D2","batch4","","1856.5","tol_trial_num","<div class = centerbox><p class = center-block-text>problem <strong>15</strong> out of 25 problems</p></div>","0","","","","","","","","","","","","","","","","","","","","","","","","",""
"","","","","","single-stim-button","213","579778","0.0-2.0-53.0-0.0","5eaf76ae6665cc671414ab73","D2","batch4","","4035","tol_tohand","","","","tol_peg_1","4035","4035","0","[[1,0,0],[3,0],[0]]","1","[[2,0,0],[3,0],[1]]","14","0","","","","","","3","","","","","","","","",""
"","","","","","single-stim-button","214","580929","0.0-2.0-53.0-1.0","5eaf76ae6665cc671414ab73","D2","batch4","","1147","tol_toboard","","","","tol_peg_2","1147","1147","0","[[1,0,0],[3,2],[0]]","1","[[2,0,0],[3,0],[1]]","14","0","","","","","","3","","","","","","","","",""
"","","","","","single-stim-button","215","581796","0.0-2.0-53.1-0.1","5eaf76ae6665cc671414ab73","D2","batch4","","865","tol_tohand","","","","tol_peg_1","865","865","0","[[0,0,0],[3,2],[0]]","2","[[2,0,0],[3,0],[1]]","14","0","","","","","","3","","","","","","","","",""
"","","","","","single-stim-button","216","583078","0.0-2.0-53.1-1.1","5eaf76ae6665cc671414ab73","D2","batch4","","1280","tol_toboard","","","","tol_peg_3","1280","1280","0","[[0,0,0],[3,2],[1]]","2","[[2,0,0],[3,0],[1]]","14","0","","","","","","3","","","","","","","","",""
"","","","","","single-stim-button","217","586246","0.0-2.0-53.2-0.2","5eaf76ae6665cc671414ab73","D2","batch4","","3165","tol_tohand","","","","tol_peg_2","3165","3165","0","[[0,0,0],[3,0],[1]]","3","[[2,0,0],[3,0],[1]]","14","0","","","","","","3","","","","","","","","",""
"","","","","","single-stim-button","218","587660","0.0-2.0-53.2-1.2","5eaf76ae6665cc671414ab73","D2","batch4","","1412","tol_toboard","","","","tol_peg_1","1412","1412","0","[[2,0,0],[3,0],[1]]","3","[[2,0,0],[3,0],[1]]","14","0","","","","","","3","","","","","","","","",""
"","","","","","poldrack-single-stim","219","588667","0.0-2.0-54.0","5eaf76ae6665cc671414ab73","D2","batch4","","-1","tol_feedback","","","true","","1000","1000","500","","","","","","-1","none","true","4035","8065","","","","","","","","","",""
"","","","","","html-button-response","220","589907","0.0-2.0-55.0","5eaf76ae6665cc671414ab73","D2","batch4","","1237.3999999761581","tol_trial_num","<div class = centerbox><p class = center-block-text>problem <strong>16</strong> out of 25 problems</p></div>","0","","","","","","","","","","","","","","","","","","","","","","","","",""
"","","","","","single-stim-button","221","617710","0.0-2.0-56.0-0.0","5eaf76ae6665cc671414ab73","D2","batch4","","27800","tol_tohand","","","","tol_peg_3","27800","27800","0","[[0,0,0],[2,3],[0]]","1","[[2,3,0],[1,0],[0]]","15","0","","","","","","7","","","","","","","","",""
"","","","","","single-stim-button","222","618830","0.0-2.0-56.0-1.0","5eaf76ae6665cc671414ab73","D2","batch4","","1117","tol_toboard","","","","tol_peg_1","1117","1117","0","[[1,0,0],[2,3],[0]]","1","[[2,3,0],[1,0],[0]]","15","0","","","","","","7","","","","","","","","",""
"","","","","","single-stim-button","223","619858","0.0-2.0-56.1-0.1","5eaf76ae6665cc671414ab73","D2","batch4","","1026","tol_tohand","","","","tol_peg_2","1026","1026","0","[[1,0,0],[2,0],[0]]","2","[[2,3,0],[1,0],[0]]","15","0","","","","","","7","","","","","","","","",""
"","","","","","single-stim-button","224","621568","0.0-2.0-56.1-1.1","5eaf76ae6665cc671414ab73","D2","batch4","","1708","tol_toboard","","","","tol_peg_3","1708","1708","0","[[1,0,0],[2,0],[3]]","2","[[2,3,0],[1,0],[0]]","15","0","","","","","","7","","","","","","","","",""
"","","","","","single-stim-button","225","630888","0.0-2.0-56.2-0.2","5eaf76ae6665cc671414ab73","D2","batch4","","9318","tol_tohand","","","","tol_peg_2","9318","9318","0","[[1,0,0],[0,0],[3]]","3","[[2,3,0],[1,0],[0]]","15","0","","","","","","7","","","","","","","","",""
"","","","","","single-stim-button","226","632653","0.0-2.0-56.2-1.2","5eaf76ae6665cc671414ab73","D2","batch4","","1763","tol_toboard","","","","tol_peg_1","1763","1763","0","[[1,2,0],[0,0],[3]]","3","[[2,3,0],[1,0],[0]]","15","0","","","","","","7","","","","","","","","",""
"","","","","","single-stim-button","227","633717","0.0-2.0-56.3-0.3","5eaf76ae6665cc671414ab73","D2","batch4","","1061","tol_tohand","","","","tol_peg_3","1061","1061","0","[[1,2,0],[0,0],[0]]","4","[[2,3,0],[1,0],[0]]","15","0","","","","","","7","","","","","","","","",""
"","","","","","single-stim-button","228","634868","0.0-2.0-56.3-1.3","5eaf76ae6665cc671414ab73","D2","batch4","","1149","tol_toboard","","","","tol_peg_2","1149","1149","0","[[1,2,0],[3,0],[0]]","4","[[2,3,0],[1,0],[0]]","15","0","","","","","","7","","","","","","","","",""
"","","","","","single-stim-button","229","635901","0.0-2.0-56.4-0.4","5eaf76ae6665cc671414ab73","D2","batch4","","1030","tol_tohand","","","","tol_peg_1","1030","1030","0","[[1,0,0],[3,0],[0]]","5","[[2,3,0],[1,0],[0]]","15","0","","","","","","7","","","","","","","","",""
"","","","","","single-stim-button","230","637035","0.0-2.0-56.4-1.4","5eaf76ae6665cc671414ab73","D2","batch4","","1131","tol_toboard","","","","tol_peg_2","1131","1131","0","[[1,0,0],[3,2],[0]]","5","[[2,3,0],[1,0],[0]]","15","0","","","","","","7","","","","","","","","",""
"","","","","","single-stim-button","231","637966","0.0-2.0-56.5-0.5","5eaf76ae6665cc671414ab73","D2","batch4","","928","tol_tohand","","","","tol_peg_1","928","928","0","[[0,0,0],[3,2],[0]]","6","[[2,3,0],[1,0],[0]]","15","0","","","","","","7","","","","","","","","",""
"","","","","","single-stim-button","232","639987","0.0-2.0-56.5-1.5","5eaf76ae6665cc671414ab73","D2","batch4","","2019","tol_toboard","","","","tol_peg_3","2019","2019","0","[[0,0,0],[3,2],[1]]","6","[[2,3,0],[1,0],[0]]","15","0","","","","","","7","","","","","","","","",""
"","","","","","single-stim-button","233","640866","0.0-2.0-56.6-0.6","5eaf76ae6665cc671414ab73","D2","batch4","","877","tol_tohand","","","","tol_peg_2","877","877","0","[[0,0,0],[3,0],[1]]","7","[[2,3,0],[1,0],[0]]","15","0","","","","","","7","","","","","","","","",""
"","","","","","single-stim-button","234","641924","0.0-2.0-56.6-1.6","5eaf76ae6665cc671414ab73","D2","batch4","","1056","tol_toboard","","","","tol_peg_1","1056","1056","0","[[2,0,0],[3,0],[1]]","7","[[2,3,0],[1,0],[0]]","15","0","","","","","","7","","","","","","","","",""
"","","","","","single-stim-button","235","643017","0.0-2.0-56.7-0.7","5eaf76ae6665cc671414ab73","D2","batch4","","1090","tol_tohand","","","","tol_peg_2","1090","1090","0","[[2,0,0],[0,0],[1]]","8","[[2,3,0],[1,0],[0]]","15","0","","","","","","7","","","","","","","","",""
"","","","","","single-stim-button","236","643916","0.0-2.0-56.7-1.7","5eaf76ae6665cc671414ab73","D2","batch4","","897","tol_toboard","","","","tol_peg_1","897","897","0","[[2,3,0],[0,0],[1]]","8","[[2,3,0],[1,0],[0]]","15","0","","","","","","7","","","","","","","","",""
"","","","","","single-stim-button","237","644812","0.0-2.0-56.8-0.8","5eaf76ae6665cc671414ab73","D2","batch4","","893","tol_tohand","","","","tol_peg_3","893","893","0","[[2,3,0],[0,0],[0]]","9","[[2,3,0],[1,0],[0]]","15","0","","","","","","7","","","","","","","","",""
"","","","","","single-stim-button","238","645860","0.0-2.0-56.8-1.8","5eaf76ae6665cc671414ab73","D2","batch4","","1045","tol_toboard","","","","tol_peg_2","1045","1045","0","[[2,3,0],[1,0],[0]]","9","[[2,3,0],[1,0],[0]]","15","0","","","","","","7","","","","","","","","",""
"","","","","","poldrack-single-stim","239","646867","0.0-2.0-57.0","5eaf76ae6665cc671414ab73","D2","batch4","","-1","tol_feedback","","","true","","1000","1000","500","","","","","","-1","none","true","27800","44023","","","","","","","","","",""
"","","","","","html-button-response","240","648350","0.0-2.0-58.0","5eaf76ae6665cc671414ab73","D2","batch4","","1480.5","tol_trial_num","<div class = centerbox><p class = center-block-text>problem <strong>17</strong> out of 25 problems</p></div>","0","","","","","","","","","","","","","","","","","","","","","","","","",""
"","","","","","single-stim-button","241","656283","0.0-2.0-59.0-0.0","5eaf76ae6665cc671414ab73","D2","batch4","","7930","tol_tohand","","","","tol_peg_2","7930","7930","0","[[1,2,0],[0,0],[0]]","1","[[3,1,0],[2,0],[0]]","16","0","","","","","","5","","","","","","","","",""
"","","","","","single-stim-button","242","657840","0.0-2.0-59.0-1.0","5eaf76ae6665cc671414ab73","D2","batch4","","1554","tol_toboard","","","","tol_peg_3","1554","1554","0","[[1,2,0],[0,0],[3]]","1","[[3,1,0],[2,0],[0]]","16","0","","","","","","5","","","","","","","","",""
"","","","","","single-stim-button","243","658781","0.0-2.0-59.1-0.1","5eaf76ae6665cc671414ab73","D2","batch4","","939","tol_tohand","","","","tol_peg_1","939","939","0","[[1,0,0],[0,0],[3]]","2","[[3,1,0],[2,0],[0]]","16","0","","","","","","5","","","","","","","","",""
"","","","","","single-stim-button","244","659959","0.0-2.0-59.1-1.1","5eaf76ae6665cc671414ab73","D2","batch4","","1176","tol_toboard","","","","tol_peg_2","1176","1176","0","[[1,0,0],[2,0],[3]]","2","[[3,1,0],[2,0],[0]]","16","0","","","","","","5","","","","","","","","",""
"","","","","","single-stim-button","245","660838","0.0-2.0-59.2-0.2","5eaf76ae6665cc671414ab73","D2","batch4","","877","tol_tohand","","","","tol_peg_1","877","877","0","[[0,0,0],[2,0],[3]]","3","[[3,1,0],[2,0],[0]]","16","0","","","","","","5","","","","","","","","",""
"","","","","","single-stim-button","246","661659","0.0-2.0-59.2-1.2","5eaf76ae6665cc671414ab73","D2","batch4","","819","tol_toboard","","","","tol_peg_2","819","819","0","[[0,0,0],[2,1],[3]]","3","[[3,1,0],[2,0],[0]]","16","0","","","","","","5","","","","","","","","",""
"","","","","","single-stim-button","247","662490","0.0-2.0-59.3-0.3","5eaf76ae6665cc671414ab73","D2","batch4","","829","tol_tohand","","","","tol_peg_3","829","829","0","[[0,0,0],[2,1],[0]]","4","[[3,1,0],[2,0],[0]]","16","0","","","","","","5","","","","","","","","",""
"","","","","","single-stim-button","248","663686","0.0-2.0-59.3-1.3","5eaf76ae6665cc671414ab73","D2","batch4","","1194","tol_toboard","","","","tol_peg_1","1194","1194","0","[[3,0,0],[2,1],[0]]","4","[[3,1,0],[2,0],[0]]","16","0","","","","","","5","","","","","","","","",""
"","","","","","single-stim-button","249","664840","0.0-2.0-59.4-0.4","5eaf76ae6665cc671414ab73","D2","batch4","","1151","tol_tohand","","","","tol_peg_2","1151","1151","0","[[3,0,0],[2,0],[0]]","5","[[3,1,0],[2,0],[0]]","16","0","","","","","","5","","","","","","","","",""
"","","","","","single-stim-button","250","665889","0.0-2.0-59.4-1.4","5eaf76ae6665cc671414ab73","D2","batch4","","1047","tol_toboard","","","","tol_peg_1","1047","1047","0","[[3,1,0],[2,0],[0]]","5","[[3,1,0],[2,0],[0]]","16","0","","","","","","5","","","","","","","","",""
"","","","","","poldrack-single-stim","251","666899","0.0-2.0-60.0","5eaf76ae6665cc671414ab73","D2","batch4","","-1","tol_feedback","","","true","","1000","1000","500","","","","","","-1","none","true","7930","11726","","","","","","","","","",""
"","","","","","html-button-response","252","667914","0.0-2.0-61.0","5eaf76ae6665cc671414ab73","D2","batch4","","1011.3999999761581","tol_trial_num","<div class = centerbox><p class = center-block-text>problem <strong>18</strong> out of 25 problems</p></div>","0","","","","","","","","","","","","","","","","","","","","","","","","",""
"","","","","","single-stim-button","253","675031","0.0-2.0-62.0-0.0","5eaf76ae6665cc671414ab73","D2","batch4","","7114","tol_tohand","","","","tol_peg_2","7114","7114","0","[[1,2,0],[0,0],[0]]","1","[[3,0,0],[2,0],[1]]","17","0","","","","","","5","","","","","","","","",""
"","","","","","single-stim-button","254","676131","0.0-2.0-62.0-1.0","5eaf76ae6665cc671414ab73","D2","batch4","","1097","tol_toboard","","","","tol_peg_3","1097","1097","0","[[1,2,0],[0,0],[3]]","1","[[3,0,0],[2,0],[1]]","17","0","","","","","","5","","","","","","","","",""
"","","","","","single-stim-button","255","676970","0.0-2.0-62.1-0.1","5eaf76ae6665cc671414ab73","D2","batch4","","836","tol_tohand","","","","tol_peg_1","836","836","0","[[1,0,0],[0,0],[3]]","2","[[3,0,0],[2,0],[1]]","17","0","","","","","","5","","","","","","","","",""
"","","","","","single-stim-button","256","677846","0.0-2.0-62.1-1.1","5eaf76ae6665cc671414ab73","D2","batch4","","873","tol_toboard","","","","tol_peg_2","873","873","0","[[1,0,0],[2,0],[3]]","2","[[3,0,0],[2,0],[1]]","17","0","","","","","","5","","","","","","","","",""
"","","","","","single-stim-button","257","678648","0.0-2.0-62.2-0.2","5eaf76ae6665cc671414ab73","D2","batch4","","799","tol_tohand","","","","tol_peg_3","799","799","0","[[1,0,0],[2,0],[0]]","3","[[3,0,0],[2,0],[1]]","17","0","","","","","","5","","","","","","","","",""
"","","","","","single-stim-button","258","680190","0.0-2.0-62.2-1.2","5eaf76ae6665cc671414ab73","D2","batch4","","1540","tol_toboard","","","","tol_peg_1","1540","1540","0","[[1,3,0],[2,0],[0]]","3","[[3,0,0],[2,0],[1]]","17","0","","","","","","5","","","","","","","","",""
"","","","","","single-stim-button","259","681815","0.0-2.0-62.3-0.3","5eaf76ae6665cc671414ab73","D2","batch4","","1621","tol_tohand","","","","tol_peg_1","1621","1621","0","[[1,0,0],[2,0],[0]]","4","[[3,0,0],[2,0],[1]]","17","0","","","","","","5","","","","","","","","",""
"","","","","","single-stim-button","260","682994","0.0-2.0-62.3-1.3","5eaf76ae6665cc671414ab73","D2","batch4","","1177","tol_toboard","","","","tol_peg_2","1177","1177","0","[[1,0,0],[2,3],[0]]","4","[[3,0,0],[2,0],[1]]","17","0","","","","","","5","","","","","","","","",""
"","","","","","single-stim-button","261","683913","0.0-2.0-62.4-0.4","5eaf76ae6665cc671414ab73","D2","batch4","","916","tol_tohand","","","","tol_peg_1","916","916","0","[[0,0,0],[2,3],[0]]","5","[[3,0,0],[2,0],[1]]","17","0","","","","","","5","","","","","","","","",""
"","","","","","single-stim-button","262","685189","0.0-2.0-62.4-1.4","5eaf76ae6665cc671414ab73","D2","batch4","","1274","tol_toboard","","","","tol_peg_3","1274","1274","0","[[0,0,0],[2,3],[1]]","5","[[3,0,0],[2,0],[1]]","17","0","","","","","","5","","","","","","","","",""
"","","","","","single-stim-button","263","686199","0.0-2.0-62.5-0.5","5eaf76ae6665cc671414ab73","D2","batch4","","1007","tol_tohand","","","","tol_peg_2","1007","1007","0","[[0,0,0],[2,0],[1]]","6","[[3,0,0],[2,0],[1]]","17","0","","","","","","5","","","","","","","","",""
"","","","","","single-stim-button","264","687216","0.0-2.0-62.5-1.5","5eaf76ae6665cc671414ab73","D2","batch4","","1014","tol_toboard","","","","tol_peg_1","1014","1014","0","[[3,0,0],[2,0],[1]]","6","[[3,0,0],[2,0],[1]]","17","0","","","","","","5","","","","","","","","",""
"","","","","","poldrack-single-stim","265","688222","0.0-2.0-63.0","5eaf76ae6665cc671414ab73","D2","batch4","","-1","tol_feedback","","","true","","1000","1000","500","","","","","","-1","none","true","7114","12293","","","","","","","","","",""
"","","","","","html-button-response","266","688875","0.0-2.0-64.0","5eaf76ae6665cc671414ab73","D2","batch4","","649.5","tol_trial_num","<div class = centerbox><p class = center-block-text>problem <strong>19</strong> out of 25 problems</p></div>","0","","","","","","","","","","","","","","","","","","","","","","","","",""
"","","","","","single-stim-button","267","690492","0.0-2.0-65.0-0.0","5eaf76ae6665cc671414ab73","D2","batch4","","1615","tol_tohand","","","","tol_peg_2","1615","1615","0","[[1,2,0],[0,0],[0]]","1","[[0,0,0],[1,2],[3]]","18","0","","","","","","7","","","","","","","","",""
"","","","","","single-stim-button","268","694990","0.0-2.0-65.0-1.0","5eaf76ae6665cc671414ab73","D2","batch4","","4495","tol_toboard","","","","tol_peg_3","4495","4495","0","[[1,2,0],[0,0],[3]]","1","[[0,0,0],[1,2],[3]]","18","0","","","","","","7","","","","","","","","",""
"","","","","","single-stim-button","269","697442","0.0-2.0-65.1-0.1","5eaf76ae6665cc671414ab73","D2","batch4","","2449","tol_tohand","","","","tol_peg_1","2449","2449","0","[[1,0,0],[0,0],[3]]","2","[[0,0,0],[1,2],[3]]","18","0","","","","","","7","","","","","","","","",""
"","","","","","single-stim-button","270","699936","0.0-2.0-65.1-1.1","5eaf76ae6665cc671414ab73","D2","batch4","","2491","tol_toboard","","","","tol_peg_2","2491","2491","0","[[1,0,0],[2,0],[3]]","2","[[0,0,0],[1,2],[3]]","18","0","","","","","","7","","","","","","","","",""
"","","","","","single-stim-button","271","701223","0.0-2.0-65.2-0.2","5eaf76ae6665cc671414ab73","D2","batch4","","1284","tol_tohand","","","","tol_peg_1","1284","1284","0","[[0,0,0],[2,0],[3]]","3","[[0,0,0],[1,2],[3]]","18","0","","","","","","7","","","","","","","","",""
"","","","","","single-stim-button","272","702354","0.0-2.0-65.2-1.2","5eaf76ae6665cc671414ab73","D2","batch4","","1128","tol_toboard","","","","tol_peg_2","1128","1128","0","[[0,0,0],[2,1],[3]]","3","[[0,0,0],[1,2],[3]]","18","0","","","","","","7","","","","","","","","",""
"","","","","","single-stim-button","273","704638","0.0-2.0-65.3-0.3","5eaf76ae6665cc671414ab73","D2","batch4","","2281","tol_tohand","","","","tol_peg_3","2281","2281","0","[[0,0,0],[2,1],[0]]","4","[[0,0,0],[1,2],[3]]","18","0","","","","","","7","","","","","","","","",""
"","","","","","single-stim-button","274","705804","0.0-2.0-65.3-1.3","5eaf76ae6665cc671414ab73","D2","batch4","","1164","tol_toboard","","","","tol_peg_1","1164","1164","0","[[3,0,0],[2,1],[0]]","4","[[0,0,0],[1,2],[3]]","18","0","","","","","","7","","","","","","","","",""
"","","","","","single-stim-button","275","706854","0.0-2.0-65.4-0.4","5eaf76ae6665cc671414ab73","D2","batch4","","1048","tol_tohand","","","","tol_peg_2","1048","1048","0","[[3,0,0],[2,0],[0]]","5","[[0,0,0],[1,2],[3]]","18","0","","","","","","7","","","","","","","","",""
"","","","","","single-stim-button","276","707691","0.0-2.0-65.4-1.4","5eaf76ae6665cc671414ab73","D2","batch4","","834","tol_toboard","","","","tol_peg_1","834","834","0","[[3,1,0],[2,0],[0]]","5","[[0,0,0],[1,2],[3]]","18","0","","","","","","7","","","","","","","","",""
"","","","","","single-stim-button","277","708698","0.0-2.0-65.5-0.5","5eaf76ae6665cc671414ab73","D2","batch4","","1005","tol_tohand","","","","tol_peg_2","1005","1005","0","[[3,1,0],[0,0],[0]]","6","[[0,0,0],[1,2],[3]]","18","0","","","","","","7","","","","","","","","",""
"","","","","","single-stim-button","278","709499","0.0-2.0-65.5-1.5","5eaf76ae6665cc671414ab73","D2","batch4","","799","tol_toboard","","","","tol_peg_3","799","799","0","[[3,1,0],[0,0],[2]]","6","[[0,0,0],[1,2],[3]]","18","0","","","","","","7","","","","","","","","",""
"","","","","","single-stim-button","279","710366","0.0-2.0-65.6-0.6","5eaf76ae6665cc671414ab73","D2","batch4","","864","tol_tohand","","","","tol_peg_1","864","864","0","[[3,0,0],[0,0],[2]]","7","[[0,0,0],[1,2],[3]]","18","0","","","","","","7","","","","","","","","",""
"","","","","","single-stim-button","280","711285","0.0-2.0-65.6-1.6","5eaf76ae6665cc671414ab73","D2","batch4","","917","tol_toboard","","","","tol_peg_2","917","917","0","[[3,0,0],[1,0],[2]]","7","[[0,0,0],[1,2],[3]]","18","0","","","","","","7","","","","","","","","",""
"","","","","","single-stim-button","281","713481","0.0-2.0-65.7-0.7","5eaf76ae6665cc671414ab73","D2","batch4","","2192","tol_tohand","","","","tol_peg_3","2192","2192","0","[[3,0,0],[1,0],[0]]","8","[[0,0,0],[1,2],[3]]","18","0","","","","","","7","","","","","","","","",""
"","","","","","single-stim-button","282","714747","0.0-2.0-65.7-1.7","5eaf76ae6665cc671414ab73","D2","batch4","","1264","tol_toboard","","","","tol_peg_2","1264","1264","0","[[3,0,0],[1,2],[0]]","8","[[0,0,0],[1,2],[3]]","18","0","","","","","","7","","","","","","","","",""
"","","","","","single-stim-button","283","715646","0.0-2.0-65.8-0.8","5eaf76ae6665cc671414ab73","D2","batch4","","897","tol_tohand","","","","tol_peg_1","897","897","0","[[0,0,0],[1,2],[0]]","9","[[0,0,0],[1,2],[3]]","18","0","","","","","","7","","","","","","","","",""
"","","","","","single-stim-button","284","717078","0.0-2.0-65.8-1.8","5eaf76ae6665cc671414ab73","D2","batch4","","1429","tol_toboard","","","","tol_peg_3","1429","1429","0","[[0,0,0],[1,2],[3]]","9","[[0,0,0],[1,2],[3]]","18","0","","","","","","7","","","","","","","","",""
"","","","","","poldrack-single-stim","285","718090","0.0-2.0-66.0","5eaf76ae6665cc671414ab73","D2","batch4","","-1","tol_feedback","","","true","","1000","1000","500","","","","","","-1","none","true","1615","13635","","","","","","","","","",""
"","","","","","html-button-response","286","719462","0.0-2.0-67.0","5eaf76ae6665cc671414ab73","D2","batch4","","1368.5","tol_trial_num","<div class = centerbox><p class = center-block-text>problem <strong>20</strong> out of 25 problems</p></div>","0","","","","","","","","","","","","","","","","","","","","","","","","",""
"","","","","","single-stim-button","287","721427","0.0-2.0-68.0-0.0","5eaf76ae6665cc671414ab73","D2","batch4","","1962","tol_tohand","","","","tol_peg_2","1962","1962","0","[[1,2,0],[0,0],[0]]","1","[[2,1,0],[0,0],[3]]","19","0","","","","","","5","","","","","","","","",""
"","","","","","single-stim-button","288","722558","0.0-2.0-68.0-1.0","5eaf76ae6665cc671414ab73","D2","batch4","","1129","tol_toboard","","","","tol_peg_3","1129","1129","0","[[1,2,0],[0,0],[3]]","1","[[2,1,0],[0,0],[3]]","19","0","","","","","","5","","","","","","","","",""
"","","","","","single-stim-button","289","724940","0.0-2.0-68.1-0.1","5eaf76ae6665cc671414ab73","D2","batch4","","2380","tol_tohand","","","","tol_peg_1","2380","2380","0","[[1,0,0],[0,0],[3]]","2","[[2,1,0],[0,0],[3]]","19","0","","","","","","5","","","","","","","","",""
"","","","","","single-stim-button","290","726208","0.0-2.0-68.1-1.1","5eaf76ae6665cc671414ab73","D2","batch4","","1265","tol_toboard","","","","tol_peg_2","1265","1265","0","[[1,0,0],[2,0],[3]]","2","[[2,1,0],[0,0],[3]]","19","0","","","","","","5","","","","","","","","",""
"","","","","","single-stim-button","291","727089","0.0-2.0-68.2-0.2","5eaf76ae6665cc671414ab73","D2","batch4","","878","tol_tohand","","","","tol_peg_1","878","878","0","[[0,0,0],[2,0],[3]]","3","[[2,1,0],[0,0],[3]]","19","0","","","","","","5","","","","","","","","",""
"","","","","","single-stim-button","292","732739","0.0-2.0-68.2-1.2","5eaf76ae6665cc671414ab73","D2","batch4","","5647","tol_toboard","","","","tol_peg_2","5647","5647","0","[[0,0,0],[2,1],[3]]","3","[[2,1,0],[0,0],[3]]","19","0","","","","","","5","","","","","","","","",""
"","","","","","single-stim-button","293","733570","0.0-2.0-68.3-0.3","5eaf76ae6665cc671414ab73","D2","batch4","","828","tol_tohand","","","","tol_peg_3","828","828","0","[[0,0,0],[2,1],[0]]","4","[[2,1,0],[0,0],[3]]","19","0","","","","","","5","","","","","","","","",""
"","","","","","single-stim-button","294","734928","0.0-2.0-68.3-1.3","5eaf76ae6665cc671414ab73","D2","batch4","","1356","tol_toboard","","","","tol_peg_1","1356","1356","0","[[3,0,0],[2,1],[0]]","4","[[2,1,0],[0,0],[3]]","19","0","","","","","","5","","","","","","","","",""
"","","","","","single-stim-button","295","736303","0.0-2.0-68.4-0.4","5eaf76ae6665cc671414ab73","D2","batch4","","1373","tol_tohand","","","","tol_peg_2","1373","1373","0","[[3,0,0],[2,0],[0]]","5","[[2,1,0],[0,0],[3]]","19","0","","","","","","5","","","","","","","","",""
"","","","","","single-stim-button","296","743145","0.0-2.0-68.4-1.4","5eaf76ae6665cc671414ab73","D2","batch4","","6839","tol_toboard","","","","tol_peg_1","6839","6839","0","[[3,1,0],[2,0],[0]]","5","[[2,1,0],[0,0],[3]]","19","0","","","","","","5","","","","","","","","",""
"","","","","","single-stim-button","297","747446","0.0-2.0-68.5-0.5","5eaf76ae6665cc671414ab73","D2","batch4","","4298","tol_tohand","","","","tol_peg_2","4298","4298","0","[[3,1,0],[0,0],[0]]","6","[[2,1,0],[0,0],[3]]","19","0","","","","","","5","","","","","","","","",""
"","","","","","single-stim-button","298","749047","0.0-2.0-68.5-1.5","5eaf76ae6665cc671414ab73","D2","batch4","","1597","tol_toboard","","","","tol_peg_2","1597","1597","0","[[3,1,0],[2,0],[0]]","6","[[2,1,0],[0,0],[3]]","19","0","","","","","","5","","","","","","","","",""
"","","","","","single-stim-button","299","749945","0.0-2.0-68.6-0.6","5eaf76ae6665cc671414ab73","D2","batch4","","895","tol_tohand","","","","tol_peg_1","895","895","0","[[3,0,0],[2,0],[0]]","7","[[2,1,0],[0,0],[3]]","19","0","","","","","","5","","","","","","","","",""
"","","","","","single-stim-button","300","750856","0.0-2.0-68.6-1.6","5eaf76ae6665cc671414ab73","D2","batch4","","909","tol_toboard","","","","tol_peg_2","909","909","0","[[3,0,0],[2,1],[0]]","7","[[2,1,0],[0,0],[3]]","19","0","","","","","","5","","","","","","","","",""
"","","","","","single-stim-button","301","754329","0.0-2.0-68.7-0.7","5eaf76ae6665cc671414ab73","D2","batch4","","3470","tol_tohand","","","","tol_peg_2","3470","3470","0","[[3,0,0],[2,0],[0]]","8","[[2,1,0],[0,0],[3]]","19","0","","","","","","5","","","","","","","","",""
"","","","","","single-stim-button","302","754758","0.0-2.0-68.7-1.7","5eaf76ae6665cc671414ab73","D2","batch4","","426","tol_toboard","","","","tol_peg_2","426","426","0","[[3,0,0],[2,1],[0]]","8","[[2,1,0],[0,0],[3]]","19","0","","","","","","5","","","","","","","","",""
"","","","","","single-stim-button","303","755928","0.0-2.0-68.8-0.8","5eaf76ae6665cc671414ab73","D2","batch4","","1167","tol_tohand","","","","tol_peg_2","1167","1167","0","[[3,0,0],[2,0],[0]]","9","[[2,1,0],[0,0],[3]]","19","0","","","","","","5","","","","","","","","",""
"","","","","","single-stim-button","304","756957","0.0-2.0-68.8-1.8","5eaf76ae6665cc671414ab73","D2","batch4","","1027","tol_toboard","","","","tol_peg_3","1027","1027","0","[[3,0,0],[2,0],[1]]","9","[[2,1,0],[0,0],[3]]","19","0","","","","","","5","","","","","","","","",""
"","","","","","single-stim-button","305","758007","0.0-2.0-68.9-0.9","5eaf76ae6665cc671414ab73","D2","batch4","","1047","tol_tohand","","","","tol_peg_2","1047","1047","0","[[3,0,0],[0,0],[1]]","10","[[2,1,0],[0,0],[3]]","19","0","","","","","","5","","","","","","","","",""
"","","","","","single-stim-button","306","759708","0.0-2.0-68.9-1.9","5eaf76ae6665cc671414ab73","D2","batch4","","1699","tol_toboard","","","","tol_peg_2","1699","1699","0","[[3,0,0],[2,0],[1]]","10","[[2,1,0],[0,0],[3]]","19","0","","","","","","5","","","","","","","","",""
"","","","","","single-stim-button","307","760533","0.0-2.0-68.10-0.10","5eaf76ae6665cc671414ab73","D2","batch4","","822","tol_tohand","","","","tol_peg_1","822","822","0","[[0,0,0],[2,0],[1]]","11","[[2,1,0],[0,0],[3]]","19","0","","","","","","5","","","","","","","","",""
"","","","","","single-stim-button","308","761456","0.0-2.0-68.10-1.10","5eaf76ae6665cc671414ab73","D2","batch4","","920","tol_toboard","","","","tol_peg_2","920","920","0","[[0,0,0],[2,3],[1]]","11","[[2,1,0],[0,0],[3]]","19","0","","","","","","5","","","","","","","","",""
"","","","","","single-stim-button","309","762740","0.0-2.0-68.11-0.11","5eaf76ae6665cc671414ab73","D2","batch4","","1282","tol_tohand","","","","tol_peg_2","1282","1282","0","[[0,0,0],[2,0],[1]]","12","[[2,1,0],[0,0],[3]]","19","0","","","","","","5","","","","","","","","",""
"","","","","","single-stim-button","310","763756","0.0-2.0-68.11-1.11","5eaf76ae6665cc671414ab73","D2","batch4","","1014","tol_toboard","","","","tol_peg_1","1014","1014","0","[[3,0,0],[2,0],[1]]","12","[[2,1,0],[0,0],[3]]","19","0","","","","","","5","","","","","","","","",""
"","","","","","single-stim-button","311","764625","0.0-2.0-68.12-0.12","5eaf76ae6665cc671414ab73","D2","batch4","","866","tol_tohand","","","","tol_peg_2","866","866","0","[[3,0,0],[0,0],[1]]","13","[[2,1,0],[0,0],[3]]","19","0","","","","","","5","","","","","","","","",""
"","","","","","single-stim-button","312","765471","0.0-2.0-68.12-1.12","5eaf76ae6665cc671414ab73","D2","batch4","","844","tol_toboard","","","","tol_peg_1","844","844","0","[[3,2,0],[0,0],[1]]","13","[[2,1,0],[0,0],[3]]","19","0","","","","","","5","","","","","","","","",""
"","","","","","single-stim-button","313","767338","0.0-2.0-68.13-0.13","5eaf76ae6665cc671414ab73","D2","batch4","","1864","tol_tohand","","","","tol_peg_3","1864","1864","0","[[3,2,0],[0,0],[0]]","14","[[2,1,0],[0,0],[3]]","19","0","","","","","","5","","","","","","","","",""
"","","","","","single-stim-button","314","768736","0.0-2.0-68.13-1.13","5eaf76ae6665cc671414ab73","D2","batch4","","1395","tol_toboard","","","","tol_peg_2","1395","1395","0","[[3,2,0],[1,0],[0]]","14","[[2,1,0],[0,0],[3]]","19","0","","","","","","5","","","","","","","","",""
"","","","","","single-stim-button","315","771138","0.0-2.0-68.14-0.14","5eaf76ae6665cc671414ab73","D2","batch4","","2400","tol_tohand","","","","tol_peg_1","2400","2400","0","[[3,0,0],[1,0],[0]]","15","[[2,1,0],[0,0],[3]]","19","0","","","","","","5","","","","","","","","",""
"","","","","","single-stim-button","316","772272","0.0-2.0-68.14-1.14","5eaf76ae6665cc671414ab73","D2","batch4","","1132","tol_toboard","","","","tol_peg_2","1132","1132","0","[[3,0,0],[1,2],[0]]","15","[[2,1,0],[0,0],[3]]","19","0","","","","","","5","","","","","","","","",""
"","","","","","single-stim-button","317","773167","0.0-2.0-68.15-0.15","5eaf76ae6665cc671414ab73","D2","batch4","","892","tol_tohand","","","","tol_peg_1","892","892","0","[[0,0,0],[1,2],[0]]","16","[[2,1,0],[0,0],[3]]","19","0","","","","","","5","","","","","","","","",""
"","","","","","single-stim-button","318","774368","0.0-2.0-68.15-1.15","5eaf76ae6665cc671414ab73","D2","batch4","","1198","tol_toboard","","","","tol_peg_3","1198","1198","0","[[0,0,0],[1,2],[3]]","16","[[2,1,0],[0,0],[3]]","19","0","","","","","","5","","","","","","","","",""
"","","","","","single-stim-button","319","775333","0.0-2.0-68.16-0.16","5eaf76ae6665cc671414ab73","D2","batch4","","962","tol_tohand","","","","tol_peg_2","962","962","0","[[0,0,0],[1,0],[3]]","17","[[2,1,0],[0,0],[3]]","19","0","","","","","","5","","","","","","","","",""
"","","","","","single-stim-button","320","776383","0.0-2.0-68.16-1.16","5eaf76ae6665cc671414ab73","D2","batch4","","1047","tol_toboard","","","","tol_peg_1","1047","1047","0","[[2,0,0],[1,0],[3]]","17","[[2,1,0],[0,0],[3]]","19","0","","","","","","5","","","","","","","","",""
"","","","","","single-stim-button","321","777268","0.0-2.0-68.17-0.17","5eaf76ae6665cc671414ab73","D2","batch4","","882","tol_tohand","","","","tol_peg_2","882","882","0","[[2,0,0],[0,0],[3]]","18","[[2,1,0],[0,0],[3]]","19","0","","","","","","5","","","","","","","","",""
"","","","","","single-stim-button","322","778157","0.0-2.0-68.17-1.17","5eaf76ae6665cc671414ab73","D2","batch4","","886","tol_toboard","","","","tol_peg_1","886","886","0","[[2,1,0],[0,0],[3]]","18","[[2,1,0],[0,0],[3]]","19","0","","","","","","5","","","","","","","","",""
"","","","","","poldrack-single-stim","323","779178","0.0-2.0-69.0","5eaf76ae6665cc671414ab73","D2","batch4","","-1","tol_feedback","","","true","","1000","1000","500","","","","","","-1","none","true","1962","28268","","","","","","","","","",""
"","","","","","html-button-response","324","780131","0.0-2.0-70.0","5eaf76ae6665cc671414ab73","D2","batch4","","950.1999999880791","tol_trial_num","<div class = centerbox><p class = center-block-text>problem <strong>21</strong> out of 25 problems</p></div>","0","","","","","","","","","","","","","","","","","","","","","","","","",""
"","","","","","single-stim-button","325","789627","0.0-2.0-71.0-0.0","5eaf76ae6665cc671414ab73","D2","batch4","","9494","tol_tohand","","","","tol_peg_2","9494","9494","0","[[1,2,0],[0,0],[0]]","1","[[3,2,0],[0,0],[1]]","20","0","","","","","","6","","","","","","","","",""
"","","","","","single-stim-button","326","790564","0.0-2.0-71.0-1.0","5eaf76ae6665cc671414ab73","D2","batch4","","933","tol_toboard","","","","tol_peg_3","933","933","0","[[1,2,0],[0,0],[3]]","1","[[3,2,0],[0,0],[1]]","20","0","","","","","","6","","","","","","","","",""
"","","","","","single-stim-button","327","791426","0.0-2.0-71.1-0.1","5eaf76ae6665cc671414ab73","D2","batch4","","859","tol_tohand","","","","tol_peg_1","859","859","0","[[1,0,0],[0,0],[3]]","2","[[3,2,0],[0,0],[1]]","20","0","","","","","","6","","","","","","","","",""
"","","","","","single-stim-button","328","792207","0.0-2.0-71.1-1.1","5eaf76ae6665cc671414ab73","D2","batch4","","778","tol_toboard","","","","tol_peg_2","778","778","0","[[1,0,0],[2,0],[3]]","2","[[3,2,0],[0,0],[1]]","20","0","","","","","","6","","","","","","","","",""
"","","","","","single-stim-button","329","792426","0.0-2.0-71.2-0.2","5eaf76ae6665cc671414ab73","D2","batch4","","216","tol_tohand","","","","tol_peg_2","216","216","0","[[1,0,0],[0,0],[3]]","3","[[3,2,0],[0,0],[1]]","20","0","","","","","","6","","","","","","","","",""
"","","","","","single-stim-button","330","793841","0.0-2.0-71.2-1.2","5eaf76ae6665cc671414ab73","D2","batch4","","1413","tol_toboard","","","","tol_peg_2","1413","1413","0","[[1,0,0],[2,0],[3]]","3","[[3,2,0],[0,0],[1]]","20","0","","","","","","6","","","","","","","","",""
"","","","","","single-stim-button","331","794741","0.0-2.0-71.3-0.3","5eaf76ae6665cc671414ab73","D2","batch4","","897","tol_tohand","","","","tol_peg_3","897","897","0","[[1,0,0],[2,0],[0]]","4","[[3,2,0],[0,0],[1]]","20","0","","","","","","6","","","","","","","","",""
"","","","","","single-stim-button","332","795705","0.0-2.0-71.3-1.3","5eaf76ae6665cc671414ab73","D2","batch4","","962","tol_toboard","","","","tol_peg_2","962","962","0","[[1,0,0],[2,3],[0]]","4","[[3,2,0],[0,0],[1]]","20","0","","","","","","6","","","","","","","","",""
"","","","","","single-stim-button","333","796564","0.0-2.0-71.4-0.4","5eaf76ae6665cc671414ab73","D2","batch4","","856","tol_tohand","","","","tol_peg_1","856","856","0","[[0,0,0],[2,3],[0]]","5","[[3,2,0],[0,0],[1]]","20","0","","","","","","6","","","","","","","","",""
"","","","","","single-stim-button","334","797658","0.0-2.0-71.4-1.4","5eaf76ae6665cc671414ab73","D2","batch4","","1092","tol_toboard","","","","tol_peg_3","1092","1092","0","[[0,0,0],[2,3],[1]]","5","[[3,2,0],[0,0],[1]]","20","0","","","","","","6","","","","","","","","",""
"","","","","","single-stim-button","335","798523","0.0-2.0-71.5-0.5","5eaf76ae6665cc671414ab73","D2","batch4","","862","tol_tohand","","","","tol_peg_2","862","862","0","[[0,0,0],[2,0],[1]]","6","[[3,2,0],[0,0],[1]]","20","0","","","","","","6","","","","","","","","",""
"","","","","","single-stim-button","336","799372","0.0-2.0-71.5-1.5","5eaf76ae6665cc671414ab73","D2","batch4","","847","tol_toboard","","","","tol_peg_1","847","847","0","[[3,0,0],[2,0],[1]]","6","[[3,2,0],[0,0],[1]]","20","0","","","","","","6","","","","","","","","",""
"","","","","","single-stim-button","337","800356","0.0-2.0-71.6-0.6","5eaf76ae6665cc671414ab73","D2","batch4","","981","tol_tohand","","","","tol_peg_2","981","981","0","[[3,0,0],[0,0],[1]]","7","[[3,2,0],[0,0],[1]]","20","0","","","","","","6","","","","","","","","",""
"","","","","","single-stim-button","338","801119","0.0-2.0-71.6-1.6","5eaf76ae6665cc671414ab73","D2","batch4","","760","tol_toboard","","","","tol_peg_1","760","760","0","[[3,2,0],[0,0],[1]]","7","[[3,2,0],[0,0],[1]]","20","0","","","","","","6","","","","","","","","",""
"","","","","","poldrack-single-stim","339","802132","0.0-2.0-72.0","5eaf76ae6665cc671414ab73","D2","batch4","","-1","tol_feedback","","","true","","1000","1000","500","","","","","","-1","none","true","9494","14165","","","","","","","","","",""
"","","","","","html-button-response","340","802871","0.0-2.0-73.0","5eaf76ae6665cc671414ab73","D2","batch4","","736.1999999880791","tol_trial_num","<div class = centerbox><p class = center-block-text>problem <strong>22</strong> out of 25 problems</p></div>","0","","","","","","","","","","","","","","","","","","","","","","","","",""
"","","","","","single-stim-button","341","819544","0.0-2.0-74.0-0.0","5eaf76ae6665cc671414ab73","D2","batch4","","16670","tol_tohand","","","","tol_peg_2","16670","16670","0","[[1,0,0],[2,0],[0]]","1","[[0,0,0],[1,2],[3]]","21","0","","","","","","6","","","","","","","","",""
"","","","","","single-stim-button","342","825310","0.0-2.0-74.0-1.0","5eaf76ae6665cc671414ab73","D2","batch4","","5763","tol_toboard","","","","tol_peg_1","5763","5763","0","[[1,3,0],[2,0],[0]]","1","[[0,0,0],[1,2],[3]]","21","0","","","","","","6","","","","","","","","",""
"","","","","","single-stim-button","343","826409","0.0-2.0-74.1-0.1","5eaf76ae6665cc671414ab73","D2","batch4","","1096","tol_tohand","","","","tol_peg_2","1096","1096","0","[[1,3,0],[0,0],[0]]","2","[[0,0,0],[1,2],[3]]","21","0","","","","","","6","","","","","","","","",""
"","","","","","single-stim-button","344","827540","0.0-2.0-74.1-1.1","5eaf76ae6665cc671414ab73","D2","batch4","","1129","tol_toboard","","","","tol_peg_3","1129","1129","0","[[1,3,0],[0,0],[2]]","2","[[0,0,0],[1,2],[3]]","21","0","","","","","","6","","","","","","","","",""
"","","","","","single-stim-button","345","828773","0.0-2.0-74.2-0.2","5eaf76ae6665cc671414ab73","D2","batch4","","1230","tol_tohand","","","","tol_peg_1","1230","1230","0","[[1,0,0],[0,0],[2]]","3","[[0,0,0],[1,2],[3]]","21","0","","","","","","6","","","","","","","","",""
"","","","","","single-stim-button","346","830602","0.0-2.0-74.2-1.2","5eaf76ae6665cc671414ab73","D2","batch4","","1826","tol_toboard","","","","tol_peg_2","1826","1826","0","[[1,0,0],[3,0],[2]]","3","[[0,0,0],[1,2],[3]]","21","0","","","","","","6","","","","","","","","",""
"","","","","","single-stim-button","347","831560","0.0-2.0-74.3-0.3","5eaf76ae6665cc671414ab73","D2","batch4","","957","tol_tohand","","","","tol_peg_1","957","957","0","[[0,0,0],[3,0],[2]]","4","[[0,0,0],[1,2],[3]]","21","0","","","","","","6","","","","","","","","",""
"","","","","","single-stim-button","348","832806","0.0-2.0-74.3-1.3","5eaf76ae6665cc671414ab73","D2","batch4","","1243","tol_toboard","","","","tol_peg_2","1243","1243","0","[[0,0,0],[3,1],[2]]","4","[[0,0,0],[1,2],[3]]","21","0","","","","","","6","","","","","","","","",""
"","","","","","single-stim-button","349","834359","0.0-2.0-74.4-0.4","5eaf76ae6665cc671414ab73","D2","batch4","","1551","tol_tohand","","","","tol_peg_3","1551","1551","0","[[0,0,0],[3,1],[0]]","5","[[0,0,0],[1,2],[3]]","21","0","","","","","","6","","","","","","","","",""
"","","","","","single-stim-button","350","835462","0.0-2.0-74.4-1.4","5eaf76ae6665cc671414ab73","D2","batch4","","1100","tol_toboard","","","","tol_peg_1","1100","1100","0","[[2,0,0],[3,1],[0]]","5","[[0,0,0],[1,2],[3]]","21","0","","","","","","6","","","","","","","","",""
"","","","","","single-stim-button","351","836354","0.0-2.0-74.5-0.5","5eaf76ae6665cc671414ab73","D2","batch4","","890","tol_tohand","","","","tol_peg_2","890","890","0","[[2,0,0],[3,0],[0]]","6","[[0,0,0],[1,2],[3]]","21","0","","","","","","6","","","","","","","","",""
"","","","","","single-stim-button","352","837534","0.0-2.0-74.5-1.5","5eaf76ae6665cc671414ab73","D2","batch4","","1177","tol_toboard","","","","tol_peg_1","1177","1177","0","[[2,1,0],[3,0],[0]]","6","[[0,0,0],[1,2],[3]]","21","0","","","","","","6","","","","","","","","",""
"","","","","","single-stim-button","353","838394","0.0-2.0-74.6-0.6","5eaf76ae6665cc671414ab73","D2","batch4","","859","tol_tohand","","","","tol_peg_2","859","859","0","[[2,1,0],[0,0],[0]]","7","[[0,0,0],[1,2],[3]]","21","0","","","","","","6","","","","","","","","",""
"","","","","","single-stim-button","354","839659","0.0-2.0-74.6-1.6","5eaf76ae6665cc671414ab73","D2","batch4","","1262","tol_toboard","","","","tol_peg_3","1262","1262","0","[[2,1,0],[0,0],[3]]","7","[[0,0,0],[1,2],[3]]","21","0","","","","","","6","","","","","","","","",""
