"success","timeout","failed_images","failed_audio","failed_video","trial_type","trial_index","time_elapsed","internal_node_id","subject_id","study_id","session_id","view_history","rt","stimulus","response","task","correct","answer","item","fiar_detect_rt","fiar_detect_correct","total_correct_fiar_detect","post_trial_gap","choices","spm_correct","spm_rt","mouse_click","stim_duration","block_duration","timing_post_trial","current_position","tol_num_moves_made","tol_target","tol_problem_id","tol_rt","key_press","possible_responses","tol_correct","preplanning","tol_rt_per_trial","tol_min_moves"
"true","false","[]","[]","[]","preload","0","22207","0.0-0.0","5eb29a3db97d6b0008d24a1a","B2","batch2","","","","","","","","","","","","","","","","","","","","","","","","","","","","","",""
"true","","","","","fullscreen","1","856321","0.0-1.0-0.0","5eb29a3db97d6b0008d24a1a","B2","batch2","","","","","","","","","","","","","","","","","","","","","","","","","","","","","",""
"true","","","","","fullscreen","2","859699","0.0-2.0-0.0","5eb29a3db97d6b0008d24a1a","B2","batch2","","","","","","","","","","","","","","","","","","","","","","","","","","","","","",""
"","","","","","instructions","3","896322","0.0-2.0-1.0-0.0","5eb29a3db97d6b0008d24a1a","B2","batch2","[{""page_index"":0,""viewing_time"":22314.60000000149},{""page_index"":1,""viewing_time"":14306}]","36620.89999999851","","","","","","","","","","","","","","","","","","","","","","","","","","","",""
"","","","","","html-button-response","4","898877","0.0-2.0-1.0-1.0-0.0","5eb29a3db97d6b0008d24a1a","B2","batch2","","2552.9000000059605","<p class=block-text> Let's answer a few questions <br>","0","pattern_enter_quiz","","","","","","","","","","","","","","","","","","","","","","","","",""
"","","","","","html-button-response","5","904344","0.0-2.0-1.0-1.0-1.0","5eb29a3db97d6b0008d24a1a","B2","batch2","","5465.10000000149","<p class = block-text>True or False: You will have as much time as you want to make each choice. <br></p>","1","pattern_quiz","true","","","","","","","","","","","","","","","","","","","","","","","",""
"","","","","","html-button-response","6","914781","0.0-2.0-1.0-1.0-2.0","5eb29a3db97d6b0008d24a1a","B2","batch2","","10434.5","<p class = block-text>Correct! You should make your choice <strong> as fast as you can</strong>.</p>","0","pattern_quiz_feedback","","","","","","","","","","","","","","","","","","","","","","","","",""
"","","","","","html-button-response","7","919206","0.0-2.0-1.0-1.0-3.0","5eb29a3db97d6b0008d24a1a","B2","batch2","","4424.70000000298","<p class = block-text>True or False: You will look for 4 pieces in black or white color connected in a row either horizontally, vertically or diagonally. <br></p>","0","pattern_quiz","true","","","","","","","","","","","","","","","","","","","","","","","",""
"","","","","","html-button-response","8","919975","0.0-2.0-1.0-1.0-4.0","5eb29a3db97d6b0008d24a1a","B2","batch2","","767.1000000014901","<p class = block-text>Correct! </p>","0","pattern_quiz_feedback","","","","","","","","","","","","","","","","","","","","","","","","",""
"","","","","","html-button-response","9","922379","0.0-2.0-2.0","5eb29a3db97d6b0008d24a1a","B2","batch2","","2402.2000000029802","<p class=block-text> Now that you've understood the game, let's do a few practice trials before we start!<br> <br>","0","pattern_enter_practice","","","","","","","","","","","","","","","","","","","","","","","","",""
"","","","","","image-keyboard-response","10","923687","0.0-2.0-3.0-0.0","5eb29a3db97d6b0008d24a1a","B2","batch2","","1304.8999999985099","stim/prac_yes_18_hor_w1.png","f","pattern_practice","true","f","","","","","","","","","","","","","","","","","","","","","","",""
"","","","","","html-keyboard-response","11","924707","0.0-2.0-3.0-1.0","5eb29a3db97d6b0008d24a1a","B2","batch2","","null","<p style=""font-size:30px;color:green;"">Correct!</p>","null","pattern_feedback","","","","","","","","","","","","","","","","","","","","","","","","",""
"","","","","","image-keyboard-response","12","928298","0.0-2.0-3.0-0.1","5eb29a3db97d6b0008d24a1a","B2","batch2","","3588.7999999970198","stim/prac_no_16_1.png","j","pattern_practice","true","j","","","","","","","","","","","","","","","","","","","","","","",""
"","","","","","html-keyboard-response","13","929319","0.0-2.0-3.0-1.1","5eb29a3db97d6b0008d24a1a","B2","batch2","","null","<p style=""font-size:30px;color:green;"">Correct!</p>","null","pattern_feedback","","","","","","","","","","","","","","","","","","","","","","","","",""
"","","","","","image-keyboard-response","14","930272","0.0-2.0-3.0-0.2","5eb29a3db97d6b0008d24a1a","B2","batch2","","950.2999999970198","stim/prac_yes_16_ver_w1.png","f","pattern_practice","true","f","","","","","","","","","","","","","","","","","","","","","","",""
"","","","","","html-keyboard-response","15","931301","0.0-2.0-3.0-1.2","5eb29a3db97d6b0008d24a1a","B2","batch2","","null","<p style=""font-size:30px;color:green;"">Correct!</p>","null","pattern_feedback","","","","","","","","","","","","","","","","","","","","","","","","",""
"","","","","","image-keyboard-response","16","932010","0.0-2.0-3.0-0.3","5eb29a3db97d6b0008d24a1a","B2","batch2","","706.7000000029802","stim/prac_no_18_1.png","j","pattern_practice","true","j","","","","","","","","","","","","","","","","","","","","","","",""
"","","","","","html-keyboard-response","17","933033","0.0-2.0-3.0-1.3","5eb29a3db97d6b0008d24a1a","B2","batch2","","null","<p style=""font-size:30px;color:green;"">Correct!</p>","null","pattern_feedback","","","","","","","","","","","","","","","","","","","","","","","","",""
"","","","","","image-keyboard-response","18","933975","0.0-2.0-3.0-0.4","5eb29a3db97d6b0008d24a1a","B2","batch2","","939.2000000029802","stim/prac_yes_20_dia_b1.png","j","pattern_practice","false","f","","","","","","","","","","","","","","","","","","","","","","",""
"","","","","","html-keyboard-response","19","934997","0.0-2.0-3.0-1.4","5eb29a3db97d6b0008d24a1a","B2","batch2","","null","<p style=""font-size:30px;color:red;"">Wrong.</p>","null","pattern_feedback","","","","","","","","","","","","","","","","","","","","","","","","",""
"","","","","","html-button-response","20","939946","0.0-2.0-4.0","5eb29a3db97d6b0008d24a1a","B2","batch2","","4947.10000000149","<p class=block-text> Good job! You are done with practice trials!<br>
        You responded correctly on 80% of the trials.<br>
        Press the button below to start official trials. Now you won't see any feedback about your response</p>","0","pattern_enter_official_trials","","","","","","","","","","","","","","","","","","","","","","","","",""
"","","","","","html-keyboard-response","21","940760","0.0-2.0-5.0-0.0","5eb29a3db97d6b0008d24a1a","B2","batch2","","null","<p class=block-text>Trial 1 out of 78</p>","null","pattern_show_trial_num","","","","","","","","","","","","","","","","","","","","","","","","",""
"","","","","","image-keyboard-response","22","941958","0.0-2.0-5.0-1.0","5eb29a3db97d6b0008d24a1a","B2","batch2","","1195.5999999940395","stim/no_12_1.png","j","pattern_response","true","j","pattern_01","1195.5999999940395","true","1","","","","","","","","","","","","","","","","","","",""
"","","","","","html-keyboard-response","23","943272","0.0-2.0-5.0-0.1","5eb29a3db97d6b0008d24a1a","B2","batch2","","null","<p class=block-text>Trial 2 out of 78</p>","null","pattern_show_trial_num","","","","","","","","","","","","","","","","","","","","","","","","",""
"","","","","","image-keyboard-response","24","944701","0.0-2.0-5.0-1.1","5eb29a3db97d6b0008d24a1a","B2","batch2","","1426.4000000059605","stim/yes_15_dia_b1u_b.png","j","pattern_response","false","f","pattern_44","1426.4000000059605","false","1","","","","","","","","","","","","","","","","","","",""
"","","","","","html-keyboard-response","25","946015","0.0-2.0-5.0-0.2","5eb29a3db97d6b0008d24a1a","B2","batch2","","null","<p class=block-text>Trial 3 out of 78</p>","null","pattern_show_trial_num","","","","","","","","","","","","","","","","","","","","","","","","",""
"","","","","","image-keyboard-response","26","948958","0.0-2.0-5.0-1.2","5eb29a3db97d6b0008d24a1a","B2","batch2","","2941.4000000059605","stim/no_28_2.png","j","pattern_response","true","j","pattern_11","2941.4000000059605","true","2","","","","","","","","","","","","","","","","","","",""
"","","","","","html-keyboard-response","27","950282","0.0-2.0-5.0-0.3","5eb29a3db97d6b0008d24a1a","B2","batch2","","null","<p class=block-text>Trial 4 out of 78</p>","null","pattern_show_trial_num","","","","","","","","","","","","","","","","","","","","","","","","",""
"","","","","","image-keyboard-response","28","951542","0.0-2.0-5.0-1.3","5eb29a3db97d6b0008d24a1a","B2","batch2","","1258","stim/yes_23_ver_b1.png","f","pattern_response","true","f","pattern_48","1258","true","3","","","","","","","","","","","","","","","","","","",""
"","","","","","html-keyboard-response","29","952850","0.0-2.0-5.0-0.4","5eb29a3db97d6b0008d24a1a","B2","batch2","","null","<p class=block-text>Trial 5 out of 78</p>","null","pattern_show_trial_num","","","","","","","","","","","","","","","","","","","","","","","","",""
"","","","","","image-keyboard-response","30","953540","0.0-2.0-5.0-1.4","5eb29a3db97d6b0008d24a1a","B2","batch2","","688.6999999955297","stim/yes_29_hor_b1_b.png","f","pattern_response","true","f","pattern_52","688.6999999955297","true","4","","","","","","","","","","","","","","","","","","",""
"","","","","","html-keyboard-response","31","954854","0.0-2.0-5.0-0.5","5eb29a3db97d6b0008d24a1a","B2","batch2","","null","<p class=block-text>Trial 6 out of 78</p>","null","pattern_show_trial_num","","","","","","","","","","","","","","","","","","","","","","","","",""
"","","","","","image-keyboard-response","32","960137","0.0-2.0-5.0-1.5","5eb29a3db97d6b0008d24a1a","B2","batch2","","5281.5","stim/no_53_1_b.png","j","pattern_response","true","j","pattern_33","5281.5","true","5","","","","","","","","","","","","","","","","","","",""
"","","","","","html-keyboard-response","33","961448","0.0-2.0-5.0-0.6","5eb29a3db97d6b0008d24a1a","B2","batch2","","null","<p class=block-text>Trial 7 out of 78</p>","null","pattern_show_trial_num","","","","","","","","","","","","","","","","","","","","","","","","",""
"","","","","","image-keyboard-response","34","968281","0.0-2.0-5.0-1.6","5eb29a3db97d6b0008d24a1a","B2","batch2","","6831.39999999851","stim/no_51_1.png","j","pattern_response","true","j","pattern_31","6831.39999999851","true","6","","","","","","","","","","","","","","","","","","",""
"","","","","","html-keyboard-response","35","969597","0.0-2.0-5.0-0.7","5eb29a3db97d6b0008d24a1a","B2","batch2","","null","<p class=block-text>Trial 8 out of 78</p>","null","pattern_show_trial_num","","","","","","","","","","","","","","","","","","","","","","","","",""
"","","","","","image-keyboard-response","36","971402","0.0-2.0-5.0-1.7","5eb29a3db97d6b0008d24a1a","B2","batch2","","1803.2999999970198","stim/no_15_1_w.png","j","pattern_response","true","j","pattern_03","1803.2999999970198","true","7","","","","","","","","","","","","","","","","","","",""
"","","","","","html-keyboard-response","37","972710","0.0-2.0-5.0-0.8","5eb29a3db97d6b0008d24a1a","B2","batch2","","null","<p class=block-text>Trial 9 out of 78</p>","null","pattern_show_trial_num","","","","","","","","","","","","","","","","","","","","","","","","",""
"","","","","","image-keyboard-response","38","973314","0.0-2.0-5.0-1.8","5eb29a3db97d6b0008d24a1a","B2","batch2","","602.1000000014901","stim/yes_12_hor_w1_w.png","f","pattern_response","true","f","pattern_42","602.1000000014901","true","8","","","","","","","","","","","","","","","","","","",""
"","","","","","html-keyboard-response","39","974632","0.0-2.0-5.0-0.9","5eb29a3db97d6b0008d24a1a","B2","batch2","","null","<p class=block-text>Trial 10 out of 78</p>","null","pattern_show_trial_num","","","","","","","","","","","","","","","","","","","","","","","","",""
"","","","","","image-keyboard-response","40","976241","0.0-2.0-5.0-1.9","5eb29a3db97d6b0008d24a1a","B2","batch2","","1608","stim/yes_46_ver_b1_b.png","f","pattern_response","true","f","pattern_68","1608","true","9","","","","","","","","","","","","","","","","","","",""
"","","","","","html-keyboard-response","41","977555","0.0-2.0-5.0-0.10","5eb29a3db97d6b0008d24a1a","B2","batch2","","null","<p class=block-text>Trial 11 out of 78</p>","null","pattern_show_trial_num","","","","","","","","","","","","","","","","","","","","","","","","",""
"","","","","","image-keyboard-response","42","980853","0.0-2.0-5.0-1.10","5eb29a3db97d6b0008d24a1a","B2","batch2","","3295.3000000044703","stim/yes_42_dia_w1_w.png","f","pattern_response","true","f","pattern_64","3295.3000000044703","true","10","","","","","","","","","","","","","","","","","","",""
"","","","","","html-keyboard-response","43","982169","0.0-2.0-5.0-0.11","5eb29a3db97d6b0008d24a1a","B2","batch2","","null","<p class=block-text>Trial 12 out of 78</p>","null","pattern_show_trial_num","","","","","","","","","","","","","","","","","","","","","","","","",""
"","","","","","image-keyboard-response","44","990812","0.0-2.0-5.0-1.11","5eb29a3db97d6b0008d24a1a","B2","batch2","","8640.40000000596","stim/no_45_1_w.png","j","pattern_response","true","j","pattern_25","8640.40000000596","true","11","","","","","","","","","","","","","","","","","","",""
"","","","","","html-keyboard-response","45","992115","0.0-2.0-5.0-0.12","5eb29a3db97d6b0008d24a1a","B2","batch2","","null","<p class=block-text>Trial 13 out of 78</p>","null","pattern_show_trial_num","","","","","","","","","","","","","","","","","","","","","","","","",""
"","","","","","image-keyboard-response","46","994139","0.0-2.0-5.0-1.12","5eb29a3db97d6b0008d24a1a","B2","batch2","","2021.6999999955297","stim/yes_33_dia_w1_w.png","j","pattern_response","false","f","pattern_56","2021.6999999955297","false","11","","","","","","","","","","","","","","","","","","",""
"","","","","","html-keyboard-response","47","995449","0.0-2.0-5.0-0.13","5eb29a3db97d6b0008d24a1a","B2","batch2","","null","<p class=block-text>Trial 14 out of 78</p>","null","pattern_show_trial_num","","","","","","","","","","","","","","","","","","","","","","","","",""
"","","","","","image-keyboard-response","48","997588","0.0-2.0-5.0-1.13","5eb29a3db97d6b0008d24a1a","B2","batch2","","2136.7000000029802","stim/no_18_1_b.png","j","pattern_response","true","j","pattern_05","2136.7000000029802","true","12","","","","","","","","","","","","","","","","","","",""
"","","","","","html-keyboard-response","49","998903","0.0-2.0-5.0-0.14","5eb29a3db97d6b0008d24a1a","B2","batch2","","null","<p class=block-text>Trial 15 out of 78</p>","null","pattern_show_trial_num","","","","","","","","","","","","","","","","","","","","","","","","",""
"","","","","","image-keyboard-response","50","1002972","0.0-2.0-5.0-1.14","5eb29a3db97d6b0008d24a1a","B2","batch2","","4067.5","stim/no_36_1_b.png","j","pattern_response","true","j","pattern_17","4067.5","true","13","","","","","","","","","","","","","","","","","","",""
"","","","","","html-keyboard-response","51","1004287","0.0-2.0-5.0-0.15","5eb29a3db97d6b0008d24a1a","B2","batch2","","null","<p class=block-text>Trial 16 out of 78</p>","null","pattern_show_trial_num","","","","","","","","","","","","","","","","","","","","","","","","",""
"","","","","","image-keyboard-response","52","1005092","0.0-2.0-5.0-1.15","5eb29a3db97d6b0008d24a1a","B2","batch2","","803.5","stim/yes_39_hor_w1_w.png","f","pattern_response","true","f","pattern_62","803.5","true","14","","","","","","","","","","","","","","","","","","",""
"","","","","","html-keyboard-response","53","1006409","0.0-2.0-5.0-0.16","5eb29a3db97d6b0008d24a1a","B2","batch2","","null","<p class=block-text>Trial 17 out of 78</p>","null","pattern_show_trial_num","","","","","","","","","","","","","","","","","","","","","","","","",""
"","","","","","image-keyboard-response","54","1007016","0.0-2.0-5.0-1.16","5eb29a3db97d6b0008d24a1a","B2","batch2","","606","stim/yes_17_ver_b1_b.png","f","pattern_response","true","f","pattern_46","606","true","15","","","","","","","","","","","","","","","","","","",""
"","","","","","html-keyboard-response","55","1008325","0.0-2.0-5.0-0.17","5eb29a3db97d6b0008d24a1a","B2","batch2","","null","<p class=block-text>Trial 18 out of 78</p>","null","pattern_show_trial_num","","","","","","","","","","","","","","","","","","","","","","","","",""
"","","","","","image-keyboard-response","56","1009039","0.0-2.0-5.0-1.17","5eb29a3db97d6b0008d24a1a","B2","batch2","","712.2000000029802","stim/yes_70_ver_b1.png","f","pattern_response","true","f","pattern_80","712.2000000029802","true","16","","","","","","","","","","","","","","","","","","",""
"","","","","","html-keyboard-response","57","1010352","0.0-2.0-5.0-0.18","5eb29a3db97d6b0008d24a1a","B2","batch2","","null","<p class=block-text>Trial 19 out of 78</p>","null","pattern_show_trial_num","","","","","","","","","","","","","","","","","","","","","","","","",""
"","","","","","image-keyboard-response","58","1014961","0.0-2.0-5.0-1.18","5eb29a3db97d6b0008d24a1a","B2","batch2","","4607","stim/yes_63_dia_b1.png","f","pattern_response","true","f","pattern_78","4607","true","17","","","","","","","","","","","","","","","","","","",""
"","","","","","html-keyboard-response","59","1016270","0.0-2.0-5.0-0.19","5eb29a3db97d6b0008d24a1a","B2","batch2","","null","<p class=block-text>Trial 20 out of 78</p>","null","pattern_show_trial_num","","","","","","","","","","","","","","","","","","","","","","","","",""
"","","","","","image-keyboard-response","60","1022835","0.0-2.0-5.0-1.19","5eb29a3db97d6b0008d24a1a","B2","batch2","","6562.5","stim/no_49_2_b.png","j","pattern_response","true","j","pattern_29","6562.5","true","18","","","","","","","","","","","","","","","","","","",""
"","","","","","html-keyboard-response","61","1024149","0.0-2.0-5.0-0.20","5eb29a3db97d6b0008d24a1a","B2","batch2","","null","<p class=block-text>Trial 21 out of 78</p>","null","pattern_show_trial_num","","","","","","","","","","","","","","","","","","","","","","","","",""
"","","","","","image-keyboard-response","62","1025582","0.0-2.0-5.0-1.20","5eb29a3db97d6b0008d24a1a","B2","batch2","","1431.5","stim/yes_49_hor_w1_b.png","f","pattern_response","true","f","pattern_70","1431.5","true","19","","","","","","","","","","","","","","","","","","",""
"","","","","","html-keyboard-response","63","1026890","0.0-2.0-5.0-0.21","5eb29a3db97d6b0008d24a1a","B2","batch2","","null","<p class=block-text>Trial 22 out of 78</p>","null","pattern_show_trial_num","","","","","","","","","","","","","","","","","","","","","","","","",""
"","","","","","image-keyboard-response","64","1028897","0.0-2.0-5.0-1.21","5eb29a3db97d6b0008d24a1a","B2","batch2","","2005.1000000014901","stim/no_22_1_b.png","j","pattern_response","true","j","pattern_07","2005.1000000014901","true","20","","","","","","","","","","","","","","","","","","",""
"","","","","","html-keyboard-response","65","1030212","0.0-2.0-5.0-0.22","5eb29a3db97d6b0008d24a1a","B2","batch2","","null","<p class=block-text>Trial 23 out of 78</p>","null","pattern_show_trial_num","","","","","","","","","","","","","","","","","","","","","","","","",""
"","","","","","image-keyboard-response","66","1040124","0.0-2.0-5.0-1.22","5eb29a3db97d6b0008d24a1a","B2","batch2","","9910.79999999702","stim/yes_58_dia_w1_w.png","j","pattern_response","false","f","pattern_76","9910.79999999702","false","20","","","","","","","","","","","","","","","","","","",""
"","","","","","html-keyboard-response","67","1041436","0.0-2.0-5.0-0.23","5eb29a3db97d6b0008d24a1a","B2","batch2","","null","<p class=block-text>Trial 24 out of 78</p>","null","pattern_show_trial_num","","","","","","","","","","","","","","","","","","","","","","","","",""
"","","","","","image-keyboard-response","68","1046089","0.0-2.0-5.0-1.23","5eb29a3db97d6b0008d24a1a","B2","batch2","","4651.29999999702","stim/no_47_1_b.png","j","pattern_response","true","j","pattern_27","4651.29999999702","true","21","","","","","","","","","","","","","","","","","","",""
"","","","","","html-keyboard-response","69","1047403","0.0-2.0-5.0-0.24","5eb29a3db97d6b0008d24a1a","B2","batch2","","null","<p class=block-text>Trial 25 out of 78</p>","null","pattern_show_trial_num","","","","","","","","","","","","","","","","","","","","","","","","",""
"","","","","","image-keyboard-response","70","1048882","0.0-2.0-5.0-1.24","5eb29a3db97d6b0008d24a1a","B2","batch2","","1476.5999999940395","stim/yes_26_dia_w2_w.png","f","pattern_response","true","f","pattern_50","1476.5999999940395","true","22","","","","","","","","","","","","","","","","","","",""
"","","","","","html-keyboard-response","71","1050186","0.0-2.0-5.0-0.25","5eb29a3db97d6b0008d24a1a","B2","batch2","","null","<p class=block-text>Trial 26 out of 78</p>","null","pattern_show_trial_num","","","","","","","","","","","","","","","","","","","","","","","","",""
"","","","","","image-keyboard-response","72","1055117","0.0-2.0-5.0-1.25","5eb29a3db97d6b0008d24a1a","B2","batch2","","4930","stim/no_33_1_b.png","j","pattern_response","true","j","pattern_15","4930","true","23","","","","","","","","","","","","","","","","","","",""
"","","","","","html-keyboard-response","73","1056434","0.0-2.0-5.0-0.26","5eb29a3db97d6b0008d24a1a","B2","batch2","","null","<p class=block-text>Trial 27 out of 78</p>","null","pattern_show_trial_num","","","","","","","","","","","","","","","","","","","","","","","","",""
"","","","","","image-keyboard-response","74","1057323","0.0-2.0-5.0-1.26","5eb29a3db97d6b0008d24a1a","B2","batch2","","887","stim/yes_36_ver_w1_w.png","f","pattern_response","true","f","pattern_58","887","true","24","","","","","","","","","","","","","","","","","","",""
"","","","","","html-keyboard-response","75","1058638","0.0-2.0-5.0-0.27","5eb29a3db97d6b0008d24a1a","B2","batch2","","null","<p class=block-text>Trial 28 out of 78</p>","null","pattern_show_trial_num","","","","","","","","","","","","","","","","","","","","","","","","",""
"","","","","","image-keyboard-response","76","1068441","0.0-2.0-5.0-1.27","5eb29a3db97d6b0008d24a1a","B2","batch2","","9801.79999999702","stim/no_58_1_w.png","j","pattern_response","true","j","pattern_35","9801.79999999702","true","25","","","","","","","","","","","","","","","","","","",""
"","","","","","html-keyboard-response","77","1069759","0.0-2.0-5.0-0.28","5eb29a3db97d6b0008d24a1a","B2","batch2","","null","<p class=block-text>Trial 29 out of 78</p>","null","pattern_show_trial_num","","","","","","","","","","","","","","","","","","","","","","","","",""
"","","","","","image-keyboard-response","78","1070779","0.0-2.0-5.0-1.28","5eb29a3db97d6b0008d24a1a","B2","batch2","","1017.7000000029802","stim/yes_44_ver_w1_w.png","f","pattern_response","true","f","pattern_66","1017.7000000029802","true","26","","","","","","","","","","","","","","","","","","",""
"","","","","","html-keyboard-response","79","1072092","0.0-2.0-5.0-0.29","5eb29a3db97d6b0008d24a1a","B2","batch2","","null","<p class=block-text>Trial 30 out of 78</p>","null","pattern_show_trial_num","","","","","","","","","","","","","","","","","","","","","","","","",""
"","","","","","image-keyboard-response","80","1076552","0.0-2.0-5.0-1.29","5eb29a3db97d6b0008d24a1a","B2","batch2","","4458.80000000447","stim/no_37_2_w.png","j","pattern_response","true","j","pattern_19","4458.80000000447","true","27","","","","","","","","","","","","","","","","","","",""
"","","","","","html-keyboard-response","81","1077870","0.0-2.0-5.0-0.30","5eb29a3db97d6b0008d24a1a","B2","batch2","","null","<p class=block-text>Trial 31 out of 78</p>","null","pattern_show_trial_num","","","","","","","","","","","","","","","","","","","","","","","","",""
"","","","","","image-keyboard-response","82","1086008","0.0-2.0-5.0-1.30","5eb29a3db97d6b0008d24a1a","B2","batch2","","8134.89999999851","stim/no_67_1.png","j","pattern_response","true","j","pattern_39","8134.89999999851","true","28","","","","","","","","","","","","","","","","","","",""
"","","","","","html-keyboard-response","83","1087323","0.0-2.0-5.0-0.31","5eb29a3db97d6b0008d24a1a","B2","batch2","","null","<p class=block-text>Trial 32 out of 78</p>","null","pattern_show_trial_num","","","","","","","","","","","","","","","","","","","","","","","","",""
"","","","","","image-keyboard-response","84","1089991","0.0-2.0-5.0-1.31","5eb29a3db97d6b0008d24a1a","B2","batch2","","2665.8000000044703","stim/no_30_1_b.png","j","pattern_response","true","j","pattern_13","2665.8000000044703","true","29","","","","","","","","","","","","","","","","","","",""
"","","","","","html-keyboard-response","85","1091304","0.0-2.0-5.0-0.32","5eb29a3db97d6b0008d24a1a","B2","batch2","","null","<p class=block-text>Trial 33 out of 78</p>","null","pattern_show_trial_num","","","","","","","","","","","","","","","","","","","","","","","","",""
"","","","","","image-keyboard-response","86","1095840","0.0-2.0-5.0-1.32","5eb29a3db97d6b0008d24a1a","B2","batch2","","4534.5","stim/no_43_2_b.png","j","pattern_response","true","j","pattern_23","4534.5","true","30","","","","","","","","","","","","","","","","","","",""
"","","","","","html-keyboard-response","87","1097153","0.0-2.0-5.0-0.33","5eb29a3db97d6b0008d24a1a","B2","batch2","","null","<p class=block-text>Trial 34 out of 78</p>","null","pattern_show_trial_num","","","","","","","","","","","","","","","","","","","","","","","","",""
"","","","","","image-keyboard-response","88","1098166","0.0-2.0-5.0-1.33","5eb29a3db97d6b0008d24a1a","B2","batch2","","1010.3999999985099","stim/yes_37_hor_w1_w.png","f","pattern_response","true","f","pattern_60","1010.3999999985099","true","31","","","","","","","","","","","","","","","","","","",""
"","","","","","html-keyboard-response","89","1099471","0.0-2.0-5.0-0.34","5eb29a3db97d6b0008d24a1a","B2","batch2","","null","<p class=block-text>Trial 35 out of 78</p>","null","pattern_show_trial_num","","","","","","","","","","","","","","","","","","","","","","","","",""
"","","","","","image-keyboard-response","90","1100149","0.0-2.0-5.0-1.34","5eb29a3db97d6b0008d24a1a","B2","batch2","","676.3999999985099","stim/yes_30_ver_b1_b.png","f","pattern_response","true","f","pattern_54","676.3999999985099","true","32","","","","","","","","","","","","","","","","","","",""
"","","","","","html-keyboard-response","91","1101472","0.0-2.0-5.0-0.35","5eb29a3db97d6b0008d24a1a","B2","batch2","","null","<p class=block-text>Trial 36 out of 78</p>","null","pattern_show_trial_num","","","","","","","","","","","","","","","","","","","","","","","","",""
"","","","","","image-keyboard-response","92","1102860","0.0-2.0-5.0-1.35","5eb29a3db97d6b0008d24a1a","B2","batch2","","1386.6000000014901","stim/yes_51_dia_b1.png","f","pattern_response","true","f","pattern_72","1386.6000000014901","true","33","","","","","","","","","","","","","","","","","","",""
"","","","","","html-keyboard-response","93","1104183","0.0-2.0-5.0-0.36","5eb29a3db97d6b0008d24a1a","B2","batch2","","null","<p class=block-text>Trial 37 out of 78</p>","null","pattern_show_trial_num","","","","","","","","","","","","","","","","","","","","","","","","",""
"","","","","","image-keyboard-response","94","1105255","0.0-2.0-5.0-1.36","5eb29a3db97d6b0008d24a1a","B2","batch2","","1070","stim/yes_53_ver_b1_b.png","f","pattern_response","true","f","pattern_74","1070","true","34","","","","","","","","","","","","","","","","","","",""
"","","","","","html-keyboard-response","95","1106565","0.0-2.0-5.0-0.37","5eb29a3db97d6b0008d24a1a","B2","batch2","","null","<p class=block-text>Trial 38 out of 78</p>","null","pattern_show_trial_num","","","","","","","","","","","","","","","","","","","","","","","","",""
"","","","","","image-keyboard-response","96","1109511","0.0-2.0-5.0-1.37","5eb29a3db97d6b0008d24a1a","B2","batch2","","2944.4000000059605","stim/no_25_1_b.png","j","pattern_response","true","j","pattern_09","2944.4000000059605","true","35","","","","","","","","","","","","","","","","","","",""
"","","","","","html-keyboard-response","97","1110830","0.0-2.0-5.0-0.38","5eb29a3db97d6b0008d24a1a","B2","batch2","","null","<p class=block-text>Trial 39 out of 78</p>","null","pattern_show_trial_num","","","","","","","","","","","","","","","","","","","","","","","","",""
"","","","","","image-keyboard-response","98","1116038","0.0-2.0-5.0-1.38","5eb29a3db97d6b0008d24a1a","B2","batch2","","5206.70000000298","stim/no_39_1_w.png","j","pattern_response","true","j","pattern_21","5206.70000000298","true","36","","","","","","","","","","","","","","","","","","",""
"","","","","","image-keyboard-response","99","1118055","0.0-2.0-6.0","5eb29a3db97d6b0008d24a1a","B2","batch2","","1510.6000000014901","stim/empty_board.png","j","attention_check","true","j","","","","","500","[""f"",""j""]","","","","","","","","","","","","","","","","",""
"","","","","","html-keyboard-response","100","1118860","0.0-2.0-7.0-0.0","5eb29a3db97d6b0008d24a1a","B2","batch2","","null","<p class=block-text>Trial 40 out of 78</p>","null","pattern_show_trial_num","","","","","","","","","","","","","","","","","","","","","","","","",""
"","","","","","image-keyboard-response","101","1129039","0.0-2.0-7.0-1.0","5eb29a3db97d6b0008d24a1a","B2","batch2","","10177.10000000149","stim/no_70_2.png","j","pattern_response","true","j","pattern_40","10177.10000000149","true","37","","","","","","","","","","","","","","","","","","",""
"","","","","","html-keyboard-response","102","1130351","0.0-2.0-7.0-0.1","5eb29a3db97d6b0008d24a1a","B2","batch2","","null","<p class=block-text>Trial 41 out of 78</p>","null","pattern_show_trial_num","","","","","","","","","","","","","","","","","","","","","","","","",""
"","","","","","image-keyboard-response","103","1131097","0.0-2.0-7.0-1.1","5eb29a3db97d6b0008d24a1a","B2","batch2","","743.6999999955297","stim/yes_14_hor_b1_w.png","f","pattern_response","true","f","pattern_43","743.6999999955297","true","38","","","","","","","","","","","","","","","","","","",""
"","","","","","html-keyboard-response","104","1132411","0.0-2.0-7.0-0.2","5eb29a3db97d6b0008d24a1a","B2","batch2","","null","<p class=block-text>Trial 42 out of 78</p>","null","pattern_show_trial_num","","","","","","","","","","","","","","","","","","","","","","","","",""
"","","","","","image-keyboard-response","105","1141099","0.0-2.0-7.0-1.2","5eb29a3db97d6b0008d24a1a","B2","batch2","","8687.30000000447","stim/no_65_1_b.png","j","pattern_response","true","j","pattern_38","8687.30000000447","true","39","","","","","","","","","","","","","","","","","","",""
"","","","","","html-keyboard-response","106","1142403","0.0-2.0-7.0-0.3","5eb29a3db97d6b0008d24a1a","B2","batch2","","null","<p class=block-text>Trial 43 out of 78</p>","null","pattern_show_trial_num","","","","","","","","","","","","","","","","","","","","","","","","",""
"","","","","","image-keyboard-response","107","1146440","0.0-2.0-7.0-1.3","5eb29a3db97d6b0008d24a1a","B2","batch2","","4035.4000000059605","stim/no_46_1_b.png","j","pattern_response","true","j","pattern_26","4035.4000000059605","true","40","","","","","","","","","","","","","","","","","","",""
"","","","","","html-keyboard-response","108","1147755","0.0-2.0-7.0-0.4","5eb29a3db97d6b0008d24a1a","B2","batch2","","null","<p class=block-text>Trial 44 out of 78</p>","null","pattern_show_trial_num","","","","","","","","","","","","","","","","","","","","","","","","",""
"","","","","","image-keyboard-response","109","1152050","0.0-2.0-7.0-1.4","5eb29a3db97d6b0008d24a1a","B2","batch2","","4293.19999999553","stim/yes_31_hor_b1.png","j","pattern_response","false","f","pattern_55","4293.19999999553","false","40","","","","","","","","","","","","","","","","","","",""
"","","","","","html-keyboard-response","110","1153361","0.0-2.0-7.0-0.5","5eb29a3db97d6b0008d24a1a","B2","batch2","","null","<p class=block-text>Trial 45 out of 78</p>","null","pattern_show_trial_num","","","","","","","","","","","","","","","","","","","","","","","","",""
"","","","","","image-keyboard-response","111","1154284","0.0-2.0-7.0-1.5","5eb29a3db97d6b0008d24a1a","B2","batch2","","920.5","stim/yes_28_ver_b1.png","f","pattern_response","true","f","pattern_51","920.5","true","41","","","","","","","","","","","","","","","","","","",""
"","","","","","html-keyboard-response","112","1155598","0.0-2.0-7.0-0.6","5eb29a3db97d6b0008d24a1a","B2","batch2","","null","<p class=block-text>Trial 46 out of 78</p>","null","pattern_show_trial_num","","","","","","","","","","","","","","","","","","","","","","","","",""
"","","","","","image-keyboard-response","113","1157293","0.0-2.0-7.0-1.6","5eb29a3db97d6b0008d24a1a","B2","batch2","","1692.5","stim/no_17_1_w.png","j","pattern_response","true","j","pattern_04","1692.5","true","42","","","","","","","","","","","","","","","","","","",""
"","","","","","html-keyboard-response","114","1158614","0.0-2.0-7.0-0.7","5eb29a3db97d6b0008d24a1a","B2","batch2","","null","<p class=block-text>Trial 47 out of 78</p>","null","pattern_show_trial_num","","","","","","","","","","","","","","","","","","","","","","","","",""
"","","","","","image-keyboard-response","115","1160980","0.0-2.0-7.0-1.7","5eb29a3db97d6b0008d24a1a","B2","batch2","","2364.1999999955297","stim/yes_37_dia_w1.png","f","pattern_response","true","f","pattern_59","2364.1999999955297","true","43","","","","","","","","","","","","","","","","","","",""
"","","","","","html-keyboard-response","116","1162304","0.0-2.0-7.0-0.8","5eb29a3db97d6b0008d24a1a","B2","batch2","","null","<p class=block-text>Trial 48 out of 78</p>","null","pattern_show_trial_num","","","","","","","","","","","","","","","","","","","","","","","","",""
"","","","","","image-keyboard-response","117","1168437","0.0-2.0-7.0-1.8","5eb29a3db97d6b0008d24a1a","B2","batch2","","6130.60000000149","stim/no_52_1.png","j","pattern_response","true","j","pattern_32","6130.60000000149","true","44","","","","","","","","","","","","","","","","","","",""
"","","","","","html-keyboard-response","118","1169760","0.0-2.0-7.0-0.9","5eb29a3db97d6b0008d24a1a","B2","batch2","","null","<p class=block-text>Trial 49 out of 78</p>","null","pattern_show_trial_num","","","","","","","","","","","","","","","","","","","","","","","","",""
"","","","","","image-keyboard-response","119","1170644","0.0-2.0-7.0-1.9","5eb29a3db97d6b0008d24a1a","B2","batch2","","882.3999999985099","stim/yes_55_hor_w1_w.png","f","pattern_response","true","f","pattern_75","882.3999999985099","true","45","","","","","","","","","","","","","","","","","","",""
"","","","","","html-keyboard-response","120","1171965","0.0-2.0-7.0-0.10","5eb29a3db97d6b0008d24a1a","B2","batch2","","null","<p class=block-text>Trial 50 out of 78</p>","null","pattern_show_trial_num","","","","","","","","","","","","","","","","","","","","","","","","",""
"","","","","","image-keyboard-response","121","1175839","0.0-2.0-7.0-1.10","5eb29a3db97d6b0008d24a1a","B2","batch2","","3872.7000000029802","stim/no_36_2_w.png","j","pattern_response","true","j","pattern_18","3872.7000000029802","true","46","","","","","","","","","","","","","","","","","","",""
"","","","","","html-keyboard-response","122","1177155","0.0-2.0-7.0-0.11","5eb29a3db97d6b0008d24a1a","B2","batch2","","null","<p class=block-text>Trial 51 out of 78</p>","null","pattern_show_trial_num","","","","","","","","","","","","","","","","","","","","","","","","",""
"","","","","","image-keyboard-response","123","1178058","0.0-2.0-7.0-1.11","5eb29a3db97d6b0008d24a1a","B2","batch2","","902.1000000014901","stim/yes_38_hor_b1_b.png","f","pattern_response","true","f","pattern_61","902.1000000014901","true","47","","","","","","","","","","","","","","","","","","",""
"","","","","","html-keyboard-response","124","1179365","0.0-2.0-7.0-0.12","5eb29a3db97d6b0008d24a1a","B2","batch2","","null","<p class=block-text>Trial 52 out of 78</p>","null","pattern_show_trial_num","","","","","","","","","","","","","","","","","","","","","","","","",""
"","","","","","image-keyboard-response","125","1182881","0.0-2.0-7.0-1.12","5eb29a3db97d6b0008d24a1a","B2","batch2","","3514.2000000029802","stim/no_32_1_w.png","j","pattern_response","true","j","pattern_14","3514.2000000029802","true","48","","","","","","","","","","","","","","","","","","",""
"","","","","","html-keyboard-response","126","1184190","0.0-2.0-7.0-0.13","5eb29a3db97d6b0008d24a1a","B2","batch2","","null","<p class=block-text>Trial 53 out of 78</p>","null","pattern_show_trial_num","","","","","","","","","","","","","","","","","","","","","","","","",""
"","","","","","image-keyboard-response","127","1189556","0.0-2.0-7.0-1.13","5eb29a3db97d6b0008d24a1a","B2","batch2","","5365","stim/no_38_1_b.png","j","pattern_response","true","j","pattern_20","5365","true","49","","","","","","","","","","","","","","","","","","",""
"","","","","","html-keyboard-response","128","1190879","0.0-2.0-7.0-0.14","5eb29a3db97d6b0008d24a1a","B2","batch2","","null","<p class=block-text>Trial 54 out of 78</p>","null","pattern_show_trial_num","","","","","","","","","","","","","","","","","","","","","","","","",""
"","","","","","image-keyboard-response","129","1196246","0.0-2.0-7.0-1.14","5eb29a3db97d6b0008d24a1a","B2","batch2","","5365.89999999851","stim/yes_48_dia_w1_w.png","j","pattern_response","false","f","pattern_69","5365.89999999851","false","49","","","","","","","","","","","","","","","","","","",""
"","","","","","html-keyboard-response","130","1197560","0.0-2.0-7.0-0.15","5eb29a3db97d6b0008d24a1a","B2","batch2","","null","<p class=block-text>Trial 55 out of 78</p>","null","pattern_show_trial_num","","","","","","","","","","","","","","","","","","","","","","","","",""
"","","","","","image-keyboard-response","131","1204033","0.0-2.0-7.0-1.15","5eb29a3db97d6b0008d24a1a","B2","batch2","","6471.89999999851","stim/no_55_1_w.png","j","pattern_response","true","j","pattern_34","6471.89999999851","true","50","","","","","","","","","","","","","","","","","","",""
"","","","","","html-keyboard-response","132","1205344","0.0-2.0-7.0-0.16","5eb29a3db97d6b0008d24a1a","B2","batch2","","null","<p class=block-text>Trial 56 out of 78</p>","null","pattern_show_trial_num","","","","","","","","","","","","","","","","","","","","","","","","",""
"","","","","","image-keyboard-response","133","1207962","0.0-2.0-7.0-1.16","5eb29a3db97d6b0008d24a1a","B2","batch2","","2615.89999999851","stim/no_26_1_w.png","j","pattern_response","true","j","pattern_10","2615.89999999851","true","51","","","","","","","","","","","","","","","","","","",""
"","","","","","html-keyboard-response","134","1209270","0.0-2.0-7.0-0.17","5eb29a3db97d6b0008d24a1a","B2","batch2","","null","<p class=block-text>Trial 57 out of 78</p>","null","pattern_show_trial_num","","","","","","","","","","","","","","","","","","","","","","","","",""
"","","","","","image-keyboard-response","135","1210418","0.0-2.0-7.0-1.17","5eb29a3db97d6b0008d24a1a","B2","batch2","","1146.5999999940395","stim/yes_29_ver_w1.png","f","pattern_response","true","f","pattern_53","1146.5999999940395","true","52","","","","","","","","","","","","","","","","","","",""
"","","","","","html-keyboard-response","136","1211729","0.0-2.0-7.0-0.18","5eb29a3db97d6b0008d24a1a","B2","batch2","","null","<p class=block-text>Trial 58 out of 78</p>","null","pattern_show_trial_num","","","","","","","","","","","","","","","","","","","","","","","","",""
"","","","","","image-keyboard-response","137","1212528","0.0-2.0-7.0-1.18","5eb29a3db97d6b0008d24a1a","B2","batch2","","798.3000000044703","stim/yes_17_dia_w1.png","f","pattern_response","true","f","pattern_45","798.3000000044703","true","53","","","","","","","","","","","","","","","","","","",""
"","","","","","html-keyboard-response","138","1213850","0.0-2.0-7.0-0.19","5eb29a3db97d6b0008d24a1a","B2","batch2","","null","<p class=block-text>Trial 59 out of 78</p>","null","pattern_show_trial_num","","","","","","","","","","","","","","","","","","","","","","","","",""
"","","","","","image-keyboard-response","139","1220212","0.0-2.0-7.0-1.19","5eb29a3db97d6b0008d24a1a","B2","batch2","","6361.10000000149","stim/no_44_1.png","j","pattern_response","true","j","pattern_24","6361.10000000149","true","54","","","","","","","","","","","","","","","","","","",""
"","","","","","html-keyboard-response","140","1221535","0.0-2.0-7.0-0.20","5eb29a3db97d6b0008d24a1a","B2","batch2","","null","<p class=block-text>Trial 60 out of 78</p>","null","pattern_show_trial_num","","","","","","","","","","","","","","","","","","","","","","","","",""
"","","","","","image-keyboard-response","141","1222592","0.0-2.0-7.0-1.20","5eb29a3db97d6b0008d24a1a","B2","batch2","","1054.5","stim/no_13_2_b.png","j","pattern_response","true","j","pattern_02","1054.5","true","55","","","","","","","","","","","","","","","","","","",""
"","","","","","html-keyboard-response","142","1223901","0.0-2.0-7.0-0.21","5eb29a3db97d6b0008d24a1a","B2","batch2","","null","<p class=block-text>Trial 61 out of 78</p>","null","pattern_show_trial_num","","","","","","","","","","","","","","","","","","","","","","","","",""
"","","","","","image-keyboard-response","143","1225868","0.0-2.0-7.0-1.21","5eb29a3db97d6b0008d24a1a","B2","batch2","","1965.1999999955297","stim/yes_52_ver_w1.png","f","pattern_response","true","f","pattern_73","1965.1999999955297","true","56","","","","","","","","","","","","","","","","","","",""
"","","","","","html-keyboard-response","144","1227183","0.0-2.0-7.0-0.22","5eb29a3db97d6b0008d24a1a","B2","batch2","","null","<p class=block-text>Trial 62 out of 78</p>","null","pattern_show_trial_num","","","","","","","","","","","","","","","","","","","","","","","","",""
"","","","","","image-keyboard-response","145","1231312","0.0-2.0-7.0-1.22","5eb29a3db97d6b0008d24a1a","B2","batch2","","4128","stim/yes_40_dia_b1_b.png","f","pattern_response","true","f","pattern_63","4128","true","57","","","","","","","","","","","","","","","","","","",""
"","","","","","html-keyboard-response","146","1232624","0.0-2.0-7.0-0.23","5eb29a3db97d6b0008d24a1a","B2","batch2","","null","<p class=block-text>Trial 63 out of 78</p>","null","pattern_show_trial_num","","","","","","","","","","","","","","","","","","","","","","","","",""
"","","","","","image-keyboard-response","147","1233407","0.0-2.0-7.0-1.23","5eb29a3db97d6b0008d24a1a","B2","batch2","","780.6999999955297","stim/yes_22_ver_w1.png","f","pattern_response","true","f","pattern_47","780.6999999955297","true","58","","","","","","","","","","","","","","","","","","",""
"","","","","","html-keyboard-response","148","1234718","0.0-2.0-7.0-0.24","5eb29a3db97d6b0008d24a1a","B2","batch2","","null","<p class=block-text>Trial 64 out of 78</p>","null","pattern_show_trial_num","","","","","","","","","","","","","","","","","","","","","","","","",""
"","","","","","image-keyboard-response","149","1240556","0.0-2.0-7.0-1.24","5eb29a3db97d6b0008d24a1a","B2","batch2","","5836.5","stim/no_48_1_w.png","j","pattern_response","true","j","pattern_28","5836.5","true","59","","","","","","","","","","","","","","","","","","",""
"","","","","","html-keyboard-response","150","1241865","0.0-2.0-7.0-0.25","5eb29a3db97d6b0008d24a1a","B2","batch2","","null","<p class=block-text>Trial 65 out of 78</p>","null","pattern_show_trial_num","","","","","","","","","","","","","","","","","","","","","","","","",""
"","","","","","image-keyboard-response","151","1242648","0.0-2.0-7.0-1.25","5eb29a3db97d6b0008d24a1a","B2","batch2","","780.8999999985099","stim/yes_25_hor_b1_b.png","f","pattern_response","true","f","pattern_49","780.8999999985099","true","60","","","","","","","","","","","","","","","","","","",""
"","","","","","html-keyboard-response","152","1243952","0.0-2.0-7.0-0.26","5eb29a3db97d6b0008d24a1a","B2","batch2","","null","<p class=block-text>Trial 66 out of 78</p>","null","pattern_show_trial_num","","","","","","","","","","","","","","","","","","","","","","","","",""
"","","","","","image-keyboard-response","153","1244932","0.0-2.0-7.0-1.26","5eb29a3db97d6b0008d24a1a","B2","batch2","","978.2999999970198","stim/yes_43_ver_w1_w.png","f","pattern_response","true","f","pattern_65","978.2999999970198","true","61","","","","","","","","","","","","","","","","","","",""
"","","","","","html-keyboard-response","154","1246256","0.0-2.0-7.0-0.27","5eb29a3db97d6b0008d24a1a","B2","batch2","","null","<p class=block-text>Trial 67 out of 78</p>","null","pattern_show_trial_num","","","","","","","","","","","","","","","","","","","","","","","","",""
"","","","","","image-keyboard-response","155","1247361","0.0-2.0-7.0-1.27","5eb29a3db97d6b0008d24a1a","B2","batch2","","1103.3999999985099","stim/yes_45_hor_b2_b.png","f","pattern_response","true","f","pattern_67","1103.3999999985099","true","62","","","","","","","","","","","","","","","","","","",""
"","","","","","html-keyboard-response","156","1248677","0.0-2.0-7.0-0.28","5eb29a3db97d6b0008d24a1a","B2","batch2","","null","<p class=block-text>Trial 68 out of 78</p>","null","pattern_show_trial_num","","","","","","","","","","","","","","","","","","","","","","","","",""
"","","","","","image-keyboard-response","157","1256265","0.0-2.0-7.0-1.28","5eb29a3db97d6b0008d24a1a","B2","batch2","","7586.10000000149","stim/no_62_1_w.png","j","pattern_response","true","j","pattern_36","7586.10000000149","true","63","","","","","","","","","","","","","","","","","","",""
"","","","","","html-keyboard-response","158","1257589","0.0-2.0-7.0-0.29","5eb29a3db97d6b0008d24a1a","B2","batch2","","null","<p class=block-text>Trial 69 out of 78</p>","null","pattern_show_trial_num","","","","","","","","","","","","","","","","","","","","","","","","",""
"","","","","","image-keyboard-response","159","1258609","0.0-2.0-7.0-1.29","5eb29a3db97d6b0008d24a1a","B2","batch2","","1018.2000000029802","stim/yes_60_ver_b1_b.png","f","pattern_response","true","f","pattern_77","1018.2000000029802","true","64","","","","","","","","","","","","","","","","","","",""
"","","","","","html-keyboard-response","160","1259927","0.0-2.0-7.0-0.30","5eb29a3db97d6b0008d24a1a","B2","batch2","","null","<p class=block-text>Trial 70 out of 78</p>","null","pattern_show_trial_num","","","","","","","","","","","","","","","","","","","","","","","","",""
"","","","","","image-keyboard-response","161","1264076","0.0-2.0-7.0-1.30","5eb29a3db97d6b0008d24a1a","B2","batch2","","4147.10000000149","stim/yes_50_dia_w1.png","f","pattern_response","true","f","pattern_71","4147.10000000149","true","65","","","","","","","","","","","","","","","","","","",""
"","","","","","html-keyboard-response","162","1265384","0.0-2.0-7.0-0.31","5eb29a3db97d6b0008d24a1a","B2","batch2","","null","<p class=block-text>Trial 71 out of 78</p>","null","pattern_show_trial_num","","","","","","","","","","","","","","","","","","","","","","","","",""
"","","","","","image-keyboard-response","163","1268362","0.0-2.0-7.0-1.31","5eb29a3db97d6b0008d24a1a","B2","batch2","","2976.60000000149","stim/yes_35_dia_b1.png","f","pattern_response","true","f","pattern_57","2976.60000000149","true","66","","","","","","","","","","","","","","","","","","",""
"","","","","","html-keyboard-response","164","1269692","0.0-2.0-7.0-0.32","5eb29a3db97d6b0008d24a1a","B2","batch2","","null","<p class=block-text>Trial 72 out of 78</p>","null","pattern_show_trial_num","","","","","","","","","","","","","","","","","","","","","","","","",""
"","","","","","image-keyboard-response","165","1274807","0.0-2.0-7.0-1.32","5eb29a3db97d6b0008d24a1a","B2","batch2","","5113.5","stim/no_42_1_w.png","j","pattern_response","true","j","pattern_22","5113.5","true","67","","","","","","","","","","","","","","","","","","",""
"","","","","","html-keyboard-response","166","1276125","0.0-2.0-7.0-0.33","5eb29a3db97d6b0008d24a1a","B2","batch2","","null","<p class=block-text>Trial 73 out of 78</p>","null","pattern_show_trial_num","","","","","","","","","","","","","","","","","","","","","","","","",""
"","","","","","image-keyboard-response","167","1277532","0.0-2.0-7.0-1.33","5eb29a3db97d6b0008d24a1a","B2","batch2","","1405.2000000029802","stim/no_20_1_w.png","j","pattern_response","true","j","pattern_06","1405.2000000029802","true","68","","","","","","","","","","","","","","","","","","",""
"","","","","","html-keyboard-response","168","1278848","0.0-2.0-7.0-0.34","5eb29a3db97d6b0008d24a1a","B2","batch2","","null","<p class=block-text>Trial 74 out of 78</p>","null","pattern_show_trial_num","","","","","","","","","","","","","","","","","","","","","","","","",""
"","","","","","image-keyboard-response","169","1284654","0.0-2.0-7.0-1.34","5eb29a3db97d6b0008d24a1a","B2","batch2","","5804.89999999851","stim/no_50_1.png","j","pattern_response","true","j","pattern_30","5804.89999999851","true","69","","","","","","","","","","","","","","","","","","",""
"","","","","","html-keyboard-response","170","1285966","0.0-2.0-7.0-0.35","5eb29a3db97d6b0008d24a1a","B2","batch2","","null","<p class=block-text>Trial 75 out of 78</p>","null","pattern_show_trial_num","","","","","","","","","","","","","","","","","","","","","","","","",""
"","","","","","image-keyboard-response","171","1286768","0.0-2.0-7.0-1.35","5eb29a3db97d6b0008d24a1a","B2","batch2","","799.7000000029802","stim/yes_67_hor_b1.png","f","pattern_response","true","f","pattern_79","799.7000000029802","true","70","","","","","","","","","","","","","","","","","","",""
"","","","","","html-keyboard-response","172","1288073","0.0-2.0-7.0-0.36","5eb29a3db97d6b0008d24a1a","B2","batch2","","null","<p class=block-text>Trial 76 out of 78</p>","null","pattern_show_trial_num","","","","","","","","","","","","","","","","","","","","","","","","",""
"","","","","","image-keyboard-response","173","1292260","0.0-2.0-7.0-1.36","5eb29a3db97d6b0008d24a1a","B2","batch2","","4185.70000000298","stim/no_34_1_b.png","j","pattern_response","true","j","pattern_16","4185.70000000298","true","71","","","","","","","","","","","","","","","","","","",""
"","","","","","html-keyboard-response","174","1293580","0.0-2.0-7.0-0.37","5eb29a3db97d6b0008d24a1a","B2","batch2","","null","<p class=block-text>Trial 77 out of 78</p>","null","pattern_show_trial_num","","","","","","","","","","","","","","","","","","","","","","","","",""
"","","","","","image-keyboard-response","175","1296656","0.0-2.0-7.0-1.37","5eb29a3db97d6b0008d24a1a","B2","batch2","","3072.8000000044703","stim/no_29_1_b.png","j","pattern_response","true","j","pattern_12","3072.8000000044703","true","72","","","","","","","","","","","","","","","","","","",""
"","","","","","html-keyboard-response","176","1297963","0.0-2.0-7.0-0.38","5eb29a3db97d6b0008d24a1a","B2","batch2","","null","<p class=block-text>Trial 78 out of 78</p>","null","pattern_show_trial_num","","","","","","","","","","","","","","","","","","","","","","","","",""
"","","","","","image-keyboard-response","177","1300008","0.0-2.0-7.0-1.38","5eb29a3db97d6b0008d24a1a","B2","batch2","","2042.6000000014901","stim/no_23_1.png","j","pattern_response","true","j","pattern_08","2042.6000000014901","true","73","","","","","","","","","","","","","","","","","","",""
"","","","","","html-button-response","178","1305447","0.0-2.0-8.0","5eb29a3db97d6b0008d24a1a","B2","batch2","","4927.5","<p class = block-text>This concludes the 4-in-a-row detection game.Thank you for your responses!<br>
            You responded correctly on 94% of the trials.<br>
            When you are ready, press ""Continue"" button to continue </p>","0","","","","","","","","","","","","","","","","","","","","","","","","","",""
"true","","","","","fullscreen","179","1309925","0.0-3.0-0.0","5eb29a3db97d6b0008d24a1a","B2","batch2","","","","","spm_fullscreen","","","","","","","","","","","","","","","","","","","","","","","","",""
"","","","","","html-button-response","180","1316804","0.0-3.0-1.0","5eb29a3db97d6b0008d24a1a","B2","batch2","","6878.20000000298","<p class = block-text><b>Instructions</b> <br>This is a widely used intelligence test in research. <br>In this test, a figure with a missing piece will be presented.<br>Below the figure are alternative pieces to complete the figure, only one of which is correct.<br> Different figures might involve different principles for obtaining the missing piece<br>Your job is to select the most logical piece to complete the figure.</p>","0","","","","","","","","","","","","","","","","","","","","","","","","","",""
"","","","","","html-keyboard-response","181","1317621","0.0-3.0-2.0-0.0","5eb29a3db97d6b0008d24a1a","B2","batch2","","null","<p class=block-text>Trial 1 out of 60</p>","null","spm_show_trial_num","","","","","","","","","","","","","","","","","","","","","","","","",""
"","","","","","image-button-response","182","1321381","0.0-3.0-2.0-1.0","5eb29a3db97d6b0008d24a1a","B2","batch2","","3757.6999999955297","img/question_1_1.jpeg","3","spm_respsonse","1","4","mat_01","","","","","","1","3757.6999999955297","","","","","","","","","","","","","","",""
"","","","","","html-keyboard-response","183","1322438","0.0-3.0-2.0-0.1","5eb29a3db97d6b0008d24a1a","B2","batch2","","null","<p class=block-text>Trial 2 out of 60</p>","null","spm_show_trial_num","","","","","","","","","","","","","","","","","","","","","","","","",""
"","","","","","image-button-response","184","1325549","0.0-3.0-2.0-1.1","5eb29a3db97d6b0008d24a1a","B2","batch2","","3108.2999999970198","img/question_1_2.jpeg","4","spm_respsonse","1","5","mat_02","","","","","","1","3108.2999999970198","","","","","","","","","","","","","","",""
"","","","","","html-keyboard-response","185","1326611","0.0-3.0-2.0-0.2","5eb29a3db97d6b0008d24a1a","B2","batch2","","null","<p class=block-text>Trial 3 out of 60</p>","null","spm_show_trial_num","","","","","","","","","","","","","","","","","","","","","","","","",""
"","","","","","image-button-response","186","1329314","0.0-3.0-2.0-1.2","5eb29a3db97d6b0008d24a1a","B2","batch2","","2701.2999999970198","img/question_1_3.jpeg","0","spm_respsonse","1","1","mat_03","","","","","","1","2701.2999999970198","","","","","","","","","","","","","","",""
"","","","","","html-keyboard-response","187","1330381","0.0-3.0-2.0-0.3","5eb29a3db97d6b0008d24a1a","B2","batch2","","null","<p class=block-text>Trial 4 out of 60</p>","null","spm_show_trial_num","","","","","","","","","","","","","","","","","","","","","","","","",""
"","","","","","image-button-response","188","1332988","0.0-3.0-2.0-1.3","5eb29a3db97d6b0008d24a1a","B2","batch2","","2605.7000000029802","img/question_1_4.jpeg","1","spm_respsonse","1","2","mat_04","","","","","","1","2605.7000000029802","","","","","","","","","","","","","","",""
"","","","","","html-keyboard-response","189","1334043","0.0-3.0-2.0-0.4","5eb29a3db97d6b0008d24a1a","B2","batch2","","null","<p class=block-text>Trial 5 out of 60</p>","null","spm_show_trial_num","","","","","","","","","","","","","","","","","","","","","","","","",""
"","","","","","image-button-response","190","1336953","0.0-3.0-2.0-1.4","5eb29a3db97d6b0008d24a1a","B2","batch2","","2908.6999999955297","img/question_1_5.jpeg","5","spm_respsonse","1","6","mat_05","","","","","","1","2908.6999999955297","","","","","","","","","","","","","","",""
"","","","","","html-keyboard-response","191","1338010","0.0-3.0-2.0-0.5","5eb29a3db97d6b0008d24a1a","B2","batch2","","null","<p class=block-text>Trial 6 out of 60</p>","null","spm_show_trial_num","","","","","","","","","","","","","","","","","","","","","","","","",""
"","","","","","image-button-response","192","1341699","0.0-3.0-2.0-1.5","5eb29a3db97d6b0008d24a1a","B2","batch2","","3687.60000000149","img/question_1_6.jpeg","2","spm_respsonse","1","3","mat_06","","","","","","1","3687.60000000149","","","","","","","","","","","","","","",""
"","","","","","html-keyboard-response","193","1342765","0.0-3.0-2.0-0.6","5eb29a3db97d6b0008d24a1a","B2","batch2","","null","<p class=block-text>Trial 7 out of 60</p>","null","spm_show_trial_num","","","","","","","","","","","","","","","","","","","","","","","","",""
"","","","","","image-button-response","194","1345718","0.0-3.0-2.0-1.6","5eb29a3db97d6b0008d24a1a","B2","batch2","","2952.10000000149","img/question_1_7.jpeg","5","spm_respsonse","1","6","mat_07","","","","","","1","2952.10000000149","","","","","","","","","","","","","","",""
"","","","","","html-keyboard-response","195","1346775","0.0-3.0-2.0-0.7","5eb29a3db97d6b0008d24a1a","B2","batch2","","null","<p class=block-text>Trial 8 out of 60</p>","null","spm_show_trial_num","","","","","","","","","","","","","","","","","","","","","","","","",""
"","","","","","image-button-response","196","1351862","0.0-3.0-2.0-1.7","5eb29a3db97d6b0008d24a1a","B2","batch2","","5084.10000000149","img/question_1_8.jpeg","1","spm_respsonse","1","2","mat_08","","","","","","1","5084.10000000149","","","","","","","","","","","","","","",""
"","","","","","html-keyboard-response","197","1352933","0.0-3.0-2.0-0.8","5eb29a3db97d6b0008d24a1a","B2","batch2","","null","<p class=block-text>Trial 9 out of 60</p>","null","spm_show_trial_num","","","","","","","","","","","","","","","","","","","","","","","","",""
"","","","","","image-button-response","198","1356339","0.0-3.0-2.0-1.8","5eb29a3db97d6b0008d24a1a","B2","batch2","","3403.39999999851","img/question_1_9.jpeg","0","spm_respsonse","1","1","mat_09","","","","","","1","3403.39999999851","","","","","","","","","","","","","","",""
"","","","","","html-keyboard-response","199","1357396","0.0-3.0-2.0-0.9","5eb29a3db97d6b0008d24a1a","B2","batch2","","null","<p class=block-text>Trial 10 out of 60</p>","null","spm_show_trial_num","","","","","","","","","","","","","","","","","","","","","","","","",""
"","","","","","image-button-response","200","1360991","0.0-3.0-2.0-1.9","5eb29a3db97d6b0008d24a1a","B2","batch2","","3592.2000000029802","img/question_1_10.jpeg","2","spm_respsonse","1","3","mat_10","","","","","","1","3592.2000000029802","","","","","","","","","","","","","","",""
"","","","","","html-keyboard-response","201","1362043","0.0-3.0-2.0-0.10","5eb29a3db97d6b0008d24a1a","B2","batch2","","null","<p class=block-text>Trial 11 out of 60</p>","null","spm_show_trial_num","","","","","","","","","","","","","","","","","","","","","","","","",""
"","","","","","image-button-response","202","1371419","0.0-3.0-2.0-1.10","5eb29a3db97d6b0008d24a1a","B2","batch2","","9374.39999999851","img/question_1_11.jpeg","3","spm_respsonse","1","4","mat_11","","","","","","1","9374.39999999851","","","","","","","","","","","","","","",""
"","","","","","html-keyboard-response","203","1372473","0.0-3.0-2.0-0.11","5eb29a3db97d6b0008d24a1a","B2","batch2","","null","<p class=block-text>Trial 12 out of 60</p>","null","spm_show_trial_num","","","","","","","","","","","","","","","","","","","","","","","","",""
"","","","","","image-button-response","204","1378757","0.0-3.0-2.0-1.11","5eb29a3db97d6b0008d24a1a","B2","batch2","","6282.10000000149","img/question_1_12.jpeg","4","spm_respsonse","1","5","mat_12","","","","","","1","6282.10000000149","","","","","","","","","","","","","","",""
"","","","","","html-keyboard-response","205","1379825","0.0-3.0-2.0-0.12","5eb29a3db97d6b0008d24a1a","B2","batch2","","null","<p class=block-text>Trial 13 out of 60</p>","null","spm_show_trial_num","","","","","","","","","","","","","","","","","","","","","","","","",""
"","","","","","image-button-response","206","1382816","0.0-3.0-2.0-1.12","5eb29a3db97d6b0008d24a1a","B2","batch2","","2989.10000000149","img/question_2_1.jpeg","1","spm_respsonse","1","2","mat_13","","","","","","1","2989.10000000149","","","","","","","","","","","","","","",""
"","","","","","html-keyboard-response","207","1383877","0.0-3.0-2.0-0.13","5eb29a3db97d6b0008d24a1a","B2","batch2","","null","<p class=block-text>Trial 14 out of 60</p>","null","spm_show_trial_num","","","","","","","","","","","","","","","","","","","","","","","","",""
"","","","","","image-button-response","208","1388268","0.0-3.0-2.0-1.13","5eb29a3db97d6b0008d24a1a","B2","batch2","","4387.80000000447","img/question_2_2.jpeg","5","spm_respsonse","1","6","mat_14","","","","","","1","4387.80000000447","","","","","","","","","","","","","","",""
"","","","","","html-keyboard-response","209","1389321","0.0-3.0-2.0-0.14","5eb29a3db97d6b0008d24a1a","B2","batch2","","null","<p class=block-text>Trial 15 out of 60</p>","null","spm_show_trial_num","","","","","","","","","","","","","","","","","","","","","","","","",""
"","","","","","image-button-response","210","1391652","0.0-3.0-2.0-1.14","5eb29a3db97d6b0008d24a1a","B2","batch2","","2329.7000000029802","img/question_2_3.jpeg","0","spm_respsonse","1","1","mat_15","","","","","","1","2329.7000000029802","","","","","","","","","","","","","","",""
"","","","","","html-keyboard-response","211","1392724","0.0-3.0-2.0-0.15","5eb29a3db97d6b0008d24a1a","B2","batch2","","null","<p class=block-text>Trial 16 out of 60</p>","null","spm_show_trial_num","","","","","","","","","","","","","","","","","","","","","","","","",""
"","","","","","image-button-response","212","1394826","0.0-3.0-2.0-1.15","5eb29a3db97d6b0008d24a1a","B2","batch2","","2100.1999999955297","img/question_2_4.jpeg","1","spm_respsonse","1","2","mat_16","","","","","","1","2100.1999999955297","","","","","","","","","","","","","","",""
"","","","","","html-keyboard-response","213","1395883","0.0-3.0-2.0-0.16","5eb29a3db97d6b0008d24a1a","B2","batch2","","null","<p class=block-text>Trial 17 out of 60</p>","null","spm_show_trial_num","","","","","","","","","","","","","","","","","","","","","","","","",""
"","","","","","image-button-response","214","1399480","0.0-3.0-2.0-1.16","5eb29a3db97d6b0008d24a1a","B2","batch2","","3595.8000000044703","img/question_2_5.jpeg","0","spm_respsonse","1","1","mat_17","","","","","","1","3595.8000000044703","","","","","","","","","","","","","","",""
"","","","","","html-keyboard-response","215","1400538","0.0-3.0-2.0-0.17","5eb29a3db97d6b0008d24a1a","B2","batch2","","null","<p class=block-text>Trial 18 out of 60</p>","null","spm_show_trial_num","","","","","","","","","","","","","","","","","","","","","","","","",""
"","","","","","image-button-response","216","1404588","0.0-3.0-2.0-1.17","5eb29a3db97d6b0008d24a1a","B2","batch2","","4048.10000000149","img/question_2_6.jpeg","2","spm_respsonse","1","3","mat_18","","","","","","1","4048.10000000149","","","","","","","","","","","","","","",""
"","","","","","html-keyboard-response","217","1405644","0.0-3.0-2.0-0.18","5eb29a3db97d6b0008d24a1a","B2","batch2","","null","<p class=block-text>Trial 19 out of 60</p>","null","spm_show_trial_num","","","","","","","","","","","","","","","","","","","","","","","","",""
"","","","","","image-button-response","218","1408168","0.0-3.0-2.0-1.18","5eb29a3db97d6b0008d24a1a","B2","batch2","","2522.10000000149","img/question_2_7.jpeg","4","spm_respsonse","1","5","mat_19","","","","","","1","2522.10000000149","","","","","","","","","","","","","","",""
"","","","","","html-keyboard-response","219","1409229","0.0-3.0-2.0-0.19","5eb29a3db97d6b0008d24a1a","B2","batch2","","null","<p class=block-text>Trial 20 out of 60</p>","null","spm_show_trial_num","","","","","","","","","","","","","","","","","","","","","","","","",""
"","","","","","image-button-response","220","1413379","0.0-3.0-2.0-1.19","5eb29a3db97d6b0008d24a1a","B2","batch2","","4148","img/question_2_8.jpeg","5","spm_respsonse","1","6","mat_20","","","","","","1","4148","","","","","","","","","","","","","","",""
"","","","","","html-keyboard-response","221","1414440","0.0-3.0-2.0-0.20","5eb29a3db97d6b0008d24a1a","B2","batch2","","null","<p class=block-text>Trial 21 out of 60</p>","null","spm_show_trial_num","","","","","","","","","","","","","","","","","","","","","","","","",""
"","","","","","image-button-response","222","1418001","0.0-3.0-2.0-1.20","5eb29a3db97d6b0008d24a1a","B2","batch2","","3557.9000000059605","img/question_2_9.jpeg","3","spm_respsonse","1","4","mat_21","","","","","","1","3557.9000000059605","","","","","","","","","","","","","","",""
"","","","","","html-keyboard-response","223","1419063","0.0-3.0-2.0-0.21","5eb29a3db97d6b0008d24a1a","B2","batch2","","null","<p class=block-text>Trial 22 out of 60</p>","null","spm_show_trial_num","","","","","","","","","","","","","","","","","","","","","","","","",""
"","","","","","image-button-response","224","1422929","0.0-3.0-2.0-1.21","5eb29a3db97d6b0008d24a1a","B2","batch2","","3864.2000000029802","img/question_2_10.jpeg","2","spm_respsonse","1","3","mat_22","","","","","","1","3864.2000000029802","","","","","","","","","","","","","","",""
"","","","","","html-keyboard-response","225","1423990","0.0-3.0-2.0-0.22","5eb29a3db97d6b0008d24a1a","B2","batch2","","null","<p class=block-text>Trial 23 out of 60</p>","null","spm_show_trial_num","","","","","","","","","","","","","","","","","","","","","","","","",""
"","","","","","image-button-response","226","1428458","0.0-3.0-2.0-1.22","5eb29a3db97d6b0008d24a1a","B2","batch2","","4466.20000000298","img/question_2_11.jpeg","3","spm_respsonse","1","4","mat_23","","","","","","1","4466.20000000298","","","","","","","","","","","","","","",""
"","","","","","html-keyboard-response","227","1429525","0.0-3.0-2.0-0.23","5eb29a3db97d6b0008d24a1a","B2","batch2","","null","<p class=block-text>Trial 24 out of 60</p>","null","spm_show_trial_num","","","","","","","","","","","","","","","","","","","","","","","","",""
"","","","","","image-button-response","228","1444346","0.0-3.0-2.0-1.23","5eb29a3db97d6b0008d24a1a","B2","batch2","","14819.29999999702","img/question_2_12.jpeg","4","spm_respsonse","1","5","mat_24","","","","","","1","14819.29999999702","","","","","","","","","","","","","","",""
"","","","","","html-button-response","229","1447103","0.0-3.0-3.0","5eb29a3db97d6b0008d24a1a","B2","batch2","","2493.7000000029802","<p class = block-text>Attention check: Please choose 1<br></p>","0","attention_check","true","","","","","","","","","","","","","","","","","","","","","","","",""
"","","","","","html-keyboard-response","230","1447909","0.0-3.0-4.0-0.0","5eb29a3db97d6b0008d24a1a","B2","batch2","","null","<p class=block-text>Trial 25 out of 60</p>","null","spm_show_trial_num","","","","","","","","","","","","","","","","","","","","","","","","",""
"","","","","","image-button-response","231","1451256","0.0-3.0-4.0-1.0","5eb29a3db97d6b0008d24a1a","B2","batch2","","3344","img/question_3_1.jpeg","7","spm_respsonse","1","8","mat_25","","","","","","1","3344","","","","","","","","","","","","","","",""
"","","","","","html-keyboard-response","232","1452309","0.0-3.0-4.0-0.1","5eb29a3db97d6b0008d24a1a","B2","batch2","","null","<p class=block-text>Trial 26 out of 60</p>","null","spm_show_trial_num","","","","","","","","","","","","","","","","","","","","","","","","",""
"","","","","","image-button-response","233","1458652","0.0-3.0-4.0-1.1","5eb29a3db97d6b0008d24a1a","B2","batch2","","6341.20000000298","img/question_3_2.jpeg","1","spm_respsonse","1","2","mat_26","","","","","","1","6341.20000000298","","","","","","","","","","","","","","",""
"","","","","","html-keyboard-response","234","1459721","0.0-3.0-4.0-0.2","5eb29a3db97d6b0008d24a1a","B2","batch2","","null","<p class=block-text>Trial 27 out of 60</p>","null","spm_show_trial_num","","","","","","","","","","","","","","","","","","","","","","","","",""
"","","","","","image-button-response","235","1466088","0.0-3.0-4.0-1.2","5eb29a3db97d6b0008d24a1a","B2","batch2","","6365.10000000149","img/question_3_3.jpeg","2","spm_respsonse","1","3","mat_27","","","","","","1","6365.10000000149","","","","","","","","","","","","","","",""
"","","","","","html-keyboard-response","236","1467148","0.0-3.0-4.0-0.3","5eb29a3db97d6b0008d24a1a","B2","batch2","","null","<p class=block-text>Trial 28 out of 60</p>","null","spm_show_trial_num","","","","","","","","","","","","","","","","","","","","","","","","",""
"","","","","","image-button-response","237","1478303","0.0-3.0-4.0-1.3","5eb29a3db97d6b0008d24a1a","B2","batch2","","11152","img/question_3_4.jpeg","7","spm_respsonse","1","8","mat_28","","","","","","1","11152","","","","","","","","","","","","","","",""
"","","","","","html-keyboard-response","238","1479375","0.0-3.0-4.0-0.4","5eb29a3db97d6b0008d24a1a","B2","batch2","","null","<p class=block-text>Trial 29 out of 60</p>","null","spm_show_trial_num","","","","","","","","","","","","","","","","","","","","","","","","",""
"","","","","","image-button-response","239","1483503","0.0-3.0-4.0-1.4","5eb29a3db97d6b0008d24a1a","B2","batch2","","4125.79999999702","img/question_3_5.jpeg","6","spm_respsonse","1","7","mat_29","","","","","","1","4125.79999999702","","","","","","","","","","","","","","",""
"","","","","","html-keyboard-response","240","1484575","0.0-3.0-4.0-0.5","5eb29a3db97d6b0008d24a1a","B2","batch2","","null","<p class=block-text>Trial 30 out of 60</p>","null","spm_show_trial_num","","","","","","","","","","","","","","","","","","","","","","","","",""
"","","","","","image-button-response","241","1488439","0.0-3.0-4.0-1.5","5eb29a3db97d6b0008d24a1a","B2","batch2","","3862.0999999940395","img/question_3_6.jpeg","3","spm_respsonse","1","4","mat_30","","","","","","1","3862.0999999940395","","","","","","","","","","","","","","",""
"","","","","","html-keyboard-response","242","1489501","0.0-3.0-4.0-0.6","5eb29a3db97d6b0008d24a1a","B2","batch2","","null","<p class=block-text>Trial 31 out of 60</p>","null","spm_show_trial_num","","","","","","","","","","","","","","","","","","","","","","","","",""
"","","","","","image-button-response","243","1494551","0.0-3.0-4.0-1.6","5eb29a3db97d6b0008d24a1a","B2","batch2","","5048.10000000149","img/question_3_7.jpeg","4","spm_respsonse","1","5","mat_31","","","","","","1","5048.10000000149","","","","","","","","","","","","","","",""
"","","","","","html-keyboard-response","244","1495617","0.0-3.0-4.0-0.7","5eb29a3db97d6b0008d24a1a","B2","batch2","","null","<p class=block-text>Trial 32 out of 60</p>","null","spm_show_trial_num","","","","","","","","","","","","","","","","","","","","","","","","",""
"","","","","","image-button-response","245","1508521","0.0-3.0-4.0-1.7","5eb29a3db97d6b0008d24a1a","B2","batch2","","12901.39999999851","img/question_3_8.jpeg","0","spm_respsonse","1","1","mat_32","","","","","","1","12901.39999999851","","","","","","","","","","","","","","",""
"","","","","","html-keyboard-response","246","1509594","0.0-3.0-4.0-0.8","5eb29a3db97d6b0008d24a1a","B2","batch2","","null","<p class=block-text>Trial 33 out of 60</p>","null","spm_show_trial_num","","","","","","","","","","","","","","","","","","","","","","","","",""
"","","","","","image-button-response","247","1515925","0.0-3.0-4.0-1.8","5eb29a3db97d6b0008d24a1a","B2","batch2","","6329.80000000447","img/question_3_9.jpeg","0","spm_respsonse","0","7","mat_33","","","","","","0","6329.80000000447","","","","","","","","","","","","","","",""
"","","","","","html-keyboard-response","248","1516987","0.0-3.0-4.0-0.9","5eb29a3db97d6b0008d24a1a","B2","batch2","","null","<p class=block-text>Trial 34 out of 60</p>","null","spm_show_trial_num","","","","","","","","","","","","","","","","","","","","","","","","",""
"","","","","","image-button-response","249","1526003","0.0-3.0-4.0-1.9","5eb29a3db97d6b0008d24a1a","B2","batch2","","9012.20000000298","img/question_3_10.jpeg","5","spm_respsonse","1","6","mat_34","","","","","","1","9012.20000000298","","","","","","","","","","","","","","",""
"","","","","","html-keyboard-response","250","1527055","0.0-3.0-4.0-0.10","5eb29a3db97d6b0008d24a1a","B2","batch2","","null","<p class=block-text>Trial 35 out of 60</p>","null","spm_show_trial_num","","","","","","","","","","","","","","","","","","","","","","","","",""
"","","","","","image-button-response","251","1544650","0.0-3.0-4.0-1.10","5eb29a3db97d6b0008d24a1a","B2","batch2","","17592","img/question_3_11.jpeg","0","spm_respsonse","1","1","mat_35","","","","","","1","17592","","","","","","","","","","","","","","",""
"","","","","","html-keyboard-response","252","1545706","0.0-3.0-4.0-0.11","5eb29a3db97d6b0008d24a1a","B2","batch2","","null","<p class=block-text>Trial 36 out of 60</p>","null","spm_show_trial_num","","","","","","","","","","","","","","","","","","","","","","","","",""
"","","","","","image-button-response","253","1574282","0.0-3.0-4.0-1.11","5eb29a3db97d6b0008d24a1a","B2","batch2","","28573.29999999702","img/question_3_12.jpeg","1","spm_respsonse","1","2","mat_36","","","","","","1","28573.29999999702","","","","","","","","","","","","","","",""
"","","","","","html-keyboard-response","254","1575342","0.0-3.0-4.0-0.12","5eb29a3db97d6b0008d24a1a","B2","batch2","","null","<p class=block-text>Trial 37 out of 60</p>","null","spm_show_trial_num","","","","","","","","","","","","","","","","","","","","","","","","",""
"","","","","","image-button-response","255","1578198","0.0-3.0-4.0-1.12","5eb29a3db97d6b0008d24a1a","B2","batch2","","2854.10000000149","img/question_4_1.jpeg","2","spm_respsonse","1","3","mat_37","","","","","","1","2854.10000000149","","","","","","","","","","","","","","",""
"","","","","","html-keyboard-response","256","1579270","0.0-3.0-4.0-0.13","5eb29a3db97d6b0008d24a1a","B2","batch2","","null","<p class=block-text>Trial 38 out of 60</p>","null","spm_show_trial_num","","","","","","","","","","","","","","","","","","","","","","","","",""
"","","","","","image-button-response","257","1582822","0.0-3.0-4.0-1.13","5eb29a3db97d6b0008d24a1a","B2","batch2","","3549.60000000149","img/question_4_2.jpeg","3","spm_respsonse","1","4","mat_38","","","","","","1","3549.60000000149","","","","","","","","","","","","","","",""
"","","","","","html-keyboard-response","258","1583891","0.0-3.0-4.0-0.14","5eb29a3db97d6b0008d24a1a","B2","batch2","","null","<p class=block-text>Trial 39 out of 60</p>","null","spm_show_trial_num","","","","","","","","","","","","","","","","","","","","","","","","",""
"","","","","","image-button-response","259","1589780","0.0-3.0-4.0-1.14","5eb29a3db97d6b0008d24a1a","B2","batch2","","5887.29999999702","img/question_4_3.jpeg","2","spm_respsonse","1","3","mat_39","","","","","","1","5887.29999999702","","","","","","","","","","","","","","",""
"","","","","","html-keyboard-response","260","1590847","0.0-3.0-4.0-0.15","5eb29a3db97d6b0008d24a1a","B2","batch2","","null","<p class=block-text>Trial 40 out of 60</p>","null","spm_show_trial_num","","","","","","","","","","","","","","","","","","","","","","","","",""
"","","","","","image-button-response","261","1596355","0.0-3.0-4.0-1.15","5eb29a3db97d6b0008d24a1a","B2","batch2","","5505","img/question_4_4.jpeg","6","spm_respsonse","1","7","mat_40","","","","","","1","5505","","","","","","","","","","","","","","",""
"","","","","","html-keyboard-response","262","1597407","0.0-3.0-4.0-0.16","5eb29a3db97d6b0008d24a1a","B2","batch2","","null","<p class=block-text>Trial 41 out of 60</p>","null","spm_show_trial_num","","","","","","","","","","","","","","","","","","","","","","","","",""
"","","","","","image-button-response","263","1607958","0.0-3.0-4.0-1.16","5eb29a3db97d6b0008d24a1a","B2","batch2","","10549.40000000596","img/question_4_5.jpeg","7","spm_respsonse","1","8","mat_41","","","","","","1","10549.40000000596","","","","","","","","","","","","","","",""
"","","","","","html-keyboard-response","264","1609010","0.0-3.0-4.0-0.17","5eb29a3db97d6b0008d24a1a","B2","batch2","","null","<p class=block-text>Trial 42 out of 60</p>","null","spm_show_trial_num","","","","","","","","","","","","","","","","","","","","","","","","",""
"","","","","","image-button-response","265","1623087","0.0-3.0-4.0-1.17","5eb29a3db97d6b0008d24a1a","B2","batch2","","14075.20000000298","img/question_4_6.jpeg","5","spm_respsonse","1","6","mat_42","","","","","","1","14075.20000000298","","","","","","","","","","","","","","",""
"","","","","","html-keyboard-response","266","1624150","0.0-3.0-4.0-0.18","5eb29a3db97d6b0008d24a1a","B2","batch2","","null","<p class=block-text>Trial 43 out of 60</p>","null","spm_show_trial_num","","","","","","","","","","","","","","","","","","","","","","","","",""
"","","","","","image-button-response","267","1639416","0.0-3.0-4.0-1.18","5eb29a3db97d6b0008d24a1a","B2","batch2","","15262.69999999553","img/question_4_7.jpeg","4","spm_respsonse","1","5","mat_43","","","","","","1","15262.69999999553","","","","","","","","","","","","","","",""
"","","","","","html-keyboard-response","268","1640478","0.0-3.0-4.0-0.19","5eb29a3db97d6b0008d24a1a","B2","batch2","","null","<p class=block-text>Trial 44 out of 60</p>","null","spm_show_trial_num","","","","","","","","","","","","","","","","","","","","","","","","",""
"","","","","","image-button-response","269","1652328","0.0-3.0-4.0-1.19","5eb29a3db97d6b0008d24a1a","B2","batch2","","11847","img/question_4_8.jpeg","3","spm_respsonse","1","4","mat_44","","","","","","1","11847","","","","","","","","","","","","","","",""
"","","","","","html-keyboard-response","270","1653384","0.0-3.0-4.0-0.20","5eb29a3db97d6b0008d24a1a","B2","batch2","","null","<p class=block-text>Trial 45 out of 60</p>","null","spm_show_trial_num","","","","","","","","","","","","","","","","","","","","","","","","",""
"","","","","","image-button-response","271","1669561","0.0-3.0-4.0-1.20","5eb29a3db97d6b0008d24a1a","B2","batch2","","16175.5","img/question_4_9.jpeg","1","spm_respsonse","0","1","mat_45","","","","","","0","16175.5","","","","","","","","","","","","","","",""
"","","","","","html-keyboard-response","272","1670628","0.0-3.0-4.0-0.21","5eb29a3db97d6b0008d24a1a","B2","batch2","","null","<p class=block-text>Trial 46 out of 60</p>","null","spm_show_trial_num","","","","","","","","","","","","","","","","","","","","","","","","",""
"","","","","","image-button-response","273","1682419","0.0-3.0-4.0-1.21","5eb29a3db97d6b0008d24a1a","B2","batch2","","11787.89999999851","img/question_4_10.jpeg","1","spm_respsonse","1","2","mat_46","","","","","","1","11787.89999999851","","","","","","","","","","","","","","",""
"","","","","","html-keyboard-response","274","1683481","0.0-3.0-4.0-0.22","5eb29a3db97d6b0008d24a1a","B2","batch2","","null","<p class=block-text>Trial 47 out of 60</p>","null","spm_show_trial_num","","","","","","","","","","","","","","","","","","","","","","","","",""
"","","","","","image-button-response","275","1713863","0.0-3.0-4.0-1.22","5eb29a3db97d6b0008d24a1a","B2","batch2","","30380","img/question_4_11.jpeg","4","spm_respsonse","1","5","mat_47","","","","","","1","30380","","","","","","","","","","","","","","",""
"","","","","","html-keyboard-response","276","1714930","0.0-3.0-4.0-0.23","5eb29a3db97d6b0008d24a1a","B2","batch2","","null","<p class=block-text>Trial 48 out of 60</p>","null","spm_show_trial_num","","","","","","","","","","","","","","","","","","","","","","","","",""
"","","","","","image-button-response","277","1735534","0.0-3.0-4.0-1.23","5eb29a3db97d6b0008d24a1a","B2","batch2","","20601.20000000298","img/question_4_12.jpeg","5","spm_respsonse","1","6","mat_48","","","","","","1","20601.20000000298","","","","","","","","","","","","","","",""
"","","","","","html-keyboard-response","278","1736590","0.0-3.0-4.0-0.24","5eb29a3db97d6b0008d24a1a","B2","batch2","","null","<p class=block-text>Trial 49 out of 60</p>","null","spm_show_trial_num","","","","","","","","","","","","","","","","","","","","","","","","",""
"","","","","","image-button-response","279","1742349","0.0-3.0-4.0-1.24","5eb29a3db97d6b0008d24a1a","B2","batch2","","5756.10000000149","img/question_5_1.jpeg","6","spm_respsonse","1","7","mat_49","","","","","","1","5756.10000000149","","","","","","","","","","","","","","",""
"","","","","","html-keyboard-response","280","1743404","0.0-3.0-4.0-0.25","5eb29a3db97d6b0008d24a1a","B2","batch2","","null","<p class=block-text>Trial 50 out of 60</p>","null","spm_show_trial_num","","","","","","","","","","","","","","","","","","","","","","","","",""
"","","","","","image-button-response","281","1753489","0.0-3.0-4.0-1.25","5eb29a3db97d6b0008d24a1a","B2","batch2","","10083.79999999702","img/question_5_2.jpeg","5","spm_respsonse","1","6","mat_50","","","","","","1","10083.79999999702","","","","","","","","","","","","","","",""
"","","","","","html-keyboard-response","282","1754561","0.0-3.0-4.0-0.26","5eb29a3db97d6b0008d24a1a","B2","batch2","","null","<p class=block-text>Trial 51 out of 60</p>","null","spm_show_trial_num","","","","","","","","","","","","","","","","","","","","","","","","",""
"","","","","","image-button-response","283","1761590","0.0-3.0-4.0-1.26","5eb29a3db97d6b0008d24a1a","B2","batch2","","7026.80000000447","img/question_5_3.jpeg","7","spm_respsonse","1","8","mat_51","","","","","","1","7026.80000000447","","","","","","","","","","","","","","",""
"","","","","","html-keyboard-response","284","1762649","0.0-3.0-4.0-0.27","5eb29a3db97d6b0008d24a1a","B2","batch2","","null","<p class=block-text>Trial 52 out of 60</p>","null","spm_show_trial_num","","","","","","","","","","","","","","","","","","","","","","","","",""
"","","","","","image-button-response","285","1769800","0.0-3.0-4.0-1.27","5eb29a3db97d6b0008d24a1a","B2","batch2","","7147.30000000447","img/question_5_4.jpeg","1","spm_respsonse","1","2","mat_52","","","","","","1","7147.30000000447","","","","","","","","","","","","","","",""
"","","","","","html-keyboard-response","286","1770860","0.0-3.0-4.0-0.28","5eb29a3db97d6b0008d24a1a","B2","batch2","","null","<p class=block-text>Trial 53 out of 60</p>","null","spm_show_trial_num","","","","","","","","","","","","","","","","","","","","","","","","",""
"","","","","","image-button-response","287","1783956","0.0-3.0-4.0-1.28","5eb29a3db97d6b0008d24a1a","B2","batch2","","13093.60000000149","img/question_5_5.jpeg","0","spm_respsonse","1","1","mat_53","","","","","","1","13093.60000000149","","","","","","","","","","","","","","",""
"","","","","","html-keyboard-response","288","1785013","0.0-3.0-4.0-0.29","5eb29a3db97d6b0008d24a1a","B2","batch2","","null","<p class=block-text>Trial 54 out of 60</p>","null","spm_show_trial_num","","","","","","","","","","","","","","","","","","","","","","","","",""
"","","","","","image-button-response","289","1827169","0.0-3.0-4.0-1.29","5eb29a3db97d6b0008d24a1a","B2","batch2","","42154","img/question_5_6.jpeg","4","spm_respsonse","1","5","mat_54","","","","","","1","42154","","","","","","","","","","","","","","",""
"","","","","","html-keyboard-response","290","1828221","0.0-3.0-4.0-0.30","5eb29a3db97d6b0008d24a1a","B2","batch2","","null","<p class=block-text>Trial 55 out of 60</p>","null","spm_show_trial_num","","","","","","","","","","","","","","","","","","","","","","","","",""
"","","","","","image-button-response","291","1869405","0.0-3.0-4.0-1.30","5eb29a3db97d6b0008d24a1a","B2","batch2","","41181","img/question_5_7.jpeg","0","spm_respsonse","1","1","mat_55","","","","","","1","41181","","","","","","","","","","","","","","",""
"","","","","","html-keyboard-response","292","1870462","0.0-3.0-4.0-0.31","5eb29a3db97d6b0008d24a1a","B2","batch2","","null","<p class=block-text>Trial 56 out of 60</p>","null","spm_show_trial_num","","","","","","","","","","","","","","","","","","","","","","","","",""
"","","","","","image-button-response","293","1884808","0.0-3.0-4.0-1.31","5eb29a3db97d6b0008d24a1a","B2","batch2","","14342.5","img/question_5_8.jpeg","5","spm_respsonse","1","6","mat_56","","","","","","1","14342.5","","","","","","","","","","","","","","",""
"","","","","","html-keyboard-response","294","1885866","0.0-3.0-4.0-0.32","5eb29a3db97d6b0008d24a1a","B2","batch2","","null","<p class=block-text>Trial 57 out of 60</p>","null","spm_show_trial_num","","","","","","","","","","","","","","","","","","","","","","","","",""
"","","","","","image-button-response","295","1896933","0.0-3.0-4.0-1.32","5eb29a3db97d6b0008d24a1a","B2","batch2","","11064.70000000298","img/question_5_9.jpeg","2","spm_respsonse","1","3","mat_57","","","","","","1","11064.70000000298","","","","","","","","","","","","","","",""
"","","","","","html-keyboard-response","296","1897990","0.0-3.0-4.0-0.33","5eb29a3db97d6b0008d24a1a","B2","batch2","","null","<p class=block-text>Trial 58 out of 60</p>","null","spm_show_trial_num","","","","","","","","","","","","","","","","","","","","","","","","",""
"","","","","","image-button-response","297","1917987","0.0-3.0-4.0-1.33","5eb29a3db97d6b0008d24a1a","B2","batch2","","19995.19999999553","img/question_5_10.jpeg","1","spm_respsonse","1","2","mat_58","","","","","","1","19995.19999999553","","","","","","","","","","","","","","",""
"","","","","","html-keyboard-response","298","1919043","0.0-3.0-4.0-0.34","5eb29a3db97d6b0008d24a1a","B2","batch2","","null","<p class=block-text>Trial 59 out of 60</p>","null","spm_show_trial_num","","","","","","","","","","","","","","","","","","","","","","","","",""
"","","","","","image-button-response","299","1946158","0.0-3.0-4.0-1.34","5eb29a3db97d6b0008d24a1a","B2","batch2","","27113.10000000149","img/question_5_11.jpeg","2","spm_respsonse","0","4","mat_59","","","","","","0","27113.10000000149","","","","","","","","","","","","","","",""
"","","","","","html-keyboard-response","300","1947229","0.0-3.0-4.0-0.35","5eb29a3db97d6b0008d24a1a","B2","batch2","","null","<p class=block-text>Trial 60 out of 60</p>","null","spm_show_trial_num","","","","","","","","","","","","","","","","","","","","","","","","",""
"","","","","","image-button-response","301","1971873","0.0-3.0-4.0-1.35","5eb29a3db97d6b0008d24a1a","B2","batch2","","24641.79999999702","img/question_5_12.jpeg","2","spm_respsonse","0","5","mat_60","","","","","","0","24641.79999999702","","","","","","","","","","","","","","",""
"","","","","","html-button-response","302","1974307","0.0-3.0-5.0","5eb29a3db97d6b0008d24a1a","B2","batch2","","2170.3000000044703","<p class= block-text>This concludes the Standard Progressive Matrix game. Thank you for your responses!<br> When you are ready, click the button continue</p>","0","spm_goodbye","","","","","","","","","","","","","","","","","","","","","","","","",""
"true","","","","","fullscreen","303","1977484","0.0-4.0-0.0","5eb29a3db97d6b0008d24a1a","B2","batch2","","","","","","","","","","","","","","","","","","","","","","","","","","","","","",""
"","","","","","instructions","304","2000750","0.0-4.0-1.0-0.0-0.0","5eb29a3db97d6b0008d24a1a","B2","batch2","[{""page_index"":0,""viewing_time"":5721},{""page_index"":1,""viewing_time"":3279.7999999970198},{""page_index"":2,""viewing_time"":3776.39999999851},{""page_index"":3,""viewing_time"":4149.80000000447},{""page_index"":4,""viewing_time"":1395.6999999955297},{""page_index"":5,""viewing_time"":2138.9000000059605},{""page_index"":6,""viewing_time"":2803.1999999955297}]","23265.10000000149","","","tol-instructions","","","","","","","","","","","","","","","","","","","","","","","","",""
"","","","","","html-button-response","305","2001698","0.0-4.0-1.0-1.0-0.0","5eb29a3db97d6b0008d24a1a","B2","batch2","","947.1000000014901","<p class=block-text> Let's answer a few questions <br>","0","tol_enter_quiz","","","","","","","","","","","","","","","","","","","","","","","","",""
"","","","","","html-button-response","306","2004868","0.0-4.0-1.0-1.0-1.0","5eb29a3db97d6b0008d24a1a","B2","batch2","","3168.7999999970198","<p class = block-text>True or False: You can only move the ball on top of a peg. <br></p>","0","tol_quiz","true","","","","","","","","","","","","","","","","","","","","","","","",""
"","","","","","html-button-response","307","2006655","0.0-4.0-1.0-1.0-2.0","5eb29a3db97d6b0008d24a1a","B2","batch2","","1785.2000000029802","<p class = block-text>Correct! You can only move the ball on top of a peg.</p>","0","tol_quiz_feedback","","","","","","","","","","","","","","","","","","","","","","","","",""
"","","","","","html-button-response","308","2009647","0.0-4.0-1.0-1.0-3.0","5eb29a3db97d6b0008d24a1a","B2","batch2","","2990.5","<p class = block-text>True or False: You should try to match your board with the target board with fewest moves possible. <br></p>","0","tol_quiz","true","","","","","","","","","","","","","","","","","","","","","","","",""
"","","","","","html-button-response","309","2010351","0.0-4.0-1.0-1.0-4.0","5eb29a3db97d6b0008d24a1a","B2","batch2","","703.0999999940395","<p class = block-text>Correct! </p>","0","tol_quiz_feedback","","","","","","","","","","","","","","","","","","","","","","","","",""
"","","","","","html-button-response","310","2012402","0.0-4.0-2.0","5eb29a3db97d6b0008d24a1a","B2","batch2","","2049.60000000149","<p class=block-text> Now that you've understood the game, let's practice a few easier examples before we start!<br> <br>","0","","","","","","","","","","","","","","","","","","","","","","","","","",""
"","","","","","single-stim-button","311","2019107","0.0-4.0-3.0-0.0","5eb29a3db97d6b0008d24a1a","B2","batch2","","6702","","","tol_practice","","","","","","","","","","","tol_peg_2","6702","6702","0","[[1,2,0],[0,0],[0]]","1","[[1,2,0],[0,0],[3]]","practice","6702","","","","","",""
"","","","","","single-stim-button","312","2020132","0.0-4.0-3.0-1.0","5eb29a3db97d6b0008d24a1a","B2","batch2","","1024","","","tol_practice","","","","","","","","","","","tol_peg_3","1024","1024","0","[[1,2,0],[0,0],[3]]","1","[[1,2,0],[0,0],[3]]","practice","1024","","","","","",""
"","","","","","poldrack-single-stim","313","2021137","0.0-4.0-4.0","5eb29a3db97d6b0008d24a1a","B2","batch2","","-1","","","tol_feedback","true","","","","","","","","","","","1000","1000","500","","","","","","-1","none","true","","0",""
"","","","","","single-stim-button","314","2024407","0.0-4.0-5.0-0.0","5eb29a3db97d6b0008d24a1a","B2","batch2","","3268","","","tol_practice","","","","","","","","","","","tol_peg_1","3268","3268","0","[[1,0,0],[3,0],[0]]","2","[[0,0,0],[3,1],[2]]","practice","3268","","","","","",""
"","","","","","single-stim-button","315","2025081","0.0-4.0-5.0-1.0","5eb29a3db97d6b0008d24a1a","B2","batch2","","673","","","tol_practice","","","","","","","","","","","tol_peg_3","673","673","0","[[1,0,0],[3,0],[2]]","2","[[0,0,0],[3,1],[2]]","practice","673","","","","","",""
"","","","","","single-stim-button","316","2025793","0.0-4.0-5.1-0.1","5eb29a3db97d6b0008d24a1a","B2","batch2","","712","","","tol_practice","","","","","","","","","","","tol_peg_1","712","712","0","[[0,0,0],[3,0],[2]]","3","[[0,0,0],[3,1],[2]]","practice","712","","","","","",""
"","","","","","single-stim-button","317","2026529","0.0-4.0-5.1-1.1","5eb29a3db97d6b0008d24a1a","B2","batch2","","735","","","tol_practice","","","","","","","","","","","tol_peg_2","735","735","0","[[0,0,0],[3,1],[2]]","3","[[0,0,0],[3,1],[2]]","practice","735","","","","","",""
"","","","","","poldrack-single-stim","318","2027531","0.0-4.0-6.0","5eb29a3db97d6b0008d24a1a","B2","batch2","","-1","","","tol_feedback","true","","","","","","","","","","","1000","1000","500","","","","","","-1","none","true","","0",""
"","","","","","single-stim-button","319","2031189","0.0-4.0-7.0-0.0","5eb29a3db97d6b0008d24a1a","B2","batch2","","3658","","","tol_practice","","","","","","","","","","","tol_peg_2","3658","3658","0","[[1,2,0],[0,0],[0]]","4","[[1,0,0],[2,0],[3]]","practice","3658","","","","","",""
"","","","","","single-stim-button","320","2031925","0.0-4.0-7.0-1.0","5eb29a3db97d6b0008d24a1a","B2","batch2","","735","","","tol_practice","","","","","","","","","","","tol_peg_3","735","735","0","[[1,2,0],[0,0],[3]]","4","[[1,0,0],[2,0],[3]]","practice","735","","","","","",""
"","","","","","single-stim-button","321","2032613","0.0-4.0-7.1-0.1","5eb29a3db97d6b0008d24a1a","B2","batch2","","687","","","tol_practice","","","","","","","","","","","tol_peg_1","687","687","0","[[1,0,0],[0,0],[3]]","5","[[1,0,0],[2,0],[3]]","practice","687","","","","","",""
"","","","","","single-stim-button","322","2033296","0.0-4.0-7.1-1.1","5eb29a3db97d6b0008d24a1a","B2","batch2","","682","","","tol_practice","","","","","","","","","","","tol_peg_2","682","682","0","[[1,0,0],[2,0],[3]]","5","[[1,0,0],[2,0],[3]]","practice","682","","","","","",""
"","","","","","poldrack-single-stim","323","2034297","0.0-4.0-8.0","5eb29a3db97d6b0008d24a1a","B2","batch2","","-1","","","tol_feedback","true","","","","","","","","","","","1000","1000","500","","","","","","-1","none","true","","0",""
"","","","","","html-button-response","324","2036860","0.0-4.0-9.0","5eb29a3db97d6b0008d24a1a","B2","batch2","","2561.6999999955297","<div class = centerbox><p class = center-block-text>Great job! You are done with practice trials<br>You are about to start official trials.<br> <br> Problem <strong>1</strong> out of 25 problems</p></div>","0","tol_instruction","","","","","","","","","","","","","","","","","","","","","","","","",""
"","","","","","single-stim-button","325","2042200","0.0-4.0-10.0-0.0","5eb29a3db97d6b0008d24a1a","B2","batch2","","4336","","","tol_tohand","","","","","","","","","","","tol_peg_2","4336","4336","0","[[1,2,0],[0,0],[0]]","1","[[1,3,0],[2,0],[0]]","0","0","","","","","","3"
"","","","","","single-stim-button","326","2043256","0.0-4.0-10.0-1.0","5eb29a3db97d6b0008d24a1a","B2","batch2","","1056","","","tol_toboard","","","","","","","","","","","tol_peg_3","1056","1056","0","[[1,2,0],[0,0],[3]]","1","[[1,3,0],[2,0],[0]]","0","0","","","","","","3"
"","","","","","single-stim-button","327","2043930","0.0-4.0-10.1-0.1","5eb29a3db97d6b0008d24a1a","B2","batch2","","673","","","tol_tohand","","","","","","","","","","","tol_peg_1","673","673","0","[[1,0,0],[0,0],[3]]","2","[[1,3,0],[2,0],[0]]","0","0","","","","","","3"
"","","","","","single-stim-button","328","2044534","0.0-4.0-10.1-1.1","5eb29a3db97d6b0008d24a1a","B2","batch2","","603","","","tol_toboard","","","","","","","","","","","tol_peg_2","603","603","0","[[1,0,0],[2,0],[3]]","2","[[1,3,0],[2,0],[0]]","0","0","","","","","","3"
"","","","","","single-stim-button","329","2045190","0.0-4.0-10.2-0.2","5eb29a3db97d6b0008d24a1a","B2","batch2","","655","","","tol_tohand","","","","","","","","","","","tol_peg_3","655","655","0","[[1,0,0],[2,0],[0]]","3","[[1,3,0],[2,0],[0]]","0","0","","","","","","3"
"","","","","","single-stim-button","330","2046036","0.0-4.0-10.2-1.2","5eb29a3db97d6b0008d24a1a","B2","batch2","","846","","","tol_toboard","","","","","","","","","","","tol_peg_1","846","846","0","[[1,3,0],[2,0],[0]]","3","[[1,3,0],[2,0],[0]]","0","0","","","","","","3"
"","","","","","poldrack-single-stim","331","2047037","0.0-4.0-11.0","5eb29a3db97d6b0008d24a1a","B2","batch2","","-1","","","tol_feedback","true","","","","","","","","","","","1000","1000","500","","","","","","-1","none","true","4336","5664",""
"","","","","","html-button-response","332","2048103","0.0-4.0-12.0","5eb29a3db97d6b0008d24a1a","B2","batch2","","1065.2999999970198","<div class = centerbox><p class = center-block-text>problem <strong>2</strong> out of 25 problems</p></div>","0","tol_trial_num","","","","","","","","","","","","","","","","","","","","","","","","",""
"","","","","","single-stim-button","333","2052505","0.0-4.0-13.0-0.0","5eb29a3db97d6b0008d24a1a","B2","batch2","","4400","","","tol_tohand","","","","","","","","","","","tol_peg_1","4400","4400","0","[[1,0,0],[3,0],[0]]","1","[[2,1,3],[0,0],[0]]","1","0","","","","","","5"
"","","","","","single-stim-button","334","2053154","0.0-4.0-13.0-1.0","5eb29a3db97d6b0008d24a1a","B2","batch2","","648","","","tol_toboard","","","","","","","","","","","tol_peg_3","648","648","0","[[1,0,0],[3,0],[2]]","1","[[2,1,3],[0,0],[0]]","1","0","","","","","","5"
"","","","","","single-stim-button","335","2053759","0.0-4.0-13.1-0.1","5eb29a3db97d6b0008d24a1a","B2","batch2","","605","","","tol_tohand","","","","","","","","","","","tol_peg_1","605","605","0","[[0,0,0],[3,0],[2]]","2","[[2,1,3],[0,0],[0]]","1","0","","","","","","5"
"","","","","","single-stim-button","336","2054336","0.0-4.0-13.1-1.1","5eb29a3db97d6b0008d24a1a","B2","batch2","","575","","","tol_toboard","","","","","","","","","","","tol_peg_2","575","575","0","[[0,0,0],[3,1],[2]]","2","[[2,1,3],[0,0],[0]]","1","0","","","","","","5"
"","","","","","single-stim-button","337","2054908","0.0-4.0-13.2-0.2","5eb29a3db97d6b0008d24a1a","B2","batch2","","572","","","tol_tohand","","","","","","","","","","","tol_peg_3","572","572","0","[[0,0,0],[3,1],[0]]","3","[[2,1,3],[0,0],[0]]","1","0","","","","","","5"
"","","","","","single-stim-button","338","2055607","0.0-4.0-13.2-1.2","5eb29a3db97d6b0008d24a1a","B2","batch2","","697","","","tol_toboard","","","","","","","","","","","tol_peg_1","697","697","0","[[2,0,0],[3,1],[0]]","3","[[2,1,3],[0,0],[0]]","1","0","","","","","","5"
"","","","","","single-stim-button","339","2056185","0.0-4.0-13.3-0.3","5eb29a3db97d6b0008d24a1a","B2","batch2","","577","","","tol_tohand","","","","","","","","","","","tol_peg_2","577","577","0","[[2,0,0],[3,0],[0]]","4","[[2,1,3],[0,0],[0]]","1","0","","","","","","5"
"","","","","","single-stim-button","340","2056796","0.0-4.0-13.3-1.3","5eb29a3db97d6b0008d24a1a","B2","batch2","","610","","","tol_toboard","","","","","","","","","","","tol_peg_1","610","610","0","[[2,1,0],[3,0],[0]]","4","[[2,1,3],[0,0],[0]]","1","0","","","","","","5"
"","","","","","single-stim-button","341","2057390","0.0-4.0-13.4-0.4","5eb29a3db97d6b0008d24a1a","B2","batch2","","594","","","tol_tohand","","","","","","","","","","","tol_peg_2","594","594","0","[[2,1,0],[0,0],[0]]","5","[[2,1,3],[0,0],[0]]","1","0","","","","","","5"
"","","","","","single-stim-button","342","2058150","0.0-4.0-13.4-1.4","5eb29a3db97d6b0008d24a1a","B2","batch2","","759","","","tol_toboard","","","","","","","","","","","tol_peg_1","759","759","0","[[2,1,3],[0,0],[0]]","5","[[2,1,3],[0,0],[0]]","1","0","","","","","","5"
"","","","","","poldrack-single-stim","343","2059152","0.0-4.0-14.0","5eb29a3db97d6b0008d24a1a","B2","batch2","","-1","","","tol_feedback","true","","","","","","","","","","","1000","1000","500","","","","","","-1","none","true","4400","6748",""
"","","","","","html-button-response","344","2060044","0.0-4.0-15.0","5eb29a3db97d6b0008d24a1a","B2","batch2","","891.1000000014901","<div class = centerbox><p class = center-block-text>problem <strong>3</strong> out of 25 problems</p></div>","0","tol_trial_num","","","","","","","","","","","","","","","","","","","","","","","","",""
"","","","","","single-stim-button","345","2065253","0.0-4.0-16.0-0.0","5eb29a3db97d6b0008d24a1a","B2","batch2","","5207","","","tol_tohand","","","","","","","","","","","tol_peg_1","5207","5207","0","[[2,0,0],[0,0],[1]]","1","[[1,2,0],[3,0],[0]]","2","0","","","","","","4"
"","","","","","single-stim-button","346","2066036","0.0-4.0-16.0-1.0","5eb29a3db97d6b0008d24a1a","B2","batch2","","783","","","tol_toboard","","","","","","","","","","","tol_peg_2","783","783","0","[[2,0,0],[3,0],[1]]","1","[[1,2,0],[3,0],[0]]","2","0","","","","","","4"
"","","","","","single-stim-button","347","2067092","0.0-4.0-16.1-0.1","5eb29a3db97d6b0008d24a1a","B2","batch2","","1055","","","tol_tohand","","","","","","","","","","","tol_peg_1","1055","1055","0","[[0,0,0],[3,0],[1]]","2","[[1,2,0],[3,0],[0]]","2","0","","","","","","4"
