"success","timeout","failed_images","failed_audio","failed_video","trial_type","trial_index","time_elapsed","internal_node_id","subject_id","study_id","session_id","view_history","rt","stimulus","response","task","correct","answer","item","fiar_detect_rt","fiar_detect_correct","total_correct_fiar_detect","post_trial_gap","choices","mouse_click","stim_duration","block_duration","timing_post_trial","current_position","tol_num_moves_made","tol_target","tol_problem_id","tol_rt","key_press","possible_responses","tol_correct","preplanning","tol_rt_per_trial","tol_min_moves","spm_correct","spm_rt"
"true","false","[]","[]","[]","preload","0","2146","0.0-0.0","5eb272fe56dba91c3f2f0ab7","B2","batch2","","","","","","","","","","","","","","","","","","","","","","","","","","","","","",""
"true","","","","","fullscreen","1","16093","0.0-1.0-0.0","5eb272fe56dba91c3f2f0ab7","B2","batch2","","","","","","","","","","","","","","","","","","","","","","","","","","","","","",""
"true","","","","","fullscreen","2","23627","0.0-2.0-0.0","5eb272fe56dba91c3f2f0ab7","B2","batch2","","","","","","","","","","","","","","","","","","","","","","","","","","","","","",""
"","","","","","instructions","3","40426","0.0-2.0-1.0-0.0","5eb272fe56dba91c3f2f0ab7","B2","batch2","[{""page_index"":0,""viewing_time"":9627.599999964237},{""page_index"":1,""viewing_time"":7167.600000023842}]","16795.5","","","","","","","","","","","","","","","","","","","","","","","","","","","",""
"","","","","","html-button-response","4","41645","0.0-2.0-1.0-1.0-0.0","5eb272fe56dba91c3f2f0ab7","B2","batch2","","1218.300000011921","<p class=block-text> Let's answer a few questions <br>","0","pattern_enter_quiz","","","","","","","","","","","","","","","","","","","","","","","","",""
"","","","","","html-button-response","5","52233","0.0-2.0-1.0-1.0-1.0","5eb272fe56dba91c3f2f0ab7","B2","batch2","","10587.100000023842","<p class = block-text>True or False: You will have as much time as you want to make each choice. <br></p>","1","pattern_quiz","true","","","","","","","","","","","","","","","","","","","","","","","",""
"","","","","","html-button-response","6","53553","0.0-2.0-1.0-1.0-2.0","5eb272fe56dba91c3f2f0ab7","B2","batch2","","1319.1000000238419","<p class = block-text>Correct! You should make your choice <strong> as fast as you can</strong>.</p>","0","pattern_quiz_feedback","","","","","","","","","","","","","","","","","","","","","","","","",""
"","","","","","html-button-response","7","56135","0.0-2.0-1.0-1.0-3.0","5eb272fe56dba91c3f2f0ab7","B2","batch2","","2581.100000023842","<p class = block-text>True or False: You will look for 4 pieces in black or white color connected in a row either horizontally, vertically or diagonally. <br></p>","0","pattern_quiz","true","","","","","","","","","","","","","","","","","","","","","","","",""
"","","","","","html-button-response","8","56845","0.0-2.0-1.0-1.0-4.0","5eb272fe56dba91c3f2f0ab7","B2","batch2","","709.1999999880791","<p class = block-text>Correct! </p>","0","pattern_quiz_feedback","","","","","","","","","","","","","","","","","","","","","","","","",""
"","","","","","html-button-response","9","58379","0.0-2.0-2.0","5eb272fe56dba91c3f2f0ab7","B2","batch2","","1532.300000011921","<p class=block-text> Now that you've understood the game, let's do a few practice trials before we start!<br> <br>","0","pattern_enter_practice","","","","","","","","","","","","","","","","","","","","","","","","",""
"","","","","","image-keyboard-response","10","60934","0.0-2.0-3.0-0.0","5eb272fe56dba91c3f2f0ab7","B2","batch2","","2549.300000011921","stim/prac_no_18_1.png","j","pattern_practice","true","j","","","","","","","","","","","","","","","","","","","","","","",""
"","","","","","html-keyboard-response","11","61950","0.0-2.0-3.0-1.0","5eb272fe56dba91c3f2f0ab7","B2","batch2","","null","<p style=""font-size:30px;color:green;"">Correct!</p>","null","pattern_feedback","","","","","","","","","","","","","","","","","","","","","","","","",""
"","","","","","image-keyboard-response","12","62824","0.0-2.0-3.0-0.1","5eb272fe56dba91c3f2f0ab7","B2","batch2","","870","stim/prac_yes_16_ver_w1.png","f","pattern_practice","true","f","","","","","","","","","","","","","","","","","","","","","","",""
"","","","","","html-keyboard-response","13","63837","0.0-2.0-3.0-1.1","5eb272fe56dba91c3f2f0ab7","B2","batch2","","null","<p style=""font-size:30px;color:green;"">Correct!</p>","null","pattern_feedback","","","","","","","","","","","","","","","","","","","","","","","","",""
"","","","","","image-keyboard-response","14","65770","0.0-2.0-3.0-0.2","5eb272fe56dba91c3f2f0ab7","B2","batch2","","1931.199999988079","stim/prac_no_16_1.png","j","pattern_practice","true","j","","","","","","","","","","","","","","","","","","","","","","",""
"","","","","","html-keyboard-response","15","66787","0.0-2.0-3.0-1.2","5eb272fe56dba91c3f2f0ab7","B2","batch2","","null","<p style=""font-size:30px;color:green;"">Correct!</p>","null","pattern_feedback","","","","","","","","","","","","","","","","","","","","","","","","",""
"","","","","","image-keyboard-response","16","67607","0.0-2.0-3.0-0.3","5eb272fe56dba91c3f2f0ab7","B2","batch2","","814.6999999880791","stim/prac_yes_20_dia_b1.png","f","pattern_practice","true","f","","","","","","","","","","","","","","","","","","","","","","",""
"","","","","","html-keyboard-response","17","68622","0.0-2.0-3.0-1.3","5eb272fe56dba91c3f2f0ab7","B2","batch2","","null","<p style=""font-size:30px;color:green;"">Correct!</p>","null","pattern_feedback","","","","","","","","","","","","","","","","","","","","","","","","",""
"","","","","","image-keyboard-response","18","69269","0.0-2.0-3.0-0.4","5eb272fe56dba91c3f2f0ab7","B2","batch2","","640.3000000119209","stim/prac_yes_18_hor_w1.png","f","pattern_practice","true","f","","","","","","","","","","","","","","","","","","","","","","",""
"","","","","","html-keyboard-response","19","70284","0.0-2.0-3.0-1.4","5eb272fe56dba91c3f2f0ab7","B2","batch2","","null","<p style=""font-size:30px;color:green;"">Correct!</p>","null","pattern_feedback","","","","","","","","","","","","","","","","","","","","","","","","",""
"","","","","","html-button-response","20","74241","0.0-2.0-4.0","5eb272fe56dba91c3f2f0ab7","B2","batch2","","3954.199999988079","<p class=block-text> Good job! You are done with practice trials!<br>
        You responded correctly on 100% of the trials.<br>
        Press the button below to start official trials. Now you won't see any feedback about your response</p>","0","pattern_enter_official_trials","","","","","","","","","","","","","","","","","","","","","","","","",""
"","","","","","html-keyboard-response","21","75042","0.0-2.0-5.0-0.0","5eb272fe56dba91c3f2f0ab7","B2","batch2","","null","<p class=block-text>Trial 1 out of 78</p>","null","pattern_show_trial_num","","","","","","","","","","","","","","","","","","","","","","","","",""
"","","","","","image-keyboard-response","22","76555","0.0-2.0-5.0-1.0","5eb272fe56dba91c3f2f0ab7","B2","batch2","","1510.3999999761581","stim/yes_49_hor_w1_b.png","f","pattern_response","true","f","pattern_70","1510.3999999761581","true","1","","","","","","","","","","","","","","","","","","",""
"","","","","","html-keyboard-response","23","77865","0.0-2.0-5.0-0.1","5eb272fe56dba91c3f2f0ab7","B2","batch2","","null","<p class=block-text>Trial 2 out of 78</p>","null","pattern_show_trial_num","","","","","","","","","","","","","","","","","","","","","","","","",""
"","","","","","image-keyboard-response","24","79987","0.0-2.0-5.0-1.1","5eb272fe56dba91c3f2f0ab7","B2","batch2","","2116.399999976158","stim/yes_26_dia_w2_w.png","j","pattern_response","false","f","pattern_50","2116.399999976158","false","1","","","","","","","","","","","","","","","","","","",""
"","","","","","html-keyboard-response","25","81295","0.0-2.0-5.0-0.2","5eb272fe56dba91c3f2f0ab7","B2","batch2","","null","<p class=block-text>Trial 3 out of 78</p>","null","pattern_show_trial_num","","","","","","","","","","","","","","","","","","","","","","","","",""
"","","","","","image-keyboard-response","26","82129","0.0-2.0-5.0-1.2","5eb272fe56dba91c3f2f0ab7","B2","batch2","","828.5","stim/yes_36_ver_w1_w.png","f","pattern_response","true","f","pattern_58","828.5","true","2","","","","","","","","","","","","","","","","","","",""
"","","","","","html-keyboard-response","27","83442","0.0-2.0-5.0-0.3","5eb272fe56dba91c3f2f0ab7","B2","batch2","","null","<p class=block-text>Trial 4 out of 78</p>","null","pattern_show_trial_num","","","","","","","","","","","","","","","","","","","","","","","","",""
"","","","","","image-keyboard-response","28","91063","0.0-2.0-5.0-1.3","5eb272fe56dba91c3f2f0ab7","B2","batch2","","7616.100000023842","stim/no_67_1.png","j","pattern_response","true","j","pattern_39","7616.100000023842","true","3","","","","","","","","","","","","","","","","","","",""
"","","","","","html-keyboard-response","29","92369","0.0-2.0-5.0-0.4","5eb272fe56dba91c3f2f0ab7","B2","batch2","","null","<p class=block-text>Trial 5 out of 78</p>","null","pattern_show_trial_num","","","","","","","","","","","","","","","","","","","","","","","","",""
"","","","","","image-keyboard-response","30","93666","0.0-2.0-5.0-1.4","5eb272fe56dba91c3f2f0ab7","B2","batch2","","1295.699999988079","stim/no_12_1.png","j","pattern_response","true","j","pattern_01","1295.699999988079","true","4","","","","","","","","","","","","","","","","","","",""
"","","","","","html-keyboard-response","31","94981","0.0-2.0-5.0-0.5","5eb272fe56dba91c3f2f0ab7","B2","batch2","","null","<p class=block-text>Trial 6 out of 78</p>","null","pattern_show_trial_num","","","","","","","","","","","","","","","","","","","","","","","","",""
"","","","","","image-keyboard-response","32","99403","0.0-2.0-5.0-1.5","5eb272fe56dba91c3f2f0ab7","B2","batch2","","4416.400000035763","stim/no_37_2_w.png","j","pattern_response","true","j","pattern_19","4416.400000035763","true","5","","","","","","","","","","","","","","","","","","",""
"","","","","","html-keyboard-response","33","100714","0.0-2.0-5.0-0.6","5eb272fe56dba91c3f2f0ab7","B2","batch2","","null","<p class=block-text>Trial 7 out of 78</p>","null","pattern_show_trial_num","","","","","","","","","","","","","","","","","","","","","","","","",""
"","","","","","image-keyboard-response","34","105908","0.0-2.0-5.0-1.6","5eb272fe56dba91c3f2f0ab7","B2","batch2","","5188.400000035763","stim/no_47_1_b.png","j","pattern_response","true","j","pattern_27","5188.400000035763","true","6","","","","","","","","","","","","","","","","","","",""
"","","","","","html-keyboard-response","35","107225","0.0-2.0-5.0-0.7","5eb272fe56dba91c3f2f0ab7","B2","batch2","","null","<p class=block-text>Trial 8 out of 78</p>","null","pattern_show_trial_num","","","","","","","","","","","","","","","","","","","","","","","","",""
"","","","","","image-keyboard-response","36","110106","0.0-2.0-5.0-1.7","5eb272fe56dba91c3f2f0ab7","B2","batch2","","2872.7000000476837","stim/no_28_2.png","j","pattern_response","true","j","pattern_11","2872.7000000476837","true","7","","","","","","","","","","","","","","","","","","",""
"","","","","","html-keyboard-response","37","111420","0.0-2.0-5.0-0.8","5eb272fe56dba91c3f2f0ab7","B2","batch2","","null","<p class=block-text>Trial 9 out of 78</p>","null","pattern_show_trial_num","","","","","","","","","","","","","","","","","","","","","","","","",""
"","","","","","image-keyboard-response","38","115708","0.0-2.0-5.0-1.8","5eb272fe56dba91c3f2f0ab7","B2","batch2","","4283","stim/no_36_1_b.png","j","pattern_response","true","j","pattern_17","4283","true","8","","","","","","","","","","","","","","","","","","",""
"","","","","","html-keyboard-response","39","117024","0.0-2.0-5.0-0.9","5eb272fe56dba91c3f2f0ab7","B2","batch2","","null","<p class=block-text>Trial 10 out of 78</p>","null","pattern_show_trial_num","","","","","","","","","","","","","","","","","","","","","","","","",""
"","","","","","image-keyboard-response","40","118092","0.0-2.0-5.0-1.9","5eb272fe56dba91c3f2f0ab7","B2","batch2","","1061","stim/yes_70_ver_b1.png","f","pattern_response","true","f","pattern_80","1061","true","9","","","","","","","","","","","","","","","","","","",""
"","","","","","html-keyboard-response","41","119401","0.0-2.0-5.0-0.10","5eb272fe56dba91c3f2f0ab7","B2","batch2","","null","<p class=block-text>Trial 11 out of 78</p>","null","pattern_show_trial_num","","","","","","","","","","","","","","","","","","","","","","","","",""
"","","","","","image-keyboard-response","42","126651","0.0-2.0-5.0-1.10","5eb272fe56dba91c3f2f0ab7","B2","batch2","","7244.599999964237","stim/no_51_1.png","j","pattern_response","true","j","pattern_31","7244.599999964237","true","10","","","","","","","","","","","","","","","","","","",""
"","","","","","html-keyboard-response","43","127967","0.0-2.0-5.0-0.11","5eb272fe56dba91c3f2f0ab7","B2","batch2","","null","<p class=block-text>Trial 12 out of 78</p>","null","pattern_show_trial_num","","","","","","","","","","","","","","","","","","","","","","","","",""
"","","","","","image-keyboard-response","44","134340","0.0-2.0-5.0-1.11","5eb272fe56dba91c3f2f0ab7","B2","batch2","","6367.400000035763","stim/no_49_2_b.png","j","pattern_response","true","j","pattern_29","6367.400000035763","true","11","","","","","","","","","","","","","","","","","","",""
"","","","","","html-keyboard-response","45","135663","0.0-2.0-5.0-0.12","5eb272fe56dba91c3f2f0ab7","B2","batch2","","null","<p class=block-text>Trial 13 out of 78</p>","null","pattern_show_trial_num","","","","","","","","","","","","","","","","","","","","","","","","",""
"","","","","","image-keyboard-response","46","136554","0.0-2.0-5.0-1.12","5eb272fe56dba91c3f2f0ab7","B2","batch2","","886","stim/yes_33_dia_w1_w.png","f","pattern_response","true","f","pattern_56","886","true","12","","","","","","","","","","","","","","","","","","",""
"","","","","","html-keyboard-response","47","137871","0.0-2.0-5.0-0.13","5eb272fe56dba91c3f2f0ab7","B2","batch2","","null","<p class=block-text>Trial 14 out of 78</p>","null","pattern_show_trial_num","","","","","","","","","","","","","","","","","","","","","","","","",""
"","","","","","image-keyboard-response","48","145540","0.0-2.0-5.0-1.13","5eb272fe56dba91c3f2f0ab7","B2","batch2","","7663.699999988079","stim/yes_58_dia_w1_w.png","j","pattern_response","false","f","pattern_76","7663.699999988079","false","12","","","","","","","","","","","","","","","","","","",""
"","","","","","html-keyboard-response","49","146856","0.0-2.0-5.0-0.14","5eb272fe56dba91c3f2f0ab7","B2","batch2","","null","<p class=block-text>Trial 15 out of 78</p>","null","pattern_show_trial_num","","","","","","","","","","","","","","","","","","","","","","","","",""
"","","","","","image-keyboard-response","50","150034","0.0-2.0-5.0-1.14","5eb272fe56dba91c3f2f0ab7","B2","batch2","","3170.5","stim/no_30_1_b.png","j","pattern_response","true","j","pattern_13","3170.5","true","13","","","","","","","","","","","","","","","","","","",""
"","","","","","html-keyboard-response","51","151350","0.0-2.0-5.0-0.15","5eb272fe56dba91c3f2f0ab7","B2","batch2","","null","<p class=block-text>Trial 16 out of 78</p>","null","pattern_show_trial_num","","","","","","","","","","","","","","","","","","","","","","","","",""
"","","","","","image-keyboard-response","52","152226","0.0-2.0-5.0-1.15","5eb272fe56dba91c3f2f0ab7","B2","batch2","","870.9000000357628","stim/yes_29_hor_b1_b.png","f","pattern_response","true","f","pattern_52","870.9000000357628","true","14","","","","","","","","","","","","","","","","","","",""
"","","","","","html-keyboard-response","53","153540","0.0-2.0-5.0-0.16","5eb272fe56dba91c3f2f0ab7","B2","batch2","","null","<p class=block-text>Trial 17 out of 78</p>","null","pattern_show_trial_num","","","","","","","","","","","","","","","","","","","","","","","","",""
"","","","","","image-keyboard-response","54","156108","0.0-2.0-5.0-1.16","5eb272fe56dba91c3f2f0ab7","B2","batch2","","2561.300000011921","stim/yes_46_ver_b1_b.png","f","pattern_response","true","f","pattern_68","2561.300000011921","true","15","","","","","","","","","","","","","","","","","","",""
"","","","","","html-keyboard-response","55","157422","0.0-2.0-5.0-0.17","5eb272fe56dba91c3f2f0ab7","B2","batch2","","null","<p class=block-text>Trial 18 out of 78</p>","null","pattern_show_trial_num","","","","","","","","","","","","","","","","","","","","","","","","",""
"","","","","","image-keyboard-response","56","161243","0.0-2.0-5.0-1.17","5eb272fe56dba91c3f2f0ab7","B2","batch2","","3815","stim/no_33_1_b.png","j","pattern_response","true","j","pattern_15","3815","true","16","","","","","","","","","","","","","","","","","","",""
"","","","","","html-keyboard-response","57","162561","0.0-2.0-5.0-0.18","5eb272fe56dba91c3f2f0ab7","B2","batch2","","null","<p class=block-text>Trial 19 out of 78</p>","null","pattern_show_trial_num","","","","","","","","","","","","","","","","","","","","","","","","",""
"","","","","","image-keyboard-response","58","166693","0.0-2.0-5.0-1.18","5eb272fe56dba91c3f2f0ab7","B2","batch2","","4126.400000035763","stim/no_43_2_b.png","j","pattern_response","true","j","pattern_23","4126.400000035763","true","17","","","","","","","","","","","","","","","","","","",""
"","","","","","html-keyboard-response","59","168016","0.0-2.0-5.0-0.19","5eb272fe56dba91c3f2f0ab7","B2","batch2","","null","<p class=block-text>Trial 20 out of 78</p>","null","pattern_show_trial_num","","","","","","","","","","","","","","","","","","","","","","","","",""
"","","","","","image-keyboard-response","60","172827","0.0-2.0-5.0-1.19","5eb272fe56dba91c3f2f0ab7","B2","batch2","","4803.899999976158","stim/no_39_1_w.png","j","pattern_response","true","j","pattern_21","4803.899999976158","true","18","","","","","","","","","","","","","","","","","","",""
"","","","","","html-keyboard-response","61","174146","0.0-2.0-5.0-0.20","5eb272fe56dba91c3f2f0ab7","B2","batch2","","null","<p class=block-text>Trial 21 out of 78</p>","null","pattern_show_trial_num","","","","","","","","","","","","","","","","","","","","","","","","",""
"","","","","","image-keyboard-response","62","175220","0.0-2.0-5.0-1.20","5eb272fe56dba91c3f2f0ab7","B2","batch2","","1071.4000000357628","stim/no_15_1_w.png","j","pattern_response","true","j","pattern_03","1071.4000000357628","true","19","","","","","","","","","","","","","","","","","","",""
"","","","","","html-keyboard-response","63","176539","0.0-2.0-5.0-0.21","5eb272fe56dba91c3f2f0ab7","B2","batch2","","null","<p class=block-text>Trial 22 out of 78</p>","null","pattern_show_trial_num","","","","","","","","","","","","","","","","","","","","","","","","",""
"","","","","","image-keyboard-response","64","177293","0.0-2.0-5.0-1.21","5eb272fe56dba91c3f2f0ab7","B2","batch2","","747.5999999642372","stim/yes_17_ver_b1_b.png","f","pattern_response","true","f","pattern_46","747.5999999642372","true","20","","","","","","","","","","","","","","","","","","",""
"","","","","","html-keyboard-response","65","178607","0.0-2.0-5.0-0.22","5eb272fe56dba91c3f2f0ab7","B2","batch2","","null","<p class=block-text>Trial 23 out of 78</p>","null","pattern_show_trial_num","","","","","","","","","","","","","","","","","","","","","","","","",""
"","","","","","image-keyboard-response","66","182491","0.0-2.0-5.0-1.22","5eb272fe56dba91c3f2f0ab7","B2","batch2","","3879.7000000476837","stim/no_45_1_w.png","j","pattern_response","true","j","pattern_25","3879.7000000476837","true","21","","","","","","","","","","","","","","","","","","",""
"","","","","","html-keyboard-response","67","183808","0.0-2.0-5.0-0.23","5eb272fe56dba91c3f2f0ab7","B2","batch2","","null","<p class=block-text>Trial 24 out of 78</p>","null","pattern_show_trial_num","","","","","","","","","","","","","","","","","","","","","","","","",""
"","","","","","image-keyboard-response","68","185554","0.0-2.0-5.0-1.23","5eb272fe56dba91c3f2f0ab7","B2","batch2","","1739.5999999642372","stim/yes_30_ver_b1_b.png","f","pattern_response","true","f","pattern_54","1739.5999999642372","true","22","","","","","","","","","","","","","","","","","","",""
"","","","","","html-keyboard-response","69","186867","0.0-2.0-5.0-0.24","5eb272fe56dba91c3f2f0ab7","B2","batch2","","null","<p class=block-text>Trial 25 out of 78</p>","null","pattern_show_trial_num","","","","","","","","","","","","","","","","","","","","","","","","",""
"","","","","","image-keyboard-response","70","187572","0.0-2.0-5.0-1.24","5eb272fe56dba91c3f2f0ab7","B2","batch2","","699.6000000238419","stim/yes_12_hor_w1_w.png","f","pattern_response","true","f","pattern_42","699.6000000238419","true","23","","","","","","","","","","","","","","","","","","",""
"","","","","","html-keyboard-response","71","188880","0.0-2.0-5.0-0.25","5eb272fe56dba91c3f2f0ab7","B2","batch2","","null","<p class=block-text>Trial 26 out of 78</p>","null","pattern_show_trial_num","","","","","","","","","","","","","","","","","","","","","","","","",""
"","","","","","image-keyboard-response","72","193891","0.0-2.0-5.0-1.25","5eb272fe56dba91c3f2f0ab7","B2","batch2","","5005.800000011921","stim/yes_63_dia_b1.png","f","pattern_response","true","f","pattern_78","5005.800000011921","true","24","","","","","","","","","","","","","","","","","","",""
"","","","","","html-keyboard-response","73","195213","0.0-2.0-5.0-0.26","5eb272fe56dba91c3f2f0ab7","B2","batch2","","null","<p class=block-text>Trial 27 out of 78</p>","null","pattern_show_trial_num","","","","","","","","","","","","","","","","","","","","","","","","",""
"","","","","","image-keyboard-response","74","196211","0.0-2.0-5.0-1.26","5eb272fe56dba91c3f2f0ab7","B2","batch2","","992.0999999642372","stim/yes_39_hor_w1_w.png","f","pattern_response","true","f","pattern_62","992.0999999642372","true","25","","","","","","","","","","","","","","","","","","",""
"","","","","","html-keyboard-response","75","197523","0.0-2.0-5.0-0.27","5eb272fe56dba91c3f2f0ab7","B2","batch2","","null","<p class=block-text>Trial 28 out of 78</p>","null","pattern_show_trial_num","","","","","","","","","","","","","","","","","","","","","","","","",""
"","","","","","image-keyboard-response","76","203093","0.0-2.0-5.0-1.27","5eb272fe56dba91c3f2f0ab7","B2","batch2","","5563.899999976158","stim/no_58_1_w.png","j","pattern_response","true","j","pattern_35","5563.899999976158","true","26","","","","","","","","","","","","","","","","","","",""
"","","","","","html-keyboard-response","77","204399","0.0-2.0-5.0-0.28","5eb272fe56dba91c3f2f0ab7","B2","batch2","","null","<p class=block-text>Trial 29 out of 78</p>","null","pattern_show_trial_num","","","","","","","","","","","","","","","","","","","","","","","","",""
"","","","","","image-keyboard-response","78","205144","0.0-2.0-5.0-1.28","5eb272fe56dba91c3f2f0ab7","B2","batch2","","739","stim/yes_23_ver_b1.png","f","pattern_response","true","f","pattern_48","739","true","27","","","","","","","","","","","","","","","","","","",""
"","","","","","html-keyboard-response","79","206462","0.0-2.0-5.0-0.29","5eb272fe56dba91c3f2f0ab7","B2","batch2","","null","<p class=block-text>Trial 30 out of 78</p>","null","pattern_show_trial_num","","","","","","","","","","","","","","","","","","","","","","","","",""
"","","","","","image-keyboard-response","80","207075","0.0-2.0-5.0-1.29","5eb272fe56dba91c3f2f0ab7","B2","batch2","","610.8999999761581","stim/yes_44_ver_w1_w.png","f","pattern_response","true","f","pattern_66","610.8999999761581","true","28","","","","","","","","","","","","","","","","","","",""
"","","","","","html-keyboard-response","81","208387","0.0-2.0-5.0-0.30","5eb272fe56dba91c3f2f0ab7","B2","batch2","","null","<p class=block-text>Trial 31 out of 78</p>","null","pattern_show_trial_num","","","","","","","","","","","","","","","","","","","","","","","","",""
"","","","","","image-keyboard-response","82","209123","0.0-2.0-5.0-1.30","5eb272fe56dba91c3f2f0ab7","B2","batch2","","730.9000000357628","stim/no_18_1_b.png","j","pattern_response","true","j","pattern_05","730.9000000357628","true","29","","","","","","","","","","","","","","","","","","",""
"","","","","","html-keyboard-response","83","210440","0.0-2.0-5.0-0.31","5eb272fe56dba91c3f2f0ab7","B2","batch2","","null","<p class=block-text>Trial 32 out of 78</p>","null","pattern_show_trial_num","","","","","","","","","","","","","","","","","","","","","","","","",""
"","","","","","image-keyboard-response","84","211314","0.0-2.0-5.0-1.31","5eb272fe56dba91c3f2f0ab7","B2","batch2","","869.3000000119209","stim/yes_51_dia_b1.png","f","pattern_response","true","f","pattern_72","869.3000000119209","true","30","","","","","","","","","","","","","","","","","","",""
"","","","","","html-keyboard-response","85","212627","0.0-2.0-5.0-0.32","5eb272fe56dba91c3f2f0ab7","B2","batch2","","null","<p class=block-text>Trial 33 out of 78</p>","null","pattern_show_trial_num","","","","","","","","","","","","","","","","","","","","","","","","",""
"","","","","","image-keyboard-response","86","215277","0.0-2.0-5.0-1.32","5eb272fe56dba91c3f2f0ab7","B2","batch2","","2644.199999988079","stim/yes_53_ver_b1_b.png","f","pattern_response","true","f","pattern_74","2644.199999988079","true","31","","","","","","","","","","","","","","","","","","",""
"","","","","","html-keyboard-response","87","216594","0.0-2.0-5.0-0.33","5eb272fe56dba91c3f2f0ab7","B2","batch2","","null","<p class=block-text>Trial 34 out of 78</p>","null","pattern_show_trial_num","","","","","","","","","","","","","","","","","","","","","","","","",""
"","","","","","image-keyboard-response","88","217759","0.0-2.0-5.0-1.33","5eb272fe56dba91c3f2f0ab7","B2","batch2","","1160.800000011921","stim/no_25_1_b.png","j","pattern_response","true","j","pattern_09","1160.800000011921","true","32","","","","","","","","","","","","","","","","","","",""
"","","","","","html-keyboard-response","89","219083","0.0-2.0-5.0-0.34","5eb272fe56dba91c3f2f0ab7","B2","batch2","","null","<p class=block-text>Trial 35 out of 78</p>","null","pattern_show_trial_num","","","","","","","","","","","","","","","","","","","","","","","","",""
"","","","","","image-keyboard-response","90","219795","0.0-2.0-5.0-1.34","5eb272fe56dba91c3f2f0ab7","B2","batch2","","706.6999999880791","stim/yes_15_dia_b1u_b.png","f","pattern_response","true","f","pattern_44","706.6999999880791","true","33","","","","","","","","","","","","","","","","","","",""
"","","","","","html-keyboard-response","91","221107","0.0-2.0-5.0-0.35","5eb272fe56dba91c3f2f0ab7","B2","batch2","","null","<p class=block-text>Trial 36 out of 78</p>","null","pattern_show_trial_num","","","","","","","","","","","","","","","","","","","","","","","","",""
"","","","","","image-keyboard-response","92","224188","0.0-2.0-5.0-1.35","5eb272fe56dba91c3f2f0ab7","B2","batch2","","3075.199999988079","stim/yes_42_dia_w1_w.png","j","pattern_response","false","f","pattern_64","3075.199999988079","false","33","","","","","","","","","","","","","","","","","","",""
"","","","","","html-keyboard-response","93","225502","0.0-2.0-5.0-0.36","5eb272fe56dba91c3f2f0ab7","B2","batch2","","null","<p class=block-text>Trial 37 out of 78</p>","null","pattern_show_trial_num","","","","","","","","","","","","","","","","","","","","","","","","",""
"","","","","","image-keyboard-response","94","229836","0.0-2.0-5.0-1.36","5eb272fe56dba91c3f2f0ab7","B2","batch2","","4328.300000011921","stim/no_53_1_b.png","j","pattern_response","true","j","pattern_33","4328.300000011921","true","34","","","","","","","","","","","","","","","","","","",""
"","","","","","html-keyboard-response","95","231164","0.0-2.0-5.0-0.37","5eb272fe56dba91c3f2f0ab7","B2","batch2","","null","<p class=block-text>Trial 38 out of 78</p>","null","pattern_show_trial_num","","","","","","","","","","","","","","","","","","","","","","","","",""
"","","","","","image-keyboard-response","96","232667","0.0-2.0-5.0-1.37","5eb272fe56dba91c3f2f0ab7","B2","batch2","","1495.300000011921","stim/no_22_1_b.png","j","pattern_response","true","j","pattern_07","1495.300000011921","true","35","","","","","","","","","","","","","","","","","","",""
"","","","","","html-keyboard-response","97","233969","0.0-2.0-5.0-0.38","5eb272fe56dba91c3f2f0ab7","B2","batch2","","null","<p class=block-text>Trial 39 out of 78</p>","null","pattern_show_trial_num","","","","","","","","","","","","","","","","","","","","","","","","",""
"","","","","","image-keyboard-response","98","234968","0.0-2.0-5.0-1.38","5eb272fe56dba91c3f2f0ab7","B2","batch2","","993.8000000119209","stim/yes_37_hor_w1_w.png","f","pattern_response","true","f","pattern_60","993.8000000119209","true","36","","","","","","","","","","","","","","","","","","",""
"","","","","","image-keyboard-response","99","237236","0.0-2.0-6.0","5eb272fe56dba91c3f2f0ab7","B2","batch2","","1759.4000000357628","stim/empty_board.png","j","attention_check","true","j","","","","","500","[""f"",""j""]","","","","","","","","","","","","","","","","",""
"","","","","","html-keyboard-response","100","238053","0.0-2.0-7.0-0.0","5eb272fe56dba91c3f2f0ab7","B2","batch2","","null","<p class=block-text>Trial 40 out of 78</p>","null","pattern_show_trial_num","","","","","","","","","","","","","","","","","","","","","","","","",""
"","","","","","image-keyboard-response","101","241785","0.0-2.0-7.0-1.0","5eb272fe56dba91c3f2f0ab7","B2","batch2","","3727.800000011921","stim/yes_37_dia_w1.png","j","pattern_response","false","f","pattern_59","3727.800000011921","false","36","","","","","","","","","","","","","","","","","","",""
"","","","","","html-keyboard-response","102","243098","0.0-2.0-7.0-0.1","5eb272fe56dba91c3f2f0ab7","B2","batch2","","null","<p class=block-text>Trial 41 out of 78</p>","null","pattern_show_trial_num","","","","","","","","","","","","","","","","","","","","","","","","",""
"","","","","","image-keyboard-response","103","245410","0.0-2.0-7.0-1.1","5eb272fe56dba91c3f2f0ab7","B2","batch2","","2309.399999976158","stim/no_13_2_b.png","j","pattern_response","true","j","pattern_02","2309.399999976158","true","37","","","","","","","","","","","","","","","","","","",""
"","","","","","html-keyboard-response","104","246723","0.0-2.0-7.0-0.2","5eb272fe56dba91c3f2f0ab7","B2","batch2","","null","<p class=block-text>Trial 42 out of 78</p>","null","pattern_show_trial_num","","","","","","","","","","","","","","","","","","","","","","","","",""
"","","","","","image-keyboard-response","105","247770","0.0-2.0-7.0-1.2","5eb272fe56dba91c3f2f0ab7","B2","batch2","","1041.8999999761581","stim/yes_55_hor_w1_w.png","f","pattern_response","true","f","pattern_75","1041.8999999761581","true","38","","","","","","","","","","","","","","","","","","",""
"","","","","","html-keyboard-response","106","249082","0.0-2.0-7.0-0.3","5eb272fe56dba91c3f2f0ab7","B2","batch2","","null","<p class=block-text>Trial 43 out of 78</p>","null","pattern_show_trial_num","","","","","","","","","","","","","","","","","","","","","","","","",""
"","","","","","image-keyboard-response","107","252421","0.0-2.0-7.0-1.3","5eb272fe56dba91c3f2f0ab7","B2","batch2","","3333.899999976158","stim/yes_60_ver_b1_b.png","f","pattern_response","true","f","pattern_77","3333.899999976158","true","39","","","","","","","","","","","","","","","","","","",""
"","","","","","html-keyboard-response","108","253741","0.0-2.0-7.0-0.4","5eb272fe56dba91c3f2f0ab7","B2","batch2","","null","<p class=block-text>Trial 44 out of 78</p>","null","pattern_show_trial_num","","","","","","","","","","","","","","","","","","","","","","","","",""
"","","","","","image-keyboard-response","109","257506","0.0-2.0-7.0-1.4","5eb272fe56dba91c3f2f0ab7","B2","batch2","","3759.7999999523163","stim/yes_67_hor_b1.png","f","pattern_response","true","f","pattern_79","3759.7999999523163","true","40","","","","","","","","","","","","","","","","","","",""
"","","","","","html-keyboard-response","110","258824","0.0-2.0-7.0-0.5","5eb272fe56dba91c3f2f0ab7","B2","batch2","","null","<p class=block-text>Trial 45 out of 78</p>","null","pattern_show_trial_num","","","","","","","","","","","","","","","","","","","","","","","","",""
"","","","","","image-keyboard-response","111","260498","0.0-2.0-7.0-1.5","5eb272fe56dba91c3f2f0ab7","B2","batch2","","1667.9000000357628","stim/yes_45_hor_b2_b.png","f","pattern_response","true","f","pattern_67","1667.9000000357628","true","41","","","","","","","","","","","","","","","","","","",""
"","","","","","html-keyboard-response","112","261822","0.0-2.0-7.0-0.6","5eb272fe56dba91c3f2f0ab7","B2","batch2","","null","<p class=block-text>Trial 46 out of 78</p>","null","pattern_show_trial_num","","","","","","","","","","","","","","","","","","","","","","","","",""
"","","","","","image-keyboard-response","113","263997","0.0-2.0-7.0-1.6","5eb272fe56dba91c3f2f0ab7","B2","batch2","","2169.2999999523163","stim/no_32_1_w.png","j","pattern_response","true","j","pattern_14","2169.2999999523163","true","42","","","","","","","","","","","","","","","","","","",""
"","","","","","html-keyboard-response","114","265318","0.0-2.0-7.0-0.7","5eb272fe56dba91c3f2f0ab7","B2","batch2","","null","<p class=block-text>Trial 47 out of 78</p>","null","pattern_show_trial_num","","","","","","","","","","","","","","","","","","","","","","","","",""
"","","","","","image-keyboard-response","115","269778","0.0-2.0-7.0-1.7","5eb272fe56dba91c3f2f0ab7","B2","batch2","","4454.800000011921","stim/no_50_1.png","j","pattern_response","true","j","pattern_30","4454.800000011921","true","43","","","","","","","","","","","","","","","","","","",""
"","","","","","html-keyboard-response","116","271095","0.0-2.0-7.0-0.8","5eb272fe56dba91c3f2f0ab7","B2","batch2","","null","<p class=block-text>Trial 48 out of 78</p>","null","pattern_show_trial_num","","","","","","","","","","","","","","","","","","","","","","","","",""
"","","","","","image-keyboard-response","117","277867","0.0-2.0-7.0-1.8","5eb272fe56dba91c3f2f0ab7","B2","batch2","","6766.300000011921","stim/no_62_1_w.png","j","pattern_response","true","j","pattern_36","6766.300000011921","true","44","","","","","","","","","","","","","","","","","","",""
"","","","","","html-keyboard-response","118","279186","0.0-2.0-7.0-0.9","5eb272fe56dba91c3f2f0ab7","B2","batch2","","null","<p class=block-text>Trial 49 out of 78</p>","null","pattern_show_trial_num","","","","","","","","","","","","","","","","","","","","","","","","",""
"","","","","","image-keyboard-response","119","282619","0.0-2.0-7.0-1.9","5eb272fe56dba91c3f2f0ab7","B2","batch2","","3428.099999964237","stim/yes_50_dia_w1.png","f","pattern_response","true","f","pattern_71","3428.099999964237","true","45","","","","","","","","","","","","","","","","","","",""
"","","","","","html-keyboard-response","120","283937","0.0-2.0-7.0-0.10","5eb272fe56dba91c3f2f0ab7","B2","batch2","","null","<p class=block-text>Trial 50 out of 78</p>","null","pattern_show_trial_num","","","","","","","","","","","","","","","","","","","","","","","","",""
"","","","","","image-keyboard-response","121","285723","0.0-2.0-7.0-1.10","5eb272fe56dba91c3f2f0ab7","B2","batch2","","1777.699999988079","stim/yes_38_hor_b1_b.png","f","pattern_response","true","f","pattern_61","1777.699999988079","true","46","","","","","","","","","","","","","","","","","","",""
"","","","","","html-keyboard-response","122","287044","0.0-2.0-7.0-0.11","5eb272fe56dba91c3f2f0ab7","B2","batch2","","null","<p class=block-text>Trial 51 out of 78</p>","null","pattern_show_trial_num","","","","","","","","","","","","","","","","","","","","","","","","",""
"","","","","","image-keyboard-response","123","288123","0.0-2.0-7.0-1.11","5eb272fe56dba91c3f2f0ab7","B2","batch2","","1075","stim/yes_28_ver_b1.png","f","pattern_response","true","f","pattern_51","1075","true","47","","","","","","","","","","","","","","","","","","",""
"","","","","","html-keyboard-response","124","289438","0.0-2.0-7.0-0.12","5eb272fe56dba91c3f2f0ab7","B2","batch2","","null","<p class=block-text>Trial 52 out of 78</p>","null","pattern_show_trial_num","","","","","","","","","","","","","","","","","","","","","","","","",""
"","","","","","image-keyboard-response","125","291042","0.0-2.0-7.0-1.12","5eb272fe56dba91c3f2f0ab7","B2","batch2","","1598.3999999761581","stim/no_26_1_w.png","j","pattern_response","true","j","pattern_10","1598.3999999761581","true","48","","","","","","","","","","","","","","","","","","",""
"","","","","","html-keyboard-response","126","292355","0.0-2.0-7.0-0.13","5eb272fe56dba91c3f2f0ab7","B2","batch2","","null","<p class=block-text>Trial 53 out of 78</p>","null","pattern_show_trial_num","","","","","","","","","","","","","","","","","","","","","","","","",""
"","","","","","image-keyboard-response","127","293098","0.0-2.0-7.0-1.13","5eb272fe56dba91c3f2f0ab7","B2","batch2","","735.3999999761581","stim/yes_29_ver_w1.png","f","pattern_response","true","f","pattern_53","735.3999999761581","true","49","","","","","","","","","","","","","","","","","","",""
"","","","","","html-keyboard-response","128","294420","0.0-2.0-7.0-0.14","5eb272fe56dba91c3f2f0ab7","B2","batch2","","null","<p class=block-text>Trial 54 out of 78</p>","null","pattern_show_trial_num","","","","","","","","","","","","","","","","","","","","","","","","",""
"","","","","","image-keyboard-response","129","295506","0.0-2.0-7.0-1.14","5eb272fe56dba91c3f2f0ab7","B2","batch2","","1080.800000011921","stim/yes_43_ver_w1_w.png","f","pattern_response","true","f","pattern_65","1080.800000011921","true","50","","","","","","","","","","","","","","","","","","",""
"","","","","","html-keyboard-response","130","296822","0.0-2.0-7.0-0.15","5eb272fe56dba91c3f2f0ab7","B2","batch2","","null","<p class=block-text>Trial 55 out of 78</p>","null","pattern_show_trial_num","","","","","","","","","","","","","","","","","","","","","","","","",""
"","","","","","image-keyboard-response","131","300284","0.0-2.0-7.0-1.15","5eb272fe56dba91c3f2f0ab7","B2","batch2","","3456.399999976158","stim/no_42_1_w.png","j","pattern_response","true","j","pattern_22","3456.399999976158","true","51","","","","","","","","","","","","","","","","","","",""
"","","","","","html-keyboard-response","132","301602","0.0-2.0-7.0-0.16","5eb272fe56dba91c3f2f0ab7","B2","batch2","","null","<p class=block-text>Trial 56 out of 78</p>","null","pattern_show_trial_num","","","","","","","","","","","","","","","","","","","","","","","","",""
"","","","","","image-keyboard-response","133","302521","0.0-2.0-7.0-1.16","5eb272fe56dba91c3f2f0ab7","B2","batch2","","918.1000000238419","stim/yes_52_ver_w1.png","f","pattern_response","true","f","pattern_73","918.1000000238419","true","52","","","","","","","","","","","","","","","","","","",""
"","","","","","html-keyboard-response","134","303838","0.0-2.0-7.0-0.17","5eb272fe56dba91c3f2f0ab7","B2","batch2","","null","<p class=block-text>Trial 57 out of 78</p>","null","pattern_show_trial_num","","","","","","","","","","","","","","","","","","","","","","","","",""
"","","","","","image-keyboard-response","135","306866","0.0-2.0-7.0-1.17","5eb272fe56dba91c3f2f0ab7","B2","batch2","","3021.800000011921","stim/no_29_1_b.png","j","pattern_response","true","j","pattern_12","3021.800000011921","true","53","","","","","","","","","","","","","","","","","","",""
"","","","","","html-keyboard-response","136","308184","0.0-2.0-7.0-0.18","5eb272fe56dba91c3f2f0ab7","B2","batch2","","null","<p class=block-text>Trial 58 out of 78</p>","null","pattern_show_trial_num","","","","","","","","","","","","","","","","","","","","","","","","",""
"","","","","","image-keyboard-response","137","309226","0.0-2.0-7.0-1.18","5eb272fe56dba91c3f2f0ab7","B2","batch2","","1036.6000000238419","stim/yes_25_hor_b1_b.png","f","pattern_response","true","f","pattern_49","1036.6000000238419","true","54","","","","","","","","","","","","","","","","","","",""
"","","","","","html-keyboard-response","138","310542","0.0-2.0-7.0-0.19","5eb272fe56dba91c3f2f0ab7","B2","batch2","","null","<p class=block-text>Trial 59 out of 78</p>","null","pattern_show_trial_num","","","","","","","","","","","","","","","","","","","","","","","","",""
"","","","","","image-keyboard-response","139","317811","0.0-2.0-7.0-1.19","5eb272fe56dba91c3f2f0ab7","B2","batch2","","7263.899999976158","stim/no_65_1_b.png","j","pattern_response","true","j","pattern_38","7263.899999976158","true","55","","","","","","","","","","","","","","","","","","",""
"","","","","","html-keyboard-response","140","319134","0.0-2.0-7.0-0.20","5eb272fe56dba91c3f2f0ab7","B2","batch2","","null","<p class=block-text>Trial 60 out of 78</p>","null","pattern_show_trial_num","","","","","","","","","","","","","","","","","","","","","","","","",""
"","","","","","image-keyboard-response","141","322346","0.0-2.0-7.0-1.20","5eb272fe56dba91c3f2f0ab7","B2","batch2","","3205.7000000476837","stim/no_44_1.png","j","pattern_response","true","j","pattern_24","3205.7000000476837","true","56","","","","","","","","","","","","","","","","","","",""
"","","","","","html-keyboard-response","142","323656","0.0-2.0-7.0-0.21","5eb272fe56dba91c3f2f0ab7","B2","batch2","","null","<p class=block-text>Trial 61 out of 78</p>","null","pattern_show_trial_num","","","","","","","","","","","","","","","","","","","","","","","","",""
"","","","","","image-keyboard-response","143","327035","0.0-2.0-7.0-1.21","5eb272fe56dba91c3f2f0ab7","B2","batch2","","3371.199999988079","stim/no_34_1_b.png","j","pattern_response","true","j","pattern_16","3371.199999988079","true","57","","","","","","","","","","","","","","","","","","",""
"","","","","","html-keyboard-response","144","328344","0.0-2.0-7.0-0.22","5eb272fe56dba91c3f2f0ab7","B2","batch2","","null","<p class=block-text>Trial 62 out of 78</p>","null","pattern_show_trial_num","","","","","","","","","","","","","","","","","","","","","","","","",""
"","","","","","image-keyboard-response","145","330067","0.0-2.0-7.0-1.22","5eb272fe56dba91c3f2f0ab7","B2","batch2","","1718.199999988079","stim/yes_48_dia_w1_w.png","f","pattern_response","true","f","pattern_69","1718.199999988079","true","58","","","","","","","","","","","","","","","","","","",""
"","","","","","html-keyboard-response","146","331382","0.0-2.0-7.0-0.23","5eb272fe56dba91c3f2f0ab7","B2","batch2","","null","<p class=block-text>Trial 63 out of 78</p>","null","pattern_show_trial_num","","","","","","","","","","","","","","","","","","","","","","","","",""
"","","","","","image-keyboard-response","147","332659","0.0-2.0-7.0-1.23","5eb272fe56dba91c3f2f0ab7","B2","batch2","","1271.199999988079","stim/yes_17_dia_w1.png","f","pattern_response","true","f","pattern_45","1271.199999988079","true","59","","","","","","","","","","","","","","","","","","",""
"","","","","","html-keyboard-response","148","333980","0.0-2.0-7.0-0.24","5eb272fe56dba91c3f2f0ab7","B2","batch2","","null","<p class=block-text>Trial 64 out of 78</p>","null","pattern_show_trial_num","","","","","","","","","","","","","","","","","","","","","","","","",""
"","","","","","image-keyboard-response","149","338105","0.0-2.0-7.0-1.24","5eb272fe56dba91c3f2f0ab7","B2","batch2","","4120.5","stim/no_48_1_w.png","j","pattern_response","true","j","pattern_28","4120.5","true","60","","","","","","","","","","","","","","","","","","",""
"","","","","","html-keyboard-response","150","339432","0.0-2.0-7.0-0.25","5eb272fe56dba91c3f2f0ab7","B2","batch2","","null","<p class=block-text>Trial 65 out of 78</p>","null","pattern_show_trial_num","","","","","","","","","","","","","","","","","","","","","","","","",""
"","","","","","image-keyboard-response","151","343372","0.0-2.0-7.0-1.25","5eb272fe56dba91c3f2f0ab7","B2","batch2","","3934.199999988079","stim/no_38_1_b.png","j","pattern_response","true","j","pattern_20","3934.199999988079","true","61","","","","","","","","","","","","","","","","","","",""
"","","","","","html-keyboard-response","152","344703","0.0-2.0-7.0-0.26","5eb272fe56dba91c3f2f0ab7","B2","batch2","","null","<p class=block-text>Trial 66 out of 78</p>","null","pattern_show_trial_num","","","","","","","","","","","","","","","","","","","","","","","","",""
"","","","","","image-keyboard-response","153","347371","0.0-2.0-7.0-1.26","5eb272fe56dba91c3f2f0ab7","B2","batch2","","2661.900000035763","stim/no_36_2_w.png","j","pattern_response","true","j","pattern_18","2661.900000035763","true","62","","","","","","","","","","","","","","","","","","",""
"","","","","","html-keyboard-response","154","348685","0.0-2.0-7.0-0.27","5eb272fe56dba91c3f2f0ab7","B2","batch2","","null","<p class=block-text>Trial 67 out of 78</p>","null","pattern_show_trial_num","","","","","","","","","","","","","","","","","","","","","","","","",""
"","","","","","image-keyboard-response","155","350458","0.0-2.0-7.0-1.27","5eb272fe56dba91c3f2f0ab7","B2","batch2","","1764.7000000476837","stim/yes_40_dia_b1_b.png","f","pattern_response","true","f","pattern_63","1764.7000000476837","true","63","","","","","","","","","","","","","","","","","","",""
"","","","","","html-keyboard-response","156","351767","0.0-2.0-7.0-0.28","5eb272fe56dba91c3f2f0ab7","B2","batch2","","null","<p class=block-text>Trial 68 out of 78</p>","null","pattern_show_trial_num","","","","","","","","","","","","","","","","","","","","","","","","",""
"","","","","","image-keyboard-response","157","353107","0.0-2.0-7.0-1.28","5eb272fe56dba91c3f2f0ab7","B2","batch2","","1334.2999999523163","stim/no_17_1_w.png","j","pattern_response","true","j","pattern_04","1334.2999999523163","true","64","","","","","","","","","","","","","","","","","","",""
"","","","","","html-keyboard-response","158","354429","0.0-2.0-7.0-0.29","5eb272fe56dba91c3f2f0ab7","B2","batch2","","null","<p class=block-text>Trial 69 out of 78</p>","null","pattern_show_trial_num","","","","","","","","","","","","","","","","","","","","","","","","",""
"","","","","","image-keyboard-response","159","355395","0.0-2.0-7.0-1.29","5eb272fe56dba91c3f2f0ab7","B2","batch2","","961","stim/yes_14_hor_b1_w.png","f","pattern_response","true","f","pattern_43","961","true","65","","","","","","","","","","","","","","","","","","",""
"","","","","","html-keyboard-response","160","356714","0.0-2.0-7.0-0.30","5eb272fe56dba91c3f2f0ab7","B2","batch2","","null","<p class=block-text>Trial 70 out of 78</p>","null","pattern_show_trial_num","","","","","","","","","","","","","","","","","","","","","","","","",""
"","","","","","image-keyboard-response","161","363419","0.0-2.0-7.0-1.30","5eb272fe56dba91c3f2f0ab7","B2","batch2","","6699.600000023842","stim/no_70_2.png","j","pattern_response","true","j","pattern_40","6699.600000023842","true","66","","","","","","","","","","","","","","","","","","",""
"","","","","","html-keyboard-response","162","364734","0.0-2.0-7.0-0.31","5eb272fe56dba91c3f2f0ab7","B2","batch2","","null","<p class=block-text>Trial 71 out of 78</p>","null","pattern_show_trial_num","","","","","","","","","","","","","","","","","","","","","","","","",""
"","","","","","image-keyboard-response","163","366084","0.0-2.0-7.0-1.31","5eb272fe56dba91c3f2f0ab7","B2","batch2","","1345.1000000238419","stim/no_23_1.png","j","pattern_response","true","j","pattern_08","1345.1000000238419","true","67","","","","","","","","","","","","","","","","","","",""
"","","","","","html-keyboard-response","164","367407","0.0-2.0-7.0-0.32","5eb272fe56dba91c3f2f0ab7","B2","batch2","","null","<p class=block-text>Trial 72 out of 78</p>","null","pattern_show_trial_num","","","","","","","","","","","","","","","","","","","","","","","","",""
"","","","","","image-keyboard-response","165","372786","0.0-2.0-7.0-1.32","5eb272fe56dba91c3f2f0ab7","B2","batch2","","5374.599999964237","stim/no_52_1.png","j","pattern_response","true","j","pattern_32","5374.599999964237","true","68","","","","","","","","","","","","","","","","","","",""
"","","","","","html-keyboard-response","166","374112","0.0-2.0-7.0-0.33","5eb272fe56dba91c3f2f0ab7","B2","batch2","","null","<p class=block-text>Trial 73 out of 78</p>","null","pattern_show_trial_num","","","","","","","","","","","","","","","","","","","","","","","","",""
"","","","","","image-keyboard-response","167","378499","0.0-2.0-7.0-1.33","5eb272fe56dba91c3f2f0ab7","B2","batch2","","4385.5","stim/no_46_1_b.png","j","pattern_response","true","j","pattern_26","4385.5","true","69","","","","","","","","","","","","","","","","","","",""
"","","","","","html-keyboard-response","168","379817","0.0-2.0-7.0-0.34","5eb272fe56dba91c3f2f0ab7","B2","batch2","","null","<p class=block-text>Trial 74 out of 78</p>","null","pattern_show_trial_num","","","","","","","","","","","","","","","","","","","","","","","","",""
"","","","","","image-keyboard-response","169","381268","0.0-2.0-7.0-1.34","5eb272fe56dba91c3f2f0ab7","B2","batch2","","1444.0999999642372","stim/no_20_1_w.png","j","pattern_response","true","j","pattern_06","1444.0999999642372","true","70","","","","","","","","","","","","","","","","","","",""
"","","","","","html-keyboard-response","170","382582","0.0-2.0-7.0-0.35","5eb272fe56dba91c3f2f0ab7","B2","batch2","","null","<p class=block-text>Trial 75 out of 78</p>","null","pattern_show_trial_num","","","","","","","","","","","","","","","","","","","","","","","","",""
"","","","","","image-keyboard-response","171","384569","0.0-2.0-7.0-1.35","5eb272fe56dba91c3f2f0ab7","B2","batch2","","1981.4000000357628","stim/yes_31_hor_b1.png","f","pattern_response","true","f","pattern_55","1981.4000000357628","true","71","","","","","","","","","","","","","","","","","","",""
"","","","","","html-keyboard-response","172","385882","0.0-2.0-7.0-0.36","5eb272fe56dba91c3f2f0ab7","B2","batch2","","null","<p class=block-text>Trial 76 out of 78</p>","null","pattern_show_trial_num","","","","","","","","","","","","","","","","","","","","","","","","",""
"","","","","","image-keyboard-response","173","394204","0.0-2.0-7.0-1.36","5eb272fe56dba91c3f2f0ab7","B2","batch2","","8317.100000023842","stim/no_55_1_w.png","j","pattern_response","true","j","pattern_34","8317.100000023842","true","72","","","","","","","","","","","","","","","","","","",""
"","","","","","html-keyboard-response","174","395522","0.0-2.0-7.0-0.37","5eb272fe56dba91c3f2f0ab7","B2","batch2","","null","<p class=block-text>Trial 77 out of 78</p>","null","pattern_show_trial_num","","","","","","","","","","","","","","","","","","","","","","","","",""
"","","","","","image-keyboard-response","175","398290","0.0-2.0-7.0-1.37","5eb272fe56dba91c3f2f0ab7","B2","batch2","","2762.699999988079","stim/yes_35_dia_b1.png","f","pattern_response","true","f","pattern_57","2762.699999988079","true","73","","","","","","","","","","","","","","","","","","",""
"","","","","","html-keyboard-response","176","399606","0.0-2.0-7.0-0.38","5eb272fe56dba91c3f2f0ab7","B2","batch2","","null","<p class=block-text>Trial 78 out of 78</p>","null","pattern_show_trial_num","","","","","","","","","","","","","","","","","","","","","","","","",""
"","","","","","image-keyboard-response","177","400315","0.0-2.0-7.0-1.38","5eb272fe56dba91c3f2f0ab7","B2","batch2","","704.6999999880791","stim/yes_22_ver_w1.png","f","pattern_response","true","f","pattern_47","704.6999999880791","true","74","","","","","","","","","","","","","","","","","","",""
"","","","","","html-button-response","178","404903","0.0-2.0-8.0","5eb272fe56dba91c3f2f0ab7","B2","batch2","","4071.2000000476837","<p class = block-text>This concludes the 4-in-a-row detection game.Thank you for your responses!<br>
            You responded correctly on 95% of the trials.<br>
            When you are ready, press ""Continue"" button to continue </p>","0","","","","","","","","","","","","","","","","","","","","","","","","","",""
"true","","","","","fullscreen","179","407580","0.0-3.0-0.0","5eb272fe56dba91c3f2f0ab7","B2","batch2","","","","","","","","","","","","","","","","","","","","","","","","","","","","","",""
"","","","","","instructions","180","449380","0.0-3.0-1.0-0.0-0.0","5eb272fe56dba91c3f2f0ab7","B2","batch2","[{""page_index"":0,""viewing_time"":8348.5},{""page_index"":1,""viewing_time"":4000.899999976158},{""page_index"":2,""viewing_time"":2495.900000035763},{""page_index"":3,""viewing_time"":4728.899999976158},{""page_index"":4,""viewing_time"":7689.100000023842},{""page_index"":3,""viewing_time"":6861.299999952316},{""page_index"":4,""viewing_time"":1509},{""page_index"":5,""viewing_time"":4248.800000011921},{""page_index"":6,""viewing_time"":1916.4000000357628}]","41798.89999997616","","","tol-instructions","","","","","","","","","","","","","","","","","","","","","","","","",""
"","","","","","html-button-response","181","450327","0.0-3.0-1.0-1.0-0.0","5eb272fe56dba91c3f2f0ab7","B2","batch2","","946","<p class=block-text> Let's answer a few questions <br>","0","tol_enter_quiz","","","","","","","","","","","","","","","","","","","","","","","","",""
"","","","","","html-button-response","182","452660","0.0-3.0-1.0-1.0-1.0","5eb272fe56dba91c3f2f0ab7","B2","batch2","","2332.199999988079","<p class = block-text>True or False: You can only move the ball on top of a peg. <br></p>","0","tol_quiz","true","","","","","","","","","","","","","","","","","","","","","","","",""
"","","","","","html-button-response","183","453773","0.0-3.0-1.0-1.0-2.0","5eb272fe56dba91c3f2f0ab7","B2","batch2","","1112.300000011921","<p class = block-text>Correct! You can only move the ball on top of a peg.</p>","0","tol_quiz_feedback","","","","","","","","","","","","","","","","","","","","","","","","",""
"","","","","","html-button-response","184","456041","0.0-3.0-1.0-1.0-3.0","5eb272fe56dba91c3f2f0ab7","B2","batch2","","2267.599999964237","<p class = block-text>True or False: You should try to match your board with the target board with fewest moves possible. <br></p>","0","tol_quiz","true","","","","","","","","","","","","","","","","","","","","","","","",""
"","","","","","html-button-response","185","456617","0.0-3.0-1.0-1.0-4.0","5eb272fe56dba91c3f2f0ab7","B2","batch2","","575.0999999642372","<p class = block-text>Correct! </p>","0","tol_quiz_feedback","","","","","","","","","","","","","","","","","","","","","","","","",""
"","","","","","html-button-response","186","458035","0.0-3.0-2.0","5eb272fe56dba91c3f2f0ab7","B2","batch2","","1417","<p class=block-text> Now that you've understood the game, let's practice a few easier examples before we start!<br> <br>","0","","","","","","","","","","","","","","","","","","","","","","","","","",""
"","","","","","single-stim-button","187","461056","0.0-3.0-3.0-0.0","5eb272fe56dba91c3f2f0ab7","B2","batch2","","3020","","","tol_practice","","","","","","","","","tol_peg_2","3020","3020","0","[[1,2,0],[0,0],[0]]","1","[[1,2,0],[0,0],[3]]","practice","3020","","","","","","","",""
"","","","","","single-stim-button","188","461934","0.0-3.0-3.0-1.0","5eb272fe56dba91c3f2f0ab7","B2","batch2","","877","","","tol_practice","","","","","","","","","tol_peg_3","877","877","0","[[1,2,0],[0,0],[3]]","1","[[1,2,0],[0,0],[3]]","practice","877","","","","","","","",""
"","","","","","poldrack-single-stim","189","462936","0.0-3.0-4.0","5eb272fe56dba91c3f2f0ab7","B2","batch2","","-1","","","tol_feedback","true","","","","","","","","","1000","1000","500","","","","","","-1","none","true","","0","","",""
"","","","","","single-stim-button","190","466360","0.0-3.0-5.0-0.0","5eb272fe56dba91c3f2f0ab7","B2","batch2","","3422","","","tol_practice","","","","","","","","","tol_peg_1","3422","3422","0","[[1,0,0],[3,0],[0]]","2","[[0,0,0],[3,1],[2]]","practice","3422","","","","","","","",""
"","","","","","single-stim-button","191","467169","0.0-3.0-5.0-1.0","5eb272fe56dba91c3f2f0ab7","B2","batch2","","808","","","tol_practice","","","","","","","","","tol_peg_3","808","808","0","[[1,0,0],[3,0],[2]]","2","[[0,0,0],[3,1],[2]]","practice","808","","","","","","","",""
"","","","","","single-stim-button","192","468012","0.0-3.0-5.1-0.1","5eb272fe56dba91c3f2f0ab7","B2","batch2","","842","","","tol_practice","","","","","","","","","tol_peg_1","842","842","0","[[0,0,0],[3,0],[2]]","3","[[0,0,0],[3,1],[2]]","practice","842","","","","","","","",""
"","","","","","single-stim-button","193","468769","0.0-3.0-5.1-1.1","5eb272fe56dba91c3f2f0ab7","B2","batch2","","756","","","tol_practice","","","","","","","","","tol_peg_2","756","756","0","[[0,0,0],[3,1],[2]]","3","[[0,0,0],[3,1],[2]]","practice","756","","","","","","","",""
"","","","","","poldrack-single-stim","194","469771","0.0-3.0-6.0","5eb272fe56dba91c3f2f0ab7","B2","batch2","","-1","","","tol_feedback","true","","","","","","","","","1000","1000","500","","","","","","-1","none","true","","0","","",""
"","","","","","single-stim-button","195","472699","0.0-3.0-7.0-0.0","5eb272fe56dba91c3f2f0ab7","B2","batch2","","2927","","","tol_practice","","","","","","","","","tol_peg_2","2927","2927","0","[[1,2,0],[0,0],[0]]","4","[[1,0,0],[2,0],[3]]","practice","2927","","","","","","","",""
"","","","","","single-stim-button","196","473226","0.0-3.0-7.0-1.0","5eb272fe56dba91c3f2f0ab7","B2","batch2","","527","","","tol_practice","","","","","","","","","tol_peg_3","527","527","0","[[1,2,0],[0,0],[3]]","4","[[1,0,0],[2,0],[3]]","practice","527","","","","","","","",""
"","","","","","single-stim-button","197","473934","0.0-3.0-7.1-0.1","5eb272fe56dba91c3f2f0ab7","B2","batch2","","707","","","tol_practice","","","","","","","","","tol_peg_1","707","707","0","[[1,0,0],[0,0],[3]]","5","[[1,0,0],[2,0],[3]]","practice","707","","","","","","","",""
"","","","","","single-stim-button","198","474534","0.0-3.0-7.1-1.1","5eb272fe56dba91c3f2f0ab7","B2","batch2","","598","","","tol_practice","","","","","","","","","tol_peg_2","598","598","0","[[1,0,0],[2,0],[3]]","5","[[1,0,0],[2,0],[3]]","practice","598","","","","","","","",""
"","","","","","poldrack-single-stim","199","475535","0.0-3.0-8.0","5eb272fe56dba91c3f2f0ab7","B2","batch2","","-1","","","tol_feedback","true","","","","","","","","","1000","1000","500","","","","","","-1","none","true","","0","","",""
"","","","","","html-button-response","200","477262","0.0-3.0-9.0","5eb272fe56dba91c3f2f0ab7","B2","batch2","","1726.699999988079","<div class = centerbox><p class = center-block-text>Great job! You are done with practice trials<br>You are about to start official trials.<br> <br> Problem <strong>1</strong> out of 25 problems</p></div>","0","tol_instruction","","","","","","","","","","","","","","","","","","","","","","","","",""
"","","","","","single-stim-button","201","483277","0.0-3.0-10.0-0.0","5eb272fe56dba91c3f2f0ab7","B2","batch2","","4999","","","tol_tohand","","","","","","","","","tol_peg_1","4999","4999","0","[[1,0,0],[3,0],[0]]","1","[[1,3,0],[2,0],[0]]","0","0","","","","","","3","",""
"","","","","","single-stim-button","202","486204","0.0-3.0-10.0-1.0","5eb272fe56dba91c3f2f0ab7","B2","batch2","","2926","","","tol_toboard","","","","","","","","","tol_peg_3","2926","2926","0","[[1,0,0],[3,0],[2]]","1","[[1,3,0],[2,0],[0]]","0","0","","","","","","3","",""
"","","","","","single-stim-button","203","488073","0.0-3.0-10.1-0.1","5eb272fe56dba91c3f2f0ab7","B2","batch2","","1868","","","tol_tohand","","","","","","","","","tol_peg_2","1868","1868","0","[[1,0,0],[0,0],[2]]","2","[[1,3,0],[2,0],[0]]","0","0","","","","","","3","",""
"","","","","","single-stim-button","204","488645","0.0-3.0-10.1-1.1","5eb272fe56dba91c3f2f0ab7","B2","batch2","","571","","","tol_toboard","","","","","","","","","tol_peg_1","571","571","0","[[1,3,0],[0,0],[2]]","2","[[1,3,0],[2,0],[0]]","0","0","","","","","","3","",""
"","","","","","single-stim-button","205","489260","0.0-3.0-10.2-0.2","5eb272fe56dba91c3f2f0ab7","B2","batch2","","615","","","tol_tohand","","","","","","","","","tol_peg_3","615","615","0","[[1,3,0],[0,0],[0]]","3","[[1,3,0],[2,0],[0]]","0","0","","","","","","3","",""
"","","","","","single-stim-button","206","489804","0.0-3.0-10.2-1.2","5eb272fe56dba91c3f2f0ab7","B2","batch2","","543","","","tol_toboard","","","","","","","","","tol_peg_2","543","543","0","[[1,3,0],[2,0],[0]]","3","[[1,3,0],[2,0],[0]]","0","0","","","","","","3","",""
"","","","","","poldrack-single-stim","207","490806","0.0-3.0-11.0","5eb272fe56dba91c3f2f0ab7","B2","batch2","","-1","","","tol_feedback","true","","","","","","","","","1000","1000","500","","","","","","-1","none","true","4999","7482","","",""
"","","","","","html-button-response","208","491588","0.0-3.0-12.0","5eb272fe56dba91c3f2f0ab7","B2","batch2","","780.8999999761581","<div class = centerbox><p class = center-block-text>problem <strong>2</strong> out of 25 problems</p></div>","0","tol_trial_num","","","","","","","","","","","","","","","","","","","","","","","","",""
"","","","","","single-stim-button","209","496908","0.0-3.0-13.0-0.0","5eb272fe56dba91c3f2f0ab7","B2","batch2","","5319","","","tol_tohand","","","","","","","","","tol_peg_1","5319","5319","0","[[1,0,0],[3,0],[0]]","1","[[2,1,3],[0,0],[0]]","1","0","","","","","","5","",""
"","","","","","single-stim-button","210","498669","0.0-3.0-13.0-1.0","5eb272fe56dba91c3f2f0ab7","B2","batch2","","1761","","","tol_toboard","","","","","","","","","tol_peg_2","1761","1761","0","[[1,0,0],[3,2],[0]]","1","[[2,1,3],[0,0],[0]]","1","0","","","","","","5","",""
"","","","","","single-stim-button","211","500268","0.0-3.0-13.1-0.1","5eb272fe56dba91c3f2f0ab7","B2","batch2","","1598","","","tol_tohand","","","","","","","","","tol_peg_2","1598","1598","0","[[1,0,0],[3,0],[0]]","2","[[2,1,3],[0,0],[0]]","1","0","","","","","","5","",""
"","","","","","single-stim-button","212","500772","0.0-3.0-13.1-1.1","5eb272fe56dba91c3f2f0ab7","B2","batch2","","503","","","tol_toboard","","","","","","","","","tol_peg_3","503","503","0","[[1,0,0],[3,0],[2]]","2","[[2,1,3],[0,0],[0]]","1","0","","","","","","5","",""
"","","","","","single-stim-button","213","501221","0.0-3.0-13.2-0.2","5eb272fe56dba91c3f2f0ab7","B2","batch2","","448","","","tol_tohand","","","","","","","","","tol_peg_2","448","448","0","[[1,0,0],[0,0],[2]]","3","[[2,1,3],[0,0],[0]]","1","0","","","","","","5","",""
"","","","","","single-stim-button","214","501925","0.0-3.0-13.2-1.2","5eb272fe56dba91c3f2f0ab7","B2","batch2","","704","","","tol_toboard","","","","","","","","","tol_peg_1","704","704","0","[[1,3,0],[0,0],[2]]","3","[[2,1,3],[0,0],[0]]","1","0","","","","","","5","",""
"","","","","","single-stim-button","215","503093","0.0-3.0-13.3-0.3","5eb272fe56dba91c3f2f0ab7","B2","batch2","","1167","","","tol_tohand","","","","","","","","","tol_peg_1","1167","1167","0","[[1,0,0],[0,0],[2]]","4","[[2,1,3],[0,0],[0]]","1","0","","","","","","5","",""
"","","","","","single-stim-button","216","503548","0.0-3.0-13.3-1.3","5eb272fe56dba91c3f2f0ab7","B2","batch2","","455","","","tol_toboard","","","","","","","","","tol_peg_2","455","455","0","[[1,0,0],[3,0],[2]]","4","[[2,1,3],[0,0],[0]]","1","0","","","","","","5","",""
"","","","","","single-stim-button","217","504695","0.0-3.0-13.4-0.4","5eb272fe56dba91c3f2f0ab7","B2","batch2","","1146","","","tol_tohand","","","","","","","","","tol_peg_1","1146","1146","0","[[0,0,0],[3,0],[2]]","5","[[2,1,3],[0,0],[0]]","1","0","","","","","","5","",""
"","","","","","single-stim-button","218","505191","0.0-3.0-13.4-1.4","5eb272fe56dba91c3f2f0ab7","B2","batch2","","496","","","tol_toboard","","","","","","","","","tol_peg_2","496","496","0","[[0,0,0],[3,1],[2]]","5","[[2,1,3],[0,0],[0]]","1","0","","","","","","5","",""
"","","","","","single-stim-button","219","505546","0.0-3.0-13.5-0.5","5eb272fe56dba91c3f2f0ab7","B2","batch2","","354","","","tol_tohand","","","","","","","","","tol_peg_3","354","354","0","[[0,0,0],[3,1],[0]]","6","[[2,1,3],[0,0],[0]]","1","0","","","","","","5","",""
"","","","","","single-stim-button","220","506241","0.0-3.0-13.5-1.5","5eb272fe56dba91c3f2f0ab7","B2","batch2","","695","","","tol_toboard","","","","","","","","","tol_peg_1","695","695","0","[[2,0,0],[3,1],[0]]","6","[[2,1,3],[0,0],[0]]","1","0","","","","","","5","",""
"","","","","","single-stim-button","221","507329","0.0-3.0-13.6-0.6","5eb272fe56dba91c3f2f0ab7","B2","batch2","","1088","","","tol_tohand","","","","","","","","","tol_peg_2","1088","1088","0","[[2,0,0],[3,0],[0]]","7","[[2,1,3],[0,0],[0]]","1","0","","","","","","5","",""
"","","","","","single-stim-button","222","508094","0.0-3.0-13.6-1.6","5eb272fe56dba91c3f2f0ab7","B2","batch2","","765","","","tol_toboard","","","","","","","","","tol_peg_1","765","765","0","[[2,1,0],[3,0],[0]]","7","[[2,1,3],[0,0],[0]]","1","0","","","","","","5","",""
"","","","","","single-stim-button","223","508663","0.0-3.0-13.7-0.7","5eb272fe56dba91c3f2f0ab7","B2","batch2","","568","","","tol_tohand","","","","","","","","","tol_peg_2","568","568","0","[[2,1,0],[0,0],[0]]","8","[[2,1,3],[0,0],[0]]","1","0","","","","","","5","",""
"","","","","","single-stim-button","224","509338","0.0-3.0-13.7-1.7","5eb272fe56dba91c3f2f0ab7","B2","batch2","","674","","","tol_toboard","","","","","","","","","tol_peg_1","674","674","0","[[2,1,3],[0,0],[0]]","8","[[2,1,3],[0,0],[0]]","1","0","","","","","","5","",""
"","","","","","poldrack-single-stim","225","510342","0.0-3.0-14.0","5eb272fe56dba91c3f2f0ab7","B2","batch2","","-1","","","tol_feedback","true","","","","","","","","","1000","1000","500","","","","","","-1","none","true","5319","11688","","",""
"","","","","","html-button-response","226","511379","0.0-3.0-15.0","5eb272fe56dba91c3f2f0ab7","B2","batch2","","1034.6000000238419","<div class = centerbox><p class = center-block-text>problem <strong>3</strong> out of 25 problems</p></div>","0","tol_trial_num","","","","","","","","","","","","","","","","","","","","","","","","",""
"","","","","","single-stim-button","227","517524","0.0-3.0-16.0-0.0","5eb272fe56dba91c3f2f0ab7","B2","batch2","","6145","","","tol_tohand","","","","","","","","","tol_peg_1","6145","6145","0","[[2,0,0],[0,0],[1]]","1","[[1,2,0],[3,0],[0]]","2","0","","","","","","4","",""
"","","","","","single-stim-button","228","518207","0.0-3.0-16.0-1.0","5eb272fe56dba91c3f2f0ab7","B2","batch2","","682","","","tol_toboard","","","","","","","","","tol_peg_2","682","682","0","[[2,0,0],[3,0],[1]]","1","[[1,2,0],[3,0],[0]]","2","0","","","","","","4","",""
"","","","","","single-stim-button","229","518811","0.0-3.0-16.1-0.1","5eb272fe56dba91c3f2f0ab7","B2","batch2","","604","","","tol_tohand","","","","","","","","","tol_peg_1","604","604","0","[[0,0,0],[3,0],[1]]","2","[[1,2,0],[3,0],[0]]","2","0","","","","","","4","",""
"","","","","","single-stim-button","230","519526","0.0-3.0-16.1-1.1","5eb272fe56dba91c3f2f0ab7","B2","batch2","","714","","","tol_toboard","","","","","","","","","tol_peg_2","714","714","0","[[0,0,0],[3,2],[1]]","2","[[1,2,0],[3,0],[0]]","2","0","","","","","","4","",""
"","","","","","single-stim-button","231","519958","0.0-3.0-16.2-0.2","5eb272fe56dba91c3f2f0ab7","B2","batch2","","432","","","tol_tohand","","","","","","","","","tol_peg_3","432","432","0","[[0,0,0],[3,2],[0]]","3","[[1,2,0],[3,0],[0]]","2","0","","","","","","4","",""
"","","","","","single-stim-button","232","520700","0.0-3.0-16.2-1.2","5eb272fe56dba91c3f2f0ab7","B2","batch2","","740","","","tol_toboard","","","","","","","","","tol_peg_1","740","740","0","[[1,0,0],[3,2],[0]]","3","[[1,2,0],[3,0],[0]]","2","0","","","","","","4","",""
"","","","","","single-stim-button","233","521154","0.0-3.0-16.3-0.3","5eb272fe56dba91c3f2f0ab7","B2","batch2","","453","","","tol_tohand","","","","","","","","","tol_peg_2","453","453","0","[[1,0,0],[3,0],[0]]","4","[[1,2,0],[3,0],[0]]","2","0","","","","","","4","",""
"","","","","","single-stim-button","234","521595","0.0-3.0-16.3-1.3","5eb272fe56dba91c3f2f0ab7","B2","batch2","","441","","","tol_toboard","","","","","","","","","tol_peg_1","441","441","0","[[1,2,0],[3,0],[0]]","4","[[1,2,0],[3,0],[0]]","2","0","","","","","","4","",""
"","","","","","poldrack-single-stim","235","522602","0.0-3.0-17.0","5eb272fe56dba91c3f2f0ab7","B2","batch2","","-1","","","tol_feedback","true","","","","","","","","","1000","1000","500","","","","","","-1","none","true","6145","7634","","",""
"","","","","","html-button-response","236","523297","0.0-3.0-18.0","5eb272fe56dba91c3f2f0ab7","B2","batch2","","694.6000000238419","<div class = centerbox><p class = center-block-text>problem <strong>4</strong> out of 25 problems</p></div>","0","tol_trial_num","","","","","","","","","","","","","","","","","","","","","","","","",""
"","","","","","single-stim-button","237","527581","0.0-3.0-19.0-0.0","5eb272fe56dba91c3f2f0ab7","B2","batch2","","4282","","","tol_tohand","","","","","","","","","tol_peg_2","4282","4282","0","[[3,0,0],[2,0],[0]]","1","[[3,0,0],[1,0],[2]]","3","0","","","","","","3","",""
"","","","","","single-stim-button","238","528891","0.0-3.0-19.0-1.0","5eb272fe56dba91c3f2f0ab7","B2","batch2","","1310","","","tol_toboard","","","","","","","","","tol_peg_1","1310","1310","0","[[3,1,0],[2,0],[0]]","1","[[3,0,0],[1,0],[2]]","3","0","","","","","","3","",""
"","","","","","single-stim-button","239","529827","0.0-3.0-19.1-0.1","5eb272fe56dba91c3f2f0ab7","B2","batch2","","935","","","tol_tohand","","","","","","","","","tol_peg_2","935","935","0","[[3,1,0],[0,0],[0]]","2","[[3,0,0],[1,0],[2]]","3","0","","","","","","3","",""
"","","","","","single-stim-button","240","530441","0.0-3.0-19.1-1.1","5eb272fe56dba91c3f2f0ab7","B2","batch2","","614","","","tol_toboard","","","","","","","","","tol_peg_3","614","614","0","[[3,1,0],[0,0],[2]]","2","[[3,0,0],[1,0],[2]]","3","0","","","","","","3","",""
"","","","","","single-stim-button","241","530991","0.0-3.0-19.2-0.2","5eb272fe56dba91c3f2f0ab7","B2","batch2","","549","","","tol_tohand","","","","","","","","","tol_peg_1","549","549","0","[[3,0,0],[0,0],[2]]","3","[[3,0,0],[1,0],[2]]","3","0","","","","","","3","",""
"","","","","","single-stim-button","242","531799","0.0-3.0-19.2-1.2","5eb272fe56dba91c3f2f0ab7","B2","batch2","","807","","","tol_toboard","","","","","","","","","tol_peg_2","807","807","0","[[3,0,0],[1,0],[2]]","3","[[3,0,0],[1,0],[2]]","3","0","","","","","","3","",""
"","","","","","poldrack-single-stim","243","532801","0.0-3.0-20.0","5eb272fe56dba91c3f2f0ab7","B2","batch2","","-1","","","tol_feedback","true","","","","","","","","","1000","1000","500","","","","","","-1","none","true","4282","5766","","",""
"","","","","","html-button-response","244","533598","0.0-3.0-21.0","5eb272fe56dba91c3f2f0ab7","B2","batch2","","795.1000000238419","<div class = centerbox><p class = center-block-text>problem <strong>5</strong> out of 25 problems</p></div>","0","tol_trial_num","","","","","","","","","","","","","","","","","","","","","","","","",""
"","","","","","single-stim-button","245","540518","0.0-3.0-22.0-0.0","5eb272fe56dba91c3f2f0ab7","B2","batch2","","6919","","","tol_tohand","","","","","","","","","tol_peg_2","6919","6919","0","[[1,0,0],[0,0],[3]]","1","[[0,0,0],[1,2],[3]]","4","0","","","","","","7","",""
"","","","","","single-stim-button","246","543135","0.0-3.0-22.0-1.0","5eb272fe56dba91c3f2f0ab7","B2","batch2","","2616","","","tol_toboard","","","","","","","","","tol_peg_1","2616","2616","0","[[1,2,0],[0,0],[3]]","1","[[0,0,0],[1,2],[3]]","4","0","","","","","","7","",""
"","","","","","single-stim-button","247","545506","0.0-3.0-22.1-0.1","5eb272fe56dba91c3f2f0ab7","B2","batch2","","2371","","","tol_tohand","","","","","","","","","tol_peg_1","2371","2371","0","[[1,0,0],[0,0],[3]]","2","[[0,0,0],[1,2],[3]]","4","0","","","","","","7","",""
"","","","","","single-stim-button","248","545969","0.0-3.0-22.1-1.1","5eb272fe56dba91c3f2f0ab7","B2","batch2","","463","","","tol_toboard","","","","","","","","","tol_peg_2","463","463","0","[[1,0,0],[2,0],[3]]","2","[[0,0,0],[1,2],[3]]","4","0","","","","","","7","",""
"","","","","","single-stim-button","249","546454","0.0-3.0-22.2-0.2","5eb272fe56dba91c3f2f0ab7","B2","batch2","","485","","","tol_tohand","","","","","","","","","tol_peg_1","485","485","0","[[0,0,0],[2,0],[3]]","3","[[0,0,0],[1,2],[3]]","4","0","","","","","","7","",""
"","","","","","single-stim-button","250","548198","0.0-3.0-22.2-1.2","5eb272fe56dba91c3f2f0ab7","B2","batch2","","1743","","","tol_toboard","","","","","","","","","tol_peg_2","1743","1743","0","[[0,0,0],[2,1],[3]]","3","[[0,0,0],[1,2],[3]]","4","0","","","","","","7","",""
"","","","","","single-stim-button","251","548607","0.0-3.0-22.3-0.3","5eb272fe56dba91c3f2f0ab7","B2","batch2","","408","","","tol_tohand","","","","","","","","","tol_peg_3","408","408","0","[[0,0,0],[2,1],[0]]","4","[[0,0,0],[1,2],[3]]","4","0","","","","","","7","",""
"","","","","","single-stim-button","252","549337","0.0-3.0-22.3-1.3","5eb272fe56dba91c3f2f0ab7","B2","batch2","","729","","","tol_toboard","","","","","","","","","tol_peg_1","729","729","0","[[3,0,0],[2,1],[0]]","4","[[0,0,0],[1,2],[3]]","4","0","","","","","","7","",""
"","","","","","single-stim-button","253","550003","0.0-3.0-22.4-0.4","5eb272fe56dba91c3f2f0ab7","B2","batch2","","666","","","tol_tohand","","","","","","","","","tol_peg_2","666","666","0","[[3,0,0],[2,0],[0]]","5","[[0,0,0],[1,2],[3]]","4","0","","","","","","7","",""
"","","","","","single-stim-button","254","550991","0.0-3.0-22.4-1.4","5eb272fe56dba91c3f2f0ab7","B2","batch2","","988","","","tol_toboard","","","","","","","","","tol_peg_3","988","988","0","[[3,0,0],[2,0],[1]]","5","[[0,0,0],[1,2],[3]]","4","0","","","","","","7","",""
"","","","","","single-stim-button","255","551450","0.0-3.0-22.5-0.5","5eb272fe56dba91c3f2f0ab7","B2","batch2","","458","","","tol_tohand","","","","","","","","","tol_peg_2","458","458","0","[[3,0,0],[0,0],[1]]","6","[[0,0,0],[1,2],[3]]","4","0","","","","","","7","",""
"","","","","","single-stim-button","256","551970","0.0-3.0-22.5-1.5","5eb272fe56dba91c3f2f0ab7","B2","batch2","","520","","","tol_toboard","","","","","","","","","tol_peg_1","520","520","0","[[3,2,0],[0,0],[1]]","6","[[0,0,0],[1,2],[3]]","4","0","","","","","","7","",""
"","","","","","single-stim-button","257","552425","0.0-3.0-22.6-0.6","5eb272fe56dba91c3f2f0ab7","B2","batch2","","454","","","tol_tohand","","","","","","","","","tol_peg_3","454","454","0","[[3,2,0],[0,0],[0]]","7","[[0,0,0],[1,2],[3]]","4","0","","","","","","7","",""
"","","","","","single-stim-button","258","552902","0.0-3.0-22.6-1.6","5eb272fe56dba91c3f2f0ab7","B2","batch2","","476","","","tol_toboard","","","","","","","","","tol_peg_2","476","476","0","[[3,2,0],[1,0],[0]]","7","[[0,0,0],[1,2],[3]]","4","0","","","","","","7","",""
"","","","","","single-stim-button","259","553639","0.0-3.0-22.7-0.7","5eb272fe56dba91c3f2f0ab7","B2","batch2","","737","","","tol_tohand","","","","","","","","","tol_peg_1","737","737","0","[[3,0,0],[1,0],[0]]","8","[[0,0,0],[1,2],[3]]","4","0","","","","","","7","",""
"","","","","","single-stim-button","260","554182","0.0-3.0-22.7-1.7","5eb272fe56dba91c3f2f0ab7","B2","batch2","","543","","","tol_toboard","","","","","","","","","tol_peg_2","543","543","0","[[3,0,0],[1,2],[0]]","8","[[0,0,0],[1,2],[3]]","4","0","","","","","","7","",""
"","","","","","single-stim-button","261","555006","0.0-3.0-22.8-0.8","5eb272fe56dba91c3f2f0ab7","B2","batch2","","823","","","tol_tohand","","","","","","","","","tol_peg_1","823","823","0","[[0,0,0],[1,2],[0]]","9","[[0,0,0],[1,2],[3]]","4","0","","","","","","7","",""
"","","","","","single-stim-button","262","555622","0.0-3.0-22.8-1.8","5eb272fe56dba91c3f2f0ab7","B2","batch2","","615","","","tol_toboard","","","","","","","","","tol_peg_3","615","615","0","[[0,0,0],[1,2],[3]]","9","[[0,0,0],[1,2],[3]]","4","0","","","","","","7","",""
"","","","","","poldrack-single-stim","263","556624","0.0-3.0-23.0","5eb272fe56dba91c3f2f0ab7","B2","batch2","","-1","","","tol_feedback","true","","","","","","","","","1000","1000","500","","","","","","-1","none","true","6919","13321","","",""
"","","","","","html-button-response","264","557337","0.0-3.0-24.0","5eb272fe56dba91c3f2f0ab7","B2","batch2","","711.5","<div class = centerbox><p class = center-block-text>problem <strong>6</strong> out of 25 problems</p></div>","0","tol_trial_num","","","","","","","","","","","","","","","","","","","","","","","","",""
"","","","","","single-stim-button","265","567791","0.0-3.0-25.0-0.0","5eb272fe56dba91c3f2f0ab7","B2","batch2","","10454","","","tol_tohand","","","","","","","","","tol_peg_3","10454","10454","0","[[0,0,0],[1,2],[0]]","1","[[1,0,0],[2,3],[0]]","5","0","","","","","","6","",""
"","","","","","single-stim-button","266","568530","0.0-3.0-25.0-1.0","5eb272fe56dba91c3f2f0ab7","B2","batch2","","738","","","tol_toboard","","","","","","","","","tol_peg_1","738","738","0","[[3,0,0],[1,2],[0]]","1","[[1,0,0],[2,3],[0]]","5","0","","","","","","6","",""
"","","","","","single-stim-button","267","569109","0.0-3.0-25.1-0.1","5eb272fe56dba91c3f2f0ab7","B2","batch2","","578","","","tol_tohand","","","","","","","","","tol_peg_2","578","578","0","[[3,0,0],[1,0],[0]]","2","[[1,0,0],[2,3],[0]]","5","0","","","","","","6","",""
"","","","","","single-stim-button","268","578465","0.0-3.0-25.1-1.1","5eb272fe56dba91c3f2f0ab7","B2","batch2","","9356","","","tol_toboard","","","","","","","","","tol_peg_3","9356","9356","0","[[3,0,0],[1,0],[2]]","2","[[1,0,0],[2,3],[0]]","5","0","","","","","","6","",""
"","","","","","single-stim-button","269","579455","0.0-3.0-25.2-0.2","5eb272fe56dba91c3f2f0ab7","B2","batch2","","988","","","tol_tohand","","","","","","","","","tol_peg_1","988","988","0","[[0,0,0],[1,0],[2]]","3","[[1,0,0],[2,3],[0]]","5","0","","","","","","6","",""
"","","","","","single-stim-button","270","579865","0.0-3.0-25.2-1.2","5eb272fe56dba91c3f2f0ab7","B2","batch2","","410","","","tol_toboard","","","","","","","","","tol_peg_2","410","410","0","[[0,0,0],[1,3],[2]]","3","[[1,0,0],[2,3],[0]]","5","0","","","","","","6","",""
"","","","","","single-stim-button","271","581351","0.0-3.0-25.3-0.3","5eb272fe56dba91c3f2f0ab7","B2","batch2","","1486","","","tol_tohand","","","","","","","","","tol_peg_3","1486","1486","0","[[0,0,0],[1,3],[0]]","4","[[1,0,0],[2,3],[0]]","5","0","","","","","","6","",""
"","","","","","single-stim-button","272","581808","0.0-3.0-25.3-1.3","5eb272fe56dba91c3f2f0ab7","B2","batch2","","457","","","tol_toboard","","","","","","","","","tol_peg_1","457","457","0","[[2,0,0],[1,3],[0]]","4","[[1,0,0],[2,3],[0]]","5","0","","","","","","6","",""
"","","","","","single-stim-button","273","583121","0.0-3.0-25.4-0.4","5eb272fe56dba91c3f2f0ab7","B2","batch2","","1313","","","tol_tohand","","","","","","","","","tol_peg_2","1313","1313","0","[[2,0,0],[1,0],[0]]","5","[[1,0,0],[2,3],[0]]","5","0","","","","","","6","",""
"","","","","","single-stim-button","274","585700","0.0-3.0-25.4-1.4","5eb272fe56dba91c3f2f0ab7","B2","batch2","","2578","","","tol_toboard","","","","","","","","","tol_peg_1","2578","2578","0","[[2,3,0],[1,0],[0]]","5","[[1,0,0],[2,3],[0]]","5","0","","","","","","6","",""
"","","","","","single-stim-button","275","586172","0.0-3.0-25.5-0.5","5eb272fe56dba91c3f2f0ab7","B2","batch2","","472","","","tol_tohand","","","","","","","","","tol_peg_2","472","472","0","[[2,3,0],[0,0],[0]]","6","[[1,0,0],[2,3],[0]]","5","0","","","","","","6","",""
"","","","","","single-stim-button","276","586503","0.0-3.0-25.5-1.5","5eb272fe56dba91c3f2f0ab7","B2","batch2","","331","","","tol_toboard","","","","","","","","","tol_peg_3","331","331","0","[[2,3,0],[0,0],[1]]","6","[[1,0,0],[2,3],[0]]","5","0","","","","","","6","",""
"","","","","","single-stim-button","277","588173","0.0-3.0-25.6-0.6","5eb272fe56dba91c3f2f0ab7","B2","batch2","","1670","","","tol_tohand","","","","","","","","","tol_peg_1","1670","1670","0","[[2,0,0],[0,0],[1]]","7","[[1,0,0],[2,3],[0]]","5","0","","","","","","6","",""
"","","","","","single-stim-button","278","588894","0.0-3.0-25.6-1.6","5eb272fe56dba91c3f2f0ab7","B2","batch2","","721","","","tol_toboard","","","","","","","","","tol_peg_2","721","721","0","[[2,0,0],[3,0],[1]]","7","[[1,0,0],[2,3],[0]]","5","0","","","","","","6","",""
"","","","","","single-stim-button","279","589443","0.0-3.0-25.7-0.7","5eb272fe56dba91c3f2f0ab7","B2","batch2","","548","","","tol_tohand","","","","","","","","","tol_peg_1","548","548","0","[[0,0,0],[3,0],[1]]","8","[[1,0,0],[2,3],[0]]","5","0","","","","","","6","",""
"","","","","","single-stim-button","280","589894","0.0-3.0-25.7-1.7","5eb272fe56dba91c3f2f0ab7","B2","batch2","","451","","","tol_toboard","","","","","","","","","tol_peg_2","451","451","0","[[0,0,0],[3,2],[1]]","8","[[1,0,0],[2,3],[0]]","5","0","","","","","","6","",""
"","","","","","single-stim-button","281","590294","0.0-3.0-25.8-0.8","5eb272fe56dba91c3f2f0ab7","B2","batch2","","400","","","tol_tohand","","","","","","","","","tol_peg_3","400","400","0","[[0,0,0],[3,2],[0]]","9","[[1,0,0],[2,3],[0]]","5","0","","","","","","6","",""
"","","","","","single-stim-button","282","590806","0.0-3.0-25.8-1.8","5eb272fe56dba91c3f2f0ab7","B2","batch2","","510","","","tol_toboard","","","","","","","","","tol_peg_1","510","510","0","[[1,0,0],[3,2],[0]]","9","[[1,0,0],[2,3],[0]]","5","0","","","","","","6","",""
"","","","","","single-stim-button","283","591543","0.0-3.0-25.9-0.9","5eb272fe56dba91c3f2f0ab7","B2","batch2","","737","","","tol_tohand","","","","","","","","","tol_peg_2","737","737","0","[[1,0,0],[3,0],[0]]","10","[[1,0,0],[2,3],[0]]","5","0","","","","","","6","",""
"","","","","","single-stim-button","284","591956","0.0-3.0-25.9-1.9","5eb272fe56dba91c3f2f0ab7","B2","batch2","","412","","","tol_toboard","","","","","","","","","tol_peg_3","412","412","0","[[1,0,0],[3,0],[2]]","10","[[1,0,0],[2,3],[0]]","5","0","","","","","","6","",""
"","","","","","single-stim-button","285","592743","0.0-3.0-25.10-0.10","5eb272fe56dba91c3f2f0ab7","B2","batch2","","787","","","tol_tohand","","","","","","","","","tol_peg_2","787","787","0","[[1,0,0],[0,0],[2]]","11","[[1,0,0],[2,3],[0]]","5","0","","","","","","6","",""
"","","","","","single-stim-button","286","594046","0.0-3.0-25.10-1.10","5eb272fe56dba91c3f2f0ab7","B2","batch2","","1303","","","tol_toboard","","","","","","","","","tol_peg_1","1303","1303","0","[[1,3,0],[0,0],[2]]","11","[[1,0,0],[2,3],[0]]","5","0","","","","","","6","",""
"","","","","","single-stim-button","287","594428","0.0-3.0-25.11-0.11","5eb272fe56dba91c3f2f0ab7","B2","batch2","","381","","","tol_tohand","","","","","","","","","tol_peg_3","381","381","0","[[1,3,0],[0,0],[0]]","12","[[1,0,0],[2,3],[0]]","5","0","","","","","","6","",""
"","","","","","single-stim-button","288","594725","0.0-3.0-25.11-1.11","5eb272fe56dba91c3f2f0ab7","B2","batch2","","296","","","tol_toboard","","","","","","","","","tol_peg_2","296","296","0","[[1,3,0],[2,0],[0]]","12","[[1,0,0],[2,3],[0]]","5","0","","","","","","6","",""
"","","","","","single-stim-button","289","595273","0.0-3.0-25.12-0.12","5eb272fe56dba91c3f2f0ab7","B2","batch2","","548","","","tol_tohand","","","","","","","","","tol_peg_1","548","548","0","[[1,0,0],[2,0],[0]]","13","[[1,0,0],[2,3],[0]]","5","0","","","","","","6","",""
"","","","","","single-stim-button","290","595709","0.0-3.0-25.12-1.12","5eb272fe56dba91c3f2f0ab7","B2","batch2","","435","","","tol_toboard","","","","","","","","","tol_peg_2","435","435","0","[[1,0,0],[2,3],[0]]","13","[[1,0,0],[2,3],[0]]","5","0","","","","","","6","",""
"","","","","","poldrack-single-stim","291","596711","0.0-3.0-26.0","5eb272fe56dba91c3f2f0ab7","B2","batch2","","-1","","","tol_feedback","true","","","","","","","","","1000","1000","500","","","","","","-1","none","true","10454","20362","","",""
"","","","","","html-button-response","292","597447","0.0-3.0-27.0","5eb272fe56dba91c3f2f0ab7","B2","batch2","","734.5","<div class = centerbox><p class = center-block-text>problem <strong>7</strong> out of 25 problems</p></div>","0","tol_trial_num","","","","","","","","","","","","","","","","","","","","","","","","",""
"","","","","","single-stim-button","293","603487","0.0-3.0-28.0-0.0","5eb272fe56dba91c3f2f0ab7","B2","batch2","","6039","","","tol_tohand","","","","","","","","","tol_peg_1","6039","6039","0","[[2,0,0],[0,0],[3]]","1","[[1,2,0],[3,0],[0]]","6","0","","","","","","5","",""
"","","","","","single-stim-button","294","604270","0.0-3.0-28.0-1.0","5eb272fe56dba91c3f2f0ab7","B2","batch2","","783","","","tol_toboard","","","","","","","","","tol_peg_2","783","783","0","[[2,0,0],[1,0],[3]]","1","[[1,2,0],[3,0],[0]]","6","0","","","","","","5","",""
"","","","","","single-stim-button","295","613695","0.0-3.0-28.1-0.1","5eb272fe56dba91c3f2f0ab7","B2","batch2","","9425","","","tol_tohand","","","","","","","","","tol_peg_2","9425","9425","0","[[2,0,0],[0,0],[3]]","2","[[1,2,0],[3,0],[0]]","6","0","","","","","","5","",""
"","","","","","single-stim-button","296","614085","0.0-3.0-28.1-1.1","5eb272fe56dba91c3f2f0ab7","B2","batch2","","389","","","tol_toboard","","","","","","","","","tol_peg_1","389","389","0","[[2,1,0],[0,0],[3]]","2","[[1,2,0],[3,0],[0]]","6","0","","","","","","5","",""
"","","","","","single-stim-button","297","614502","0.0-3.0-28.2-0.2","5eb272fe56dba91c3f2f0ab7","B2","batch2","","416","","","tol_tohand","","","","","","","","","tol_peg_3","416","416","0","[[2,1,0],[0,0],[0]]","3","[[1,2,0],[3,0],[0]]","6","0","","","","","","5","",""
"","","","","","single-stim-button","298","614904","0.0-3.0-28.2-1.2","5eb272fe56dba91c3f2f0ab7","B2","batch2","","401","","","tol_toboard","","","","","","","","","tol_peg_2","401","401","0","[[2,1,0],[3,0],[0]]","3","[[1,2,0],[3,0],[0]]","6","0","","","","","","5","",""
"","","","","","single-stim-button","299","615655","0.0-3.0-28.3-0.3","5eb272fe56dba91c3f2f0ab7","B2","batch2","","750","","","tol_tohand","","","","","","","","","tol_peg_1","750","750","0","[[2,0,0],[3,0],[0]]","4","[[1,2,0],[3,0],[0]]","6","0","","","","","","5","",""
"","","","","","single-stim-button","300","616587","0.0-3.0-28.3-1.3","5eb272fe56dba91c3f2f0ab7","B2","batch2","","932","","","tol_toboard","","","","","","","","","tol_peg_3","932","932","0","[[2,0,0],[3,0],[1]]","4","[[1,2,0],[3,0],[0]]","6","0","","","","","","5","",""
"","","","","","single-stim-button","301","616949","0.0-3.0-28.4-0.4","5eb272fe56dba91c3f2f0ab7","B2","batch2","","362","","","tol_tohand","","","","","","","","","tol_peg_1","362","362","0","[[0,0,0],[3,0],[1]]","5","[[1,2,0],[3,0],[0]]","6","0","","","","","","5","",""
"","","","","","single-stim-button","302","617247","0.0-3.0-28.4-1.4","5eb272fe56dba91c3f2f0ab7","B2","batch2","","298","","","tol_toboard","","","","","","","","","tol_peg_2","298","298","0","[[0,0,0],[3,2],[1]]","5","[[1,2,0],[3,0],[0]]","6","0","","","","","","5","",""
"","","","","","single-stim-button","303","617748","0.0-3.0-28.5-0.5","5eb272fe56dba91c3f2f0ab7","B2","batch2","","501","","","tol_tohand","","","","","","","","","tol_peg_3","501","501","0","[[0,0,0],[3,2],[0]]","6","[[1,2,0],[3,0],[0]]","6","0","","","","","","5","",""
"","","","","","single-stim-button","304","618182","0.0-3.0-28.5-1.5","5eb272fe56dba91c3f2f0ab7","B2","batch2","","433","","","tol_toboard","","","","","","","","","tol_peg_1","433","433","0","[[1,0,0],[3,2],[0]]","6","[[1,2,0],[3,0],[0]]","6","0","","","","","","5","",""
"","","","","","single-stim-button","305","618708","0.0-3.0-28.6-0.6","5eb272fe56dba91c3f2f0ab7","B2","batch2","","526","","","tol_tohand","","","","","","","","","tol_peg_2","526","526","0","[[1,0,0],[3,0],[0]]","7","[[1,2,0],[3,0],[0]]","6","0","","","","","","5","",""
"","","","","","single-stim-button","306","619177","0.0-3.0-28.6-1.6","5eb272fe56dba91c3f2f0ab7","B2","batch2","","469","","","tol_toboard","","","","","","","","","tol_peg_1","469","469","0","[[1,2,0],[3,0],[0]]","7","[[1,2,0],[3,0],[0]]","6","0","","","","","","5","",""
"","","","","","poldrack-single-stim","307","620179","0.0-3.0-29.0","5eb272fe56dba91c3f2f0ab7","B2","batch2","","-1","","","tol_feedback","true","","","","","","","","","1000","1000","500","","","","","","-1","none","true","6039","18019","","",""
"","","","","","html-button-response","308","620941","0.0-3.0-30.0","5eb272fe56dba91c3f2f0ab7","B2","batch2","","759.6999999880791","<div class = centerbox><p class = center-block-text>problem <strong>8</strong> out of 25 problems</p></div>","0","tol_trial_num","","","","","","","","","","","","","","","","","","","","","","","","",""
"","","","","","single-stim-button","309","625797","0.0-3.0-31.0-0.0","5eb272fe56dba91c3f2f0ab7","B2","batch2","","4856","","","tol_tohand","","","","","","","","","tol_peg_3","4856","4856","0","[[0,0,0],[2,3],[0]]","1","[[1,2,0],[3,0],[0]]","7","0","","","","","","4","",""
"","","","","","single-stim-button","310","626410","0.0-3.0-31.0-1.0","5eb272fe56dba91c3f2f0ab7","B2","batch2","","612","","","tol_toboard","","","","","","","","","tol_peg_1","612","612","0","[[1,0,0],[2,3],[0]]","1","[[1,2,0],[3,0],[0]]","7","0","","","","","","4","",""
"","","","","","single-stim-button","311","626854","0.0-3.0-31.1-0.1","5eb272fe56dba91c3f2f0ab7","B2","batch2","","444","","","tol_tohand","","","","","","","","","tol_peg_2","444","444","0","[[1,0,0],[2,0],[0]]","2","[[1,2,0],[3,0],[0]]","7","0","","","","","","4","",""
"","","","","","single-stim-button","312","627303","0.0-3.0-31.1-1.1","5eb272fe56dba91c3f2f0ab7","B2","batch2","","449","","","tol_toboard","","","","","","","","","tol_peg_3","449","449","0","[[1,0,0],[2,0],[3]]","2","[[1,2,0],[3,0],[0]]","7","0","","","","","","4","",""
"","","","","","single-stim-button","313","628214","0.0-3.0-31.2-0.2","5eb272fe56dba91c3f2f0ab7","B2","batch2","","911","","","tol_tohand","","","","","","","","","tol_peg_2","911","911","0","[[1,0,0],[0,0],[3]]","3","[[1,2,0],[3,0],[0]]","7","0","","","","","","4","",""
"","","","","","single-stim-button","314","628585","0.0-3.0-31.2-1.2","5eb272fe56dba91c3f2f0ab7","B2","batch2","","371","","","tol_toboard","","","","","","","","","tol_peg_1","371","371","0","[[1,2,0],[0,0],[3]]","3","[[1,2,0],[3,0],[0]]","7","0","","","","","","4","",""
"","","","","","single-stim-button","315","629065","0.0-3.0-31.3-0.3","5eb272fe56dba91c3f2f0ab7","B2","batch2","","480","","","tol_tohand","","","","","","","","","tol_peg_3","480","480","0","[[1,2,0],[0,0],[0]]","4","[[1,2,0],[3,0],[0]]","7","0","","","","","","4","",""
"","","","","","single-stim-button","316","629517","0.0-3.0-31.3-1.3","5eb272fe56dba91c3f2f0ab7","B2","batch2","","452","","","tol_toboard","","","","","","","","","tol_peg_2","452","452","0","[[1,2,0],[3,0],[0]]","4","[[1,2,0],[3,0],[0]]","7","0","","","","","","4","",""
"","","","","","poldrack-single-stim","317","630518","0.0-3.0-32.0","5eb272fe56dba91c3f2f0ab7","B2","batch2","","-1","","","tol_feedback","true","","","","","","","","","1000","1000","500","","","","","","-1","none","true","4856","6691","","",""
"","","","","","html-button-response","318","631106","0.0-3.0-33.0","5eb272fe56dba91c3f2f0ab7","B2","batch2","","586.3000000119209","<div class = centerbox><p class = center-block-text>problem <strong>9</strong> out of 25 problems</p></div>","0","tol_trial_num","","","","","","","","","","","","","","","","","","","","","","","","",""
"","","","","","single-stim-button","319","643907","0.0-3.0-34.0-0.0","5eb272fe56dba91c3f2f0ab7","B2","batch2","","12800","","","tol_tohand","","","","","","","","","tol_peg_3","12800","12800","0","[[3,2,0],[0,0],[0]]","1","[[2,1,0],[3,0],[0]]","8","0","","","","","","6","",""
"","","","","","single-stim-button","320","644501","0.0-3.0-34.0-1.0","5eb272fe56dba91c3f2f0ab7","B2","batch2","","594","","","tol_toboard","","","","","","","","","tol_peg_2","594","594","0","[[3,2,0],[1,0],[0]]","1","[[2,1,0],[3,0],[0]]","8","0","","","","","","6","",""
"","","","","","single-stim-button","321","645085","0.0-3.0-34.1-0.1","5eb272fe56dba91c3f2f0ab7","B2","batch2","","583","","","tol_tohand","","","","","","","","","tol_peg_1","583","583","0","[[3,0,0],[1,0],[0]]","2","[[2,1,0],[3,0],[0]]","8","0","","","","","","6","",""
"","","","","","single-stim-button","322","645574","0.0-3.0-34.1-1.1","5eb272fe56dba91c3f2f0ab7","B2","batch2","","489","","","tol_toboard","","","","","","","","","tol_peg_3","489","489","0","[[3,0,0],[1,0],[2]]","2","[[2,1,0],[3,0],[0]]","8","0","","","","","","6","",""
"","","","","","single-stim-button","323","646101","0.0-3.0-34.2-0.2","5eb272fe56dba91c3f2f0ab7","B2","batch2","","527","","","tol_tohand","","","","","","","","","tol_peg_1","527","527","0","[[0,0,0],[1,0],[2]]","3","[[2,1,0],[3,0],[0]]","8","0","","","","","","6","",""
"","","","","","single-stim-button","324","646554","0.0-3.0-34.2-1.2","5eb272fe56dba91c3f2f0ab7","B2","batch2","","453","","","tol_toboard","","","","","","","","","tol_peg_2","453","453","0","[[0,0,0],[1,3],[2]]","3","[[2,1,0],[3,0],[0]]","8","0","","","","","","6","",""
"","","","","","single-stim-button","325","647023","0.0-3.0-34.3-0.3","5eb272fe56dba91c3f2f0ab7","B2","batch2","","469","","","tol_tohand","","","","","","","","","tol_peg_3","469","469","0","[[0,0,0],[1,3],[0]]","4","[[2,1,0],[3,0],[0]]","8","0","","","","","","6","",""
"","","","","","single-stim-button","326","647686","0.0-3.0-34.3-1.3","5eb272fe56dba91c3f2f0ab7","B2","batch2","","662","","","tol_toboard","","","","","","","","","tol_peg_1","662","662","0","[[2,0,0],[1,3],[0]]","4","[[2,1,0],[3,0],[0]]","8","0","","","","","","6","",""
"","","","","","single-stim-button","327","648515","0.0-3.0-34.4-0.4","5eb272fe56dba91c3f2f0ab7","B2","batch2","","828","","","tol_tohand","","","","","","","","","tol_peg_2","828","828","0","[[2,0,0],[1,0],[0]]","5","[[2,1,0],[3,0],[0]]","8","0","","","","","","6","",""
"","","","","","single-stim-button","328","649137","0.0-3.0-34.4-1.4","5eb272fe56dba91c3f2f0ab7","B2","batch2","","622","","","tol_toboard","","","","","","","","","tol_peg_3","622","622","0","[[2,0,0],[1,0],[3]]","5","[[2,1,0],[3,0],[0]]","8","0","","","","","","6","",""
"","","","","","single-stim-button","329","649518","0.0-3.0-34.5-0.5","5eb272fe56dba91c3f2f0ab7","B2","batch2","","381","","","tol_tohand","","","","","","","","","tol_peg_2","381","381","0","[[2,0,0],[0,0],[3]]","6","[[2,1,0],[3,0],[0]]","8","0","","","","","","6","",""
"","","","","","single-stim-button","330","649954","0.0-3.0-34.5-1.5","5eb272fe56dba91c3f2f0ab7","B2","batch2","","436","","","tol_toboard","","","","","","","","","tol_peg_1","436","436","0","[[2,1,0],[0,0],[3]]","6","[[2,1,0],[3,0],[0]]","8","0","","","","","","6","",""
"","","","","","single-stim-button","331","650401","0.0-3.0-34.6-0.6","5eb272fe56dba91c3f2f0ab7","B2","batch2","","447","","","tol_tohand","","","","","","","","","tol_peg_3","447","447","0","[[2,1,0],[0,0],[0]]","7","[[2,1,0],[3,0],[0]]","8","0","","","","","","6","",""
"","","","","","single-stim-button","332","650886","0.0-3.0-34.6-1.6","5eb272fe56dba91c3f2f0ab7","B2","batch2","","485","","","tol_toboard","","","","","","","","","tol_peg_2","485","485","0","[[2,1,0],[3,0],[0]]","7","[[2,1,0],[3,0],[0]]","8","0","","","","","","6","",""
"","","","","","poldrack-single-stim","333","651896","0.0-3.0-35.0","5eb272fe56dba91c3f2f0ab7","B2","batch2","","-1","","","tol_feedback","true","","","","","","","","","1000","1000","500","","","","","","-1","none","true","12800","16035","","",""
"","","","","","html-button-response","334","652741","0.0-3.0-36.0","5eb272fe56dba91c3f2f0ab7","B2","batch2","","844","<div class = centerbox><p class = center-block-text>problem <strong>10</strong> out of 25 problems</p></div>","0","tol_trial_num","","","","","","","","","","","","","","","","","","","","","","","","",""
"","","","","","single-stim-button","335","658590","0.0-3.0-37.0-0.0","5eb272fe56dba91c3f2f0ab7","B2","batch2","","5849","","","tol_tohand","","","","","","","","","tol_peg_2","5849","5849","0","[[3,0,0],[0,0],[2]]","1","[[3,0,0],[2,1],[0]]","9","0","","","","","","3","",""
"","","","","","single-stim-button","336","659045","0.0-3.0-37.0-1.0","5eb272fe56dba91c3f2f0ab7","B2","batch2","","455","","","tol_toboard","","","","","","","","","tol_peg_1","455","455","0","[[3,1,0],[0,0],[2]]","1","[[3,0,0],[2,1],[0]]","9","0","","","","","","3","",""
"","","","","","single-stim-button","337","659769","0.0-3.0-37.1-0.1","5eb272fe56dba91c3f2f0ab7","B2","batch2","","724","","","tol_tohand","","","","","","","","","tol_peg_3","724","724","0","[[3,1,0],[0,0],[0]]","2","[[3,0,0],[2,1],[0]]","9","0","","","","","","3","",""
"","","","","","single-stim-button","338","660256","0.0-3.0-37.1-1.1","5eb272fe56dba91c3f2f0ab7","B2","batch2","","486","","","tol_toboard","","","","","","","","","tol_peg_2","486","486","0","[[3,1,0],[2,0],[0]]","2","[[3,0,0],[2,1],[0]]","9","0","","","","","","3","",""
"","","","","","single-stim-button","339","660597","0.0-3.0-37.2-0.2","5eb272fe56dba91c3f2f0ab7","B2","batch2","","341","","","tol_tohand","","","","","","","","","tol_peg_1","341","341","0","[[3,0,0],[2,0],[0]]","3","[[3,0,0],[2,1],[0]]","9","0","","","","","","3","",""
"","","","","","single-stim-button","340","660984","0.0-3.0-37.2-1.2","5eb272fe56dba91c3f2f0ab7","B2","batch2","","387","","","tol_toboard","","","","","","","","","tol_peg_2","387","387","0","[[3,0,0],[2,1],[0]]","3","[[3,0,0],[2,1],[0]]","9","0","","","","","","3","",""
"","","","","","poldrack-single-stim","341","661986","0.0-3.0-38.0","5eb272fe56dba91c3f2f0ab7","B2","batch2","","-1","","","tol_feedback","true","","","","","","","","","1000","1000","500","","","","","","-1","none","true","5849","6914","","",""
"","","","","","html-button-response","342","662599","0.0-3.0-39.0","5eb272fe56dba91c3f2f0ab7","B2","batch2","","610.8000000119209","<div class = centerbox><p class = center-block-text>problem <strong>11</strong> out of 25 problems</p></div>","0","tol_trial_num","","","","","","","","","","","","","","","","","","","","","","","","",""
"","","","","","single-stim-button","343","670763","0.0-3.0-40.0-0.0","5eb272fe56dba91c3f2f0ab7","B2","batch2","","8164","","","tol_tohand","","","","","","","","","tol_peg_1","8164","8164","0","[[1,0,0],[3,0],[0]]","1","[[2,0,0],[1,3],[0]]","10","0","","","","","","6","",""
"","","","","","single-stim-button","344","671167","0.0-3.0-40.0-1.0","5eb272fe56dba91c3f2f0ab7","B2","batch2","","404","","","tol_toboard","","","","","","","","","tol_peg_2","404","404","0","[[1,0,0],[3,2],[0]]","1","[[2,0,0],[1,3],[0]]","10","0","","","","","","6","",""
"","","","","","single-stim-button","345","671602","0.0-3.0-40.1-0.1","5eb272fe56dba91c3f2f0ab7","B2","batch2","","435","","","tol_tohand","","","","","","","","","tol_peg_1","435","435","0","[[0,0,0],[3,2],[0]]","2","[[2,0,0],[1,3],[0]]","10","0","","","","","","6","",""
"","","","","","single-stim-button","346","673557","0.0-3.0-40.1-1.1","5eb272fe56dba91c3f2f0ab7","B2","batch2","","1955","","","tol_toboard","","","","","","","","","tol_peg_3","1955","1955","0","[[0,0,0],[3,2],[1]]","2","[[2,0,0],[1,3],[0]]","10","0","","","","","","6","",""
"","","","","","single-stim-button","347","673996","0.0-3.0-40.2-0.2","5eb272fe56dba91c3f2f0ab7","B2","batch2","","439","","","tol_tohand","","","","","","","","","tol_peg_2","439","439","0","[[0,0,0],[3,0],[1]]","3","[[2,0,0],[1,3],[0]]","10","0","","","","","","6","",""
"","","","","","single-stim-button","348","674922","0.0-3.0-40.2-1.2","5eb272fe56dba91c3f2f0ab7","B2","batch2","","926","","","tol_toboard","","","","","","","","","tol_peg_1","926","926","0","[[2,0,0],[3,0],[1]]","3","[[2,0,0],[1,3],[0]]","10","0","","","","","","6","",""
