"success","timeout","failed_images","failed_audio","failed_video","trial_type","trial_index","time_elapsed","internal_node_id","subject_id","study_id","session_id","view_history","rt","task","stimulus","response","correct","mouse_click","stim_duration","block_duration","timing_post_trial","current_position","tol_num_moves_made","tol_target","tol_problem_id","tol_rt","key_press","possible_responses","tol_correct","preplanning","tol_rt_per_trial","tol_min_moves","item","answer","spm_correct","spm_rt","fiar_detect_rt","fiar_detect_correct","total_correct_fiar_detect","post_trial_gap","choices"
"true","false","[]","[]","[]","preload","0","1319","0.0-0.0","5eb3629472398915cb013c43","D2","batch4","","","","","","","","","","","","","","","","","","","","","","","","","","","","","",""
"true","","","","","fullscreen","1","10017","0.0-1.0-0.0","5eb3629472398915cb013c43","D2","batch4","","","","","","","","","","","","","","","","","","","","","","","","","","","","","",""
"true","","","","","fullscreen","2","13926","0.0-2.0-0.0","5eb3629472398915cb013c43","D2","batch4","","","","","","","","","","","","","","","","","","","","","","","","","","","","","",""
"","","","","","instructions","3","75155","0.0-2.0-1.0-0.0-0.0","5eb3629472398915cb013c43","D2","batch4","[{""page_index"":0,""viewing_time"":13299},{""page_index"":1,""viewing_time"":5887.799999952316},{""page_index"":2,""viewing_time"":3018.9000000953674},{""page_index"":3,""viewing_time"":8961.299999952316},{""page_index"":4,""viewing_time"":4482},{""page_index"":5,""viewing_time"":5565.799999952316},{""page_index"":4,""viewing_time"":4190.099999904633},{""page_index"":5,""viewing_time"":13763.800000190735},{""page_index"":6,""viewing_time"":2060}]","61229","tol-instructions","","","","","","","","","","","","","","","","","","","","","","","","","","",""
"","","","","","html-button-response","4","76063","0.0-2.0-1.0-1.0-0.0","5eb3629472398915cb013c43","D2","batch4","","907.5","tol_enter_quiz","<p class=block-text> Let's answer a few questions <br>","0","","","","","","","","","","","","","","","","","","","","","","","","",""
"","","","","","html-button-response","5","81685","0.0-2.0-1.0-1.0-1.0","5eb3629472398915cb013c43","D2","batch4","","5620.600000143051","tol_quiz","<p class = block-text>True or False: You can only move the ball on top of a peg. <br></p>","0","true","","","","","","","","","","","","","","","","","","","","","","","",""
"","","","","","html-button-response","6","82471","0.0-2.0-1.0-1.0-2.0","5eb3629472398915cb013c43","D2","batch4","","785.0999999046326","tol_quiz_feedback","<p class = block-text>Correct! You can only move the ball on top of a peg.</p>","0","","","","","","","","","","","","","","","","","","","","","","","","",""
"","","","","","html-button-response","7","84267","0.0-2.0-1.0-1.0-3.0","5eb3629472398915cb013c43","D2","batch4","","1795.2000000476837","tol_quiz","<p class = block-text>True or False: You should try to match your board with the target board with fewest moves possible. <br></p>","0","true","","","","","","","","","","","","","","","","","","","","","","","",""
"","","","","","html-button-response","8","84897","0.0-2.0-1.0-1.0-4.0","5eb3629472398915cb013c43","D2","batch4","","629.3000001907349","tol_quiz_feedback","<p class = block-text>Correct! </p>","0","","","","","","","","","","","","","","","","","","","","","","","","",""
"","","","","","html-button-response","9","85959","0.0-2.0-2.0","5eb3629472398915cb013c43","D2","batch4","","1060.8000001907349","","<p class=block-text> Now that you've understood the game, let's practice a few easier examples before we start!<br> <br>","0","","","","","","","","","","","","","","","","","","","","","","","","",""
"","","","","","single-stim-button","10","88088","0.0-2.0-3.0-0.0","5eb3629472398915cb013c43","D2","batch4","","2128","tol_practice","","","","tol_peg_2","2128","2128","0","[[1,2,0],[0,0],[0]]","1","[[1,2,0],[0,0],[3]]","practice","2128","","","","","","","","","","","","","","",""
"","","","","","single-stim-button","11","90373","0.0-2.0-3.0-1.0","5eb3629472398915cb013c43","D2","batch4","","2285","tol_practice","","","","tol_peg_3","2285","2285","0","[[1,2,0],[0,0],[3]]","1","[[1,2,0],[0,0],[3]]","practice","2285","","","","","","","","","","","","","","",""
"","","","","","poldrack-single-stim","12","91388","0.0-2.0-4.0","5eb3629472398915cb013c43","D2","batch4","","-1","tol_feedback","","","true","","1000","1000","500","","","","","","-1","none","true","","0","","","","","","","","","",""
"","","","","","single-stim-button","13","102541","0.0-2.0-5.0-0.0","5eb3629472398915cb013c43","D2","batch4","","11153","tol_practice","","","","tol_peg_1","11153","11153","0","[[1,0,0],[3,0],[0]]","2","[[0,0,0],[3,1],[2]]","practice","11153","","","","","","","","","","","","","","",""
"","","","","","single-stim-button","14","104155","0.0-2.0-5.0-1.0","5eb3629472398915cb013c43","D2","batch4","","1613","tol_practice","","","","tol_peg_3","1613","1613","0","[[1,0,0],[3,0],[2]]","2","[[0,0,0],[3,1],[2]]","practice","1613","","","","","","","","","","","","","","",""
"","","","","","single-stim-button","15","107127","0.0-2.0-5.1-0.1","5eb3629472398915cb013c43","D2","batch4","","2972","tol_practice","","","","tol_peg_1","2972","2972","0","[[0,0,0],[3,0],[2]]","3","[[0,0,0],[3,1],[2]]","practice","2972","","","","","","","","","","","","","","",""
"","","","","","single-stim-button","16","109035","0.0-2.0-5.1-1.1","5eb3629472398915cb013c43","D2","batch4","","1907","tol_practice","","","","tol_peg_2","1907","1907","0","[[0,0,0],[3,1],[2]]","3","[[0,0,0],[3,1],[2]]","practice","1907","","","","","","","","","","","","","","",""
"","","","","","poldrack-single-stim","17","110047","0.0-2.0-6.0","5eb3629472398915cb013c43","D2","batch4","","-1","tol_feedback","","","true","","1000","1000","500","","","","","","-1","none","true","","0","","","","","","","","","",""
"","","","","","single-stim-button","18","115961","0.0-2.0-7.0-0.0","5eb3629472398915cb013c43","D2","batch4","","5914","tol_practice","","","","tol_peg_2","5914","5914","0","[[1,2,0],[0,0],[0]]","4","[[1,0,0],[2,0],[3]]","practice","5914","","","","","","","","","","","","","","",""
"","","","","","single-stim-button","19","117075","0.0-2.0-7.0-1.0","5eb3629472398915cb013c43","D2","batch4","","1114","tol_practice","","","","tol_peg_3","1114","1114","0","[[1,2,0],[0,0],[3]]","4","[[1,0,0],[2,0],[3]]","practice","1114","","","","","","","","","","","","","","",""
"","","","","","single-stim-button","20","118073","0.0-2.0-7.1-0.1","5eb3629472398915cb013c43","D2","batch4","","998","tol_practice","","","","tol_peg_1","998","998","0","[[1,0,0],[0,0],[3]]","5","[[1,0,0],[2,0],[3]]","practice","998","","","","","","","","","","","","","","",""
"","","","","","single-stim-button","21","118749","0.0-2.0-7.1-1.1","5eb3629472398915cb013c43","D2","batch4","","676","tol_practice","","","","tol_peg_2","676","676","0","[[1,0,0],[2,0],[3]]","5","[[1,0,0],[2,0],[3]]","practice","676","","","","","","","","","","","","","","",""
"","","","","","poldrack-single-stim","22","119751","0.0-2.0-8.0","5eb3629472398915cb013c43","D2","batch4","","-1","tol_feedback","","","true","","1000","1000","500","","","","","","-1","none","true","","0","","","","","","","","","",""
"","","","","","html-button-response","23","127307","0.0-2.0-9.0","5eb3629472398915cb013c43","D2","batch4","","7555.200000047684","tol_instruction","<div class = centerbox><p class = center-block-text>Great job! You are done with practice trials<br>You are about to start official trials.<br> <br> Problem <strong>1</strong> out of 25 problems</p></div>","0","","","","","","","","","","","","","","","","","","","","","","","","",""
"","","","","","single-stim-button","24","148433","0.0-2.0-10.0-0.0","5eb3629472398915cb013c43","D2","batch4","","20125","tol_tohand","","","","tol_peg_2","20125","20125","0","[[1,2,0],[0,0],[0]]","1","[[1,3,0],[2,0],[0]]","0","0","","","","","","3","","","","","","","","",""
"","","","","","single-stim-button","25","156113","0.0-2.0-10.0-1.0","5eb3629472398915cb013c43","D2","batch4","","7679","tol_toboard","","","","tol_peg_3","7679","7679","0","[[1,2,0],[0,0],[3]]","1","[[1,3,0],[2,0],[0]]","0","0","","","","","","3","","","","","","","","",""
"","","","","","single-stim-button","26","157107","0.0-2.0-10.1-0.1","5eb3629472398915cb013c43","D2","batch4","","994","tol_tohand","","","","tol_peg_1","994","994","0","[[1,0,0],[0,0],[3]]","2","[[1,3,0],[2,0],[0]]","0","0","","","","","","3","","","","","","","","",""
"","","","","","single-stim-button","27","157793","0.0-2.0-10.1-1.1","5eb3629472398915cb013c43","D2","batch4","","686","tol_toboard","","","","tol_peg_2","686","686","0","[[1,0,0],[2,0],[3]]","2","[[1,3,0],[2,0],[0]]","0","0","","","","","","3","","","","","","","","",""
"","","","","","single-stim-button","28","161843","0.0-2.0-10.2-0.2","5eb3629472398915cb013c43","D2","batch4","","4050","tol_tohand","","","","tol_peg_3","4050","4050","0","[[1,0,0],[2,0],[0]]","3","[[1,3,0],[2,0],[0]]","0","0","","","","","","3","","","","","","","","",""
"","","","","","single-stim-button","29","162635","0.0-2.0-10.2-1.2","5eb3629472398915cb013c43","D2","batch4","","791","tol_toboard","","","","tol_peg_1","791","791","0","[[1,3,0],[2,0],[0]]","3","[[1,3,0],[2,0],[0]]","0","0","","","","","","3","","","","","","","","",""
"","","","","","poldrack-single-stim","30","163646","0.0-2.0-11.0","5eb3629472398915cb013c43","D2","batch4","","-1","tol_feedback","","","true","","1000","1000","500","","","","","","-1","none","true","20125","25169","","","","","","","","","",""
"","","","","","html-button-response","31","164449","0.0-2.0-12.0","5eb3629472398915cb013c43","D2","batch4","","801.7999999523163","tol_trial_num","<div class = centerbox><p class = center-block-text>problem <strong>2</strong> out of 25 problems</p></div>","0","","","","","","","","","","","","","","","","","","","","","","","","",""
"","","","","","single-stim-button","32","175251","0.0-2.0-13.0-0.0","5eb3629472398915cb013c43","D2","batch4","","10802","tol_tohand","","","","tol_peg_1","10802","10802","0","[[1,0,0],[3,0],[0]]","1","[[2,1,3],[0,0],[0]]","1","0","","","","","","5","","","","","","","","",""
"","","","","","single-stim-button","33","180971","0.0-2.0-13.0-1.0","5eb3629472398915cb013c43","D2","batch4","","5720","tol_toboard","","","","tol_peg_3","5720","5720","0","[[1,0,0],[3,0],[2]]","1","[[2,1,3],[0,0],[0]]","1","0","","","","","","5","","","","","","","","",""
"","","","","","single-stim-button","34","186594","0.0-2.0-13.1-0.1","5eb3629472398915cb013c43","D2","batch4","","5623","tol_tohand","","","","tol_peg_1","5623","5623","0","[[0,0,0],[3,0],[2]]","2","[[2,1,3],[0,0],[0]]","1","0","","","","","","5","","","","","","","","",""
"","","","","","single-stim-button","35","187293","0.0-2.0-13.1-1.1","5eb3629472398915cb013c43","D2","batch4","","699","tol_toboard","","","","tol_peg_2","699","699","0","[[0,0,0],[3,1],[2]]","2","[[2,1,3],[0,0],[0]]","1","0","","","","","","5","","","","","","","","",""
"","","","","","single-stim-button","36","188465","0.0-2.0-13.2-0.2","5eb3629472398915cb013c43","D2","batch4","","1172","tol_tohand","","","","tol_peg_3","1172","1172","0","[[0,0,0],[3,1],[0]]","3","[[2,1,3],[0,0],[0]]","1","0","","","","","","5","","","","","","","","",""
"","","","","","single-stim-button","37","189343","0.0-2.0-13.2-1.2","5eb3629472398915cb013c43","D2","batch4","","878","tol_toboard","","","","tol_peg_1","878","878","0","[[2,0,0],[3,1],[0]]","3","[[2,1,3],[0,0],[0]]","1","0","","","","","","5","","","","","","","","",""
"","","","","","single-stim-button","38","190597","0.0-2.0-13.3-0.3","5eb3629472398915cb013c43","D2","batch4","","1254","tol_tohand","","","","tol_peg_2","1254","1254","0","[[2,0,0],[3,0],[0]]","4","[[2,1,3],[0,0],[0]]","1","0","","","","","","5","","","","","","","","",""
"","","","","","single-stim-button","39","191403","0.0-2.0-13.3-1.3","5eb3629472398915cb013c43","D2","batch4","","806","tol_toboard","","","","tol_peg_1","806","806","0","[[2,1,0],[3,0],[0]]","4","[[2,1,3],[0,0],[0]]","1","0","","","","","","5","","","","","","","","",""
"","","","","","single-stim-button","40","191851","0.0-2.0-13.4-0.4","5eb3629472398915cb013c43","D2","batch4","","448","tol_tohand","","","","tol_peg_2","448","448","0","[[2,1,0],[0,0],[0]]","5","[[2,1,3],[0,0],[0]]","1","0","","","","","","5","","","","","","","","",""
"","","","","","single-stim-button","41","192405","0.0-2.0-13.4-1.4","5eb3629472398915cb013c43","D2","batch4","","554","tol_toboard","","","","tol_peg_1","554","554","0","[[2,1,3],[0,0],[0]]","5","[[2,1,3],[0,0],[0]]","1","0","","","","","","5","","","","","","","","",""
"","","","","","poldrack-single-stim","42","193412","0.0-2.0-14.0","5eb3629472398915cb013c43","D2","batch4","","-1","tol_feedback","","","true","","1000","1000","500","","","","","","-1","none","true","10802","19299","","","","","","","","","",""
"","","","","","html-button-response","43","195945","0.0-2.0-15.0","5eb3629472398915cb013c43","D2","batch4","","2532.699999809265","tol_trial_num","<div class = centerbox><p class = center-block-text>problem <strong>3</strong> out of 25 problems</p></div>","0","","","","","","","","","","","","","","","","","","","","","","","","",""
"","","","","","single-stim-button","44","208295","0.0-2.0-16.0-0.0","5eb3629472398915cb013c43","D2","batch4","","12350","tol_tohand","","","","tol_peg_1","12350","12350","0","[[2,0,0],[0,0],[1]]","1","[[1,2,0],[3,0],[0]]","2","0","","","","","","4","","","","","","","","",""
"","","","","","single-stim-button","45","208817","0.0-2.0-16.0-1.0","5eb3629472398915cb013c43","D2","batch4","","522","tol_toboard","","","","tol_peg_2","522","522","0","[[2,0,0],[3,0],[1]]","1","[[1,2,0],[3,0],[0]]","2","0","","","","","","4","","","","","","","","",""
"","","","","","single-stim-button","46","211353","0.0-2.0-16.1-0.1","5eb3629472398915cb013c43","D2","batch4","","2536","tol_tohand","","","","tol_peg_1","2536","2536","0","[[0,0,0],[3,0],[1]]","2","[[1,2,0],[3,0],[0]]","2","0","","","","","","4","","","","","","","","",""
"","","","","","single-stim-button","47","211933","0.0-2.0-16.1-1.1","5eb3629472398915cb013c43","D2","batch4","","580","tol_toboard","","","","tol_peg_2","580","580","0","[[0,0,0],[3,2],[1]]","2","[[1,2,0],[3,0],[0]]","2","0","","","","","","4","","","","","","","","",""
"","","","","","single-stim-button","48","212503","0.0-2.0-16.2-0.2","5eb3629472398915cb013c43","D2","batch4","","570","tol_tohand","","","","tol_peg_3","570","570","0","[[0,0,0],[3,2],[0]]","3","[[1,2,0],[3,0],[0]]","2","0","","","","","","4","","","","","","","","",""
"","","","","","single-stim-button","49","213515","0.0-2.0-16.2-1.2","5eb3629472398915cb013c43","D2","batch4","","1012","tol_toboard","","","","tol_peg_1","1012","1012","0","[[1,0,0],[3,2],[0]]","3","[[1,2,0],[3,0],[0]]","2","0","","","","","","4","","","","","","","","",""
"","","","","","single-stim-button","50","213995","0.0-2.0-16.3-0.3","5eb3629472398915cb013c43","D2","batch4","","479","tol_tohand","","","","tol_peg_2","479","479","0","[[1,0,0],[3,0],[0]]","4","[[1,2,0],[3,0],[0]]","2","0","","","","","","4","","","","","","","","",""
"","","","","","single-stim-button","51","214457","0.0-2.0-16.3-1.3","5eb3629472398915cb013c43","D2","batch4","","461","tol_toboard","","","","tol_peg_1","461","461","0","[[1,2,0],[3,0],[0]]","4","[[1,2,0],[3,0],[0]]","2","0","","","","","","4","","","","","","","","",""
"","","","","","poldrack-single-stim","52","215459","0.0-2.0-17.0","5eb3629472398915cb013c43","D2","batch4","","-1","tol_feedback","","","true","","1000","1000","500","","","","","","-1","none","true","12350","15935","","","","","","","","","",""
"","","","","","html-button-response","53","216369","0.0-2.0-18.0","5eb3629472398915cb013c43","D2","batch4","","908.6999998092651","tol_trial_num","<div class = centerbox><p class = center-block-text>problem <strong>4</strong> out of 25 problems</p></div>","0","","","","","","","","","","","","","","","","","","","","","","","","",""
"","","","","","single-stim-button","54","226009","0.0-2.0-19.0-0.0","5eb3629472398915cb013c43","D2","batch4","","9640","tol_tohand","","","","tol_peg_2","9640","9640","0","[[3,0,0],[2,0],[0]]","1","[[3,0,0],[1,0],[2]]","3","0","","","","","","3","","","","","","","","",""
"","","","","","single-stim-button","55","226903","0.0-2.0-19.0-1.0","5eb3629472398915cb013c43","D2","batch4","","893","tol_toboard","","","","tol_peg_1","893","893","0","[[3,1,0],[2,0],[0]]","1","[[3,0,0],[1,0],[2]]","3","0","","","","","","3","","","","","","","","",""
"","","","","","single-stim-button","56","227515","0.0-2.0-19.1-0.1","5eb3629472398915cb013c43","D2","batch4","","611","tol_tohand","","","","tol_peg_2","611","611","0","[[3,1,0],[0,0],[0]]","2","[[3,0,0],[1,0],[2]]","3","0","","","","","","3","","","","","","","","",""
"","","","","","single-stim-button","57","228133","0.0-2.0-19.1-1.1","5eb3629472398915cb013c43","D2","batch4","","618","tol_toboard","","","","tol_peg_3","618","618","0","[[3,1,0],[0,0],[2]]","2","[[3,0,0],[1,0],[2]]","3","0","","","","","","3","","","","","","","","",""
"","","","","","single-stim-button","58","228857","0.0-2.0-19.2-0.2","5eb3629472398915cb013c43","D2","batch4","","724","tol_tohand","","","","tol_peg_1","724","724","0","[[3,0,0],[0,0],[2]]","3","[[3,0,0],[1,0],[2]]","3","0","","","","","","3","","","","","","","","",""
"","","","","","single-stim-button","59","229477","0.0-2.0-19.2-1.2","5eb3629472398915cb013c43","D2","batch4","","620","tol_toboard","","","","tol_peg_2","620","620","0","[[3,0,0],[1,0],[2]]","3","[[3,0,0],[1,0],[2]]","3","0","","","","","","3","","","","","","","","",""
"","","","","","poldrack-single-stim","60","230488","0.0-2.0-20.0","5eb3629472398915cb013c43","D2","batch4","","-1","tol_feedback","","","true","","1000","1000","500","","","","","","-1","none","true","9640","10975","","","","","","","","","",""
"","","","","","html-button-response","61","231635","0.0-2.0-21.0","5eb3629472398915cb013c43","D2","batch4","","1146","tol_trial_num","<div class = centerbox><p class = center-block-text>problem <strong>5</strong> out of 25 problems</p></div>","0","","","","","","","","","","","","","","","","","","","","","","","","",""
"","","","","","single-stim-button","62","243777","0.0-2.0-22.0-0.0","5eb3629472398915cb013c43","D2","batch4","","12141","tol_tohand","","","","tol_peg_3","12141","12141","0","[[1,0,0],[2,0],[0]]","1","[[0,0,0],[1,2],[3]]","4","0","","","","","","7","","","","","","","","",""
"","","","","","single-stim-button","63","250872","0.0-2.0-22.0-1.0","5eb3629472398915cb013c43","D2","batch4","","7095","tol_toboard","","","","tol_peg_1","7095","7095","0","[[1,3,0],[2,0],[0]]","1","[[0,0,0],[1,2],[3]]","4","0","","","","","","7","","","","","","","","",""
"","","","","","single-stim-button","64","257846","0.0-2.0-22.1-0.1","5eb3629472398915cb013c43","D2","batch4","","6973","tol_tohand","","","","tol_peg_2","6973","6973","0","[[1,3,0],[0,0],[0]]","2","[[0,0,0],[1,2],[3]]","4","0","","","","","","7","","","","","","","","",""
"","","","","","single-stim-button","65","258368","0.0-2.0-22.1-1.1","5eb3629472398915cb013c43","D2","batch4","","521","tol_toboard","","","","tol_peg_3","521","521","0","[[1,3,0],[0,0],[2]]","2","[[0,0,0],[1,2],[3]]","4","0","","","","","","7","","","","","","","","",""
"","","","","","single-stim-button","66","259642","0.0-2.0-22.2-0.2","5eb3629472398915cb013c43","D2","batch4","","1274","tol_tohand","","","","tol_peg_1","1274","1274","0","[[1,0,0],[0,0],[2]]","3","[[0,0,0],[1,2],[3]]","4","0","","","","","","7","","","","","","","","",""
"","","","","","single-stim-button","67","264651","0.0-2.0-22.2-1.2","5eb3629472398915cb013c43","D2","batch4","","5008","tol_toboard","","","","tol_peg_2","5008","5008","0","[[1,0,0],[3,0],[2]]","3","[[0,0,0],[1,2],[3]]","4","0","","","","","","7","","","","","","","","",""
"","","","","","single-stim-button","68","265260","0.0-2.0-22.3-0.3","5eb3629472398915cb013c43","D2","batch4","","609","tol_tohand","","","","tol_peg_1","609","609","0","[[0,0,0],[3,0],[2]]","4","[[0,0,0],[1,2],[3]]","4","0","","","","","","7","","","","","","","","",""
"","","","","","single-stim-button","69","266004","0.0-2.0-22.3-1.3","5eb3629472398915cb013c43","D2","batch4","","744","tol_toboard","","","","tol_peg_2","744","744","0","[[0,0,0],[3,1],[2]]","4","[[0,0,0],[1,2],[3]]","4","0","","","","","","7","","","","","","","","",""
"","","","","","single-stim-button","70","270666","0.0-2.0-22.4-0.4","5eb3629472398915cb013c43","D2","batch4","","4662","tol_tohand","","","","tol_peg_3","4662","4662","0","[[0,0,0],[3,1],[0]]","5","[[0,0,0],[1,2],[3]]","4","0","","","","","","7","","","","","","","","",""
"","","","","","single-stim-button","71","272328","0.0-2.0-22.4-1.4","5eb3629472398915cb013c43","D2","batch4","","1661","tol_toboard","","","","tol_peg_1","1661","1661","0","[[2,0,0],[3,1],[0]]","5","[[0,0,0],[1,2],[3]]","4","0","","","","","","7","","","","","","","","",""
"","","","","","single-stim-button","72","273009","0.0-2.0-22.5-0.5","5eb3629472398915cb013c43","D2","batch4","","679","tol_tohand","","","","tol_peg_2","679","679","0","[[2,0,0],[3,0],[0]]","6","[[0,0,0],[1,2],[3]]","4","0","","","","","","7","","","","","","","","",""
"","","","","","single-stim-button","73","273526","0.0-2.0-22.5-1.5","5eb3629472398915cb013c43","D2","batch4","","517","tol_toboard","","","","tol_peg_1","517","517","0","[[2,1,0],[3,0],[0]]","6","[[0,0,0],[1,2],[3]]","4","0","","","","","","7","","","","","","","","",""
"","","","","","single-stim-button","74","274402","0.0-2.0-22.6-0.6","5eb3629472398915cb013c43","D2","batch4","","875","tol_tohand","","","","tol_peg_2","875","875","0","[[2,1,0],[0,0],[0]]","7","[[0,0,0],[1,2],[3]]","4","0","","","","","","7","","","","","","","","",""
"","","","","","single-stim-button","75","275212","0.0-2.0-22.6-1.6","5eb3629472398915cb013c43","D2","batch4","","809","tol_toboard","","","","tol_peg_3","809","809","0","[[2,1,0],[0,0],[3]]","7","[[0,0,0],[1,2],[3]]","4","0","","","","","","7","","","","","","","","",""
"","","","","","single-stim-button","76","276395","0.0-2.0-22.7-0.7","5eb3629472398915cb013c43","D2","batch4","","1182","tol_tohand","","","","tol_peg_1","1182","1182","0","[[2,0,0],[0,0],[3]]","8","[[0,0,0],[1,2],[3]]","4","0","","","","","","7","","","","","","","","",""
"","","","","","single-stim-button","77","276928","0.0-2.0-22.7-1.7","5eb3629472398915cb013c43","D2","batch4","","533","tol_toboard","","","","tol_peg_2","533","533","0","[[2,0,0],[1,0],[3]]","8","[[0,0,0],[1,2],[3]]","4","0","","","","","","7","","","","","","","","",""
"","","","","","single-stim-button","78","277304","0.0-2.0-22.8-0.8","5eb3629472398915cb013c43","D2","batch4","","375","tol_tohand","","","","tol_peg_1","375","375","0","[[0,0,0],[1,0],[3]]","9","[[0,0,0],[1,2],[3]]","4","0","","","","","","7","","","","","","","","",""
"","","","","","single-stim-button","79","277716","0.0-2.0-22.8-1.8","5eb3629472398915cb013c43","D2","batch4","","412","tol_toboard","","","","tol_peg_2","412","412","0","[[0,0,0],[1,2],[3]]","9","[[0,0,0],[1,2],[3]]","4","0","","","","","","7","","","","","","","","",""
"","","","","","poldrack-single-stim","80","278717","0.0-2.0-23.0","5eb3629472398915cb013c43","D2","batch4","","-1","tol_feedback","","","true","","1000","1000","500","","","","","","-1","none","true","12141","28770","","","","","","","","","",""
"","","","","","html-button-response","81","279420","0.0-2.0-24.0","5eb3629472398915cb013c43","D2","batch4","","702.5","tol_trial_num","<div class = centerbox><p class = center-block-text>problem <strong>6</strong> out of 25 problems</p></div>","0","","","","","","","","","","","","","","","","","","","","","","","","",""
"","","","","","single-stim-button","82","315830","0.0-2.0-25.0-0.0","5eb3629472398915cb013c43","D2","batch4","","36409","tol_tohand","","","","tol_peg_3","36409","36409","0","[[0,0,0],[1,2],[0]]","1","[[1,0,0],[2,3],[0]]","5","0","","","","","","6","","","","","","","","",""
"","","","","","single-stim-button","83","318565","0.0-2.0-25.0-1.0","5eb3629472398915cb013c43","D2","batch4","","2733","tol_toboard","","","","tol_peg_3","2733","2733","0","[[0,0,0],[1,2],[3]]","1","[[1,0,0],[2,3],[0]]","5","0","","","","","","6","","","","","","","","",""
"","","","","","single-stim-button","84","319317","0.0-2.0-25.1-0.1","5eb3629472398915cb013c43","D2","batch4","","751","tol_tohand","","","","tol_peg_3","751","751","0","[[0,0,0],[1,2],[0]]","2","[[1,0,0],[2,3],[0]]","5","0","","","","","","6","","","","","","","","",""
"","","","","","single-stim-button","85","320585","0.0-2.0-25.1-1.1","5eb3629472398915cb013c43","D2","batch4","","1267","tol_toboard","","","","tol_peg_1","1267","1267","0","[[3,0,0],[1,2],[0]]","2","[[1,0,0],[2,3],[0]]","5","0","","","","","","6","","","","","","","","",""
"","","","","","single-stim-button","86","321140","0.0-2.0-25.2-0.2","5eb3629472398915cb013c43","D2","batch4","","554","tol_tohand","","","","tol_peg_2","554","554","0","[[3,0,0],[1,0],[0]]","3","[[1,0,0],[2,3],[0]]","5","0","","","","","","6","","","","","","","","",""
"","","","","","single-stim-button","87","321762","0.0-2.0-25.2-1.2","5eb3629472398915cb013c43","D2","batch4","","622","tol_toboard","","","","tol_peg_3","622","622","0","[[3,0,0],[1,0],[2]]","3","[[1,0,0],[2,3],[0]]","5","0","","","","","","6","","","","","","","","",""
"","","","","","single-stim-button","88","329582","0.0-2.0-25.3-0.3","5eb3629472398915cb013c43","D2","batch4","","7819","tol_tohand","","","","tol_peg_3","7819","7819","0","[[3,0,0],[1,0],[0]]","4","[[1,0,0],[2,3],[0]]","5","0","","","","","","6","","","","","","","","",""
"","","","","","single-stim-button","89","330662","0.0-2.0-25.3-1.3","5eb3629472398915cb013c43","D2","batch4","","1079","tol_toboard","","","","tol_peg_2","1079","1079","0","[[3,0,0],[1,2],[0]]","4","[[1,0,0],[2,3],[0]]","5","0","","","","","","6","","","","","","","","",""
"","","","","","single-stim-button","90","331184","0.0-2.0-25.4-0.4","5eb3629472398915cb013c43","D2","batch4","","521","tol_tohand","","","","tol_peg_1","521","521","0","[[0,0,0],[1,2],[0]]","5","[[1,0,0],[2,3],[0]]","5","0","","","","","","6","","","","","","","","",""
"","","","","","single-stim-button","91","332388","0.0-2.0-25.4-1.4","5eb3629472398915cb013c43","D2","batch4","","1203","tol_toboard","","","","tol_peg_3","1203","1203","0","[[0,0,0],[1,2],[3]]","5","[[1,0,0],[2,3],[0]]","5","0","","","","","","6","","","","","","","","",""
"","","","","","single-stim-button","92","333288","0.0-2.0-25.5-0.5","5eb3629472398915cb013c43","D2","batch4","","899","tol_tohand","","","","tol_peg_2","899","899","0","[[0,0,0],[1,0],[3]]","6","[[1,0,0],[2,3],[0]]","5","0","","","","","","6","","","","","","","","",""
"","","","","","single-stim-button","93","337542","0.0-2.0-25.5-1.5","5eb3629472398915cb013c43","D2","batch4","","4253","tol_toboard","","","","tol_peg_1","4253","4253","0","[[2,0,0],[1,0],[3]]","6","[[1,0,0],[2,3],[0]]","5","0","","","","","","6","","","","","","","","",""
"","","","","","single-stim-button","94","338552","0.0-2.0-25.6-0.6","5eb3629472398915cb013c43","D2","batch4","","1009","tol_tohand","","","","tol_peg_2","1009","1009","0","[[2,0,0],[0,0],[3]]","7","[[1,0,0],[2,3],[0]]","5","0","","","","","","6","","","","","","","","",""
"","","","","","single-stim-button","95","340976","0.0-2.0-25.6-1.6","5eb3629472398915cb013c43","D2","batch4","","2423","tol_toboard","","","","tol_peg_1","2423","2423","0","[[2,1,0],[0,0],[3]]","7","[[1,0,0],[2,3],[0]]","5","0","","","","","","6","","","","","","","","",""
"","","","","","single-stim-button","96","341708","0.0-2.0-25.7-0.7","5eb3629472398915cb013c43","D2","batch4","","731","tol_tohand","","","","tol_peg_3","731","731","0","[[2,1,0],[0,0],[0]]","8","[[1,0,0],[2,3],[0]]","5","0","","","","","","6","","","","","","","","",""
"","","","","","single-stim-button","97","342324","0.0-2.0-25.7-1.7","5eb3629472398915cb013c43","D2","batch4","","615","tol_toboard","","","","tol_peg_2","615","615","0","[[2,1,0],[3,0],[0]]","8","[[1,0,0],[2,3],[0]]","5","0","","","","","","6","","","","","","","","",""
"","","","","","single-stim-button","98","344779","0.0-2.0-25.8-0.8","5eb3629472398915cb013c43","D2","batch4","","2453","tol_tohand","","","","tol_peg_1","2453","2453","0","[[2,0,0],[3,0],[0]]","9","[[1,0,0],[2,3],[0]]","5","0","","","","","","6","","","","","","","","",""
"","","","","","single-stim-button","99","346680","0.0-2.0-25.8-1.8","5eb3629472398915cb013c43","D2","batch4","","1901","tol_toboard","","","","tol_peg_3","1901","1901","0","[[2,0,0],[3,0],[1]]","9","[[1,0,0],[2,3],[0]]","5","0","","","","","","6","","","","","","","","",""
"","","","","","single-stim-button","100","347164","0.0-2.0-25.9-0.9","5eb3629472398915cb013c43","D2","batch4","","483","tol_tohand","","","","tol_peg_1","483","483","0","[[0,0,0],[3,0],[1]]","10","[[1,0,0],[2,3],[0]]","5","0","","","","","","6","","","","","","","","",""
"","","","","","single-stim-button","101","347590","0.0-2.0-25.9-1.9","5eb3629472398915cb013c43","D2","batch4","","426","tol_toboard","","","","tol_peg_2","426","426","0","[[0,0,0],[3,2],[1]]","10","[[1,0,0],[2,3],[0]]","5","0","","","","","","6","","","","","","","","",""
"","","","","","single-stim-button","102","348145","0.0-2.0-25.10-0.10","5eb3629472398915cb013c43","D2","batch4","","553","tol_tohand","","","","tol_peg_3","553","553","0","[[0,0,0],[3,2],[0]]","11","[[1,0,0],[2,3],[0]]","5","0","","","","","","6","","","","","","","","",""
"","","","","","single-stim-button","103","348762","0.0-2.0-25.10-1.10","5eb3629472398915cb013c43","D2","batch4","","617","tol_toboard","","","","tol_peg_1","617","617","0","[[1,0,0],[3,2],[0]]","11","[[1,0,0],[2,3],[0]]","5","0","","","","","","6","","","","","","","","",""
"","","","","","single-stim-button","104","350524","0.0-2.0-25.11-0.11","5eb3629472398915cb013c43","D2","batch4","","1761","tol_tohand","","","","tol_peg_2","1761","1761","0","[[1,0,0],[3,0],[0]]","12","[[1,0,0],[2,3],[0]]","5","0","","","","","","6","","","","","","","","",""
"","","","","","single-stim-button","105","352902","0.0-2.0-25.11-1.11","5eb3629472398915cb013c43","D2","batch4","","2377","tol_toboard","","","","tol_peg_1","2377","2377","0","[[1,2,0],[3,0],[0]]","12","[[1,0,0],[2,3],[0]]","5","0","","","","","","6","","","","","","","","",""
"","","","","","single-stim-button","106","353552","0.0-2.0-25.12-0.12","5eb3629472398915cb013c43","D2","batch4","","649","tol_tohand","","","","tol_peg_2","649","649","0","[[1,2,0],[0,0],[0]]","13","[[1,0,0],[2,3],[0]]","5","0","","","","","","6","","","","","","","","",""
"","","","","","single-stim-button","107","354244","0.0-2.0-25.12-1.12","5eb3629472398915cb013c43","D2","batch4","","691","tol_toboard","","","","tol_peg_3","691","691","0","[[1,2,0],[0,0],[3]]","13","[[1,0,0],[2,3],[0]]","5","0","","","","","","6","","","","","","","","",""
"","","","","","single-stim-button","108","354890","0.0-2.0-25.13-0.13","5eb3629472398915cb013c43","D2","batch4","","645","tol_tohand","","","","tol_peg_1","645","645","0","[[1,0,0],[0,0],[3]]","14","[[1,0,0],[2,3],[0]]","5","0","","","","","","6","","","","","","","","",""
"","","","","","single-stim-button","109","355412","0.0-2.0-25.13-1.13","5eb3629472398915cb013c43","D2","batch4","","521","tol_toboard","","","","tol_peg_2","521","521","0","[[1,0,0],[2,0],[3]]","14","[[1,0,0],[2,3],[0]]","5","0","","","","","","6","","","","","","","","",""
"","","","","","single-stim-button","110","355994","0.0-2.0-25.14-0.14","5eb3629472398915cb013c43","D2","batch4","","581","tol_tohand","","","","tol_peg_3","581","581","0","[[1,0,0],[2,0],[0]]","15","[[1,0,0],[2,3],[0]]","5","0","","","","","","6","","","","","","","","",""
"","","","","","single-stim-button","111","356374","0.0-2.0-25.14-1.14","5eb3629472398915cb013c43","D2","batch4","","379","tol_toboard","","","","tol_peg_2","379","379","0","[[1,0,0],[2,3],[0]]","15","[[1,0,0],[2,3],[0]]","5","0","","","","","","6","","","","","","","","",""
"","","","","","poldrack-single-stim","112","357379","0.0-2.0-26.0","5eb3629472398915cb013c43","D2","batch4","","-1","tol_feedback","","","true","","1000","1000","500","","","","","","-1","none","true","36409","55818","","","","","","","","","",""
"","","","","","html-button-response","113","358300","0.0-2.0-27.0","5eb3629472398915cb013c43","D2","batch4","","920.7999999523163","tol_trial_num","<div class = centerbox><p class = center-block-text>problem <strong>7</strong> out of 25 problems</p></div>","0","","","","","","","","","","","","","","","","","","","","","","","","",""
"","","","","","single-stim-button","114","373075","0.0-2.0-28.0-0.0","5eb3629472398915cb013c43","D2","batch4","","14774","tol_tohand","","","","tol_peg_3","14774","14774","0","[[2,1,0],[0,0],[0]]","1","[[1,2,0],[3,0],[0]]","6","0","","","","","","5","","","","","","","","",""
"","","","","","single-stim-button","115","375364","0.0-2.0-28.0-1.0","5eb3629472398915cb013c43","D2","batch4","","2289","tol_toboard","","","","tol_peg_2","2289","2289","0","[[2,1,0],[3,0],[0]]","1","[[1,2,0],[3,0],[0]]","6","0","","","","","","5","","","","","","","","",""
"","","","","","single-stim-button","116","376306","0.0-2.0-28.1-0.1","5eb3629472398915cb013c43","D2","batch4","","942","tol_tohand","","","","tol_peg_1","942","942","0","[[2,0,0],[3,0],[0]]","2","[[1,2,0],[3,0],[0]]","6","0","","","","","","5","","","","","","","","",""
"","","","","","single-stim-button","117","379156","0.0-2.0-28.1-1.1","5eb3629472398915cb013c43","D2","batch4","","2850","tol_toboard","","","","tol_peg_2","2850","2850","0","[[2,0,0],[3,1],[0]]","2","[[1,2,0],[3,0],[0]]","6","0","","","","","","5","","","","","","","","",""
"","","","","","single-stim-button","118","379560","0.0-2.0-28.2-0.2","5eb3629472398915cb013c43","D2","batch4","","404","tol_tohand","","","","tol_peg_1","404","404","0","[[0,0,0],[3,1],[0]]","3","[[1,2,0],[3,0],[0]]","6","0","","","","","","5","","","","","","","","",""
"","","","","","single-stim-button","119","380252","0.0-2.0-28.2-1.2","5eb3629472398915cb013c43","D2","batch4","","692","tol_toboard","","","","tol_peg_3","692","692","0","[[0,0,0],[3,1],[2]]","3","[[1,2,0],[3,0],[0]]","6","0","","","","","","5","","","","","","","","",""
"","","","","","single-stim-button","120","380706","0.0-2.0-28.3-0.3","5eb3629472398915cb013c43","D2","batch4","","454","tol_tohand","","","","tol_peg_2","454","454","0","[[0,0,0],[3,0],[2]]","4","[[1,2,0],[3,0],[0]]","6","0","","","","","","5","","","","","","","","",""
"","","","","","single-stim-button","121","381194","0.0-2.0-28.3-1.3","5eb3629472398915cb013c43","D2","batch4","","488","tol_toboard","","","","tol_peg_1","488","488","0","[[1,0,0],[3,0],[2]]","4","[[1,2,0],[3,0],[0]]","6","0","","","","","","5","","","","","","","","",""
"","","","","","single-stim-button","122","381788","0.0-2.0-28.4-0.4","5eb3629472398915cb013c43","D2","batch4","","594","tol_tohand","","","","tol_peg_3","594","594","0","[[1,0,0],[3,0],[0]]","5","[[1,2,0],[3,0],[0]]","6","0","","","","","","5","","","","","","","","",""
"","","","","","single-stim-button","123","382336","0.0-2.0-28.4-1.4","5eb3629472398915cb013c43","D2","batch4","","548","tol_toboard","","","","tol_peg_1","548","548","0","[[1,2,0],[3,0],[0]]","5","[[1,2,0],[3,0],[0]]","6","0","","","","","","5","","","","","","","","",""
"","","","","","poldrack-single-stim","124","383348","0.0-2.0-29.0","5eb3629472398915cb013c43","D2","batch4","","-1","tol_feedback","","","true","","1000","1000","500","","","","","","-1","none","true","14774","17168","","","","","","","","","",""
"","","","","","html-button-response","125","384194","0.0-2.0-30.0","5eb3629472398915cb013c43","D2","batch4","","844.8000001907349","tol_trial_num","<div class = centerbox><p class = center-block-text>problem <strong>8</strong> out of 25 problems</p></div>","0","","","","","","","","","","","","","","","","","","","","","","","","",""
"","","","","","single-stim-button","126","387596","0.0-2.0-31.0-0.0","5eb3629472398915cb013c43","D2","batch4","","3402","tol_tohand","","","","tol_peg_3","3402","3402","0","[[0,0,0],[2,3],[0]]","1","[[1,2,0],[3,0],[0]]","7","0","","","","","","4","","","","","","","","",""
"","","","","","single-stim-button","127","388330","0.0-2.0-31.0-1.0","5eb3629472398915cb013c43","D2","batch4","","734","tol_toboard","","","","tol_peg_1","734","734","0","[[1,0,0],[2,3],[0]]","1","[[1,2,0],[3,0],[0]]","7","0","","","","","","4","","","","","","","","",""
"","","","","","single-stim-button","128","388884","0.0-2.0-31.1-0.1","5eb3629472398915cb013c43","D2","batch4","","554","tol_tohand","","","","tol_peg_2","554","554","0","[[1,0,0],[2,0],[0]]","2","[[1,2,0],[3,0],[0]]","7","0","","","","","","4","","","","","","","","",""
"","","","","","single-stim-button","129","389344","0.0-2.0-31.1-1.1","5eb3629472398915cb013c43","D2","batch4","","460","tol_toboard","","","","tol_peg_3","460","460","0","[[1,0,0],[2,0],[3]]","2","[[1,2,0],[3,0],[0]]","7","0","","","","","","4","","","","","","","","",""
"","","","","","single-stim-button","130","389770","0.0-2.0-31.2-0.2","5eb3629472398915cb013c43","D2","batch4","","426","tol_tohand","","","","tol_peg_2","426","426","0","[[1,0,0],[0,0],[3]]","3","[[1,2,0],[3,0],[0]]","7","0","","","","","","4","","","","","","","","",""
"","","","","","single-stim-button","131","390194","0.0-2.0-31.2-1.2","5eb3629472398915cb013c43","D2","batch4","","424","tol_toboard","","","","tol_peg_1","424","424","0","[[1,2,0],[0,0],[3]]","3","[[1,2,0],[3,0],[0]]","7","0","","","","","","4","","","","","","","","",""
"","","","","","single-stim-button","132","390992","0.0-2.0-31.3-0.3","5eb3629472398915cb013c43","D2","batch4","","798","tol_tohand","","","","tol_peg_3","798","798","0","[[1,2,0],[0,0],[0]]","4","[[1,2,0],[3,0],[0]]","7","0","","","","","","4","","","","","","","","",""
"","","","","","single-stim-button","133","391388","0.0-2.0-31.3-1.3","5eb3629472398915cb013c43","D2","batch4","","396","tol_toboard","","","","tol_peg_2","396","396","0","[[1,2,0],[3,0],[0]]","4","[[1,2,0],[3,0],[0]]","7","0","","","","","","4","","","","","","","","",""
"","","","","","poldrack-single-stim","134","392397","0.0-2.0-32.0","5eb3629472398915cb013c43","D2","batch4","","-1","tol_feedback","","","true","","1000","1000","500","","","","","","-1","none","true","3402","5180","","","","","","","","","",""
"","","","","","html-button-response","135","393078","0.0-2.0-33.0","5eb3629472398915cb013c43","D2","batch4","","680.4000000953674","tol_trial_num","<div class = centerbox><p class = center-block-text>problem <strong>9</strong> out of 25 problems</p></div>","0","","","","","","","","","","","","","","","","","","","","","","","","",""
"","","","","","single-stim-button","136","409214","0.0-2.0-34.0-0.0","5eb3629472398915cb013c43","D2","batch4","","16135","tol_tohand","","","","tol_peg_1","16135","16135","0","[[3,0,0],[0,0],[1]]","1","[[2,1,0],[3,0],[0]]","8","0","","","","","","6","","","","","","","","",""
"","","","","","single-stim-button","137","409888","0.0-2.0-34.0-1.0","5eb3629472398915cb013c43","D2","batch4","","674","tol_toboard","","","","tol_peg_2","674","674","0","[[3,0,0],[2,0],[1]]","1","[[2,1,0],[3,0],[0]]","8","0","","","","","","6","","","","","","","","",""
"","","","","","single-stim-button","138","410504","0.0-2.0-34.1-0.1","5eb3629472398915cb013c43","D2","batch4","","616","tol_tohand","","","","tol_peg_1","616","616","0","[[0,0,0],[2,0],[1]]","2","[[2,1,0],[3,0],[0]]","8","0","","","","","","6","","","","","","","","",""
"","","","","","single-stim-button","139","418892","0.0-2.0-34.1-1.1","5eb3629472398915cb013c43","D2","batch4","","8388","tol_toboard","","","","tol_peg_2","8388","8388","0","[[0,0,0],[2,3],[1]]","2","[[2,1,0],[3,0],[0]]","8","0","","","","","","6","","","","","","","","",""
"","","","","","single-stim-button","140","419696","0.0-2.0-34.2-0.2","5eb3629472398915cb013c43","D2","batch4","","804","tol_tohand","","","","tol_peg_3","804","804","0","[[0,0,0],[2,3],[0]]","3","[[2,1,0],[3,0],[0]]","8","0","","","","","","6","","","","","","","","",""
"","","","","","single-stim-button","141","421080","0.0-2.0-34.2-1.2","5eb3629472398915cb013c43","D2","batch4","","1383","tol_toboard","","","","tol_peg_1","1383","1383","0","[[1,0,0],[2,3],[0]]","3","[[2,1,0],[3,0],[0]]","8","0","","","","","","6","","","","","","","","",""
"","","","","","single-stim-button","142","421900","0.0-2.0-34.3-0.3","5eb3629472398915cb013c43","D2","batch4","","820","tol_tohand","","","","tol_peg_2","820","820","0","[[1,0,0],[2,0],[0]]","4","[[2,1,0],[3,0],[0]]","8","0","","","","","","6","","","","","","","","",""
"","","","","","single-stim-button","143","425654","0.0-2.0-34.3-1.3","5eb3629472398915cb013c43","D2","batch4","","3754","tol_toboard","","","","tol_peg_3","3754","3754","0","[[1,0,0],[2,0],[3]]","4","[[2,1,0],[3,0],[0]]","8","0","","","","","","6","","","","","","","","",""
"","","","","","single-stim-button","144","428752","0.0-2.0-34.4-0.4","5eb3629472398915cb013c43","D2","batch4","","3098","tol_tohand","","","","tol_peg_2","3098","3098","0","[[1,0,0],[0,0],[3]]","5","[[2,1,0],[3,0],[0]]","8","0","","","","","","6","","","","","","","","",""
"","","","","","single-stim-button","145","430730","0.0-2.0-34.4-1.4","5eb3629472398915cb013c43","D2","batch4","","1978","tol_toboard","","","","tol_peg_1","1978","1978","0","[[1,2,0],[0,0],[3]]","5","[[2,1,0],[3,0],[0]]","8","0","","","","","","6","","","","","","","","",""
"","","","","","single-stim-button","146","431506","0.0-2.0-34.5-0.5","5eb3629472398915cb013c43","D2","batch4","","775","tol_tohand","","","","tol_peg_3","775","775","0","[[1,2,0],[0,0],[0]]","6","[[2,1,0],[3,0],[0]]","8","0","","","","","","6","","","","","","","","",""
"","","","","","single-stim-button","147","432012","0.0-2.0-34.5-1.5","5eb3629472398915cb013c43","D2","batch4","","505","tol_toboard","","","","tol_peg_2","505","505","0","[[1,2,0],[3,0],[0]]","6","[[2,1,0],[3,0],[0]]","8","0","","","","","","6","","","","","","","","",""
"","","","","","single-stim-button","148","432626","0.0-2.0-34.6-0.6","5eb3629472398915cb013c43","D2","batch4","","613","tol_tohand","","","","tol_peg_1","613","613","0","[[1,0,0],[3,0],[0]]","7","[[2,1,0],[3,0],[0]]","8","0","","","","","","6","","","","","","","","",""
"","","","","","single-stim-button","149","434180","0.0-2.0-34.6-1.6","5eb3629472398915cb013c43","D2","batch4","","1553","tol_toboard","","","","tol_peg_2","1553","1553","0","[[1,0,0],[3,2],[0]]","7","[[2,1,0],[3,0],[0]]","8","0","","","","","","6","","","","","","","","",""
"","","","","","single-stim-button","150","434660","0.0-2.0-34.7-0.7","5eb3629472398915cb013c43","D2","batch4","","479","tol_tohand","","","","tol_peg_1","479","479","0","[[0,0,0],[3,2],[0]]","8","[[2,1,0],[3,0],[0]]","8","0","","","","","","6","","","","","","","","",""
"","","","","","single-stim-button","151","435400","0.0-2.0-34.7-1.7","5eb3629472398915cb013c43","D2","batch4","","739","tol_toboard","","","","tol_peg_3","739","739","0","[[0,0,0],[3,2],[1]]","8","[[2,1,0],[3,0],[0]]","8","0","","","","","","6","","","","","","","","",""
"","","","","","single-stim-button","152","435874","0.0-2.0-34.8-0.8","5eb3629472398915cb013c43","D2","batch4","","473","tol_tohand","","","","tol_peg_2","473","473","0","[[0,0,0],[3,0],[1]]","9","[[2,1,0],[3,0],[0]]","8","0","","","","","","6","","","","","","","","",""
"","","","","","single-stim-button","153","436364","0.0-2.0-34.8-1.8","5eb3629472398915cb013c43","D2","batch4","","489","tol_toboard","","","","tol_peg_1","489","489","0","[[2,0,0],[3,0],[1]]","9","[[2,1,0],[3,0],[0]]","8","0","","","","","","6","","","","","","","","",""
"","","","","","single-stim-button","154","437112","0.0-2.0-34.9-0.9","5eb3629472398915cb013c43","D2","batch4","","747","tol_tohand","","","","tol_peg_3","747","747","0","[[2,0,0],[3,0],[0]]","10","[[2,1,0],[3,0],[0]]","8","0","","","","","","6","","","","","","","","",""
"","","","","","single-stim-button","155","437654","0.0-2.0-34.9-1.9","5eb3629472398915cb013c43","D2","batch4","","541","tol_toboard","","","","tol_peg_1","541","541","0","[[2,1,0],[3,0],[0]]","10","[[2,1,0],[3,0],[0]]","8","0","","","","","","6","","","","","","","","",""
"","","","","","poldrack-single-stim","156","438662","0.0-2.0-35.0","5eb3629472398915cb013c43","D2","batch4","","-1","tol_feedback","","","true","","1000","1000","500","","","","","","-1","none","true","16135","24560","","","","","","","","","",""
"","","","","","html-button-response","157","439533","0.0-2.0-36.0","5eb3629472398915cb013c43","D2","batch4","","869.5999999046326","tol_trial_num","<div class = centerbox><p class = center-block-text>problem <strong>10</strong> out of 25 problems</p></div>","0","","","","","","","","","","","","","","","","","","","","","","","","",""
"","","","","","single-stim-button","158","447358","0.0-2.0-37.0-0.0","5eb3629472398915cb013c43","D2","batch4","","7825","tol_tohand","","","","tol_peg_2","7825","7825","0","[[3,0,0],[0,0],[2]]","1","[[3,0,0],[2,1],[0]]","9","0","","","","","","3","","","","","","","","",""
"","","","","","single-stim-button","159","448748","0.0-2.0-37.0-1.0","5eb3629472398915cb013c43","D2","batch4","","1389","tol_toboard","","","","tol_peg_1","1389","1389","0","[[3,1,0],[0,0],[2]]","1","[[3,0,0],[2,1],[0]]","9","0","","","","","","3","","","","","","","","",""
"","","","","","single-stim-button","160","449196","0.0-2.0-37.1-0.1","5eb3629472398915cb013c43","D2","batch4","","447","tol_tohand","","","","tol_peg_3","447","447","0","[[3,1,0],[0,0],[0]]","2","[[3,0,0],[2,1],[0]]","9","0","","","","","","3","","","","","","","","",""
"","","","","","single-stim-button","161","449694","0.0-2.0-37.1-1.1","5eb3629472398915cb013c43","D2","batch4","","498","tol_toboard","","","","tol_peg_2","498","498","0","[[3,1,0],[2,0],[0]]","2","[[3,0,0],[2,1],[0]]","9","0","","","","","","3","","","","","","","","",""
"","","","","","single-stim-button","162","450074","0.0-2.0-37.2-0.2","5eb3629472398915cb013c43","D2","batch4","","379","tol_tohand","","","","tol_peg_1","379","379","0","[[3,0,0],[2,0],[0]]","3","[[3,0,0],[2,1],[0]]","9","0","","","","","","3","","","","","","","","",""
"","","","","","single-stim-button","163","450458","0.0-2.0-37.2-1.2","5eb3629472398915cb013c43","D2","batch4","","383","tol_toboard","","","","tol_peg_2","383","383","0","[[3,0,0],[2,1],[0]]","3","[[3,0,0],[2,1],[0]]","9","0","","","","","","3","","","","","","","","",""
"","","","","","poldrack-single-stim","164","451459","0.0-2.0-38.0","5eb3629472398915cb013c43","D2","batch4","","-1","tol_feedback","","","true","","1000","1000","500","","","","","","-1","none","true","7825","8651","","","","","","","","","",""
"","","","","","html-button-response","165","452082","0.0-2.0-39.0","5eb3629472398915cb013c43","D2","batch4","","622.5","tol_trial_num","<div class = centerbox><p class = center-block-text>problem <strong>11</strong> out of 25 problems</p></div>","0","","","","","","","","","","","","","","","","","","","","","","","","",""
"","","","","","single-stim-button","166","457488","0.0-2.0-40.0-0.0","5eb3629472398915cb013c43","D2","batch4","","5405","tol_tohand","","","","tol_peg_1","5405","5405","0","[[1,0,0],[3,0],[0]]","1","[[2,0,0],[1,3],[0]]","10","0","","","","","","6","","","","","","","","",""
"","","","","","single-stim-button","167","461518","0.0-2.0-40.0-1.0","5eb3629472398915cb013c43","D2","batch4","","4029","tol_toboard","","","","tol_peg_3","4029","4029","0","[[1,0,0],[3,0],[2]]","1","[[2,0,0],[1,3],[0]]","10","0","","","","","","6","","","","","","","","",""
"","","","","","single-stim-button","168","462318","0.0-2.0-40.1-0.1","5eb3629472398915cb013c43","D2","batch4","","799","tol_tohand","","","","tol_peg_1","799","799","0","[[0,0,0],[3,0],[2]]","2","[[2,0,0],[1,3],[0]]","10","0","","","","","","6","","","","","","","","",""
"","","","","","single-stim-button","169","462820","0.0-2.0-40.1-1.1","5eb3629472398915cb013c43","D2","batch4","","502","tol_toboard","","","","tol_peg_2","502","502","0","[[0,0,0],[3,1],[2]]","2","[[2,0,0],[1,3],[0]]","10","0","","","","","","6","","","","","","","","",""
"","","","","","single-stim-button","170","463270","0.0-2.0-40.2-0.2","5eb3629472398915cb013c43","D2","batch4","","449","tol_tohand","","","","tol_peg_3","449","449","0","[[0,0,0],[3,1],[0]]","3","[[2,0,0],[1,3],[0]]","10","0","","","","","","6","","","","","","","","",""
"","","","","","single-stim-button","171","464022","0.0-2.0-40.2-1.2","5eb3629472398915cb013c43","D2","batch4","","751","tol_toboard","","","","tol_peg_1","751","751","0","[[2,0,0],[3,1],[0]]","3","[[2,0,0],[1,3],[0]]","10","0","","","","","","6","","","","","","","","",""
"","","","","","single-stim-button","172","464556","0.0-2.0-40.3-0.3","5eb3629472398915cb013c43","D2","batch4","","533","tol_tohand","","","","tol_peg_2","533","533","0","[[2,0,0],[3,0],[0]]","4","[[2,0,0],[1,3],[0]]","10","0","","","","","","6","","","","","","","","",""
"","","","","","single-stim-button","173","466844","0.0-2.0-40.3-1.3","5eb3629472398915cb013c43","D2","batch4","","2287","tol_toboard","","","","tol_peg_1","2287","2287","0","[[2,1,0],[3,0],[0]]","4","[[2,0,0],[1,3],[0]]","10","0","","","","","","6","","","","","","","","",""
"","","","","","single-stim-button","174","467244","0.0-2.0-40.4-0.4","5eb3629472398915cb013c43","D2","batch4","","399","tol_tohand","","","","tol_peg_2","399","399","0","[[2,1,0],[0,0],[0]]","5","[[2,0,0],[1,3],[0]]","10","0","","","","","","6","","","","","","","","",""
"","","","","","single-stim-button","175","467656","0.0-2.0-40.4-1.4","5eb3629472398915cb013c43","D2","batch4","","411","tol_toboard","","","","tol_peg_3","411","411","0","[[2,1,0],[0,0],[3]]","5","[[2,0,0],[1,3],[0]]","10","0","","","","","","6","","","","","","","","",""
"","","","","","single-stim-button","176","468304","0.0-2.0-40.5-0.5","5eb3629472398915cb013c43","D2","batch4","","648","tol_tohand","","","","tol_peg_1","648","648","0","[[2,0,0],[0,0],[3]]","6","[[2,0,0],[1,3],[0]]","10","0","","","","","","6","","","","","","","","",""
"","","","","","single-stim-button","177","468744","0.0-2.0-40.5-1.5","5eb3629472398915cb013c43","D2","batch4","","439","tol_toboard","","","","tol_peg_2","439","439","0","[[2,0,0],[1,0],[3]]","6","[[2,0,0],[1,3],[0]]","10","0","","","","","","6","","","","","","","","",""
"","","","","","single-stim-button","178","469274","0.0-2.0-40.6-0.6","5eb3629472398915cb013c43","D2","batch4","","529","tol_tohand","","","","tol_peg_3","529","529","0","[[2,0,0],[1,0],[0]]","7","[[2,0,0],[1,3],[0]]","10","0","","","","","","6","","","","","","","","",""
"","","","","","single-stim-button","179","469602","0.0-2.0-40.6-1.6","5eb3629472398915cb013c43","D2","batch4","","327","tol_toboard","","","","tol_peg_2","327","327","0","[[2,0,0],[1,3],[0]]","7","[[2,0,0],[1,3],[0]]","10","0","","","","","","6","","","","","","","","",""
"","","","","","poldrack-single-stim","180","470610","0.0-2.0-41.0","5eb3629472398915cb013c43","D2","batch4","","-1","tol_feedback","","","true","","1000","1000","500","","","","","","-1","none","true","5405","8762","","","","","","","","","",""
"","","","","","html-button-response","181","471324","0.0-2.0-42.0","5eb3629472398915cb013c43","D2","batch4","","714.2000000476837","tol_trial_num","<div class = centerbox><p class = center-block-text>problem <strong>12</strong> out of 25 problems</p></div>","0","","","","","","","","","","","","","","","","","","","","","","","","",""
"","","","","","single-stim-button","182","475374","0.0-2.0-43.0-0.0","5eb3629472398915cb013c43","D2","batch4","","4049","tol_tohand","","","","tol_peg_1","4049","4049","0","[[1,0,0],[3,0],[0]]","1","[[2,3,0],[0,0],[1]]","11","0","","","","","","4","","","","","","","","",""
"","","","","","single-stim-button","183","475966","0.0-2.0-43.0-1.0","5eb3629472398915cb013c43","D2","batch4","","591","tol_toboard","","","","tol_peg_2","591","591","0","[[1,0,0],[3,2],[0]]","1","[[2,3,0],[0,0],[1]]","11","0","","","","","","4","","","","","","","","",""
"","","","","","single-stim-button","184","476382","0.0-2.0-43.1-0.1","5eb3629472398915cb013c43","D2","batch4","","415","tol_tohand","","","","tol_peg_1","415","415","0","[[0,0,0],[3,2],[0]]","2","[[2,3,0],[0,0],[1]]","11","0","","","","","","4","","","","","","","","",""
"","","","","","single-stim-button","185","477344","0.0-2.0-43.1-1.1","5eb3629472398915cb013c43","D2","batch4","","962","tol_toboard","","","","tol_peg_3","962","962","0","[[0,0,0],[3,2],[1]]","2","[[2,3,0],[0,0],[1]]","11","0","","","","","","4","","","","","","","","",""
"","","","","","single-stim-button","186","482654","0.0-2.0-43.2-0.2","5eb3629472398915cb013c43","D2","batch4","","5309","tol_tohand","","","","tol_peg_3","5309","5309","0","[[0,0,0],[3,2],[0]]","3","[[2,3,0],[0,0],[1]]","11","0","","","","","","4","","","","","","","","",""
"","","","","","single-stim-button","187","483884","0.0-2.0-43.2-1.2","5eb3629472398915cb013c43","D2","batch4","","1229","tol_toboard","","","","tol_peg_1","1229","1229","0","[[1,0,0],[3,2],[0]]","3","[[2,3,0],[0,0],[1]]","11","0","","","","","","4","","","","","","","","",""
"","","","","","single-stim-button","188","484394","0.0-2.0-43.3-0.3","5eb3629472398915cb013c43","D2","batch4","","509","tol_tohand","","","","tol_peg_2","509","509","0","[[1,0,0],[3,0],[0]]","4","[[2,3,0],[0,0],[1]]","11","0","","","","","","4","","","","","","","","",""
"","","","","","single-stim-button","189","484746","0.0-2.0-43.3-1.3","5eb3629472398915cb013c43","D2","batch4","","351","tol_toboard","","","","tol_peg_3","351","351","0","[[1,0,0],[3,0],[2]]","4","[[2,3,0],[0,0],[1]]","11","0","","","","","","4","","","","","","","","",""
"","","","","","single-stim-button","190","490344","0.0-2.0-43.4-0.4","5eb3629472398915cb013c43","D2","batch4","","5597","tol_tohand","","","","tol_peg_2","5597","5597","0","[[1,0,0],[0,0],[2]]","5","[[2,3,0],[0,0],[1]]","11","0","","","","","","4","","","","","","","","",""
"","","","","","single-stim-button","191","495970","0.0-2.0-43.4-1.4","5eb3629472398915cb013c43","D2","batch4","","5625","tol_toboard","","","","tol_peg_2","5625","5625","0","[[1,0,0],[3,0],[2]]","5","[[2,3,0],[0,0],[1]]","11","0","","","","","","4","","","","","","","","",""
"","","","","","single-stim-button","192","496474","0.0-2.0-43.5-0.5","5eb3629472398915cb013c43","D2","batch4","","503","tol_tohand","","","","tol_peg_3","503","503","0","[[1,0,0],[3,0],[0]]","6","[[2,3,0],[0,0],[1]]","11","0","","","","","","4","","","","","","","","",""
"","","","","","single-stim-button","193","498614","0.0-2.0-43.5-1.5","5eb3629472398915cb013c43","D2","batch4","","2139","tol_toboard","","","","tol_peg_2","2139","2139","0","[[1,0,0],[3,2],[0]]","6","[[2,3,0],[0,0],[1]]","11","0","","","","","","4","","","","","","","","",""
"","","","","","single-stim-button","194","499105","0.0-2.0-43.6-0.6","5eb3629472398915cb013c43","D2","batch4","","489","tol_tohand","","","","tol_peg_1","489","489","0","[[0,0,0],[3,2],[0]]","7","[[2,3,0],[0,0],[1]]","11","0","","","","","","4","","","","","","","","",""
"","","","","","single-stim-button","195","499916","0.0-2.0-43.6-1.6","5eb3629472398915cb013c43","D2","batch4","","811","tol_toboard","","","","tol_peg_3","811","811","0","[[0,0,0],[3,2],[1]]","7","[[2,3,0],[0,0],[1]]","11","0","","","","","","4","","","","","","","","",""
"","","","","","single-stim-button","196","500388","0.0-2.0-43.7-0.7","5eb3629472398915cb013c43","D2","batch4","","471","tol_tohand","","","","tol_peg_2","471","471","0","[[0,0,0],[3,0],[1]]","8","[[2,3,0],[0,0],[1]]","11","0","","","","","","4","","","","","","","","",""
"","","","","","single-stim-button","197","500716","0.0-2.0-43.7-1.7","5eb3629472398915cb013c43","D2","batch4","","327","tol_toboard","","","","tol_peg_1","327","327","0","[[2,0,0],[3,0],[1]]","8","[[2,3,0],[0,0],[1]]","11","0","","","","","","4","","","","","","","","",""
"","","","","","single-stim-button","198","501152","0.0-2.0-43.8-0.8","5eb3629472398915cb013c43","D2","batch4","","436","tol_tohand","","","","tol_peg_2","436","436","0","[[2,0,0],[0,0],[1]]","9","[[2,3,0],[0,0],[1]]","11","0","","","","","","4","","","","","","","","",""
"","","","","","single-stim-button","199","501428","0.0-2.0-43.8-1.8","5eb3629472398915cb013c43","D2","batch4","","276","tol_toboard","","","","tol_peg_1","276","276","0","[[2,3,0],[0,0],[1]]","9","[[2,3,0],[0,0],[1]]","11","0","","","","","","4","","","","","","","","",""
"","","","","","poldrack-single-stim","200","502434","0.0-2.0-44.0","5eb3629472398915cb013c43","D2","batch4","","-1","tol_feedback","","","true","","1000","1000","500","","","","","","-1","none","true","4049","17778","","","","","","","","","",""
"","","","","","html-button-response","201","503186","0.0-2.0-45.0","5eb3629472398915cb013c43","D2","batch4","","751.7999999523163","tol_trial_num","<div class = centerbox><p class = center-block-text>problem <strong>13</strong> out of 25 problems</p></div>","0","","","","","","","","","","","","","","","","","","","","","","","","",""
"","","","","","single-stim-button","202","506930","0.0-2.0-46.0-0.0","5eb3629472398915cb013c43","D2","batch4","","3743","tol_tohand","","","","tol_peg_2","3743","3743","0","[[1,2,0],[0,0],[0]]","1","[[0,0,0],[2,3],[1]]","12","0","","","","","","4","","","","","","","","",""
"","","","","","single-stim-button","203","507436","0.0-2.0-46.0-1.0","5eb3629472398915cb013c43","D2","batch4","","505","tol_toboard","","","","tol_peg_3","505","505","0","[[1,2,0],[0,0],[3]]","1","[[0,0,0],[2,3],[1]]","12","0","","","","","","4","","","","","","","","",""
"","","","","","single-stim-button","204","508342","0.0-2.0-46.1-0.1","5eb3629472398915cb013c43","D2","batch4","","905","tol_tohand","","","","tol_peg_1","905","905","0","[[1,0,0],[0,0],[3]]","2","[[0,0,0],[2,3],[1]]","12","0","","","","","","4","","","","","","","","",""
"","","","","","single-stim-button","205","508848","0.0-2.0-46.1-1.1","5eb3629472398915cb013c43","D2","batch4","","505","tol_toboard","","","","tol_peg_2","505","505","0","[[1,0,0],[2,0],[3]]","2","[[0,0,0],[2,3],[1]]","12","0","","","","","","4","","","","","","","","",""
"","","","","","single-stim-button","206","509302","0.0-2.0-46.2-0.2","5eb3629472398915cb013c43","D2","batch4","","454","tol_tohand","","","","tol_peg_3","454","454","0","[[1,0,0],[2,0],[0]]","3","[[0,0,0],[2,3],[1]]","12","0","","","","","","4","","","","","","","","",""
"","","","","","single-stim-button","207","509734","0.0-2.0-46.2-1.2","5eb3629472398915cb013c43","D2","batch4","","431","tol_toboard","","","","tol_peg_2","431","431","0","[[1,0,0],[2,3],[0]]","3","[[0,0,0],[2,3],[1]]","12","0","","","","","","4","","","","","","","","",""
"","","","","","single-stim-button","208","510130","0.0-2.0-46.3-0.3","5eb3629472398915cb013c43","D2","batch4","","395","tol_tohand","","","","tol_peg_1","395","395","0","[[0,0,0],[2,3],[0]]","4","[[0,0,0],[2,3],[1]]","12","0","","","","","","4","","","","","","","","",""
"","","","","","single-stim-button","209","510506","0.0-2.0-46.3-1.3","5eb3629472398915cb013c43","D2","batch4","","376","tol_toboard","","","","tol_peg_3","376","376","0","[[0,0,0],[2,3],[1]]","4","[[0,0,0],[2,3],[1]]","12","0","","","","","","4","","","","","","","","",""
"","","","","","poldrack-single-stim","210","511513","0.0-2.0-47.0","5eb3629472398915cb013c43","D2","batch4","","-1","tol_feedback","","","true","","1000","1000","500","","","","","","-1","none","true","3743","5497","","","","","","","","","",""
"","","","","","html-button-response","211","519880","0.0-2.0-48.0","5eb3629472398915cb013c43","D2","batch4","","8366.199999809265","attention_check","<p class = block-text>How many balls are in your board<br></p>","1","true","","","","","","","","","","","","","","","","","","","","","","","",""
"","","","","","html-button-response","212","521000","0.0-2.0-49.0","5eb3629472398915cb013c43","D2","batch4","","1119","tol_trial_num","<div class = centerbox><p class = center-block-text>problem <strong>14</strong> out of 25 problems</p></div>","0","","","","","","","","","","","","","","","","","","","","","","","","",""
"","","","","","single-stim-button","213","530852","0.0-2.0-50.0-0.0","5eb3629472398915cb013c43","D2","batch4","","9851","tol_tohand","","","","tol_peg_1","9851","9851","0","[[2,0,0],[3,0],[0]]","1","[[1,2,0],[3,0],[0]]","13","0","","","","","","4","","","","","","","","",""
"","","","","","single-stim-button","214","533338","0.0-2.0-50.0-1.0","5eb3629472398915cb013c43","D2","batch4","","2485","tol_toboard","","","","tol_peg_2","2485","2485","0","[[2,0,0],[3,1],[0]]","1","[[1,2,0],[3,0],[0]]","13","0","","","","","","4","","","","","","","","",""
"","","","","","single-stim-button","215","534118","0.0-2.0-50.1-0.1","5eb3629472398915cb013c43","D2","batch4","","779","tol_tohand","","","","tol_peg_1","779","779","0","[[0,0,0],[3,1],[0]]","2","[[1,2,0],[3,0],[0]]","13","0","","","","","","4","","","","","","","","",""
"","","","","","single-stim-button","216","534540","0.0-2.0-50.1-1.1","5eb3629472398915cb013c43","D2","batch4","","421","tol_toboard","","","","tol_peg_3","421","421","0","[[0,0,0],[3,1],[2]]","2","[[1,2,0],[3,0],[0]]","13","0","","","","","","4","","","","","","","","",""
"","","","","","single-stim-button","217","535539","0.0-2.0-50.2-0.2","5eb3629472398915cb013c43","D2","batch4","","997","tol_tohand","","","","tol_peg_2","997","997","0","[[0,0,0],[3,0],[2]]","3","[[1,2,0],[3,0],[0]]","13","0","","","","","","4","","","","","","","","",""
"","","","","","single-stim-button","218","535838","0.0-2.0-50.2-1.2","5eb3629472398915cb013c43","D2","batch4","","299","tol_toboard","","","","tol_peg_1","299","299","0","[[1,0,0],[3,0],[2]]","3","[[1,2,0],[3,0],[0]]","13","0","","","","","","4","","","","","","","","",""
"","","","","","single-stim-button","219","536336","0.0-2.0-50.3-0.3","5eb3629472398915cb013c43","D2","batch4","","497","tol_tohand","","","","tol_peg_3","497","497","0","[[1,0,0],[3,0],[0]]","4","[[1,2,0],[3,0],[0]]","13","0","","","","","","4","","","","","","","","",""
"","","","","","single-stim-button","220","536732","0.0-2.0-50.3-1.3","5eb3629472398915cb013c43","D2","batch4","","396","tol_toboard","","","","tol_peg_1","396","396","0","[[1,2,0],[3,0],[0]]","4","[[1,2,0],[3,0],[0]]","13","0","","","","","","4","","","","","","","","",""
"","","","","","poldrack-single-stim","221","537735","0.0-2.0-51.0","5eb3629472398915cb013c43","D2","batch4","","-1","tol_feedback","","","true","","1000","1000","500","","","","","","-1","none","true","9851","12124","","","","","","","","","",""
"","","","","","html-button-response","222","538624","0.0-2.0-52.0","5eb3629472398915cb013c43","D2","batch4","","888.9000000953674","tol_trial_num","<div class = centerbox><p class = center-block-text>problem <strong>15</strong> out of 25 problems</p></div>","0","","","","","","","","","","","","","","","","","","","","","","","","",""
"","","","","","single-stim-button","223","543284","0.0-2.0-53.0-0.0","5eb3629472398915cb013c43","D2","batch4","","4659","tol_tohand","","","","tol_peg_1","4659","4659","0","[[1,0,0],[3,0],[0]]","1","[[2,0,0],[3,0],[1]]","14","0","","","","","","3","","","","","","","","",""
"","","","","","single-stim-button","224","543756","0.0-2.0-53.0-1.0","5eb3629472398915cb013c43","D2","batch4","","472","tol_toboard","","","","tol_peg_2","472","472","0","[[1,0,0],[3,2],[0]]","1","[[2,0,0],[3,0],[1]]","14","0","","","","","","3","","","","","","","","",""
"","","","","","single-stim-button","225","544246","0.0-2.0-53.1-0.1","5eb3629472398915cb013c43","D2","batch4","","490","tol_tohand","","","","tol_peg_1","490","490","0","[[0,0,0],[3,2],[0]]","2","[[2,0,0],[3,0],[1]]","14","0","","","","","","3","","","","","","","","",""
"","","","","","single-stim-button","226","544824","0.0-2.0-53.1-1.1","5eb3629472398915cb013c43","D2","batch4","","578","tol_toboard","","","","tol_peg_3","578","578","0","[[0,0,0],[3,2],[1]]","2","[[2,0,0],[3,0],[1]]","14","0","","","","","","3","","","","","","","","",""
"","","","","","single-stim-button","227","545378","0.0-2.0-53.2-0.2","5eb3629472398915cb013c43","D2","batch4","","554","tol_tohand","","","","tol_peg_2","554","554","0","[[0,0,0],[3,0],[1]]","3","[[2,0,0],[3,0],[1]]","14","0","","","","","","3","","","","","","","","",""
"","","","","","single-stim-button","228","545754","0.0-2.0-53.2-1.2","5eb3629472398915cb013c43","D2","batch4","","375","tol_toboard","","","","tol_peg_1","375","375","0","[[2,0,0],[3,0],[1]]","3","[[2,0,0],[3,0],[1]]","14","0","","","","","","3","","","","","","","","",""
"","","","","","poldrack-single-stim","229","546756","0.0-2.0-54.0","5eb3629472398915cb013c43","D2","batch4","","-1","tol_feedback","","","true","","1000","1000","500","","","","","","-1","none","true","4659","5703","","","","","","","","","",""
"","","","","","html-button-response","230","547688","0.0-2.0-55.0","5eb3629472398915cb013c43","D2","batch4","","931.8000001907349","tol_trial_num","<div class = centerbox><p class = center-block-text>problem <strong>16</strong> out of 25 problems</p></div>","0","","","","","","","","","","","","","","","","","","","","","","","","",""
"","","","","","single-stim-button","231","553462","0.0-2.0-56.0-0.0","5eb3629472398915cb013c43","D2","batch4","","5773","tol_tohand","","","","tol_peg_3","5773","5773","0","[[0,0,0],[2,3],[0]]","1","[[2,3,0],[1,0],[0]]","15","0","","","","","","7","","","","","","","","",""
"","","","","","single-stim-button","232","554996","0.0-2.0-56.0-1.0","5eb3629472398915cb013c43","D2","batch4","","1534","tol_toboard","","","","tol_peg_1","1534","1534","0","[[1,0,0],[2,3],[0]]","1","[[2,3,0],[1,0],[0]]","15","0","","","","","","7","","","","","","","","",""
"","","","","","single-stim-button","233","555787","0.0-2.0-56.1-0.1","5eb3629472398915cb013c43","D2","batch4","","791","tol_tohand","","","","tol_peg_2","791","791","0","[[1,0,0],[2,0],[0]]","2","[[2,3,0],[1,0],[0]]","15","0","","","","","","7","","","","","","","","",""
"","","","","","single-stim-button","234","556352","0.0-2.0-56.1-1.1","5eb3629472398915cb013c43","D2","batch4","","565","tol_toboard","","","","tol_peg_3","565","565","0","[[1,0,0],[2,0],[3]]","2","[[2,3,0],[1,0],[0]]","15","0","","","","","","7","","","","","","","","",""
"","","","","","single-stim-button","235","574750","0.0-2.0-56.2-0.2","5eb3629472398915cb013c43","D2","batch4","","18398","tol_tohand","","","","tol_peg_1","18398","18398","0","[[0,0,0],[2,0],[3]]","3","[[2,3,0],[1,0],[0]]","15","0","","","","","","7","","","","","","","","",""
"","","","","","single-stim-button","236","575264","0.0-2.0-56.2-1.2","5eb3629472398915cb013c43","D2","batch4","","513","tol_toboard","","","","tol_peg_2","513","513","0","[[0,0,0],[2,1],[3]]","3","[[2,3,0],[1,0],[0]]","15","0","","","","","","7","","","","","","","","",""
"","","","","","single-stim-button","237","576050","0.0-2.0-56.3-0.3","5eb3629472398915cb013c43","D2","batch4","","786","tol_tohand","","","","tol_peg_3","786","786","0","[[0,0,0],[2,1],[0]]","4","[[2,3,0],[1,0],[0]]","15","0","","","","","","7","","","","","","","","",""
"","","","","","single-stim-button","238","576826","0.0-2.0-56.3-1.3","5eb3629472398915cb013c43","D2","batch4","","776","tol_toboard","","","","tol_peg_1","776","776","0","[[3,0,0],[2,1],[0]]","4","[[2,3,0],[1,0],[0]]","15","0","","","","","","7","","","","","","","","",""
"","","","","","single-stim-button","239","584546","0.0-2.0-56.4-0.4","5eb3629472398915cb013c43","D2","batch4","","7719","tol_tohand","","","","tol_peg_2","7719","7719","0","[[3,0,0],[2,0],[0]]","5","[[2,3,0],[1,0],[0]]","15","0","","","","","","7","","","","","","","","",""
"","","","","","single-stim-button","240","585133","0.0-2.0-56.4-1.4","5eb3629472398915cb013c43","D2","batch4","","586","tol_toboard","","","","tol_peg_1","586","586","0","[[3,1,0],[2,0],[0]]","5","[[2,3,0],[1,0],[0]]","15","0","","","","","","7","","","","","","","","",""
"","","","","","single-stim-button","241","585602","0.0-2.0-56.5-0.5","5eb3629472398915cb013c43","D2","batch4","","469","tol_tohand","","","","tol_peg_2","469","469","0","[[3,1,0],[0,0],[0]]","6","[[2,3,0],[1,0],[0]]","15","0","","","","","","7","","","","","","","","",""
"","","","","","single-stim-button","242","587410","0.0-2.0-56.5-1.5","5eb3629472398915cb013c43","D2","batch4","","1808","tol_toboard","","","","tol_peg_3","1808","1808","0","[[3,1,0],[0,0],[2]]","6","[[2,3,0],[1,0],[0]]","15","0","","","","","","7","","","","","","","","",""
"","","","","","single-stim-button","243","587924","0.0-2.0-56.6-0.6","5eb3629472398915cb013c43","D2","batch4","","513","tol_tohand","","","","tol_peg_1","513","513","0","[[3,0,0],[0,0],[2]]","7","[[2,3,0],[1,0],[0]]","15","0","","","","","","7","","","","","","","","",""
"","","","","","single-stim-button","244","588344","0.0-2.0-56.6-1.6","5eb3629472398915cb013c43","D2","batch4","","420","tol_toboard","","","","tol_peg_2","420","420","0","[[3,0,0],[1,0],[2]]","7","[[2,3,0],[1,0],[0]]","15","0","","","","","","7","","","","","","","","",""
"","","","","","single-stim-button","245","589048","0.0-2.0-56.7-0.7","5eb3629472398915cb013c43","D2","batch4","","704","tol_tohand","","","","tol_peg_3","704","704","0","[[3,0,0],[1,0],[0]]","8","[[2,3,0],[1,0],[0]]","15","0","","","","","","7","","","","","","","","",""
"","","","","","single-stim-button","246","589574","0.0-2.0-56.7-1.7","5eb3629472398915cb013c43","D2","batch4","","526","tol_toboard","","","","tol_peg_1","526","526","0","[[3,2,0],[1,0],[0]]","8","[[2,3,0],[1,0],[0]]","15","0","","","","","","7","","","","","","","","",""
"","","","","","single-stim-button","247","593616","0.0-2.0-56.8-0.8","5eb3629472398915cb013c43","D2","batch4","","4041","tol_tohand","","","","tol_peg_1","4041","4041","0","[[3,0,0],[1,0],[0]]","9","[[2,3,0],[1,0],[0]]","15","0","","","","","","7","","","","","","","","",""
"","","","","","single-stim-button","248","595342","0.0-2.0-56.8-1.8","5eb3629472398915cb013c43","D2","batch4","","1726","tol_toboard","","","","tol_peg_2","1726","1726","0","[[3,0,0],[1,2],[0]]","9","[[2,3,0],[1,0],[0]]","15","0","","","","","","7","","","","","","","","",""
"","","","","","single-stim-button","249","595868","0.0-2.0-56.9-0.9","5eb3629472398915cb013c43","D2","batch4","","526","tol_tohand","","","","tol_peg_1","526","526","0","[[0,0,0],[1,2],[0]]","10","[[2,3,0],[1,0],[0]]","15","0","","","","","","7","","","","","","","","",""
"","","","","","single-stim-button","250","596706","0.0-2.0-56.9-1.9","5eb3629472398915cb013c43","D2","batch4","","838","tol_toboard","","","","tol_peg_3","838","838","0","[[0,0,0],[1,2],[3]]","10","[[2,3,0],[1,0],[0]]","15","0","","","","","","7","","","","","","","","",""
"","","","","","single-stim-button","251","597090","0.0-2.0-56.10-0.10","5eb3629472398915cb013c43","D2","batch4","","384","tol_tohand","","","","tol_peg_2","384","384","0","[[0,0,0],[1,0],[3]]","11","[[2,3,0],[1,0],[0]]","15","0","","","","","","7","","","","","","","","",""
"","","","","","single-stim-button","252","597434","0.0-2.0-56.10-1.10","5eb3629472398915cb013c43","D2","batch4","","344","tol_toboard","","","","tol_peg_1","344","344","0","[[2,0,0],[1,0],[3]]","11","[[2,3,0],[1,0],[0]]","15","0","","","","","","7","","","","","","","","",""
"","","","","","single-stim-button","253","597908","0.0-2.0-56.11-0.11","5eb3629472398915cb013c43","D2","batch4","","474","tol_tohand","","","","tol_peg_3","474","474","0","[[2,0,0],[1,0],[0]]","12","[[2,3,0],[1,0],[0]]","15","0","","","","","","7","","","","","","","","",""
"","","","","","single-stim-button","254","598248","0.0-2.0-56.11-1.11","5eb3629472398915cb013c43","D2","batch4","","340","tol_toboard","","","","tol_peg_1","340","340","0","[[2,3,0],[1,0],[0]]","12","[[2,3,0],[1,0],[0]]","15","0","","","","","","7","","","","","","","","",""
"","","","","","poldrack-single-stim","255","599250","0.0-2.0-57.0","5eb3629472398915cb013c43","D2","batch4","","-1","tol_feedback","","","true","","1000","1000","500","","","","","","-1","none","true","5773","40578","","","","","","","","","",""
"","","","","","html-button-response","256","599854","0.0-2.0-58.0","5eb3629472398915cb013c43","D2","batch4","","603.5","tol_trial_num","<div class = centerbox><p class = center-block-text>problem <strong>17</strong> out of 25 problems</p></div>","0","","","","","","","","","","","","","","","","","","","","","","","","",""
"","","","","","single-stim-button","257","602332","0.0-2.0-59.0-0.0","5eb3629472398915cb013c43","D2","batch4","","2478","tol_tohand","","","","tol_peg_1","2478","2478","0","[[1,0,0],[3,0],[0]]","1","[[3,1,0],[2,0],[0]]","16","0","","","","","","5","","","","","","","","",""
"","","","","","single-stim-button","258","614390","0.0-2.0-59.0-1.0","5eb3629472398915cb013c43","D2","batch4","","12058","tol_toboard","","","","tol_peg_1","12058","12058","0","[[1,2,0],[3,0],[0]]","1","[[3,1,0],[2,0],[0]]","16","0","","","","","","5","","","","","","","","",""
"","","","","","single-stim-button","259","614848","0.0-2.0-59.1-0.1","5eb3629472398915cb013c43","D2","batch4","","458","tol_tohand","","","","tol_peg_2","458","458","0","[[1,2,0],[0,0],[0]]","2","[[3,1,0],[2,0],[0]]","16","0","","","","","","5","","","","","","","","",""
"","","","","","single-stim-button","260","615766","0.0-2.0-59.1-1.1","5eb3629472398915cb013c43","D2","batch4","","918","tol_toboard","","","","tol_peg_3","918","918","0","[[1,2,0],[0,0],[3]]","2","[[3,1,0],[2,0],[0]]","16","0","","","","","","5","","","","","","","","",""
"","","","","","single-stim-button","261","616328","0.0-2.0-59.2-0.2","5eb3629472398915cb013c43","D2","batch4","","562","tol_tohand","","","","tol_peg_1","562","562","0","[[1,0,0],[0,0],[3]]","3","[[3,1,0],[2,0],[0]]","16","0","","","","","","5","","","","","","","","",""
"","","","","","single-stim-button","262","616848","0.0-2.0-59.2-1.2","5eb3629472398915cb013c43","D2","batch4","","520","tol_toboard","","","","tol_peg_2","520","520","0","[[1,0,0],[2,0],[3]]","3","[[3,1,0],[2,0],[0]]","16","0","","","","","","5","","","","","","","","",""
"","","","","","single-stim-button","263","618766","0.0-2.0-59.3-0.3","5eb3629472398915cb013c43","D2","batch4","","1918","tol_tohand","","","","tol_peg_1","1918","1918","0","[[0,0,0],[2,0],[3]]","4","[[3,1,0],[2,0],[0]]","16","0","","","","","","5","","","","","","","","",""
"","","","","","single-stim-button","264","619142","0.0-2.0-59.3-1.3","5eb3629472398915cb013c43","D2","batch4","","376","tol_toboard","","","","tol_peg_2","376","376","0","[[0,0,0],[2,1],[3]]","4","[[3,1,0],[2,0],[0]]","16","0","","","","","","5","","","","","","","","",""
"","","","","","single-stim-button","265","619502","0.0-2.0-59.4-0.4","5eb3629472398915cb013c43","D2","batch4","","360","tol_tohand","","","","tol_peg_3","360","360","0","[[0,0,0],[2,1],[0]]","5","[[3,1,0],[2,0],[0]]","16","0","","","","","","5","","","","","","","","",""
"","","","","","single-stim-button","266","619948","0.0-2.0-59.4-1.4","5eb3629472398915cb013c43","D2","batch4","","446","tol_toboard","","","","tol_peg_1","446","446","0","[[3,0,0],[2,1],[0]]","5","[[3,1,0],[2,0],[0]]","16","0","","","","","","5","","","","","","","","",""
"","","","","","single-stim-button","267","620336","0.0-2.0-59.5-0.5","5eb3629472398915cb013c43","D2","batch4","","388","tol_tohand","","","","tol_peg_2","388","388","0","[[3,0,0],[2,0],[0]]","6","[[3,1,0],[2,0],[0]]","16","0","","","","","","5","","","","","","","","",""
"","","","","","single-stim-button","268","620692","0.0-2.0-59.5-1.5","5eb3629472398915cb013c43","D2","batch4","","356","tol_toboard","","","","tol_peg_1","356","356","0","[[3,1,0],[2,0],[0]]","6","[[3,1,0],[2,0],[0]]","16","0","","","","","","5","","","","","","","","",""
"","","","","","poldrack-single-stim","269","621706","0.0-2.0-60.0","5eb3629472398915cb013c43","D2","batch4","","-1","tol_feedback","","","true","","1000","1000","500","","","","","","-1","none","true","2478","6164","","","","","","","","","",""
"","","","","","html-button-response","270","622382","0.0-2.0-61.0","5eb3629472398915cb013c43","D2","batch4","","674.7999999523163","tol_trial_num","<div class = centerbox><p class = center-block-text>problem <strong>18</strong> out of 25 problems</p></div>","0","","","","","","","","","","","","","","","","","","","","","","","","",""
"","","","","","single-stim-button","271","628012","0.0-2.0-62.0-0.0","5eb3629472398915cb013c43","D2","batch4","","5630","tol_tohand","","","","tol_peg_2","5630","5630","0","[[1,2,0],[0,0],[0]]","1","[[3,0,0],[2,0],[1]]","17","0","","","","","","5","","","","","","","","",""
"","","","","","single-stim-button","272","628658","0.0-2.0-62.0-1.0","5eb3629472398915cb013c43","D2","batch4","","646","tol_toboard","","","","tol_peg_3","646","646","0","[[1,2,0],[0,0],[3]]","1","[[3,0,0],[2,0],[1]]","17","0","","","","","","5","","","","","","","","",""
"","","","","","single-stim-button","273","629532","0.0-2.0-62.1-0.1","5eb3629472398915cb013c43","D2","batch4","","874","tol_tohand","","","","tol_peg_1","874","874","0","[[1,0,0],[0,0],[3]]","2","[[3,0,0],[2,0],[1]]","17","0","","","","","","5","","","","","","","","",""
"","","","","","single-stim-button","274","633800","0.0-2.0-62.1-1.1","5eb3629472398915cb013c43","D2","batch4","","4268","tol_toboard","","","","tol_peg_2","4268","4268","0","[[1,0,0],[2,0],[3]]","2","[[3,0,0],[2,0],[1]]","17","0","","","","","","5","","","","","","","","",""
"","","","","","single-stim-button","275","635558","0.0-2.0-62.2-0.2","5eb3629472398915cb013c43","D2","batch4","","1758","tol_tohand","","","","tol_peg_1","1758","1758","0","[[0,0,0],[2,0],[3]]","3","[[3,0,0],[2,0],[1]]","17","0","","","","","","5","","","","","","","","",""
"","","","","","single-stim-button","276","636130","0.0-2.0-62.2-1.2","5eb3629472398915cb013c43","D2","batch4","","572","tol_toboard","","","","tol_peg_2","572","572","0","[[0,0,0],[2,1],[3]]","3","[[3,0,0],[2,0],[1]]","17","0","","","","","","5","","","","","","","","",""
"","","","","","single-stim-button","277","636531","0.0-2.0-62.3-0.3","5eb3629472398915cb013c43","D2","batch4","","400","tol_tohand","","","","tol_peg_3","400","400","0","[[0,0,0],[2,1],[0]]","4","[[3,0,0],[2,0],[1]]","17","0","","","","","","5","","","","","","","","",""
"","","","","","single-stim-button","278","637226","0.0-2.0-62.3-1.3","5eb3629472398915cb013c43","D2","batch4","","695","tol_toboard","","","","tol_peg_1","695","695","0","[[3,0,0],[2,1],[0]]","4","[[3,0,0],[2,0],[1]]","17","0","","","","","","5","","","","","","","","",""
"","","","","","single-stim-button","279","637832","0.0-2.0-62.4-0.4","5eb3629472398915cb013c43","D2","batch4","","606","tol_tohand","","","","tol_peg_2","606","606","0","[[3,0,0],[2,0],[0]]","5","[[3,0,0],[2,0],[1]]","17","0","","","","","","5","","","","","","","","",""
"","","","","","single-stim-button","280","638256","0.0-2.0-62.4-1.4","5eb3629472398915cb013c43","D2","batch4","","424","tol_toboard","","","","tol_peg_3","424","424","0","[[3,0,0],[2,0],[1]]","5","[[3,0,0],[2,0],[1]]","17","0","","","","","","5","","","","","","","","",""
"","","","","","poldrack-single-stim","281","639257","0.0-2.0-63.0","5eb3629472398915cb013c43","D2","batch4","","-1","tol_feedback","","","true","","1000","1000","500","","","","","","-1","none","true","5630","9268","","","","","","","","","",""
"","","","","","html-button-response","282","639854","0.0-2.0-64.0","5eb3629472398915cb013c43","D2","batch4","","596.2999999523163","tol_trial_num","<div class = centerbox><p class = center-block-text>problem <strong>19</strong> out of 25 problems</p></div>","0","","","","","","","","","","","","","","","","","","","","","","","","",""
"","","","","","single-stim-button","283","644970","0.0-2.0-65.0-0.0","5eb3629472398915cb013c43","D2","batch4","","5116","tol_tohand","","","","tol_peg_2","5116","5116","0","[[1,2,0],[0,0],[0]]","1","[[0,0,0],[1,2],[3]]","18","0","","","","","","7","","","","","","","","",""
"","","","","","single-stim-button","284","645528","0.0-2.0-65.0-1.0","5eb3629472398915cb013c43","D2","batch4","","557","tol_toboard","","","","tol_peg_3","557","557","0","[[1,2,0],[0,0],[3]]","1","[[0,0,0],[1,2],[3]]","18","0","","","","","","7","","","","","","","","",""
"","","","","","single-stim-button","285","646042","0.0-2.0-65.1-0.1","5eb3629472398915cb013c43","D2","batch4","","514","tol_tohand","","","","tol_peg_1","514","514","0","[[1,0,0],[0,0],[3]]","2","[[0,0,0],[1,2],[3]]","18","0","","","","","","7","","","","","","","","",""
"","","","","","single-stim-button","286","647076","0.0-2.0-65.1-1.1","5eb3629472398915cb013c43","D2","batch4","","1033","tol_toboard","","","","tol_peg_2","1033","1033","0","[[1,0,0],[2,0],[3]]","2","[[0,0,0],[1,2],[3]]","18","0","","","","","","7","","","","","","","","",""
"","","","","","single-stim-button","287","647636","0.0-2.0-65.2-0.2","5eb3629472398915cb013c43","D2","batch4","","560","tol_tohand","","","","tol_peg_1","560","560","0","[[0,0,0],[2,0],[3]]","3","[[0,0,0],[1,2],[3]]","18","0","","","","","","7","","","","","","","","",""
"","","","","","single-stim-button","288","648033","0.0-2.0-65.2-1.2","5eb3629472398915cb013c43","D2","batch4","","397","tol_toboard","","","","tol_peg_2","397","397","0","[[0,0,0],[2,1],[3]]","3","[[0,0,0],[1,2],[3]]","18","0","","","","","","7","","","","","","","","",""
"","","","","","single-stim-button","289","657002","0.0-2.0-65.3-0.3","5eb3629472398915cb013c43","D2","batch4","","8969","tol_tohand","","","","tol_peg_3","8969","8969","0","[[0,0,0],[2,1],[0]]","4","[[0,0,0],[1,2],[3]]","18","0","","","","","","7","","","","","","","","",""
"","","","","","single-stim-button","290","658254","0.0-2.0-65.3-1.3","5eb3629472398915cb013c43","D2","batch4","","1251","tol_toboard","","","","tol_peg_1","1251","1251","0","[[3,0,0],[2,1],[0]]","4","[[0,0,0],[1,2],[3]]","18","0","","","","","","7","","","","","","","","",""
"","","","","","single-stim-button","291","658732","0.0-2.0-65.4-0.4","5eb3629472398915cb013c43","D2","batch4","","478","tol_tohand","","","","tol_peg_2","478","478","0","[[3,0,0],[2,0],[0]]","5","[[0,0,0],[1,2],[3]]","18","0","","","","","","7","","","","","","","","",""
"","","","","","single-stim-button","292","659170","0.0-2.0-65.4-1.4","5eb3629472398915cb013c43","D2","batch4","","438","tol_toboard","","","","tol_peg_3","438","438","0","[[3,0,0],[2,0],[1]]","5","[[0,0,0],[1,2],[3]]","18","0","","","","","","7","","","","","","","","",""
"","","","","","single-stim-button","293","661806","0.0-2.0-65.5-0.5","5eb3629472398915cb013c43","D2","batch4","","2636","tol_tohand","","","","tol_peg_2","2636","2636","0","[[3,0,0],[0,0],[1]]","6","[[0,0,0],[1,2],[3]]","18","0","","","","","","7","","","","","","","","",""
"","","","","","single-stim-button","294","662396","0.0-2.0-65.5-1.5","5eb3629472398915cb013c43","D2","batch4","","590","tol_toboard","","","","tol_peg_1","590","590","0","[[3,2,0],[0,0],[1]]","6","[[0,0,0],[1,2],[3]]","18","0","","","","","","7","","","","","","","","",""
"","","","","","single-stim-button","295","662850","0.0-2.0-65.6-0.6","5eb3629472398915cb013c43","D2","batch4","","454","tol_tohand","","","","tol_peg_3","454","454","0","[[3,2,0],[0,0],[0]]","7","[[0,0,0],[1,2],[3]]","18","0","","","","","","7","","","","","","","","",""
"","","","","","single-stim-button","296","663202","0.0-2.0-65.6-1.6","5eb3629472398915cb013c43","D2","batch4","","352","tol_toboard","","","","tol_peg_2","352","352","0","[[3,2,0],[1,0],[0]]","7","[[0,0,0],[1,2],[3]]","18","0","","","","","","7","","","","","","","","",""
"","","","","","single-stim-button","297","663752","0.0-2.0-65.7-0.7","5eb3629472398915cb013c43","D2","batch4","","550","tol_tohand","","","","tol_peg_1","550","550","0","[[3,0,0],[1,0],[0]]","8","[[0,0,0],[1,2],[3]]","18","0","","","","","","7","","","","","","","","",""
"","","","","","single-stim-button","298","664098","0.0-2.0-65.7-1.7","5eb3629472398915cb013c43","D2","batch4","","346","tol_toboard","","","","tol_peg_2","346","346","0","[[3,0,0],[1,2],[0]]","8","[[0,0,0],[1,2],[3]]","18","0","","","","","","7","","","","","","","","",""
"","","","","","single-stim-button","299","664506","0.0-2.0-65.8-0.8","5eb3629472398915cb013c43","D2","batch4","","407","tol_tohand","","","","tol_peg_1","407","407","0","[[0,0,0],[1,2],[0]]","9","[[0,0,0],[1,2],[3]]","18","0","","","","","","7","","","","","","","","",""
"","","","","","single-stim-button","300","664930","0.0-2.0-65.8-1.8","5eb3629472398915cb013c43","D2","batch4","","424","tol_toboard","","","","tol_peg_3","424","424","0","[[0,0,0],[1,2],[3]]","9","[[0,0,0],[1,2],[3]]","18","0","","","","","","7","","","","","","","","",""
"","","","","","poldrack-single-stim","301","665932","0.0-2.0-66.0","5eb3629472398915cb013c43","D2","batch4","","-1","tol_feedback","","","true","","1000","1000","500","","","","","","-1","none","true","5116","19684","","","","","","","","","",""
"","","","","","html-button-response","302","666722","0.0-2.0-67.0","5eb3629472398915cb013c43","D2","batch4","","789.7000000476837","tol_trial_num","<div class = centerbox><p class = center-block-text>problem <strong>20</strong> out of 25 problems</p></div>","0","","","","","","","","","","","","","","","","","","","","","","","","",""
"","","","","","single-stim-button","303","674683","0.0-2.0-68.0-0.0","5eb3629472398915cb013c43","D2","batch4","","7961","tol_tohand","","","","tol_peg_1","7961","7961","0","[[1,0,0],[3,0],[0]]","1","[[2,1,0],[0,0],[3]]","19","0","","","","","","5","","","","","","","","",""
"","","","","","single-stim-button","304","675725","0.0-2.0-68.0-1.0","5eb3629472398915cb013c43","D2","batch4","","1041","tol_toboard","","","","tol_peg_3","1041","1041","0","[[1,0,0],[3,0],[2]]","1","[[2,1,0],[0,0],[3]]","19","0","","","","","","5","","","","","","","","",""
"","","","","","single-stim-button","305","676287","0.0-2.0-68.1-0.1","5eb3629472398915cb013c43","D2","batch4","","561","tol_tohand","","","","tol_peg_1","561","561","0","[[0,0,0],[3,0],[2]]","2","[[2,1,0],[0,0],[3]]","19","0","","","","","","5","","","","","","","","",""
"","","","","","single-stim-button","306","677227","0.0-2.0-68.1-1.1","5eb3629472398915cb013c43","D2","batch4","","939","tol_toboard","","","","tol_peg_2","939","939","0","[[0,0,0],[3,1],[2]]","2","[[2,1,0],[0,0],[3]]","19","0","","","","","","5","","","","","","","","",""
"","","","","","single-stim-button","307","677655","0.0-2.0-68.2-0.2","5eb3629472398915cb013c43","D2","batch4","","428","tol_tohand","","","","tol_peg_3","428","428","0","[[0,0,0],[3,1],[0]]","3","[[2,1,0],[0,0],[3]]","19","0","","","","","","5","","","","","","","","",""
"","","","","","single-stim-button","308","678241","0.0-2.0-68.2-1.2","5eb3629472398915cb013c43","D2","batch4","","585","tol_toboard","","","","tol_peg_1","585","585","0","[[2,0,0],[3,1],[0]]","3","[[2,1,0],[0,0],[3]]","19","0","","","","","","5","","","","","","","","",""
"","","","","","single-stim-button","309","678645","0.0-2.0-68.3-0.3","5eb3629472398915cb013c43","D2","batch4","","403","tol_tohand","","","","tol_peg_2","403","403","0","[[2,0,0],[3,0],[0]]","4","[[2,1,0],[0,0],[3]]","19","0","","","","","","5","","","","","","","","",""
"","","","","","single-stim-button","310","679023","0.0-2.0-68.3-1.3","5eb3629472398915cb013c43","D2","batch4","","378","tol_toboard","","","","tol_peg_1","378","378","0","[[2,1,0],[3,0],[0]]","4","[[2,1,0],[0,0],[3]]","19","0","","","","","","5","","","","","","","","",""
"","","","","","single-stim-button","311","679407","0.0-2.0-68.4-0.4","5eb3629472398915cb013c43","D2","batch4","","383","tol_tohand","","","","tol_peg_2","383","383","0","[[2,1,0],[0,0],[0]]","5","[[2,1,0],[0,0],[3]]","19","0","","","","","","5","","","","","","","","",""
"","","","","","single-stim-button","312","679879","0.0-2.0-68.4-1.4","5eb3629472398915cb013c43","D2","batch4","","471","tol_toboard","","","","tol_peg_3","471","471","0","[[2,1,0],[0,0],[3]]","5","[[2,1,0],[0,0],[3]]","19","0","","","","","","5","","","","","","","","",""
"","","","","","poldrack-single-stim","313","680882","0.0-2.0-69.0","5eb3629472398915cb013c43","D2","batch4","","-1","tol_feedback","","","true","","1000","1000","500","","","","","","-1","none","true","7961","9736","","","","","","","","","",""
"","","","","","html-button-response","314","681457","0.0-2.0-70.0","5eb3629472398915cb013c43","D2","batch4","","574.7999999523163","tol_trial_num","<div class = centerbox><p class = center-block-text>problem <strong>21</strong> out of 25 problems</p></div>","0","","","","","","","","","","","","","","","","","","","","","","","","",""
"","","","","","single-stim-button","315","685783","0.0-2.0-71.0-0.0","5eb3629472398915cb013c43","D2","batch4","","4325","tol_tohand","","","","tol_peg_1","4325","4325","0","[[1,0,0],[3,0],[0]]","1","[[3,2,0],[0,0],[1]]","20","0","","","","","","6","","","","","","","","",""
"","","","","","single-stim-button","316","694877","0.0-2.0-71.0-1.0","5eb3629472398915cb013c43","D2","batch4","","9093","tol_toboard","","","","tol_peg_2","9093","9093","0","[[1,0,0],[3,2],[0]]","1","[[3,2,0],[0,0],[1]]","20","0","","","","","","6","","","","","","","","",""
"","","","","","single-stim-button","317","695291","0.0-2.0-71.1-0.1","5eb3629472398915cb013c43","D2","batch4","","413","tol_tohand","","","","tol_peg_1","413","413","0","[[0,0,0],[3,2],[0]]","2","[[3,2,0],[0,0],[1]]","20","0","","","","","","6","","","","","","","","",""
"","","","","","single-stim-button","318","696585","0.0-2.0-71.1-1.1","5eb3629472398915cb013c43","D2","batch4","","1294","tol_toboard","","","","tol_peg_3","1294","1294","0","[[0,0,0],[3,2],[1]]","2","[[3,2,0],[0,0],[1]]","20","0","","","","","","6","","","","","","","","",""
"","","","","","single-stim-button","319","697243","0.0-2.0-71.2-0.2","5eb3629472398915cb013c43","D2","batch4","","657","tol_tohand","","","","tol_peg_2","657","657","0","[[0,0,0],[3,0],[1]]","3","[[3,2,0],[0,0],[1]]","20","0","","","","","","6","","","","","","","","",""
"","","","","","single-stim-button","320","701845","0.0-2.0-71.2-1.2","5eb3629472398915cb013c43","D2","batch4","","4601","tol_toboard","","","","tol_peg_1","4601","4601","0","[[2,0,0],[3,0],[1]]","3","[[3,2,0],[0,0],[1]]","20","0","","","","","","6","","","","","","","","",""
"","","","","","single-stim-button","321","706343","0.0-2.0-71.3-0.3","5eb3629472398915cb013c43","D2","batch4","","4497","tol_tohand","","","","tol_peg_3","4497","4497","0","[[2,0,0],[3,0],[0]]","4","[[3,2,0],[0,0],[1]]","20","0","","","","","","6","","","","","","","","",""
"","","","","","single-stim-button","322","707075","0.0-2.0-71.3-1.3","5eb3629472398915cb013c43","D2","batch4","","732","tol_toboard","","","","tol_peg_1","732","732","0","[[2,1,0],[3,0],[0]]","4","[[3,2,0],[0,0],[1]]","20","0","","","","","","6","","","","","","","","",""
"","","","","","single-stim-button","323","707471","0.0-2.0-71.4-0.4","5eb3629472398915cb013c43","D2","batch4","","395","tol_tohand","","","","tol_peg_2","395","395","0","[[2,1,0],[0,0],[0]]","5","[[3,2,0],[0,0],[1]]","20","0","","","","","","6","","","","","","","","",""
"","","","","","single-stim-button","324","708211","0.0-2.0-71.4-1.4","5eb3629472398915cb013c43","D2","batch4","","739","tol_toboard","","","","tol_peg_3","739","739","0","[[2,1,0],[0,0],[3]]","5","[[3,2,0],[0,0],[1]]","20","0","","","","","","6","","","","","","","","",""
"","","","","","single-stim-button","325","708965","0.0-2.0-71.5-0.5","5eb3629472398915cb013c43","D2","batch4","","754","tol_tohand","","","","tol_peg_1","754","754","0","[[2,0,0],[0,0],[3]]","6","[[3,2,0],[0,0],[1]]","20","0","","","","","","6","","","","","","","","",""
"","","","","","single-stim-button","326","710993","0.0-2.0-71.5-1.5","5eb3629472398915cb013c43","D2","batch4","","2028","tol_toboard","","","","tol_peg_2","2028","2028","0","[[2,0,0],[1,0],[3]]","6","[[3,2,0],[0,0],[1]]","20","0","","","","","","6","","","","","","","","",""
"","","","","","single-stim-button","327","711443","0.0-2.0-71.6-0.6","5eb3629472398915cb013c43","D2","batch4","","449","tol_tohand","","","","tol_peg_1","449","449","0","[[0,0,0],[1,0],[3]]","7","[[3,2,0],[0,0],[1]]","20","0","","","","","","6","","","","","","","","",""
"","","","","","single-stim-button","328","713785","0.0-2.0-71.6-1.6","5eb3629472398915cb013c43","D2","batch4","","2342","tol_toboard","","","","tol_peg_1","2342","2342","0","[[2,0,0],[1,0],[3]]","7","[[3,2,0],[0,0],[1]]","20","0","","","","","","6","","","","","","","","",""
"","","","","","single-stim-button","329","714403","0.0-2.0-71.7-0.7","5eb3629472398915cb013c43","D2","batch4","","618","tol_tohand","","","","tol_peg_3","618","618","0","[[2,0,0],[1,0],[0]]","8","[[3,2,0],[0,0],[1]]","20","0","","","","","","6","","","","","","","","",""
"","","","","","single-stim-button","330","715621","0.0-2.0-71.7-1.7","5eb3629472398915cb013c43","D2","batch4","","1218","tol_toboard","","","","tol_peg_2","1218","1218","0","[[2,0,0],[1,3],[0]]","8","[[3,2,0],[0,0],[1]]","20","0","","","","","","6","","","","","","","","",""
"","","","","","single-stim-button","331","716135","0.0-2.0-71.8-0.8","5eb3629472398915cb013c43","D2","batch4","","513","tol_tohand","","","","tol_peg_1","513","513","0","[[0,0,0],[1,3],[0]]","9","[[3,2,0],[0,0],[1]]","20","0","","","","","","6","","","","","","","","",""
"","","","","","single-stim-button","332","716677","0.0-2.0-71.8-1.8","5eb3629472398915cb013c43","D2","batch4","","542","tol_toboard","","","","tol_peg_3","542","542","0","[[0,0,0],[1,3],[2]]","9","[[3,2,0],[0,0],[1]]","20","0","","","","","","6","","","","","","","","",""
"","","","","","single-stim-button","333","717204","0.0-2.0-71.9-0.9","5eb3629472398915cb013c43","D2","batch4","","527","tol_tohand","","","","tol_peg_2","527","527","0","[[0,0,0],[1,0],[2]]","10","[[3,2,0],[0,0],[1]]","20","0","","","","","","6","","","","","","","","",""
"","","","","","single-stim-button","334","717677","0.0-2.0-71.9-1.9","5eb3629472398915cb013c43","D2","batch4","","473","tol_toboard","","","","tol_peg_1","473","473","0","[[3,0,0],[1,0],[2]]","10","[[3,2,0],[0,0],[1]]","20","0","","","","","","6","","","","","","","","",""
"","","","","","single-stim-button","335","718385","0.0-2.0-71.10-0.10","5eb3629472398915cb013c43","D2","batch4","","708","tol_tohand","","","","tol_peg_3","708","708","0","[[3,0,0],[1,0],[0]]","11","[[3,2,0],[0,0],[1]]","20","0","","","","","","6","","","","","","","","",""
"","","","","","single-stim-button","336","718817","0.0-2.0-71.10-1.10","5eb3629472398915cb013c43","D2","batch4","","432","tol_toboard","","","","tol_peg_1","432","432","0","[[3,2,0],[1,0],[0]]","11","[[3,2,0],[0,0],[1]]","20","0","","","","","","6","","","","","","","","",""
"","","","","","single-stim-button","337","719513","0.0-2.0-71.11-0.11","5eb3629472398915cb013c43","D2","batch4","","696","tol_tohand","","","","tol_peg_2","696","696","0","[[3,2,0],[0,0],[0]]","12","[[3,2,0],[0,0],[1]]","20","0","","","","","","6","","","","","","","","",""
"","","","","","single-stim-button","338","719853","0.0-2.0-71.11-1.11","5eb3629472398915cb013c43","D2","batch4","","339","tol_toboard","","","","tol_peg_3","339","339","0","[[3,2,0],[0,0],[1]]","12","[[3,2,0],[0,0],[1]]","20","0","","","","","","6","","","","","","","","",""
"","","","","","poldrack-single-stim","339","720855","0.0-2.0-72.0","5eb3629472398915cb013c43","D2","batch4","","-1","tol_feedback","","","true","","1000","1000","500","","","","","","-1","none","true","4325","14552","","","","","","","","","",""
"","","","","","html-button-response","340","721415","0.0-2.0-73.0","5eb3629472398915cb013c43","D2","batch4","","558.9000000953674","tol_trial_num","<div class = centerbox><p class = center-block-text>problem <strong>22</strong> out of 25 problems</p></div>","0","","","","","","","","","","","","","","","","","","","","","","","","",""
"","","","","","single-stim-button","341","725149","0.0-2.0-74.0-0.0","5eb3629472398915cb013c43","D2","batch4","","3734","tol_tohand","","","","tol_peg_2","3734","3734","0","[[1,0,0],[2,0],[0]]","1","[[0,0,0],[1,2],[3]]","21","0","","","","","","6","","","","","","","","",""
"","","","","","single-stim-button","342","725847","0.0-2.0-74.0-1.0","5eb3629472398915cb013c43","D2","batch4","","698","tol_toboard","","","","tol_peg_3","698","698","0","[[1,0,0],[2,0],[3]]","1","[[0,0,0],[1,2],[3]]","21","0","","","","","","6","","","","","","","","",""
"","","","","","single-stim-button","343","726487","0.0-2.0-74.1-0.1","5eb3629472398915cb013c43","D2","batch4","","640","tol_tohand","","","","tol_peg_1","640","640","0","[[0,0,0],[2,0],[3]]","2","[[0,0,0],[1,2],[3]]","21","0","","","","","","6","","","","","","","","",""
"","","","","","single-stim-button","344","726891","0.0-2.0-74.1-1.1","5eb3629472398915cb013c43","D2","batch4","","404","tol_toboard","","","","tol_peg_2","404","404","0","[[0,0,0],[2,1],[3]]","2","[[0,0,0],[1,2],[3]]","21","0","","","","","","6","","","","","","","","",""
"","","","","","single-stim-button","345","736051","0.0-2.0-74.2-0.2","5eb3629472398915cb013c43","D2","batch4","","9159","tol_tohand","","","","tol_peg_2","9159","9159","0","[[0,0,0],[2,0],[3]]","3","[[0,0,0],[1,2],[3]]","21","0","","","","","","6","","","","","","","","",""
"","","","","","single-stim-button","346","737595","0.0-2.0-74.2-1.2","5eb3629472398915cb013c43","D2","batch4","","1543","tol_toboard","","","","tol_peg_1","1543","1543","0","[[1,0,0],[2,0],[3]]","3","[[0,0,0],[1,2],[3]]","21","0","","","","","","6","","","","","","","","",""
"","","","","","single-stim-button","347","738977","0.0-2.0-74.3-0.3","5eb3629472398915cb013c43","D2","batch4","","1382","tol_tohand","","","","tol_peg_2","1382","1382","0","[[1,0,0],[0,0],[3]]","4","[[0,0,0],[1,2],[3]]","21","0","","","","","","6","","","","","","","","",""
"","","","","","single-stim-button","348","740441","0.0-2.0-74.3-1.3","5eb3629472398915cb013c43","D2","batch4","","1464","tol_toboard","","","","tol_peg_1","1464","1464","0","[[1,2,0],[0,0],[3]]","4","[[0,0,0],[1,2],[3]]","21","0","","","","","","6","","","","","","","","",""
"","","","","","single-stim-button","349","741141","0.0-2.0-74.4-0.4","5eb3629472398915cb013c43","D2","batch4","","700","tol_tohand","","","","tol_peg_3","700","700","0","[[1,2,0],[0,0],[0]]","5","[[0,0,0],[1,2],[3]]","21","0","","","","","","6","","","","","","","","",""
"","","","","","single-stim-button","350","741723","0.0-2.0-74.4-1.4","5eb3629472398915cb013c43","D2","batch4","","582","tol_toboard","","","","tol_peg_2","582","582","0","[[1,2,0],[3,0],[0]]","5","[[0,0,0],[1,2],[3]]","21","0","","","","","","6","","","","","","","","",""
"","","","","","single-stim-button","351","742297","0.0-2.0-74.5-0.5","5eb3629472398915cb013c43","D2","batch4","","573","tol_tohand","","","","tol_peg_1","573","573","0","[[1,0,0],[3,0],[0]]","6","[[0,0,0],[1,2],[3]]","21","0","","","","","","6","","","","","","","","",""
"","","","","","single-stim-button","352","742751","0.0-2.0-74.5-1.5","5eb3629472398915cb013c43","D2","batch4","","454","tol_toboard","","","","tol_peg_3","454","454","0","[[1,0,0],[3,0],[2]]","6","[[0,0,0],[1,2],[3]]","21","0","","","","","","6","","","","","","","","",""
"","","","","","single-stim-button","353","743293","0.0-2.0-74.6-0.6","5eb3629472398915cb013c43","D2","batch4","","541","tol_tohand","","","","tol_peg_1","541","541","0","[[0,0,0],[3,0],[2]]","7","[[0,0,0],[1,2],[3]]","21","0","","","","","","6","","","","","","","","",""
"","","","","","single-stim-button","354","748013","0.0-2.0-74.6-1.6","5eb3629472398915cb013c43","D2","batch4","","4719","tol_toboard","","","","tol_peg_1","4719","4719","0","[[1,0,0],[3,0],[2]]","7","[[0,0,0],[1,2],[3]]","21","0","","","","","","6","","","","","","","","",""
"","","","","","single-stim-button","355","748833","0.0-2.0-74.7-0.7","5eb3629472398915cb013c43","D2","batch4","","819","tol_tohand","","","","tol_peg_3","819","819","0","[[1,0,0],[3,0],[0]]","8","[[0,0,0],[1,2],[3]]","21","0","","","","","","6","","","","","","","","",""
