"success","timeout","failed_images","failed_audio","failed_video","trial_type","trial_index","time_elapsed","internal_node_id","subject_id","study_id","session_id","view_history","rt","stimulus","response","task","correct","answer","item","fiar_detect_rt","fiar_detect_correct","total_correct_fiar_detect","post_trial_gap","choices","spm_correct","spm_rt","mouse_click","stim_duration","block_duration","timing_post_trial","current_position","tol_num_moves_made","tol_target","tol_problem_id","tol_rt","key_press","possible_responses","tol_correct","preplanning","tol_rt_per_trial","tol_min_moves"
"true","false","[]","[]","[]","preload","0","4234","0.0-0.0","5eb4442bcaffba2864f4c554","D2","batch4","","","","","","","","","","","","","","","","","","","","","","","","","","","","","",""
"true","","","","","fullscreen","1","65181","0.0-1.0-0.0","5eb4442bcaffba2864f4c554","D2","batch4","","","","","","","","","","","","","","","","","","","","","","","","","","","","","",""
"true","","","","","fullscreen","2","68973","0.0-2.0-0.0","5eb4442bcaffba2864f4c554","D2","batch4","","","","","","","","","","","","","","","","","","","","","","","","","","","","","",""
"","","","","","instructions","3","85973","0.0-2.0-1.0-0.0","5eb4442bcaffba2864f4c554","D2","batch4","[{""page_index"":0,""viewing_time"":13023.100000023842},{""page_index"":1,""viewing_time"":3973.100000023842}]","16997","","","","","","","","","","","","","","","","","","","","","","","","","","","",""
"","","","","","html-button-response","4","89632","0.0-2.0-1.0-1.0-0.0","5eb4442bcaffba2864f4c554","D2","batch4","","3656.399999976158","<p class=block-text> Let's answer a few questions <br>","0","pattern_enter_quiz","","","","","","","","","","","","","","","","","","","","","","","","",""
"","","","","","html-button-response","5","91602","0.0-2.0-1.0-1.0-1.0","5eb4442bcaffba2864f4c554","D2","batch4","","1966.3999999761581","<p class = block-text>True or False: You will have as much time as you want to make each choice. <br></p>","1","pattern_quiz","true","","","","","","","","","","","","","","","","","","","","","","","",""
"","","","","","html-button-response","6","92542","0.0-2.0-1.0-1.0-2.0","5eb4442bcaffba2864f4c554","D2","batch4","","936.7999999523163","<p class = block-text>Correct! You should make your choice <strong> as fast as you can</strong>.</p>","0","pattern_quiz_feedback","","","","","","","","","","","","","","","","","","","","","","","","",""
"","","","","","html-button-response","7","96560","0.0-2.0-1.0-1.0-3.0","5eb4442bcaffba2864f4c554","D2","batch4","","4016.2000000476837","<p class = block-text>True or False: You will look for 4 pieces in black or white color connected in a row either horizontally, vertically or diagonally. <br></p>","0","pattern_quiz","true","","","","","","","","","","","","","","","","","","","","","","","",""
"","","","","","html-button-response","8","97433","0.0-2.0-1.0-1.0-4.0","5eb4442bcaffba2864f4c554","D2","batch4","","869.1000000238419","<p class = block-text>Correct! </p>","0","pattern_quiz_feedback","","","","","","","","","","","","","","","","","","","","","","","","",""
"","","","","","html-button-response","9","98721","0.0-2.0-2.0","5eb4442bcaffba2864f4c554","D2","batch4","","1284","<p class=block-text> Now that you've understood the game, let's do a few practice trials before we start!<br> <br>","0","pattern_enter_practice","","","","","","","","","","","","","","","","","","","","","","","","",""
"","","","","","image-keyboard-response","10","101036","0.0-2.0-3.0-0.0","5eb4442bcaffba2864f4c554","D2","batch4","","2307.399999976158","stim/prac_no_16_1.png","j","pattern_practice","true","j","","","","","","","","","","","","","","","","","","","","","","",""
"","","","","","html-keyboard-response","11","102050","0.0-2.0-3.0-1.0","5eb4442bcaffba2864f4c554","D2","batch4","","null","<p style=""font-size:30px;color:green;"">Correct!</p>","null","pattern_feedback","","","","","","","","","","","","","","","","","","","","","","","","",""
"","","","","","image-keyboard-response","12","102871","0.0-2.0-3.0-0.1","5eb4442bcaffba2864f4c554","D2","batch4","","818.5","stim/prac_yes_16_ver_w1.png","f","pattern_practice","true","f","","","","","","","","","","","","","","","","","","","","","","",""
"","","","","","html-keyboard-response","13","103882","0.0-2.0-3.0-1.1","5eb4442bcaffba2864f4c554","D2","batch4","","null","<p style=""font-size:30px;color:green;"">Correct!</p>","null","pattern_feedback","","","","","","","","","","","","","","","","","","","","","","","","",""
"","","","","","image-keyboard-response","14","104617","0.0-2.0-3.0-0.2","5eb4442bcaffba2864f4c554","D2","batch4","","732.2999999523163","stim/prac_yes_18_hor_w1.png","f","pattern_practice","true","f","","","","","","","","","","","","","","","","","","","","","","",""
"","","","","","html-keyboard-response","15","105640","0.0-2.0-3.0-1.2","5eb4442bcaffba2864f4c554","D2","batch4","","null","<p style=""font-size:30px;color:green;"">Correct!</p>","null","pattern_feedback","","","","","","","","","","","","","","","","","","","","","","","","",""
"","","","","","image-keyboard-response","16","106643","0.0-2.0-3.0-0.3","5eb4442bcaffba2864f4c554","D2","batch4","","1000.4000000953674","stim/prac_no_18_1.png","j","pattern_practice","true","j","","","","","","","","","","","","","","","","","","","","","","",""
"","","","","","html-keyboard-response","17","107661","0.0-2.0-3.0-1.3","5eb4442bcaffba2864f4c554","D2","batch4","","null","<p style=""font-size:30px;color:green;"">Correct!</p>","null","pattern_feedback","","","","","","","","","","","","","","","","","","","","","","","","",""
"","","","","","image-keyboard-response","18","108332","0.0-2.0-3.0-0.4","5eb4442bcaffba2864f4c554","D2","batch4","","668.5","stim/prac_yes_20_dia_b1.png","f","pattern_practice","true","f","","","","","","","","","","","","","","","","","","","","","","",""
"","","","","","html-keyboard-response","19","109356","0.0-2.0-3.0-1.4","5eb4442bcaffba2864f4c554","D2","batch4","","null","<p style=""font-size:30px;color:green;"">Correct!</p>","null","pattern_feedback","","","","","","","","","","","","","","","","","","","","","","","","",""
"","","","","","html-button-response","20","111925","0.0-2.0-4.0","5eb4442bcaffba2864f4c554","D2","batch4","","2566.6999999284744","<p class=block-text> Good job! You are done with practice trials!<br>
        You responded correctly on 100% of the trials.<br>
        Press the button below to start official trials. Now you won't see any feedback about your response</p>","0","pattern_enter_official_trials","","","","","","","","","","","","","","","","","","","","","","","","",""
"","","","","","html-keyboard-response","21","112737","0.0-2.0-5.0-0.0","5eb4442bcaffba2864f4c554","D2","batch4","","null","<p class=block-text>Trial 1 out of 78</p>","null","pattern_show_trial_num","","","","","","","","","","","","","","","","","","","","","","","","",""
"","","","","","image-keyboard-response","22","113578","0.0-2.0-5.0-1.0","5eb4442bcaffba2864f4c554","D2","batch4","","837.5","stim/yes_37_hor_w1_w.png","f","pattern_response","true","f","pattern_60","837.5","true","1","","","","","","","","","","","","","","","","","","",""
"","","","","","html-keyboard-response","23","114898","0.0-2.0-5.0-0.1","5eb4442bcaffba2864f4c554","D2","batch4","","null","<p class=block-text>Trial 2 out of 78</p>","null","pattern_show_trial_num","","","","","","","","","","","","","","","","","","","","","","","","",""
"","","","","","image-keyboard-response","24","115943","0.0-2.0-5.0-1.1","5eb4442bcaffba2864f4c554","D2","batch4","","1042.3999999761581","stim/no_36_1_b.png","j","pattern_response","true","j","pattern_17","1042.3999999761581","true","2","","","","","","","","","","","","","","","","","","",""
"","","","","","html-keyboard-response","25","117261","0.0-2.0-5.0-0.2","5eb4442bcaffba2864f4c554","D2","batch4","","null","<p class=block-text>Trial 3 out of 78</p>","null","pattern_show_trial_num","","","","","","","","","","","","","","","","","","","","","","","","",""
"","","","","","image-keyboard-response","26","117969","0.0-2.0-5.0-1.2","5eb4442bcaffba2864f4c554","D2","batch4","","705.6999999284744","stim/yes_23_ver_b1.png","f","pattern_response","true","f","pattern_48","705.6999999284744","true","3","","","","","","","","","","","","","","","","","","",""
"","","","","","html-keyboard-response","27","119284","0.0-2.0-5.0-0.3","5eb4442bcaffba2864f4c554","D2","batch4","","null","<p class=block-text>Trial 4 out of 78</p>","null","pattern_show_trial_num","","","","","","","","","","","","","","","","","","","","","","","","",""
"","","","","","image-keyboard-response","28","119875","0.0-2.0-5.0-1.3","5eb4442bcaffba2864f4c554","D2","batch4","","588.6000000238419","stim/yes_12_hor_w1_w.png","f","pattern_response","true","f","pattern_42","588.6000000238419","true","4","","","","","","","","","","","","","","","","","","",""
"","","","","","html-keyboard-response","29","121191","0.0-2.0-5.0-0.4","5eb4442bcaffba2864f4c554","D2","batch4","","null","<p class=block-text>Trial 5 out of 78</p>","null","pattern_show_trial_num","","","","","","","","","","","","","","","","","","","","","","","","",""
"","","","","","image-keyboard-response","30","121873","0.0-2.0-5.0-1.4","5eb4442bcaffba2864f4c554","D2","batch4","","678.8999999761581","stim/yes_33_dia_w1_w.png","f","pattern_response","true","f","pattern_56","678.8999999761581","true","5","","","","","","","","","","","","","","","","","","",""
"","","","","","html-keyboard-response","31","123190","0.0-2.0-5.0-0.5","5eb4442bcaffba2864f4c554","D2","batch4","","null","<p class=block-text>Trial 6 out of 78</p>","null","pattern_show_trial_num","","","","","","","","","","","","","","","","","","","","","","","","",""
"","","","","","image-keyboard-response","32","123882","0.0-2.0-5.0-1.5","5eb4442bcaffba2864f4c554","D2","batch4","","688.8000000715256","stim/yes_58_dia_w1_w.png","f","pattern_response","true","f","pattern_76","688.8000000715256","true","6","","","","","","","","","","","","","","","","","","",""
"","","","","","html-keyboard-response","33","125201","0.0-2.0-5.0-0.6","5eb4442bcaffba2864f4c554","D2","batch4","","null","<p class=block-text>Trial 7 out of 78</p>","null","pattern_show_trial_num","","","","","","","","","","","","","","","","","","","","","","","","",""
"","","","","","image-keyboard-response","34","127036","0.0-2.0-5.0-1.6","5eb4442bcaffba2864f4c554","D2","batch4","","1832.1000000238419","stim/no_39_1_w.png","j","pattern_response","true","j","pattern_21","1832.1000000238419","true","7","","","","","","","","","","","","","","","","","","",""
"","","","","","html-keyboard-response","35","128360","0.0-2.0-5.0-0.7","5eb4442bcaffba2864f4c554","D2","batch4","","null","<p class=block-text>Trial 8 out of 78</p>","null","pattern_show_trial_num","","","","","","","","","","","","","","","","","","","","","","","","",""
"","","","","","image-keyboard-response","36","132105","0.0-2.0-5.0-1.7","5eb4442bcaffba2864f4c554","D2","batch4","","3742.7000000476837","stim/no_51_1.png","j","pattern_response","true","j","pattern_31","3742.7000000476837","true","8","","","","","","","","","","","","","","","","","","",""
"","","","","","html-keyboard-response","37","133420","0.0-2.0-5.0-0.8","5eb4442bcaffba2864f4c554","D2","batch4","","null","<p class=block-text>Trial 9 out of 78</p>","null","pattern_show_trial_num","","","","","","","","","","","","","","","","","","","","","","","","",""
"","","","","","image-keyboard-response","38","135511","0.0-2.0-5.0-1.8","5eb4442bcaffba2864f4c554","D2","batch4","","2087.0999999046326","stim/no_45_1_w.png","j","pattern_response","true","j","pattern_25","2087.0999999046326","true","9","","","","","","","","","","","","","","","","","","",""
"","","","","","html-keyboard-response","39","136840","0.0-2.0-5.0-0.9","5eb4442bcaffba2864f4c554","D2","batch4","","null","<p class=block-text>Trial 10 out of 78</p>","null","pattern_show_trial_num","","","","","","","","","","","","","","","","","","","","","","","","",""
"","","","","","image-keyboard-response","40","139904","0.0-2.0-5.0-1.9","5eb4442bcaffba2864f4c554","D2","batch4","","3060.399999976158","stim/yes_44_ver_w1_w.png","j","pattern_response","false","f","pattern_66","3060.399999976158","false","9","","","","","","","","","","","","","","","","","","",""
"","","","","","html-keyboard-response","41","141210","0.0-2.0-5.0-0.10","5eb4442bcaffba2864f4c554","D2","batch4","","null","<p class=block-text>Trial 11 out of 78</p>","null","pattern_show_trial_num","","","","","","","","","","","","","","","","","","","","","","","","",""
"","","","","","image-keyboard-response","42","142438","0.0-2.0-5.0-1.10","5eb4442bcaffba2864f4c554","D2","batch4","","1224.5","stim/yes_53_ver_b1_b.png","f","pattern_response","true","f","pattern_74","1224.5","true","10","","","","","","","","","","","","","","","","","","",""
"","","","","","html-keyboard-response","43","143751","0.0-2.0-5.0-0.11","5eb4442bcaffba2864f4c554","D2","batch4","","null","<p class=block-text>Trial 12 out of 78</p>","null","pattern_show_trial_num","","","","","","","","","","","","","","","","","","","","","","","","",""
"","","","","","image-keyboard-response","44","146432","0.0-2.0-5.0-1.11","5eb4442bcaffba2864f4c554","D2","batch4","","2678.7999999523163","stim/no_37_2_w.png","j","pattern_response","true","j","pattern_19","2678.7999999523163","true","11","","","","","","","","","","","","","","","","","","",""
"","","","","","html-keyboard-response","45","147744","0.0-2.0-5.0-0.12","5eb4442bcaffba2864f4c554","D2","batch4","","null","<p class=block-text>Trial 13 out of 78</p>","null","pattern_show_trial_num","","","","","","","","","","","","","","","","","","","","","","","","",""
"","","","","","image-keyboard-response","46","149614","0.0-2.0-5.0-1.12","5eb4442bcaffba2864f4c554","D2","batch4","","1866.3999999761581","stim/no_28_2.png","j","pattern_response","true","j","pattern_11","1866.3999999761581","true","12","","","","","","","","","","","","","","","","","","",""
"","","","","","html-keyboard-response","47","150935","0.0-2.0-5.0-0.13","5eb4442bcaffba2864f4c554","D2","batch4","","null","<p class=block-text>Trial 14 out of 78</p>","null","pattern_show_trial_num","","","","","","","","","","","","","","","","","","","","","","","","",""
"","","","","","image-keyboard-response","48","151661","0.0-2.0-5.0-1.13","5eb4442bcaffba2864f4c554","D2","batch4","","722.3999999761581","stim/yes_17_ver_b1_b.png","f","pattern_response","true","f","pattern_46","722.3999999761581","true","13","","","","","","","","","","","","","","","","","","",""
"","","","","","html-keyboard-response","49","152978","0.0-2.0-5.0-0.14","5eb4442bcaffba2864f4c554","D2","batch4","","null","<p class=block-text>Trial 15 out of 78</p>","null","pattern_show_trial_num","","","","","","","","","","","","","","","","","","","","","","","","",""
"","","","","","image-keyboard-response","50","157536","0.0-2.0-5.0-1.14","5eb4442bcaffba2864f4c554","D2","batch4","","4555.5","stim/no_53_1_b.png","j","pattern_response","true","j","pattern_33","4555.5","true","14","","","","","","","","","","","","","","","","","","",""
"","","","","","html-keyboard-response","51","158847","0.0-2.0-5.0-0.15","5eb4442bcaffba2864f4c554","D2","batch4","","null","<p class=block-text>Trial 16 out of 78</p>","null","pattern_show_trial_num","","","","","","","","","","","","","","","","","","","","","","","","",""
"","","","","","image-keyboard-response","52","161510","0.0-2.0-5.0-1.15","5eb4442bcaffba2864f4c554","D2","batch4","","2659.899999976158","stim/yes_51_dia_b1.png","f","pattern_response","true","f","pattern_72","2659.899999976158","true","15","","","","","","","","","","","","","","","","","","",""
"","","","","","html-keyboard-response","53","162820","0.0-2.0-5.0-0.16","5eb4442bcaffba2864f4c554","D2","batch4","","null","<p class=block-text>Trial 17 out of 78</p>","null","pattern_show_trial_num","","","","","","","","","","","","","","","","","","","","","","","","",""
"","","","","","image-keyboard-response","54","165489","0.0-2.0-5.0-1.16","5eb4442bcaffba2864f4c554","D2","batch4","","2666.1999999284744","stim/no_49_2_b.png","j","pattern_response","true","j","pattern_29","2666.1999999284744","true","16","","","","","","","","","","","","","","","","","","",""
"","","","","","html-keyboard-response","55","166811","0.0-2.0-5.0-0.17","5eb4442bcaffba2864f4c554","D2","batch4","","null","<p class=block-text>Trial 18 out of 78</p>","null","pattern_show_trial_num","","","","","","","","","","","","","","","","","","","","","","","","",""
"","","","","","image-keyboard-response","56","167626","0.0-2.0-5.0-1.17","5eb4442bcaffba2864f4c554","D2","batch4","","812","stim/yes_70_ver_b1.png","f","pattern_response","true","f","pattern_80","812","true","17","","","","","","","","","","","","","","","","","","",""
"","","","","","html-keyboard-response","57","168929","0.0-2.0-5.0-0.18","5eb4442bcaffba2864f4c554","D2","batch4","","null","<p class=block-text>Trial 19 out of 78</p>","null","pattern_show_trial_num","","","","","","","","","","","","","","","","","","","","","","","","",""
"","","","","","image-keyboard-response","58","171128","0.0-2.0-5.0-1.18","5eb4442bcaffba2864f4c554","D2","batch4","","2197.3000000715256","stim/no_33_1_b.png","j","pattern_response","true","j","pattern_15","2197.3000000715256","true","18","","","","","","","","","","","","","","","","","","",""
"","","","","","html-keyboard-response","59","172444","0.0-2.0-5.0-0.19","5eb4442bcaffba2864f4c554","D2","batch4","","null","<p class=block-text>Trial 20 out of 78</p>","null","pattern_show_trial_num","","","","","","","","","","","","","","","","","","","","","","","","",""
"","","","","","image-keyboard-response","60","173397","0.0-2.0-5.0-1.19","5eb4442bcaffba2864f4c554","D2","batch4","","950.5","stim/no_18_1_b.png","j","pattern_response","true","j","pattern_05","950.5","true","19","","","","","","","","","","","","","","","","","","",""
"","","","","","html-keyboard-response","61","174712","0.0-2.0-5.0-0.20","5eb4442bcaffba2864f4c554","D2","batch4","","null","<p class=block-text>Trial 21 out of 78</p>","null","pattern_show_trial_num","","","","","","","","","","","","","","","","","","","","","","","","",""
"","","","","","image-keyboard-response","62","176874","0.0-2.0-5.0-1.20","5eb4442bcaffba2864f4c554","D2","batch4","","2159.3000000715256","stim/no_43_2_b.png","j","pattern_response","true","j","pattern_23","2159.3000000715256","true","20","","","","","","","","","","","","","","","","","","",""
"","","","","","html-keyboard-response","63","178185","0.0-2.0-5.0-0.21","5eb4442bcaffba2864f4c554","D2","batch4","","null","<p class=block-text>Trial 22 out of 78</p>","null","pattern_show_trial_num","","","","","","","","","","","","","","","","","","","","","","","","",""
"","","","","","image-keyboard-response","64","179155","0.0-2.0-5.0-1.21","5eb4442bcaffba2864f4c554","D2","batch4","","968.2999999523163","stim/no_12_1.png","j","pattern_response","true","j","pattern_01","968.2999999523163","true","21","","","","","","","","","","","","","","","","","","",""
"","","","","","html-keyboard-response","65","180477","0.0-2.0-5.0-0.22","5eb4442bcaffba2864f4c554","D2","batch4","","null","<p class=block-text>Trial 23 out of 78</p>","null","pattern_show_trial_num","","","","","","","","","","","","","","","","","","","","","","","","",""
"","","","","","image-keyboard-response","66","182554","0.0-2.0-5.0-1.22","5eb4442bcaffba2864f4c554","D2","batch4","","2074.5999999046326","stim/yes_49_hor_w1_b.png","f","pattern_response","true","f","pattern_70","2074.5999999046326","true","22","","","","","","","","","","","","","","","","","","",""
"","","","","","html-keyboard-response","67","183874","0.0-2.0-5.0-0.23","5eb4442bcaffba2864f4c554","D2","batch4","","null","<p class=block-text>Trial 24 out of 78</p>","null","pattern_show_trial_num","","","","","","","","","","","","","","","","","","","","","","","","",""
"","","","","","image-keyboard-response","68","184595","0.0-2.0-5.0-1.23","5eb4442bcaffba2864f4c554","D2","batch4","","717.2000000476837","stim/yes_29_hor_b1_b.png","f","pattern_response","true","f","pattern_52","717.2000000476837","true","23","","","","","","","","","","","","","","","","","","",""
"","","","","","html-keyboard-response","69","185912","0.0-2.0-5.0-0.24","5eb4442bcaffba2864f4c554","D2","batch4","","null","<p class=block-text>Trial 25 out of 78</p>","null","pattern_show_trial_num","","","","","","","","","","","","","","","","","","","","","","","","",""
"","","","","","image-keyboard-response","70","186487","0.0-2.0-5.0-1.24","5eb4442bcaffba2864f4c554","D2","batch4","","572.6000000238419","stim/yes_15_dia_b1u_b.png","f","pattern_response","true","f","pattern_44","572.6000000238419","true","24","","","","","","","","","","","","","","","","","","",""
"","","","","","html-keyboard-response","71","187810","0.0-2.0-5.0-0.25","5eb4442bcaffba2864f4c554","D2","batch4","","null","<p class=block-text>Trial 26 out of 78</p>","null","pattern_show_trial_num","","","","","","","","","","","","","","","","","","","","","","","","",""
"","","","","","image-keyboard-response","72","188554","0.0-2.0-5.0-1.25","5eb4442bcaffba2864f4c554","D2","batch4","","742.0999999046326","stim/yes_39_hor_w1_w.png","f","pattern_response","true","f","pattern_62","742.0999999046326","true","25","","","","","","","","","","","","","","","","","","",""
"","","","","","html-keyboard-response","73","189881","0.0-2.0-5.0-0.26","5eb4442bcaffba2864f4c554","D2","batch4","","null","<p class=block-text>Trial 27 out of 78</p>","null","pattern_show_trial_num","","","","","","","","","","","","","","","","","","","","","","","","",""
"","","","","","image-keyboard-response","74","191392","0.0-2.0-5.0-1.26","5eb4442bcaffba2864f4c554","D2","batch4","","1508.4000000953674","stim/no_22_1_b.png","j","pattern_response","true","j","pattern_07","1508.4000000953674","true","26","","","","","","","","","","","","","","","","","","",""
"","","","","","html-keyboard-response","75","192714","0.0-2.0-5.0-0.27","5eb4442bcaffba2864f4c554","D2","batch4","","null","<p class=block-text>Trial 28 out of 78</p>","null","pattern_show_trial_num","","","","","","","","","","","","","","","","","","","","","","","","",""
"","","","","","image-keyboard-response","76","193751","0.0-2.0-5.0-1.27","5eb4442bcaffba2864f4c554","D2","batch4","","1034.5","stim/yes_30_ver_b1_b.png","f","pattern_response","true","f","pattern_54","1034.5","true","27","","","","","","","","","","","","","","","","","","",""
"","","","","","html-keyboard-response","77","195074","0.0-2.0-5.0-0.28","5eb4442bcaffba2864f4c554","D2","batch4","","null","<p class=block-text>Trial 29 out of 78</p>","null","pattern_show_trial_num","","","","","","","","","","","","","","","","","","","","","","","","",""
"","","","","","image-keyboard-response","78","196378","0.0-2.0-5.0-1.28","5eb4442bcaffba2864f4c554","D2","batch4","","1302.2999999523163","stim/no_30_1_b.png","j","pattern_response","true","j","pattern_13","1302.2999999523163","true","28","","","","","","","","","","","","","","","","","","",""
"","","","","","html-keyboard-response","79","197693","0.0-2.0-5.0-0.29","5eb4442bcaffba2864f4c554","D2","batch4","","null","<p class=block-text>Trial 30 out of 78</p>","null","pattern_show_trial_num","","","","","","","","","","","","","","","","","","","","","","","","",""
"","","","","","image-keyboard-response","80","199071","0.0-2.0-5.0-1.29","5eb4442bcaffba2864f4c554","D2","batch4","","1376.3999999761581","stim/yes_46_ver_b1_b.png","f","pattern_response","true","f","pattern_68","1376.3999999761581","true","29","","","","","","","","","","","","","","","","","","",""
"","","","","","html-keyboard-response","81","200380","0.0-2.0-5.0-0.30","5eb4442bcaffba2864f4c554","D2","batch4","","null","<p class=block-text>Trial 31 out of 78</p>","null","pattern_show_trial_num","","","","","","","","","","","","","","","","","","","","","","","","",""
"","","","","","image-keyboard-response","82","201930","0.0-2.0-5.0-1.30","5eb4442bcaffba2864f4c554","D2","batch4","","1547.7000000476837","stim/no_47_1_b.png","j","pattern_response","true","j","pattern_27","1547.7000000476837","true","30","","","","","","","","","","","","","","","","","","",""
"","","","","","html-keyboard-response","83","203250","0.0-2.0-5.0-0.31","5eb4442bcaffba2864f4c554","D2","batch4","","null","<p class=block-text>Trial 32 out of 78</p>","null","pattern_show_trial_num","","","","","","","","","","","","","","","","","","","","","","","","",""
"","","","","","image-keyboard-response","84","204724","0.0-2.0-5.0-1.31","5eb4442bcaffba2864f4c554","D2","batch4","","1470","stim/yes_42_dia_w1_w.png","f","pattern_response","true","f","pattern_64","1470","true","31","","","","","","","","","","","","","","","","","","",""
"","","","","","html-keyboard-response","85","206041","0.0-2.0-5.0-0.32","5eb4442bcaffba2864f4c554","D2","batch4","","null","<p class=block-text>Trial 33 out of 78</p>","null","pattern_show_trial_num","","","","","","","","","","","","","","","","","","","","","","","","",""
"","","","","","image-keyboard-response","86","206424","0.0-2.0-5.0-1.32","5eb4442bcaffba2864f4c554","D2","batch4","","380.8000000715256","stim/no_67_1.png","j","pattern_response","true","j","pattern_39","380.8000000715256","true","32","","","","","","","","","","","","","","","","","","",""
"","","","","","html-keyboard-response","87","207738","0.0-2.0-5.0-0.33","5eb4442bcaffba2864f4c554","D2","batch4","","null","<p class=block-text>Trial 34 out of 78</p>","null","pattern_show_trial_num","","","","","","","","","","","","","","","","","","","","","","","","",""
"","","","","","image-keyboard-response","88","209267","0.0-2.0-5.0-1.33","5eb4442bcaffba2864f4c554","D2","batch4","","1526.9000000953674","stim/no_25_1_b.png","j","pattern_response","true","j","pattern_09","1526.9000000953674","true","33","","","","","","","","","","","","","","","","","","",""
"","","","","","html-keyboard-response","89","210588","0.0-2.0-5.0-0.34","5eb4442bcaffba2864f4c554","D2","batch4","","null","<p class=block-text>Trial 35 out of 78</p>","null","pattern_show_trial_num","","","","","","","","","","","","","","","","","","","","","","","","",""
"","","","","","image-keyboard-response","90","211855","0.0-2.0-5.0-1.34","5eb4442bcaffba2864f4c554","D2","batch4","","1264.2000000476837","stim/no_15_1_w.png","j","pattern_response","true","j","pattern_03","1264.2000000476837","true","34","","","","","","","","","","","","","","","","","","",""
"","","","","","html-keyboard-response","91","213171","0.0-2.0-5.0-0.35","5eb4442bcaffba2864f4c554","D2","batch4","","null","<p class=block-text>Trial 36 out of 78</p>","null","pattern_show_trial_num","","","","","","","","","","","","","","","","","","","","","","","","",""
"","","","","","image-keyboard-response","92","215791","0.0-2.0-5.0-1.35","5eb4442bcaffba2864f4c554","D2","batch4","","2617.2000000476837","stim/yes_63_dia_b1.png","f","pattern_response","true","f","pattern_78","2617.2000000476837","true","35","","","","","","","","","","","","","","","","","","",""
"","","","","","html-keyboard-response","93","217108","0.0-2.0-5.0-0.36","5eb4442bcaffba2864f4c554","D2","batch4","","null","<p class=block-text>Trial 37 out of 78</p>","null","pattern_show_trial_num","","","","","","","","","","","","","","","","","","","","","","","","",""
"","","","","","image-keyboard-response","94","219339","0.0-2.0-5.0-1.36","5eb4442bcaffba2864f4c554","D2","batch4","","2227.1999999284744","stim/no_58_1_w.png","f","pattern_response","false","j","pattern_35","2227.1999999284744","false","35","","","","","","","","","","","","","","","","","","",""
"","","","","","html-keyboard-response","95","220646","0.0-2.0-5.0-0.37","5eb4442bcaffba2864f4c554","D2","batch4","","null","<p class=block-text>Trial 38 out of 78</p>","null","pattern_show_trial_num","","","","","","","","","","","","","","","","","","","","","","","","",""
"","","","","","image-keyboard-response","96","221344","0.0-2.0-5.0-1.37","5eb4442bcaffba2864f4c554","D2","batch4","","695.7000000476837","stim/yes_36_ver_w1_w.png","f","pattern_response","true","f","pattern_58","695.7000000476837","true","36","","","","","","","","","","","","","","","","","","",""
"","","","","","html-keyboard-response","97","222668","0.0-2.0-5.0-0.38","5eb4442bcaffba2864f4c554","D2","batch4","","null","<p class=block-text>Trial 39 out of 78</p>","null","pattern_show_trial_num","","","","","","","","","","","","","","","","","","","","","","","","",""
"","","","","","image-keyboard-response","98","223323","0.0-2.0-5.0-1.38","5eb4442bcaffba2864f4c554","D2","batch4","","653.1999999284744","stim/yes_26_dia_w2_w.png","f","pattern_response","true","f","pattern_50","653.1999999284744","true","37","","","","","","","","","","","","","","","","","","",""
"","","","","","image-keyboard-response","99","226181","0.0-2.0-6.0","5eb4442bcaffba2864f4c554","D2","batch4","","2346.7000000476837","stim/empty_board.png","j","attention_check","true","j","","","","","500","[""f"",""j""]","","","","","","","","","","","","","","","","",""
"","","","","","html-keyboard-response","100","226984","0.0-2.0-7.0-0.0","5eb4442bcaffba2864f4c554","D2","batch4","","null","<p class=block-text>Trial 40 out of 78</p>","null","pattern_show_trial_num","","","","","","","","","","","","","","","","","","","","","","","","",""
"","","","","","image-keyboard-response","101","233070","0.0-2.0-7.0-1.0","5eb4442bcaffba2864f4c554","D2","batch4","","6084.100000023842","stim/no_65_1_b.png","j","pattern_response","true","j","pattern_38","6084.100000023842","true","38","","","","","","","","","","","","","","","","","","",""
"","","","","","html-keyboard-response","102","234392","0.0-2.0-7.0-0.1","5eb4442bcaffba2864f4c554","D2","batch4","","null","<p class=block-text>Trial 41 out of 78</p>","null","pattern_show_trial_num","","","","","","","","","","","","","","","","","","","","","","","","",""
"","","","","","image-keyboard-response","103","237012","0.0-2.0-7.0-1.1","5eb4442bcaffba2864f4c554","D2","batch4","","2617.2999999523163","stim/yes_52_ver_w1.png","f","pattern_response","true","f","pattern_73","2617.2999999523163","true","39","","","","","","","","","","","","","","","","","","",""
"","","","","","html-keyboard-response","104","238330","0.0-2.0-7.0-0.2","5eb4442bcaffba2864f4c554","D2","batch4","","null","<p class=block-text>Trial 42 out of 78</p>","null","pattern_show_trial_num","","","","","","","","","","","","","","","","","","","","","","","","",""
"","","","","","image-keyboard-response","105","239274","0.0-2.0-7.0-1.2","5eb4442bcaffba2864f4c554","D2","batch4","","940","stim/yes_43_ver_w1_w.png","f","pattern_response","true","f","pattern_65","940","true","40","","","","","","","","","","","","","","","","","","",""
"","","","","","html-keyboard-response","106","240590","0.0-2.0-7.0-0.3","5eb4442bcaffba2864f4c554","D2","batch4","","null","<p class=block-text>Trial 43 out of 78</p>","null","pattern_show_trial_num","","","","","","","","","","","","","","","","","","","","","","","","",""
"","","","","","image-keyboard-response","107","241370","0.0-2.0-7.0-1.3","5eb4442bcaffba2864f4c554","D2","batch4","","778.1000000238419","stim/yes_28_ver_b1.png","f","pattern_response","true","f","pattern_51","778.1000000238419","true","41","","","","","","","","","","","","","","","","","","",""
"","","","","","html-keyboard-response","108","242684","0.0-2.0-7.0-0.4","5eb4442bcaffba2864f4c554","D2","batch4","","null","<p class=block-text>Trial 44 out of 78</p>","null","pattern_show_trial_num","","","","","","","","","","","","","","","","","","","","","","","","",""
"","","","","","image-keyboard-response","109","245280","0.0-2.0-7.0-1.4","5eb4442bcaffba2864f4c554","D2","batch4","","2595.5","stim/yes_50_dia_w1.png","f","pattern_response","true","f","pattern_71","2595.5","true","42","","","","","","","","","","","","","","","","","","",""
"","","","","","html-keyboard-response","110","246607","0.0-2.0-7.0-0.5","5eb4442bcaffba2864f4c554","D2","batch4","","null","<p class=block-text>Trial 45 out of 78</p>","null","pattern_show_trial_num","","","","","","","","","","","","","","","","","","","","","","","","",""
"","","","","","image-keyboard-response","111","249767","0.0-2.0-7.0-1.5","5eb4442bcaffba2864f4c554","D2","batch4","","3157","stim/no_46_1_b.png","j","pattern_response","true","j","pattern_26","3157","true","43","","","","","","","","","","","","","","","","","","",""
"","","","","","html-keyboard-response","112","251079","0.0-2.0-7.0-0.6","5eb4442bcaffba2864f4c554","D2","batch4","","null","<p class=block-text>Trial 46 out of 78</p>","null","pattern_show_trial_num","","","","","","","","","","","","","","","","","","","","","","","","",""
"","","","","","image-keyboard-response","113","255386","0.0-2.0-7.0-1.6","5eb4442bcaffba2864f4c554","D2","batch4","","4303.5","stim/no_70_2.png","f","pattern_response","false","j","pattern_40","4303.5","false","43","","","","","","","","","","","","","","","","","","",""
"","","","","","html-keyboard-response","114","256712","0.0-2.0-7.0-0.7","5eb4442bcaffba2864f4c554","D2","batch4","","null","<p class=block-text>Trial 47 out of 78</p>","null","pattern_show_trial_num","","","","","","","","","","","","","","","","","","","","","","","","",""
"","","","","","image-keyboard-response","115","259795","0.0-2.0-7.0-1.7","5eb4442bcaffba2864f4c554","D2","batch4","","3080.3000000715256","stim/yes_55_hor_w1_w.png","j","pattern_response","false","f","pattern_75","3080.3000000715256","false","43","","","","","","","","","","","","","","","","","","",""
"","","","","","html-keyboard-response","116","261112","0.0-2.0-7.0-0.8","5eb4442bcaffba2864f4c554","D2","batch4","","null","<p class=block-text>Trial 48 out of 78</p>","null","pattern_show_trial_num","","","","","","","","","","","","","","","","","","","","","","","","",""
"","","","","","image-keyboard-response","117","263803","0.0-2.0-7.0-1.8","5eb4442bcaffba2864f4c554","D2","batch4","","2687.100000023842","stim/no_42_1_w.png","j","pattern_response","true","j","pattern_22","2687.100000023842","true","44","","","","","","","","","","","","","","","","","","",""
"","","","","","html-keyboard-response","118","265113","0.0-2.0-7.0-0.9","5eb4442bcaffba2864f4c554","D2","batch4","","null","<p class=block-text>Trial 49 out of 78</p>","null","pattern_show_trial_num","","","","","","","","","","","","","","","","","","","","","","","","",""
"","","","","","image-keyboard-response","119","267859","0.0-2.0-7.0-1.9","5eb4442bcaffba2864f4c554","D2","batch4","","2743.1999999284744","stim/no_62_1_w.png","j","pattern_response","true","j","pattern_36","2743.1999999284744","true","45","","","","","","","","","","","","","","","","","","",""
"","","","","","html-keyboard-response","120","269170","0.0-2.0-7.0-0.10","5eb4442bcaffba2864f4c554","D2","batch4","","null","<p class=block-text>Trial 50 out of 78</p>","null","pattern_show_trial_num","","","","","","","","","","","","","","","","","","","","","","","","",""
"","","","","","image-keyboard-response","121","271240","0.0-2.0-7.0-1.10","5eb4442bcaffba2864f4c554","D2","batch4","","2066.399999976158","stim/no_34_1_b.png","j","pattern_response","true","j","pattern_16","2066.399999976158","true","46","","","","","","","","","","","","","","","","","","",""
"","","","","","html-keyboard-response","122","272550","0.0-2.0-7.0-0.11","5eb4442bcaffba2864f4c554","D2","batch4","","null","<p class=block-text>Trial 51 out of 78</p>","null","pattern_show_trial_num","","","","","","","","","","","","","","","","","","","","","","","","",""
"","","","","","image-keyboard-response","123","273381","0.0-2.0-7.0-1.11","5eb4442bcaffba2864f4c554","D2","batch4","","829","stim/no_23_1.png","j","pattern_response","true","j","pattern_08","829","true","47","","","","","","","","","","","","","","","","","","",""
"","","","","","html-keyboard-response","124","274706","0.0-2.0-7.0-0.12","5eb4442bcaffba2864f4c554","D2","batch4","","null","<p class=block-text>Trial 52 out of 78</p>","null","pattern_show_trial_num","","","","","","","","","","","","","","","","","","","","","","","","",""
"","","","","","image-keyboard-response","125","275839","0.0-2.0-7.0-1.12","5eb4442bcaffba2864f4c554","D2","batch4","","1130.9000000953674","stim/no_17_1_w.png","j","pattern_response","true","j","pattern_04","1130.9000000953674","true","48","","","","","","","","","","","","","","","","","","",""
"","","","","","html-keyboard-response","126","277146","0.0-2.0-7.0-0.13","5eb4442bcaffba2864f4c554","D2","batch4","","null","<p class=block-text>Trial 53 out of 78</p>","null","pattern_show_trial_num","","","","","","","","","","","","","","","","","","","","","","","","",""
"","","","","","image-keyboard-response","127","278903","0.0-2.0-7.0-1.13","5eb4442bcaffba2864f4c554","D2","batch4","","1753.2000000476837","stim/yes_40_dia_b1_b.png","f","pattern_response","true","f","pattern_63","1753.2000000476837","true","49","","","","","","","","","","","","","","","","","","",""
"","","","","","html-keyboard-response","128","280226","0.0-2.0-7.0-0.14","5eb4442bcaffba2864f4c554","D2","batch4","","null","<p class=block-text>Trial 54 out of 78</p>","null","pattern_show_trial_num","","","","","","","","","","","","","","","","","","","","","","","","",""
"","","","","","image-keyboard-response","129","281070","0.0-2.0-7.0-1.14","5eb4442bcaffba2864f4c554","D2","batch4","","842.3000000715256","stim/no_13_2_b.png","j","pattern_response","true","j","pattern_02","842.3000000715256","true","50","","","","","","","","","","","","","","","","","","",""
"","","","","","html-keyboard-response","130","282395","0.0-2.0-7.0-0.15","5eb4442bcaffba2864f4c554","D2","batch4","","null","<p class=block-text>Trial 55 out of 78</p>","null","pattern_show_trial_num","","","","","","","","","","","","","","","","","","","","","","","","",""
"","","","","","image-keyboard-response","131","284955","0.0-2.0-7.0-1.15","5eb4442bcaffba2864f4c554","D2","batch4","","2557.5","stim/yes_48_dia_w1_w.png","f","pattern_response","true","f","pattern_69","2557.5","true","51","","","","","","","","","","","","","","","","","","",""
"","","","","","html-keyboard-response","132","286280","0.0-2.0-7.0-0.16","5eb4442bcaffba2864f4c554","D2","batch4","","null","<p class=block-text>Trial 56 out of 78</p>","null","pattern_show_trial_num","","","","","","","","","","","","","","","","","","","","","","","","",""
"","","","","","image-keyboard-response","133","288647","0.0-2.0-7.0-1.16","5eb4442bcaffba2864f4c554","D2","batch4","","2364.100000023842","stim/yes_29_ver_w1.png","f","pattern_response","true","f","pattern_53","2364.100000023842","true","52","","","","","","","","","","","","","","","","","","",""
"","","","","","html-keyboard-response","134","289970","0.0-2.0-7.0-0.17","5eb4442bcaffba2864f4c554","D2","batch4","","null","<p class=block-text>Trial 57 out of 78</p>","null","pattern_show_trial_num","","","","","","","","","","","","","","","","","","","","","","","","",""
"","","","","","image-keyboard-response","135","292883","0.0-2.0-7.0-1.17","5eb4442bcaffba2864f4c554","D2","batch4","","2910.100000023842","stim/no_50_1.png","j","pattern_response","true","j","pattern_30","2910.100000023842","true","53","","","","","","","","","","","","","","","","","","",""
"","","","","","html-keyboard-response","136","294191","0.0-2.0-7.0-0.18","5eb4442bcaffba2864f4c554","D2","batch4","","null","<p class=block-text>Trial 58 out of 78</p>","null","pattern_show_trial_num","","","","","","","","","","","","","","","","","","","","","","","","",""
"","","","","","image-keyboard-response","137","294834","0.0-2.0-7.0-1.18","5eb4442bcaffba2864f4c554","D2","batch4","","641.2000000476837","stim/yes_14_hor_b1_w.png","f","pattern_response","true","f","pattern_43","641.2000000476837","true","54","","","","","","","","","","","","","","","","","","",""
"","","","","","html-keyboard-response","138","296148","0.0-2.0-7.0-0.19","5eb4442bcaffba2864f4c554","D2","batch4","","null","<p class=block-text>Trial 59 out of 78</p>","null","pattern_show_trial_num","","","","","","","","","","","","","","","","","","","","","","","","",""
"","","","","","image-keyboard-response","139","296513","0.0-2.0-7.0-1.19","5eb4442bcaffba2864f4c554","D2","batch4","","363.59999990463257","stim/no_44_1.png","j","pattern_response","true","j","pattern_24","363.59999990463257","true","55","","","","","","","","","","","","","","","","","","",""
"","","","","","html-keyboard-response","140","297839","0.0-2.0-7.0-0.20","5eb4442bcaffba2864f4c554","D2","batch4","","null","<p class=block-text>Trial 60 out of 78</p>","null","pattern_show_trial_num","","","","","","","","","","","","","","","","","","","","","","","","",""
"","","","","","image-keyboard-response","141","299841","0.0-2.0-7.0-1.20","5eb4442bcaffba2864f4c554","D2","batch4","","2000","stim/yes_31_hor_b1.png","f","pattern_response","true","f","pattern_55","2000","true","56","","","","","","","","","","","","","","","","","","",""
"","","","","","html-keyboard-response","142","301158","0.0-2.0-7.0-0.21","5eb4442bcaffba2864f4c554","D2","batch4","","null","<p class=block-text>Trial 61 out of 78</p>","null","pattern_show_trial_num","","","","","","","","","","","","","","","","","","","","","","","","",""
"","","","","","image-keyboard-response","143","305290","0.0-2.0-7.0-1.21","5eb4442bcaffba2864f4c554","D2","batch4","","4126.100000023842","stim/yes_60_ver_b1_b.png","f","pattern_response","true","f","pattern_77","4126.100000023842","true","57","","","","","","","","","","","","","","","","","","",""
"","","","","","html-keyboard-response","144","306616","0.0-2.0-7.0-0.22","5eb4442bcaffba2864f4c554","D2","batch4","","null","<p class=block-text>Trial 62 out of 78</p>","null","pattern_show_trial_num","","","","","","","","","","","","","","","","","","","","","","","","",""
"","","","","","image-keyboard-response","145","309819","0.0-2.0-7.0-1.22","5eb4442bcaffba2864f4c554","D2","batch4","","3199.3000000715256","stim/no_38_1_b.png","j","pattern_response","true","j","pattern_20","3199.3000000715256","true","58","","","","","","","","","","","","","","","","","","",""
"","","","","","html-keyboard-response","146","311140","0.0-2.0-7.0-0.23","5eb4442bcaffba2864f4c554","D2","batch4","","null","<p class=block-text>Trial 63 out of 78</p>","null","pattern_show_trial_num","","","","","","","","","","","","","","","","","","","","","","","","",""
"","","","","","image-keyboard-response","147","315186","0.0-2.0-7.0-1.23","5eb4442bcaffba2864f4c554","D2","batch4","","4041.899999976158","stim/no_52_1.png","j","pattern_response","true","j","pattern_32","4041.899999976158","true","59","","","","","","","","","","","","","","","","","","",""
"","","","","","html-keyboard-response","148","316495","0.0-2.0-7.0-0.24","5eb4442bcaffba2864f4c554","D2","batch4","","null","<p class=block-text>Trial 64 out of 78</p>","null","pattern_show_trial_num","","","","","","","","","","","","","","","","","","","","","","","","",""
"","","","","","image-keyboard-response","149","318195","0.0-2.0-7.0-1.24","5eb4442bcaffba2864f4c554","D2","batch4","","1697.2999999523163","stim/no_29_1_b.png","j","pattern_response","true","j","pattern_12","1697.2999999523163","true","60","","","","","","","","","","","","","","","","","","",""
"","","","","","html-keyboard-response","150","319504","0.0-2.0-7.0-0.25","5eb4442bcaffba2864f4c554","D2","batch4","","null","<p class=block-text>Trial 65 out of 78</p>","null","pattern_show_trial_num","","","","","","","","","","","","","","","","","","","","","","","","",""
"","","","","","image-keyboard-response","151","320550","0.0-2.0-7.0-1.25","5eb4442bcaffba2864f4c554","D2","batch4","","1043.6000000238419","stim/no_20_1_w.png","j","pattern_response","true","j","pattern_06","1043.6000000238419","true","61","","","","","","","","","","","","","","","","","","",""
"","","","","","html-keyboard-response","152","321867","0.0-2.0-7.0-0.26","5eb4442bcaffba2864f4c554","D2","batch4","","null","<p class=block-text>Trial 66 out of 78</p>","null","pattern_show_trial_num","","","","","","","","","","","","","","","","","","","","","","","","",""
"","","","","","image-keyboard-response","153","323460","0.0-2.0-7.0-1.26","5eb4442bcaffba2864f4c554","D2","batch4","","1590.6000000238419","stim/no_32_1_w.png","j","pattern_response","true","j","pattern_14","1590.6000000238419","true","62","","","","","","","","","","","","","","","","","","",""
"","","","","","html-keyboard-response","154","324781","0.0-2.0-7.0-0.27","5eb4442bcaffba2864f4c554","D2","batch4","","null","<p class=block-text>Trial 67 out of 78</p>","null","pattern_show_trial_num","","","","","","","","","","","","","","","","","","","","","","","","",""
"","","","","","image-keyboard-response","155","326925","0.0-2.0-7.0-1.27","5eb4442bcaffba2864f4c554","D2","batch4","","2141.6999999284744","stim/yes_67_hor_b1.png","f","pattern_response","true","f","pattern_79","2141.6999999284744","true","63","","","","","","","","","","","","","","","","","","",""
"","","","","","html-keyboard-response","156","328236","0.0-2.0-7.0-0.28","5eb4442bcaffba2864f4c554","D2","batch4","","null","<p class=block-text>Trial 68 out of 78</p>","null","pattern_show_trial_num","","","","","","","","","","","","","","","","","","","","","","","","",""
"","","","","","image-keyboard-response","157","329006","0.0-2.0-7.0-1.28","5eb4442bcaffba2864f4c554","D2","batch4","","766.8999999761581","stim/yes_22_ver_w1.png","f","pattern_response","true","f","pattern_47","766.8999999761581","true","64","","","","","","","","","","","","","","","","","","",""
"","","","","","html-keyboard-response","158","330314","0.0-2.0-7.0-0.29","5eb4442bcaffba2864f4c554","D2","batch4","","null","<p class=block-text>Trial 69 out of 78</p>","null","pattern_show_trial_num","","","","","","","","","","","","","","","","","","","","","","","","",""
"","","","","","image-keyboard-response","159","333748","0.0-2.0-7.0-1.29","5eb4442bcaffba2864f4c554","D2","batch4","","3431.5","stim/yes_45_hor_b2_b.png","j","pattern_response","false","f","pattern_67","3431.5","false","64","","","","","","","","","","","","","","","","","","",""
"","","","","","html-keyboard-response","160","335063","0.0-2.0-7.0-0.30","5eb4442bcaffba2864f4c554","D2","batch4","","null","<p class=block-text>Trial 70 out of 78</p>","null","pattern_show_trial_num","","","","","","","","","","","","","","","","","","","","","","","","",""
"","","","","","image-keyboard-response","161","338300","0.0-2.0-7.0-1.30","5eb4442bcaffba2864f4c554","D2","batch4","","3233.5","stim/no_55_1_w.png","j","pattern_response","true","j","pattern_34","3233.5","true","65","","","","","","","","","","","","","","","","","","",""
"","","","","","html-keyboard-response","162","339620","0.0-2.0-7.0-0.31","5eb4442bcaffba2864f4c554","D2","batch4","","null","<p class=block-text>Trial 71 out of 78</p>","null","pattern_show_trial_num","","","","","","","","","","","","","","","","","","","","","","","","",""
"","","","","","image-keyboard-response","163","343828","0.0-2.0-7.0-1.31","5eb4442bcaffba2864f4c554","D2","batch4","","4205.399999976158","stim/no_48_1_w.png","j","pattern_response","true","j","pattern_28","4205.399999976158","true","66","","","","","","","","","","","","","","","","","","",""
"","","","","","html-keyboard-response","164","345147","0.0-2.0-7.0-0.32","5eb4442bcaffba2864f4c554","D2","batch4","","null","<p class=block-text>Trial 72 out of 78</p>","null","pattern_show_trial_num","","","","","","","","","","","","","","","","","","","","","","","","",""
"","","","","","image-keyboard-response","165","349528","0.0-2.0-7.0-1.32","5eb4442bcaffba2864f4c554","D2","batch4","","4377.5","stim/no_36_2_w.png","j","pattern_response","true","j","pattern_18","4377.5","true","67","","","","","","","","","","","","","","","","","","",""
"","","","","","html-keyboard-response","166","350844","0.0-2.0-7.0-0.33","5eb4442bcaffba2864f4c554","D2","batch4","","null","<p class=block-text>Trial 73 out of 78</p>","null","pattern_show_trial_num","","","","","","","","","","","","","","","","","","","","","","","","",""
"","","","","","image-keyboard-response","167","351947","0.0-2.0-7.0-1.33","5eb4442bcaffba2864f4c554","D2","batch4","","1100.0999999046326","stim/no_26_1_w.png","j","pattern_response","true","j","pattern_10","1100.0999999046326","true","68","","","","","","","","","","","","","","","","","","",""
"","","","","","html-keyboard-response","168","353259","0.0-2.0-7.0-0.34","5eb4442bcaffba2864f4c554","D2","batch4","","null","<p class=block-text>Trial 74 out of 78</p>","null","pattern_show_trial_num","","","","","","","","","","","","","","","","","","","","","","","","",""
"","","","","","image-keyboard-response","169","353827","0.0-2.0-7.0-1.34","5eb4442bcaffba2864f4c554","D2","batch4","","565.3999999761581","stim/yes_25_hor_b1_b.png","f","pattern_response","true","f","pattern_49","565.3999999761581","true","69","","","","","","","","","","","","","","","","","","",""
"","","","","","html-keyboard-response","170","355138","0.0-2.0-7.0-0.35","5eb4442bcaffba2864f4c554","D2","batch4","","null","<p class=block-text>Trial 75 out of 78</p>","null","pattern_show_trial_num","","","","","","","","","","","","","","","","","","","","","","","","",""
"","","","","","image-keyboard-response","171","355741","0.0-2.0-7.0-1.35","5eb4442bcaffba2864f4c554","D2","batch4","","600.7000000476837","stim/yes_38_hor_b1_b.png","f","pattern_response","true","f","pattern_61","600.7000000476837","true","70","","","","","","","","","","","","","","","","","","",""
"","","","","","html-keyboard-response","172","357065","0.0-2.0-7.0-0.36","5eb4442bcaffba2864f4c554","D2","batch4","","null","<p class=block-text>Trial 76 out of 78</p>","null","pattern_show_trial_num","","","","","","","","","","","","","","","","","","","","","","","","",""
"","","","","","image-keyboard-response","173","358378","0.0-2.0-7.0-1.36","5eb4442bcaffba2864f4c554","D2","batch4","","1310.3000000715256","stim/yes_35_dia_b1.png","f","pattern_response","true","f","pattern_57","1310.3000000715256","true","71","","","","","","","","","","","","","","","","","","",""
"","","","","","html-keyboard-response","174","359700","0.0-2.0-7.0-0.37","5eb4442bcaffba2864f4c554","D2","batch4","","null","<p class=block-text>Trial 77 out of 78</p>","null","pattern_show_trial_num","","","","","","","","","","","","","","","","","","","","","","","","",""
"","","","","","image-keyboard-response","175","361829","0.0-2.0-7.0-1.37","5eb4442bcaffba2864f4c554","D2","batch4","","2126","stim/yes_37_dia_w1.png","f","pattern_response","true","f","pattern_59","2126","true","72","","","","","","","","","","","","","","","","","","",""
"","","","","","html-keyboard-response","176","363142","0.0-2.0-7.0-0.38","5eb4442bcaffba2864f4c554","D2","batch4","","null","<p class=block-text>Trial 78 out of 78</p>","null","pattern_show_trial_num","","","","","","","","","","","","","","","","","","","","","","","","",""
"","","","","","image-keyboard-response","177","363823","0.0-2.0-7.0-1.38","5eb4442bcaffba2864f4c554","D2","batch4","","678.7000000476837","stim/yes_17_dia_w1.png","f","pattern_response","true","f","pattern_45","678.7000000476837","true","73","","","","","","","","","","","","","","","","","","",""
"","","","","","html-button-response","178","370576","0.0-2.0-8.0","5eb4442bcaffba2864f4c554","D2","batch4","","6241.800000071526","<p class = block-text>This concludes the 4-in-a-row detection game.Thank you for your responses!<br>
            You responded correctly on 94% of the trials.<br>
            When you are ready, press ""Continue"" button to continue </p>","0","","","","","","","","","","","","","","","","","","","","","","","","","",""
"true","","","","","fullscreen","179","374451","0.0-3.0-0.0","5eb4442bcaffba2864f4c554","D2","batch4","","","","","spm_fullscreen","","","","","","","","","","","","","","","","","","","","","","","","",""
"","","","","","html-button-response","180","390673","0.0-3.0-1.0","5eb4442bcaffba2864f4c554","D2","batch4","","16219.900000095367","<p class = block-text><b>Instructions</b> <br>This is a widely used intelligence test in research. <br>In this test, a figure with a missing piece will be presented.<br>Below the figure are alternative pieces to complete the figure, only one of which is correct.<br> Different figures might involve different principles for obtaining the missing piece<br>Your job is to select the most logical piece to complete the figure.</p>","0","","","","","","","","","","","","","","","","","","","","","","","","","",""
"","","","","","html-keyboard-response","181","391481","0.0-3.0-2.0-0.0","5eb4442bcaffba2864f4c554","D2","batch4","","null","<p class=block-text>Trial 1 out of 60</p>","null","spm_show_trial_num","","","","","","","","","","","","","","","","","","","","","","","","",""
"","","","","","image-button-response","182","397365","0.0-3.0-2.0-1.0","5eb4442bcaffba2864f4c554","D2","batch4","","5876.899999976158","img/question_1_1.jpeg","3","spm_respsonse","1","4","mat_01","","","","","","1","5876.899999976158","","","","","","","","","","","","","","",""
"","","","","","html-keyboard-response","183","398424","0.0-3.0-2.0-0.1","5eb4442bcaffba2864f4c554","D2","batch4","","null","<p class=block-text>Trial 2 out of 60</p>","null","spm_show_trial_num","","","","","","","","","","","","","","","","","","","","","","","","",""
"","","","","","image-button-response","184","401028","0.0-3.0-2.0-1.1","5eb4442bcaffba2864f4c554","D2","batch4","","2599.399999976158","img/question_1_2.jpeg","4","spm_respsonse","1","5","mat_02","","","","","","1","2599.399999976158","","","","","","","","","","","","","","",""
"","","","","","html-keyboard-response","185","402092","0.0-3.0-2.0-0.2","5eb4442bcaffba2864f4c554","D2","batch4","","null","<p class=block-text>Trial 3 out of 60</p>","null","spm_show_trial_num","","","","","","","","","","","","","","","","","","","","","","","","",""
"","","","","","image-button-response","186","404372","0.0-3.0-2.0-1.2","5eb4442bcaffba2864f4c554","D2","batch4","","2275.3000000715256","img/question_1_3.jpeg","0","spm_respsonse","1","1","mat_03","","","","","","1","2275.3000000715256","","","","","","","","","","","","","","",""
"","","","","","html-keyboard-response","187","405426","0.0-3.0-2.0-0.3","5eb4442bcaffba2864f4c554","D2","batch4","","null","<p class=block-text>Trial 4 out of 60</p>","null","spm_show_trial_num","","","","","","","","","","","","","","","","","","","","","","","","",""
"","","","","","image-button-response","188","408631","0.0-3.0-2.0-1.3","5eb4442bcaffba2864f4c554","D2","batch4","","3200.100000023842","img/question_1_4.jpeg","1","spm_respsonse","1","2","mat_04","","","","","","1","3200.100000023842","","","","","","","","","","","","","","",""
"","","","","","html-keyboard-response","189","409690","0.0-3.0-2.0-0.4","5eb4442bcaffba2864f4c554","D2","batch4","","null","<p class=block-text>Trial 5 out of 60</p>","null","spm_show_trial_num","","","","","","","","","","","","","","","","","","","","","","","","",""
"","","","","","image-button-response","190","414915","0.0-3.0-2.0-1.4","5eb4442bcaffba2864f4c554","D2","batch4","","5221.5","img/question_1_5.jpeg","5","spm_respsonse","1","6","mat_05","","","","","","1","5221.5","","","","","","","","","","","","","","",""
"","","","","","html-keyboard-response","191","415977","0.0-3.0-2.0-0.5","5eb4442bcaffba2864f4c554","D2","batch4","","null","<p class=block-text>Trial 6 out of 60</p>","null","spm_show_trial_num","","","","","","","","","","","","","","","","","","","","","","","","",""
"","","","","","image-button-response","192","418416","0.0-3.0-2.0-1.5","5eb4442bcaffba2864f4c554","D2","batch4","","2435","img/question_1_6.jpeg","2","spm_respsonse","1","3","mat_06","","","","","","1","2435","","","","","","","","","","","","","","",""
"","","","","","html-keyboard-response","193","419482","0.0-3.0-2.0-0.6","5eb4442bcaffba2864f4c554","D2","batch4","","null","<p class=block-text>Trial 7 out of 60</p>","null","spm_show_trial_num","","","","","","","","","","","","","","","","","","","","","","","","",""
"","","","","","image-button-response","194","422501","0.0-3.0-2.0-1.6","5eb4442bcaffba2864f4c554","D2","batch4","","3013.5","img/question_1_7.jpeg","5","spm_respsonse","1","6","mat_07","","","","","","1","3013.5","","","","","","","","","","","","","","",""
"","","","","","html-keyboard-response","195","423559","0.0-3.0-2.0-0.7","5eb4442bcaffba2864f4c554","D2","batch4","","null","<p class=block-text>Trial 8 out of 60</p>","null","spm_show_trial_num","","","","","","","","","","","","","","","","","","","","","","","","",""
"","","","","","image-button-response","196","429900","0.0-3.0-2.0-1.7","5eb4442bcaffba2864f4c554","D2","batch4","","6337.300000071526","img/question_1_8.jpeg","1","spm_respsonse","1","2","mat_08","","","","","","1","6337.300000071526","","","","","","","","","","","","","","",""
"","","","","","html-keyboard-response","197","430965","0.0-3.0-2.0-0.8","5eb4442bcaffba2864f4c554","D2","batch4","","null","<p class=block-text>Trial 9 out of 60</p>","null","spm_show_trial_num","","","","","","","","","","","","","","","","","","","","","","","","",""
"","","","","","image-button-response","198","434017","0.0-3.0-2.0-1.8","5eb4442bcaffba2864f4c554","D2","batch4","","3046.9000000953674","img/question_1_9.jpeg","0","spm_respsonse","1","1","mat_09","","","","","","1","3046.9000000953674","","","","","","","","","","","","","","",""
"","","","","","html-keyboard-response","199","435072","0.0-3.0-2.0-0.9","5eb4442bcaffba2864f4c554","D2","batch4","","null","<p class=block-text>Trial 10 out of 60</p>","null","spm_show_trial_num","","","","","","","","","","","","","","","","","","","","","","","","",""
"","","","","","image-button-response","200","440214","0.0-3.0-2.0-1.9","5eb4442bcaffba2864f4c554","D2","batch4","","5137.899999976158","img/question_1_10.jpeg","2","spm_respsonse","1","3","mat_10","","","","","","1","5137.899999976158","","","","","","","","","","","","","","",""
"","","","","","html-keyboard-response","201","441280","0.0-3.0-2.0-0.10","5eb4442bcaffba2864f4c554","D2","batch4","","null","<p class=block-text>Trial 11 out of 60</p>","null","spm_show_trial_num","","","","","","","","","","","","","","","","","","","","","","","","",""
"","","","","","image-button-response","202","444984","0.0-3.0-2.0-1.10","5eb4442bcaffba2864f4c554","D2","batch4","","3698.6999999284744","img/question_1_11.jpeg","3","spm_respsonse","1","4","mat_11","","","","","","1","3698.6999999284744","","","","","","","","","","","","","","",""
"","","","","","html-keyboard-response","203","446057","0.0-3.0-2.0-0.11","5eb4442bcaffba2864f4c554","D2","batch4","","null","<p class=block-text>Trial 12 out of 60</p>","null","spm_show_trial_num","","","","","","","","","","","","","","","","","","","","","","","","",""
"","","","","","image-button-response","204","452804","0.0-3.0-2.0-1.11","5eb4442bcaffba2864f4c554","D2","batch4","","6742.100000023842","img/question_1_12.jpeg","3","spm_respsonse","0","5","mat_12","","","","","","0","6742.100000023842","","","","","","","","","","","","","","",""
"","","","","","html-keyboard-response","205","453874","0.0-3.0-2.0-0.12","5eb4442bcaffba2864f4c554","D2","batch4","","null","<p class=block-text>Trial 13 out of 60</p>","null","spm_show_trial_num","","","","","","","","","","","","","","","","","","","","","","","","",""
"","","","","","image-button-response","206","456108","0.0-3.0-2.0-1.12","5eb4442bcaffba2864f4c554","D2","batch4","","2229.600000023842","img/question_2_1.jpeg","1","spm_respsonse","1","2","mat_13","","","","","","1","2229.600000023842","","","","","","","","","","","","","","",""
"","","","","","html-keyboard-response","207","457166","0.0-3.0-2.0-0.13","5eb4442bcaffba2864f4c554","D2","batch4","","null","<p class=block-text>Trial 14 out of 60</p>","null","spm_show_trial_num","","","","","","","","","","","","","","","","","","","","","","","","",""
"","","","","","image-button-response","208","463694","0.0-3.0-2.0-1.13","5eb4442bcaffba2864f4c554","D2","batch4","","6525.699999928474","img/question_2_2.jpeg","5","spm_respsonse","1","6","mat_14","","","","","","1","6525.699999928474","","","","","","","","","","","","","","",""
"","","","","","html-keyboard-response","209","464756","0.0-3.0-2.0-0.14","5eb4442bcaffba2864f4c554","D2","batch4","","null","<p class=block-text>Trial 15 out of 60</p>","null","spm_show_trial_num","","","","","","","","","","","","","","","","","","","","","","","","",""
"","","","","","image-button-response","210","468197","0.0-3.0-2.0-1.14","5eb4442bcaffba2864f4c554","D2","batch4","","3438.600000023842","img/question_2_3.jpeg","0","spm_respsonse","1","1","mat_15","","","","","","1","3438.600000023842","","","","","","","","","","","","","","",""
"","","","","","html-keyboard-response","211","469265","0.0-3.0-2.0-0.15","5eb4442bcaffba2864f4c554","D2","batch4","","null","<p class=block-text>Trial 16 out of 60</p>","null","spm_show_trial_num","","","","","","","","","","","","","","","","","","","","","","","","",""
"","","","","","image-button-response","212","471684","0.0-3.0-2.0-1.15","5eb4442bcaffba2864f4c554","D2","batch4","","2414","img/question_2_4.jpeg","1","spm_respsonse","1","2","mat_16","","","","","","1","2414","","","","","","","","","","","","","","",""
"","","","","","html-keyboard-response","213","472764","0.0-3.0-2.0-0.16","5eb4442bcaffba2864f4c554","D2","batch4","","null","<p class=block-text>Trial 17 out of 60</p>","null","spm_show_trial_num","","","","","","","","","","","","","","","","","","","","","","","","",""
"","","","","","image-button-response","214","475662","0.0-3.0-2.0-1.16","5eb4442bcaffba2864f4c554","D2","batch4","","2894.899999976158","img/question_2_5.jpeg","0","spm_respsonse","1","1","mat_17","","","","","","1","2894.899999976158","","","","","","","","","","","","","","",""
"","","","","","html-keyboard-response","215","476728","0.0-3.0-2.0-0.17","5eb4442bcaffba2864f4c554","D2","batch4","","null","<p class=block-text>Trial 18 out of 60</p>","null","spm_show_trial_num","","","","","","","","","","","","","","","","","","","","","","","","",""
"","","","","","image-button-response","216","481367","0.0-3.0-2.0-1.17","5eb4442bcaffba2864f4c554","D2","batch4","","4634","img/question_2_6.jpeg","2","spm_respsonse","1","3","mat_18","","","","","","1","4634","","","","","","","","","","","","","","",""
"","","","","","html-keyboard-response","217","482431","0.0-3.0-2.0-0.18","5eb4442bcaffba2864f4c554","D2","batch4","","null","<p class=block-text>Trial 19 out of 60</p>","null","spm_show_trial_num","","","","","","","","","","","","","","","","","","","","","","","","",""
"","","","","","image-button-response","218","485406","0.0-3.0-2.0-1.18","5eb4442bcaffba2864f4c554","D2","batch4","","2970.7999999523163","img/question_2_7.jpeg","4","spm_respsonse","1","5","mat_19","","","","","","1","2970.7999999523163","","","","","","","","","","","","","","",""
"","","","","","html-keyboard-response","219","486478","0.0-3.0-2.0-0.19","5eb4442bcaffba2864f4c554","D2","batch4","","null","<p class=block-text>Trial 20 out of 60</p>","null","spm_show_trial_num","","","","","","","","","","","","","","","","","","","","","","","","",""
"","","","","","image-button-response","220","496918","0.0-3.0-2.0-1.19","5eb4442bcaffba2864f4c554","D2","batch4","","10433.900000095367","img/question_2_8.jpeg","5","spm_respsonse","1","6","mat_20","","","","","","1","10433.900000095367","","","","","","","","","","","","","","",""
"","","","","","html-keyboard-response","221","497995","0.0-3.0-2.0-0.20","5eb4442bcaffba2864f4c554","D2","batch4","","null","<p class=block-text>Trial 21 out of 60</p>","null","spm_show_trial_num","","","","","","","","","","","","","","","","","","","","","","","","",""
"","","","","","image-button-response","222","502049","0.0-3.0-2.0-1.20","5eb4442bcaffba2864f4c554","D2","batch4","","4047.5","img/question_2_9.jpeg","3","spm_respsonse","1","4","mat_21","","","","","","1","4047.5","","","","","","","","","","","","","","",""
"","","","","","html-keyboard-response","223","503116","0.0-3.0-2.0-0.21","5eb4442bcaffba2864f4c554","D2","batch4","","null","<p class=block-text>Trial 22 out of 60</p>","null","spm_show_trial_num","","","","","","","","","","","","","","","","","","","","","","","","",""
"","","","","","image-button-response","224","507805","0.0-3.0-2.0-1.21","5eb4442bcaffba2864f4c554","D2","batch4","","4685.899999976158","img/question_2_10.jpeg","2","spm_respsonse","1","3","mat_22","","","","","","1","4685.899999976158","","","","","","","","","","","","","","",""
"","","","","","html-keyboard-response","225","508883","0.0-3.0-2.0-0.22","5eb4442bcaffba2864f4c554","D2","batch4","","null","<p class=block-text>Trial 23 out of 60</p>","null","spm_show_trial_num","","","","","","","","","","","","","","","","","","","","","","","","",""
"","","","","","image-button-response","226","513852","0.0-3.0-2.0-1.22","5eb4442bcaffba2864f4c554","D2","batch4","","4963.299999952316","img/question_2_11.jpeg","3","spm_respsonse","1","4","mat_23","","","","","","1","4963.299999952316","","","","","","","","","","","","","","",""
"","","","","","html-keyboard-response","227","514920","0.0-3.0-2.0-0.23","5eb4442bcaffba2864f4c554","D2","batch4","","null","<p class=block-text>Trial 24 out of 60</p>","null","spm_show_trial_num","","","","","","","","","","","","","","","","","","","","","","","","",""
"","","","","","image-button-response","228","525999","0.0-3.0-2.0-1.23","5eb4442bcaffba2864f4c554","D2","batch4","","11071.899999976158","img/question_2_12.jpeg","5","spm_respsonse","0","5","mat_24","","","","","","0","11071.899999976158","","","","","","","","","","","","","","",""
"","","","","","html-button-response","229","528062","0.0-3.0-3.0","5eb4442bcaffba2864f4c554","D2","batch4","","1807.5","<p class = block-text>Attention check: Please choose 1<br></p>","0","attention_check","true","","","","","","","","","","","","","","","","","","","","","","","",""
"","","","","","html-keyboard-response","230","528864","0.0-3.0-4.0-0.0","5eb4442bcaffba2864f4c554","D2","batch4","","null","<p class=block-text>Trial 25 out of 60</p>","null","spm_show_trial_num","","","","","","","","","","","","","","","","","","","","","","","","",""
"","","","","","image-button-response","231","533636","0.0-3.0-4.0-1.0","5eb4442bcaffba2864f4c554","D2","batch4","","4767.799999952316","img/question_3_1.jpeg","7","spm_respsonse","1","8","mat_25","","","","","","1","4767.799999952316","","","","","","","","","","","","","","",""
"","","","","","html-keyboard-response","232","534703","0.0-3.0-4.0-0.1","5eb4442bcaffba2864f4c554","D2","batch4","","null","<p class=block-text>Trial 26 out of 60</p>","null","spm_show_trial_num","","","","","","","","","","","","","","","","","","","","","","","","",""
"","","","","","image-button-response","233","540087","0.0-3.0-4.0-1.1","5eb4442bcaffba2864f4c554","D2","batch4","","5379.5","img/question_3_2.jpeg","1","spm_respsonse","1","2","mat_26","","","","","","1","5379.5","","","","","","","","","","","","","","",""
"","","","","","html-keyboard-response","234","541153","0.0-3.0-4.0-0.2","5eb4442bcaffba2864f4c554","D2","batch4","","null","<p class=block-text>Trial 27 out of 60</p>","null","spm_show_trial_num","","","","","","","","","","","","","","","","","","","","","","","","",""
"","","","","","image-button-response","235","553924","0.0-3.0-4.0-1.2","5eb4442bcaffba2864f4c554","D2","batch4","","12766.800000071526","img/question_3_3.jpeg","2","spm_respsonse","1","3","mat_27","","","","","","1","12766.800000071526","","","","","","","","","","","","","","",""
"","","","","","html-keyboard-response","236","554982","0.0-3.0-4.0-0.3","5eb4442bcaffba2864f4c554","D2","batch4","","null","<p class=block-text>Trial 28 out of 60</p>","null","spm_show_trial_num","","","","","","","","","","","","","","","","","","","","","","","","",""
"","","","","","image-button-response","237","569273","0.0-3.0-4.0-1.3","5eb4442bcaffba2864f4c554","D2","batch4","","14286.5","img/question_3_4.jpeg","2","spm_respsonse","0","8","mat_28","","","","","","0","14286.5","","","","","","","","","","","","","","",""
"","","","","","html-keyboard-response","238","570329","0.0-3.0-4.0-0.4","5eb4442bcaffba2864f4c554","D2","batch4","","null","<p class=block-text>Trial 29 out of 60</p>","null","spm_show_trial_num","","","","","","","","","","","","","","","","","","","","","","","","",""
"","","","","","image-button-response","239","578745","0.0-3.0-4.0-1.4","5eb4442bcaffba2864f4c554","D2","batch4","","8413.800000071526","img/question_3_5.jpeg","6","spm_respsonse","1","7","mat_29","","","","","","1","8413.800000071526","","","","","","","","","","","","","","",""
"","","","","","html-keyboard-response","240","579809","0.0-3.0-4.0-0.5","5eb4442bcaffba2864f4c554","D2","batch4","","null","<p class=block-text>Trial 30 out of 60</p>","null","spm_show_trial_num","","","","","","","","","","","","","","","","","","","","","","","","",""
"","","","","","image-button-response","241","586170","0.0-3.0-4.0-1.5","5eb4442bcaffba2864f4c554","D2","batch4","","6357.199999928474","img/question_3_6.jpeg","3","spm_respsonse","1","4","mat_30","","","","","","1","6357.199999928474","","","","","","","","","","","","","","",""
"","","","","","html-keyboard-response","242","587237","0.0-3.0-4.0-0.6","5eb4442bcaffba2864f4c554","D2","batch4","","null","<p class=block-text>Trial 31 out of 60</p>","null","spm_show_trial_num","","","","","","","","","","","","","","","","","","","","","","","","",""
"","","","","","image-button-response","243","591632","0.0-3.0-4.0-1.6","5eb4442bcaffba2864f4c554","D2","batch4","","4390","img/question_3_7.jpeg","4","spm_respsonse","1","5","mat_31","","","","","","1","4390","","","","","","","","","","","","","","",""
"","","","","","html-keyboard-response","244","592687","0.0-3.0-4.0-0.7","5eb4442bcaffba2864f4c554","D2","batch4","","null","<p class=block-text>Trial 32 out of 60</p>","null","spm_show_trial_num","","","","","","","","","","","","","","","","","","","","","","","","",""
"","","","","","image-button-response","245","608446","0.0-3.0-4.0-1.7","5eb4442bcaffba2864f4c554","D2","batch4","","15756.100000023842","img/question_3_8.jpeg","0","spm_respsonse","1","1","mat_32","","","","","","1","15756.100000023842","","","","","","","","","","","","","","",""
"","","","","","html-keyboard-response","246","609518","0.0-3.0-4.0-0.8","5eb4442bcaffba2864f4c554","D2","batch4","","null","<p class=block-text>Trial 33 out of 60</p>","null","spm_show_trial_num","","","","","","","","","","","","","","","","","","","","","","","","",""
"","","","","","image-button-response","247","613100","0.0-3.0-4.0-1.8","5eb4442bcaffba2864f4c554","D2","batch4","","3576.5","img/question_3_9.jpeg","5","spm_respsonse","0","7","mat_33","","","","","","0","3576.5","","","","","","","","","","","","","","",""
"","","","","","html-keyboard-response","248","614167","0.0-3.0-4.0-0.9","5eb4442bcaffba2864f4c554","D2","batch4","","null","<p class=block-text>Trial 34 out of 60</p>","null","spm_show_trial_num","","","","","","","","","","","","","","","","","","","","","","","","",""
"","","","","","image-button-response","249","628526","0.0-3.0-4.0-1.9","5eb4442bcaffba2864f4c554","D2","batch4","","14354.100000023842","img/question_3_10.jpeg","5","spm_respsonse","1","6","mat_34","","","","","","1","14354.100000023842","","","","","","","","","","","","","","",""
"","","","","","html-keyboard-response","250","629597","0.0-3.0-4.0-0.10","5eb4442bcaffba2864f4c554","D2","batch4","","null","<p class=block-text>Trial 35 out of 60</p>","null","spm_show_trial_num","","","","","","","","","","","","","","","","","","","","","","","","",""
"","","","","","image-button-response","251","642592","0.0-3.0-4.0-1.10","5eb4442bcaffba2864f4c554","D2","batch4","","12988.299999952316","img/question_3_11.jpeg","7","spm_respsonse","0","1","mat_35","","","","","","0","12988.299999952316","","","","","","","","","","","","","","",""
"","","","","","html-keyboard-response","252","643666","0.0-3.0-4.0-0.11","5eb4442bcaffba2864f4c554","D2","batch4","","null","<p class=block-text>Trial 36 out of 60</p>","null","spm_show_trial_num","","","","","","","","","","","","","","","","","","","","","","","","",""
"","","","","","image-button-response","253","646367","0.0-3.0-4.0-1.11","5eb4442bcaffba2864f4c554","D2","batch4","","2696.3000000715256","img/question_3_12.jpeg","4","spm_respsonse","0","2","mat_36","","","","","","0","2696.3000000715256","","","","","","","","","","","","","","",""
"","","","","","html-keyboard-response","254","647433","0.0-3.0-4.0-0.12","5eb4442bcaffba2864f4c554","D2","batch4","","null","<p class=block-text>Trial 37 out of 60</p>","null","spm_show_trial_num","","","","","","","","","","","","","","","","","","","","","","","","",""
"","","","","","image-button-response","255","651751","0.0-3.0-4.0-1.12","5eb4442bcaffba2864f4c554","D2","batch4","","4313.100000023842","img/question_4_1.jpeg","2","spm_respsonse","1","3","mat_37","","","","","","1","4313.100000023842","","","","","","","","","","","","","","",""
"","","","","","html-keyboard-response","256","652828","0.0-3.0-4.0-0.13","5eb4442bcaffba2864f4c554","D2","batch4","","null","<p class=block-text>Trial 38 out of 60</p>","null","spm_show_trial_num","","","","","","","","","","","","","","","","","","","","","","","","",""
"","","","","","image-button-response","257","661304","0.0-3.0-4.0-1.13","5eb4442bcaffba2864f4c554","D2","batch4","","8470.699999928474","img/question_4_2.jpeg","3","spm_respsonse","1","4","mat_38","","","","","","1","8470.699999928474","","","","","","","","","","","","","","",""
"","","","","","html-keyboard-response","258","662383","0.0-3.0-4.0-0.14","5eb4442bcaffba2864f4c554","D2","batch4","","null","<p class=block-text>Trial 39 out of 60</p>","null","spm_show_trial_num","","","","","","","","","","","","","","","","","","","","","","","","",""
"","","","","","image-button-response","259","669892","0.0-3.0-4.0-1.14","5eb4442bcaffba2864f4c554","D2","batch4","","7504.299999952316","img/question_4_3.jpeg","2","spm_respsonse","1","3","mat_39","","","","","","1","7504.299999952316","","","","","","","","","","","","","","",""
"","","","","","html-keyboard-response","260","670967","0.0-3.0-4.0-0.15","5eb4442bcaffba2864f4c554","D2","batch4","","null","<p class=block-text>Trial 40 out of 60</p>","null","spm_show_trial_num","","","","","","","","","","","","","","","","","","","","","","","","",""
"","","","","","image-button-response","261","677404","0.0-3.0-4.0-1.15","5eb4442bcaffba2864f4c554","D2","batch4","","6430.5","img/question_4_4.jpeg","3","spm_respsonse","0","7","mat_40","","","","","","0","6430.5","","","","","","","","","","","","","","",""
"","","","","","html-keyboard-response","262","678470","0.0-3.0-4.0-0.16","5eb4442bcaffba2864f4c554","D2","batch4","","null","<p class=block-text>Trial 41 out of 60</p>","null","spm_show_trial_num","","","","","","","","","","","","","","","","","","","","","","","","",""
"","","","","","image-button-response","263","686267","0.0-3.0-4.0-1.16","5eb4442bcaffba2864f4c554","D2","batch4","","7791","img/question_4_5.jpeg","7","spm_respsonse","1","8","mat_41","","","","","","1","7791","","","","","","","","","","","","","","",""
"","","","","","html-keyboard-response","264","687340","0.0-3.0-4.0-0.17","5eb4442bcaffba2864f4c554","D2","batch4","","null","<p class=block-text>Trial 42 out of 60</p>","null","spm_show_trial_num","","","","","","","","","","","","","","","","","","","","","","","","",""
"","","","","","image-button-response","265","693773","0.0-3.0-4.0-1.17","5eb4442bcaffba2864f4c554","D2","batch4","","6426.899999976158","img/question_4_6.jpeg","5","spm_respsonse","1","6","mat_42","","","","","","1","6426.899999976158","","","","","","","","","","","","","","",""
"","","","","","html-keyboard-response","266","694839","0.0-3.0-4.0-0.18","5eb4442bcaffba2864f4c554","D2","batch4","","null","<p class=block-text>Trial 43 out of 60</p>","null","spm_show_trial_num","","","","","","","","","","","","","","","","","","","","","","","","",""
"","","","","","image-button-response","267","705894","0.0-3.0-4.0-1.18","5eb4442bcaffba2864f4c554","D2","batch4","","11050","img/question_4_7.jpeg","4","spm_respsonse","1","5","mat_43","","","","","","1","11050","","","","","","","","","","","","","","",""
"","","","","","html-keyboard-response","268","706958","0.0-3.0-4.0-0.19","5eb4442bcaffba2864f4c554","D2","batch4","","null","<p class=block-text>Trial 44 out of 60</p>","null","spm_show_trial_num","","","","","","","","","","","","","","","","","","","","","","","","",""
"","","","","","image-button-response","269","712643","0.0-3.0-4.0-1.19","5eb4442bcaffba2864f4c554","D2","batch4","","5679.899999976158","img/question_4_8.jpeg","1","spm_respsonse","0","4","mat_44","","","","","","0","5679.899999976158","","","","","","","","","","","","","","",""
"","","","","","html-keyboard-response","270","713703","0.0-3.0-4.0-0.20","5eb4442bcaffba2864f4c554","D2","batch4","","null","<p class=block-text>Trial 45 out of 60</p>","null","spm_show_trial_num","","","","","","","","","","","","","","","","","","","","","","","","",""
"","","","","","image-button-response","271","724446","0.0-3.0-4.0-1.20","5eb4442bcaffba2864f4c554","D2","batch4","","10736.899999976158","img/question_4_9.jpeg","2","spm_respsonse","0","1","mat_45","","","","","","0","10736.899999976158","","","","","","","","","","","","","","",""
"","","","","","html-keyboard-response","272","725519","0.0-3.0-4.0-0.21","5eb4442bcaffba2864f4c554","D2","batch4","","null","<p class=block-text>Trial 46 out of 60</p>","null","spm_show_trial_num","","","","","","","","","","","","","","","","","","","","","","","","",""
"","","","","","image-button-response","273","733070","0.0-3.0-4.0-1.21","5eb4442bcaffba2864f4c554","D2","batch4","","7546.400000095367","img/question_4_10.jpeg","6","spm_respsonse","0","2","mat_46","","","","","","0","7546.400000095367","","","","","","","","","","","","","","",""
"","","","","","html-keyboard-response","274","734148","0.0-3.0-4.0-0.22","5eb4442bcaffba2864f4c554","D2","batch4","","null","<p class=block-text>Trial 47 out of 60</p>","null","spm_show_trial_num","","","","","","","","","","","","","","","","","","","","","","","","",""
"","","","","","image-button-response","275","743558","0.0-3.0-4.0-1.22","5eb4442bcaffba2864f4c554","D2","batch4","","9405.300000071526","img/question_4_11.jpeg","4","spm_respsonse","1","5","mat_47","","","","","","1","9405.300000071526","","","","","","","","","","","","","","",""
"","","","","","html-keyboard-response","276","744621","0.0-3.0-4.0-0.23","5eb4442bcaffba2864f4c554","D2","batch4","","null","<p class=block-text>Trial 48 out of 60</p>","null","spm_show_trial_num","","","","","","","","","","","","","","","","","","","","","","","","",""
"","","","","","image-button-response","277","754973","0.0-3.0-4.0-1.23","5eb4442bcaffba2864f4c554","D2","batch4","","10345.600000023842","img/question_4_12.jpeg","6","spm_respsonse","0","6","mat_48","","","","","","0","10345.600000023842","","","","","","","","","","","","","","",""
"","","","","","html-keyboard-response","278","756053","0.0-3.0-4.0-0.24","5eb4442bcaffba2864f4c554","D2","batch4","","null","<p class=block-text>Trial 49 out of 60</p>","null","spm_show_trial_num","","","","","","","","","","","","","","","","","","","","","","","","",""
"","","","","","image-button-response","279","762763","0.0-3.0-4.0-1.24","5eb4442bcaffba2864f4c554","D2","batch4","","6703.199999928474","img/question_5_1.jpeg","6","spm_respsonse","1","7","mat_49","","","","","","1","6703.199999928474","","","","","","","","","","","","","","",""
"","","","","","html-keyboard-response","280","763840","0.0-3.0-4.0-0.25","5eb4442bcaffba2864f4c554","D2","batch4","","null","<p class=block-text>Trial 50 out of 60</p>","null","spm_show_trial_num","","","","","","","","","","","","","","","","","","","","","","","","",""
"","","","","","image-button-response","281","777777","0.0-3.0-4.0-1.25","5eb4442bcaffba2864f4c554","D2","batch4","","13931.899999976158","img/question_5_2.jpeg","5","spm_respsonse","1","6","mat_50","","","","","","1","13931.899999976158","","","","","","","","","","","","","","",""
"","","","","","html-keyboard-response","282","778834","0.0-3.0-4.0-0.26","5eb4442bcaffba2864f4c554","D2","batch4","","null","<p class=block-text>Trial 51 out of 60</p>","null","spm_show_trial_num","","","","","","","","","","","","","","","","","","","","","","","","",""
"","","","","","image-button-response","283","781575","0.0-3.0-4.0-1.26","5eb4442bcaffba2864f4c554","D2","batch4","","2735.5","img/question_5_3.jpeg","5","spm_respsonse","0","8","mat_51","","","","","","0","2735.5","","","","","","","","","","","","","","",""
"","","","","","html-keyboard-response","284","782637","0.0-3.0-4.0-0.27","5eb4442bcaffba2864f4c554","D2","batch4","","null","<p class=block-text>Trial 52 out of 60</p>","null","spm_show_trial_num","","","","","","","","","","","","","","","","","","","","","","","","",""
"","","","","","image-button-response","285","793356","0.0-3.0-4.0-1.27","5eb4442bcaffba2864f4c554","D2","batch4","","10714.799999952316","img/question_5_4.jpeg","2","spm_respsonse","0","2","mat_52","","","","","","0","10714.799999952316","","","","","","","","","","","","","","",""
"","","","","","html-keyboard-response","286","794424","0.0-3.0-4.0-0.28","5eb4442bcaffba2864f4c554","D2","batch4","","null","<p class=block-text>Trial 53 out of 60</p>","null","spm_show_trial_num","","","","","","","","","","","","","","","","","","","","","","","","",""
"","","","","","image-button-response","287","801007","0.0-3.0-4.0-1.28","5eb4442bcaffba2864f4c554","D2","batch4","","6579.300000071526","img/question_5_5.jpeg","5","spm_respsonse","0","1","mat_53","","","","","","0","6579.300000071526","","","","","","","","","","","","","","",""
"","","","","","html-keyboard-response","288","802070","0.0-3.0-4.0-0.29","5eb4442bcaffba2864f4c554","D2","batch4","","null","<p class=block-text>Trial 54 out of 60</p>","null","spm_show_trial_num","","","","","","","","","","","","","","","","","","","","","","","","",""
"","","","","","image-button-response","289","806256","0.0-3.0-4.0-1.29","5eb4442bcaffba2864f4c554","D2","batch4","","4181","img/question_5_6.jpeg","4","spm_respsonse","1","5","mat_54","","","","","","1","4181","","","","","","","","","","","","","","",""
"","","","","","html-keyboard-response","290","807316","0.0-3.0-4.0-0.30","5eb4442bcaffba2864f4c554","D2","batch4","","null","<p class=block-text>Trial 55 out of 60</p>","null","spm_show_trial_num","","","","","","","","","","","","","","","","","","","","","","","","",""
"","","","","","image-button-response","291","814851","0.0-3.0-4.0-1.30","5eb4442bcaffba2864f4c554","D2","batch4","","7530","img/question_5_7.jpeg","3","spm_respsonse","0","1","mat_55","","","","","","0","7530","","","","","","","","","","","","","","",""
"","","","","","html-keyboard-response","292","815916","0.0-3.0-4.0-0.31","5eb4442bcaffba2864f4c554","D2","batch4","","null","<p class=block-text>Trial 56 out of 60</p>","null","spm_show_trial_num","","","","","","","","","","","","","","","","","","","","","","","","",""
"","","","","","image-button-response","293","825821","0.0-3.0-4.0-1.31","5eb4442bcaffba2864f4c554","D2","batch4","","9899.600000023842","img/question_5_8.jpeg","3","spm_respsonse","0","6","mat_56","","","","","","0","9899.600000023842","","","","","","","","","","","","","","",""
"","","","","","html-keyboard-response","294","826885","0.0-3.0-4.0-0.32","5eb4442bcaffba2864f4c554","D2","batch4","","null","<p class=block-text>Trial 57 out of 60</p>","null","spm_show_trial_num","","","","","","","","","","","","","","","","","","","","","","","","",""
"","","","","","image-button-response","295","833210","0.0-3.0-4.0-1.32","5eb4442bcaffba2864f4c554","D2","batch4","","6318.300000071526","img/question_5_9.jpeg","4","spm_respsonse","0","3","mat_57","","","","","","0","6318.300000071526","","","","","","","","","","","","","","",""
"","","","","","html-keyboard-response","296","834276","0.0-3.0-4.0-0.33","5eb4442bcaffba2864f4c554","D2","batch4","","null","<p class=block-text>Trial 58 out of 60</p>","null","spm_show_trial_num","","","","","","","","","","","","","","","","","","","","","","","","",""
"","","","","","image-button-response","297","836452","0.0-3.0-4.0-1.33","5eb4442bcaffba2864f4c554","D2","batch4","","2169.399999976158","img/question_5_10.jpeg","4","spm_respsonse","0","2","mat_58","","","","","","0","2169.399999976158","","","","","","","","","","","","","","",""
"","","","","","html-keyboard-response","298","837518","0.0-3.0-4.0-0.34","5eb4442bcaffba2864f4c554","D2","batch4","","null","<p class=block-text>Trial 59 out of 60</p>","null","spm_show_trial_num","","","","","","","","","","","","","","","","","","","","","","","","",""
"","","","","","image-button-response","299","839358","0.0-3.0-4.0-1.34","5eb4442bcaffba2864f4c554","D2","batch4","","1836.3999999761581","img/question_5_11.jpeg","2","spm_respsonse","0","4","mat_59","","","","","","0","1836.3999999761581","","","","","","","","","","","","","","",""
"","","","","","html-keyboard-response","300","840428","0.0-3.0-4.0-0.35","5eb4442bcaffba2864f4c554","D2","batch4","","null","<p class=block-text>Trial 60 out of 60</p>","null","spm_show_trial_num","","","","","","","","","","","","","","","","","","","","","","","","",""
"","","","","","image-button-response","301","847272","0.0-3.0-4.0-1.35","5eb4442bcaffba2864f4c554","D2","batch4","","6838.400000095367","img/question_5_12.jpeg","3","spm_respsonse","0","5","mat_60","","","","","","0","6838.400000095367","","","","","","","","","","","","","","",""
"","","","","","html-button-response","302","950437","0.0-3.0-5.0","5eb4442bcaffba2864f4c554","D2","batch4","","102897.20000004768","<p class= block-text>This concludes the Standard Progressive Matrix game. Thank you for your responses!<br> When you are ready, click the button continue</p>","0","spm_goodbye","","","","","","","","","","","","","","","","","","","","","","","","",""
"true","","","","","fullscreen","303","952781","0.0-4.0-0.0","5eb4442bcaffba2864f4c554","D2","batch4","","","","","","","","","","","","","","","","","","","","","","","","","","","","","",""
"","","","","","instructions","304","1006808","0.0-4.0-1.0-0.0-0.0","5eb4442bcaffba2864f4c554","D2","batch4","[{""page_index"":0,""viewing_time"":15776.700000047684},{""page_index"":1,""viewing_time"":5874.5},{""page_index"":2,""viewing_time"":3593.399999976158},{""page_index"":3,""viewing_time"":11253.100000023842},{""page_index"":4,""viewing_time"":6610.299999952316},{""page_index"":5,""viewing_time"":8908.399999976158},{""page_index"":6,""viewing_time"":2009}]","54026.10000002384","","","tol-instructions","","","","","","","","","","","","","","","","","","","","","","","","",""
"","","","","","html-button-response","305","1007688","0.0-4.0-1.0-1.0-0.0","5eb4442bcaffba2864f4c554","D2","batch4","","877.5999999046326","<p class=block-text> Let's answer a few questions <br>","0","tol_enter_quiz","","","","","","","","","","","","","","","","","","","","","","","","",""
"","","","","","html-button-response","306","1010181","0.0-4.0-1.0-1.0-1.0","5eb4442bcaffba2864f4c554","D2","batch4","","2490.5","<p class = block-text>True or False: You can only move the ball on top of a peg. <br></p>","0","tol_quiz","true","","","","","","","","","","","","","","","","","","","","","","","",""
"","","","","","html-button-response","307","1011004","0.0-4.0-1.0-1.0-2.0","5eb4442bcaffba2864f4c554","D2","batch4","","818.8999999761581","<p class = block-text>Correct! You can only move the ball on top of a peg.</p>","0","tol_quiz_feedback","","","","","","","","","","","","","","","","","","","","","","","","",""
"","","","","","html-button-response","308","1013090","0.0-4.0-1.0-1.0-3.0","5eb4442bcaffba2864f4c554","D2","batch4","","2083.0999999046326","<p class = block-text>True or False: You should try to match your board with the target board with fewest moves possible. <br></p>","0","tol_quiz","true","","","","","","","","","","","","","","","","","","","","","","","",""
"","","","","","html-button-response","309","1013630","0.0-4.0-1.0-1.0-4.0","5eb4442bcaffba2864f4c554","D2","batch4","","536.7999999523163","<p class = block-text>Correct! </p>","0","tol_quiz_feedback","","","","","","","","","","","","","","","","","","","","","","","","",""
"","","","","","html-button-response","310","1014388","0.0-4.0-2.0","5eb4442bcaffba2864f4c554","D2","batch4","","753.3000000715256","<p class=block-text> Now that you've understood the game, let's practice a few easier examples before we start!<br> <br>","0","","","","","","","","","","","","","","","","","","","","","","","","","",""
"","","","","","single-stim-button","311","1015994","0.0-4.0-3.0-0.0","5eb4442bcaffba2864f4c554","D2","batch4","","1601","","","tol_practice","","","","","","","","","","","tol_peg_2","1601","1601","0","[[1,2,0],[0,0],[0]]","1","[[1,2,0],[0,0],[3]]","practice","1601","","","","","",""
"","","","","","single-stim-button","312","1017101","0.0-4.0-3.0-1.0","5eb4442bcaffba2864f4c554","D2","batch4","","1104","","","tol_practice","","","","","","","","","","","tol_peg_3","1104","1104","0","[[1,2,0],[0,0],[3]]","1","[[1,2,0],[0,0],[3]]","practice","1104","","","","","",""
"","","","","","poldrack-single-stim","313","1018108","0.0-4.0-4.0","5eb4442bcaffba2864f4c554","D2","batch4","","-1","","","tol_feedback","true","","","","","","","","","","","1000","1000","500","","","","","","-1","none","true","","0",""
"","","","","","single-stim-button","314","1025179","0.0-4.0-5.0-0.0","5eb4442bcaffba2864f4c554","D2","batch4","","7069","","","tol_practice","","","","","","","","","","","tol_peg_1","7069","7069","0","[[1,0,0],[3,0],[0]]","2","[[0,0,0],[3,1],[2]]","practice","7069","","","","","",""
"","","","","","single-stim-button","315","1027561","0.0-4.0-5.0-1.0","5eb4442bcaffba2864f4c554","D2","batch4","","2381","","","tol_practice","","","","","","","","","","","tol_peg_3","2381","2381","0","[[1,0,0],[3,0],[2]]","2","[[0,0,0],[3,1],[2]]","practice","2381","","","","","",""
"","","","","","single-stim-button","316","1028289","0.0-4.0-5.1-0.1","5eb4442bcaffba2864f4c554","D2","batch4","","726","","","tol_practice","","","","","","","","","","","tol_peg_1","726","726","0","[[0,0,0],[3,0],[2]]","3","[[0,0,0],[3,1],[2]]","practice","726","","","","","",""
"","","","","","single-stim-button","317","1028941","0.0-4.0-5.1-1.1","5eb4442bcaffba2864f4c554","D2","batch4","","651","","","tol_practice","","","","","","","","","","","tol_peg_2","651","651","0","[[0,0,0],[3,1],[2]]","3","[[0,0,0],[3,1],[2]]","practice","651","","","","","",""
"","","","","","poldrack-single-stim","318","1029944","0.0-4.0-6.0","5eb4442bcaffba2864f4c554","D2","batch4","","-1","","","tol_feedback","true","","","","","","","","","","","1000","1000","500","","","","","","-1","none","true","","0",""
"","","","","","single-stim-button","319","1032555","0.0-4.0-7.0-0.0","5eb4442bcaffba2864f4c554","D2","batch4","","2610","","","tol_practice","","","","","","","","","","","tol_peg_1","2610","2610","0","[[1,0,0],[3,0],[0]]","4","[[1,0,0],[2,0],[3]]","practice","2610","","","","","",""
"","","","","","single-stim-button","320","1033228","0.0-4.0-7.0-1.0","5eb4442bcaffba2864f4c554","D2","batch4","","671","","","tol_practice","","","","","","","","","","","tol_peg_3","671","671","0","[[1,0,0],[3,0],[2]]","4","[[1,0,0],[2,0],[3]]","practice","671","","","","","",""
"","","","","","single-stim-button","321","1034462","0.0-4.0-7.1-0.1","5eb4442bcaffba2864f4c554","D2","batch4","","1232","","","tol_practice","","","","","","","","","","","tol_peg_2","1232","1232","0","[[1,0,0],[0,0],[2]]","5","[[1,0,0],[2,0],[3]]","practice","1232","","","","","",""
"","","","","","single-stim-button","322","1036706","0.0-4.0-7.1-1.1","5eb4442bcaffba2864f4c554","D2","batch4","","2242","","","tol_practice","","","","","","","","","","","tol_peg_1","2242","2242","0","[[1,3,0],[0,0],[2]]","5","[[1,0,0],[2,0],[3]]","practice","2242","","","","","",""
"","","","","","single-stim-button","323","1037597","0.0-4.0-7.2-0.2","5eb4442bcaffba2864f4c554","D2","batch4","","889","","","tol_practice","","","","","","","","","","","tol_peg_3","889","889","0","[[1,3,0],[0,0],[0]]","6","[[1,0,0],[2,0],[3]]","practice","889","","","","","",""
"","","","","","single-stim-button","324","1038189","0.0-4.0-7.2-1.2","5eb4442bcaffba2864f4c554","D2","batch4","","591","","","tol_practice","","","","","","","","","","","tol_peg_2","591","591","0","[[1,3,0],[2,0],[0]]","6","[[1,0,0],[2,0],[3]]","practice","591","","","","","",""
"","","","","","single-stim-button","325","1038693","0.0-4.0-7.3-0.3","5eb4442bcaffba2864f4c554","D2","batch4","","501","","","tol_practice","","","","","","","","","","","tol_peg_1","501","501","0","[[1,0,0],[2,0],[0]]","7","[[1,0,0],[2,0],[3]]","practice","501","","","","","",""
"","","","","","single-stim-button","326","1039380","0.0-4.0-7.3-1.3","5eb4442bcaffba2864f4c554","D2","batch4","","686","","","tol_practice","","","","","","","","","","","tol_peg_3","686","686","0","[[1,0,0],[2,0],[3]]","7","[[1,0,0],[2,0],[3]]","practice","686","","","","","",""
"","","","","","poldrack-single-stim","327","1040394","0.0-4.0-8.0","5eb4442bcaffba2864f4c554","D2","batch4","","-1","","","tol_feedback","true","","","","","","","","","","","1000","1000","500","","","","","","-1","none","true","","0",""
"","","","","","html-button-response","328","1043129","0.0-4.0-9.0","5eb4442bcaffba2864f4c554","D2","batch4","","2732.7000000476837","<div class = centerbox><p class = center-block-text>Great job! You are done with practice trials<br>You are about to start official trials.<br> <br> Problem <strong>1</strong> out of 25 problems</p></div>","0","tol_instruction","","","","","","","","","","","","","","","","","","","","","","","","",""
"","","","","","single-stim-button","329","1049006","0.0-4.0-10.0-0.0","5eb4442bcaffba2864f4c554","D2","batch4","","4863","","","tol_tohand","","","","","","","","","","","tol_peg_2","4863","4863","0","[[1,2,0],[0,0],[0]]","1","[[1,3,0],[2,0],[0]]","0","0","","","","","","3"
"","","","","","single-stim-button","330","1050038","0.0-4.0-10.0-1.0","5eb4442bcaffba2864f4c554","D2","batch4","","1029","","","tol_toboard","","","","","","","","","","","tol_peg_1","1029","1029","0","[[1,2,3],[0,0],[0]]","1","[[1,3,0],[2,0],[0]]","0","0","","","","","","3"
"","","","","","single-stim-button","331","1051714","0.0-4.0-10.1-0.1","5eb4442bcaffba2864f4c554","D2","batch4","","1674","","","tol_tohand","","","","","","","","","","","tol_peg_1","1674","1674","0","[[1,2,0],[0,0],[0]]","2","[[1,3,0],[2,0],[0]]","0","0","","","","","","3"
"","","","","","single-stim-button","332","1053122","0.0-4.0-10.1-1.1","5eb4442bcaffba2864f4c554","D2","batch4","","1406","","","tol_toboard","","","","","","","","","","","tol_peg_3","1406","1406","0","[[1,2,0],[0,0],[3]]","2","[[1,3,0],[2,0],[0]]","0","0","","","","","","3"
"","","","","","single-stim-button","333","1053791","0.0-4.0-10.2-0.2","5eb4442bcaffba2864f4c554","D2","batch4","","668","","","tol_tohand","","","","","","","","","","","tol_peg_1","668","668","0","[[1,0,0],[0,0],[3]]","3","[[1,3,0],[2,0],[0]]","0","0","","","","","","3"
"","","","","","single-stim-button","334","1054342","0.0-4.0-10.2-1.2","5eb4442bcaffba2864f4c554","D2","batch4","","549","","","tol_toboard","","","","","","","","","","","tol_peg_2","549","549","0","[[1,0,0],[2,0],[3]]","3","[[1,3,0],[2,0],[0]]","0","0","","","","","","3"
"","","","","","single-stim-button","335","1054821","0.0-4.0-10.3-0.3","5eb4442bcaffba2864f4c554","D2","batch4","","477","","","tol_tohand","","","","","","","","","","","tol_peg_3","477","477","0","[[1,0,0],[2,0],[0]]","4","[[1,3,0],[2,0],[0]]","0","0","","","","","","3"
"","","","","","single-stim-button","336","1055358","0.0-4.0-10.3-1.3","5eb4442bcaffba2864f4c554","D2","batch4","","535","","","tol_toboard","","","","","","","","","","","tol_peg_1","535","535","0","[[1,3,0],[2,0],[0]]","4","[[1,3,0],[2,0],[0]]","0","0","","","","","","3"
"","","","","","poldrack-single-stim","337","1056360","0.0-4.0-11.0","5eb4442bcaffba2864f4c554","D2","batch4","","-1","","","tol_feedback","true","","","","","","","","","","","1000","1000","500","","","","","","-1","none","true","4863","7682",""
"","","","","","html-button-response","338","1057161","0.0-4.0-12.0","5eb4442bcaffba2864f4c554","D2","batch4","","798.8999999761581","<div class = centerbox><p class = center-block-text>problem <strong>2</strong> out of 25 problems</p></div>","0","tol_trial_num","","","","","","","","","","","","","","","","","","","","","","","","",""
"","","","","","single-stim-button","339","1060471","0.0-4.0-13.0-0.0","5eb4442bcaffba2864f4c554","D2","batch4","","3308","","","tol_tohand","","","","","","","","","","","tol_peg_1","3308","3308","0","[[1,0,0],[3,0],[0]]","1","[[2,1,3],[0,0],[0]]","1","0","","","","","","5"
"","","","","","single-stim-button","340","1063543","0.0-4.0-13.0-1.0","5eb4442bcaffba2864f4c554","D2","batch4","","3070","","","tol_toboard","","","","","","","","","","","tol_peg_3","3070","3070","0","[[1,0,0],[3,0],[2]]","1","[[2,1,3],[0,0],[0]]","1","0","","","","","","5"
"","","","","","single-stim-button","341","1064374","0.0-4.0-13.1-0.1","5eb4442bcaffba2864f4c554","D2","batch4","","829","","","tol_tohand","","","","","","","","","","","tol_peg_1","829","829","0","[[0,0,0],[3,0],[2]]","2","[[2,1,3],[0,0],[0]]","1","0","","","","","","5"
"","","","","","single-stim-button","342","1065841","0.0-4.0-13.1-1.1","5eb4442bcaffba2864f4c554","D2","batch4","","1466","","","tol_toboard","","","","","","","","","","","tol_peg_2","1466","1466","0","[[0,0,0],[3,1],[2]]","2","[[2,1,3],[0,0],[0]]","1","0","","","","","","5"
"","","","","","single-stim-button","343","1066551","0.0-4.0-13.2-0.2","5eb4442bcaffba2864f4c554","D2","batch4","","707","","","tol_tohand","","","","","","","","","","","tol_peg_3","707","707","0","[[0,0,0],[3,1],[0]]","3","[[2,1,3],[0,0],[0]]","1","0","","","","","","5"
"","","","","","single-stim-button","344","1067943","0.0-4.0-13.2-1.2","5eb4442bcaffba2864f4c554","D2","batch4","","1391","","","tol_toboard","","","","","","","","","","","tol_peg_1","1391","1391","0","[[2,0,0],[3,1],[0]]","3","[[2,1,3],[0,0],[0]]","1","0","","","","","","5"
"","","","","","single-stim-button","345","1068609","0.0-4.0-13.3-0.3","5eb4442bcaffba2864f4c554","D2","batch4","","664","","","tol_tohand","","","","","","","","","","","tol_peg_2","664","664","0","[[2,0,0],[3,0],[0]]","4","[[2,1,3],[0,0],[0]]","1","0","","","","","","5"
"","","","","","single-stim-button","346","1069223","0.0-4.0-13.3-1.3","5eb4442bcaffba2864f4c554","D2","batch4","","612","","","tol_toboard","","","","","","","","","","","tol_peg_1","612","612","0","[[2,1,0],[3,0],[0]]","4","[[2,1,3],[0,0],[0]]","1","0","","","","","","5"
"","","","","","single-stim-button","347","1069774","0.0-4.0-13.4-0.4","5eb4442bcaffba2864f4c554","D2","batch4","","549","","","tol_tohand","","","","","","","","","","","tol_peg_2","549","549","0","[[2,1,0],[0,0],[0]]","5","[[2,1,3],[0,0],[0]]","1","0","","","","","","5"
"","","","","","single-stim-button","348","1070379","0.0-4.0-13.4-1.4","5eb4442bcaffba2864f4c554","D2","batch4","","603","","","tol_toboard","","","","","","","","","","","tol_peg_1","603","603","0","[[2,1,3],[0,0],[0]]","5","[[2,1,3],[0,0],[0]]","1","0","","","","","","5"
