"success","timeout","failed_images","failed_audio","failed_video","trial_type","trial_index","time_elapsed","internal_node_id","subject_id","study_id","session_id","task","rt","stimulus","response","item","answer","correct","spm_correct","spm_rt","view_history","mouse_click","stim_duration","block_duration","timing_post_trial","current_position","tol_num_moves_made","tol_target","tol_problem_id","tol_rt","key_press","possible_responses","tol_correct","preplanning","tol_rt_per_trial","tol_min_moves","fiar_detect_rt","fiar_detect_correct","total_correct_fiar_detect","post_trial_gap","choices"
"true","false","[]","[]","[]","preload","0","1534","0.0-0.0","5ec44da606cb7931f04a35e9","F1","batch6","","","","","","","","","","","","","","","","","","","","","","","","","","","","","",""
"true","","","","","fullscreen","1","10395","0.0-1.0-0.0","5ec44da606cb7931f04a35e9","F1","batch6","","","","","","","","","","","","","","","","","","","","","","","","","","","","","",""
"true","","","","","fullscreen","2","13867","0.0-2.0-0.0","5ec44da606cb7931f04a35e9","F1","batch6","spm_fullscreen","","","","","","","","","","","","","","","","","","","","","","","","","","","","",""
"","","","","","html-button-response","3","22573","0.0-2.0-1.0","5ec44da606cb7931f04a35e9","F1","batch6","","8704.19999999972","<p class = block-text><b>Instructions</b> <br>This is a widely used intelligence test in research. <br>In this test, a figure with a missing piece will be presented.<br>Below the figure are alternative pieces to complete the figure, only one of which is correct.<br> Different figures might involve different principles for obtaining the missing piece<br>Your job is to select the most logical piece to complete the figure.</p>","0","","","","","","","","","","","","","","","","","","","","","","","","","",""
"","","","","","html-keyboard-response","4","23379","0.0-2.0-2.0-0.0","5ec44da606cb7931f04a35e9","F1","batch6","spm_show_trial_num","null","<p class=block-text>Trial 1 out of 60</p>","null","","","","","","","","","","","","","","","","","","","","","","","","","",""
"","","","","","image-button-response","5","31736","0.0-2.0-2.0-1.0","5ec44da606cb7931f04a35e9","F1","batch6","spm_respsonse","8340.19999999972","img/question_1_1.jpeg","3","mat_01","4","1","1","8340.19999999972","","","","","","","","","","","","","","","","","","","","",""
"","","","","","html-keyboard-response","6","32803","0.0-2.0-2.0-0.1","5ec44da606cb7931f04a35e9","F1","batch6","spm_show_trial_num","null","<p class=block-text>Trial 2 out of 60</p>","null","","","","","","","","","","","","","","","","","","","","","","","","","",""
"","","","","","image-button-response","7","38088","0.0-2.0-2.0-1.1","5ec44da606cb7931f04a35e9","F1","batch6","spm_respsonse","5282.199999999721","img/question_1_2.jpeg","4","mat_02","5","1","1","5282.199999999721","","","","","","","","","","","","","","","","","","","","",""
"","","","","","html-keyboard-response","8","39147","0.0-2.0-2.0-0.2","5ec44da606cb7931f04a35e9","F1","batch6","spm_show_trial_num","null","<p class=block-text>Trial 3 out of 60</p>","null","","","","","","","","","","","","","","","","","","","","","","","","","",""
"","","","","","image-button-response","9","43508","0.0-2.0-2.0-1.2","5ec44da606cb7931f04a35e9","F1","batch6","spm_respsonse","4359.100000000093","img/question_1_3.jpeg","0","mat_03","1","1","1","4359.100000000093","","","","","","","","","","","","","","","","","","","","",""
"","","","","","html-keyboard-response","10","44571","0.0-2.0-2.0-0.3","5ec44da606cb7931f04a35e9","F1","batch6","spm_show_trial_num","null","<p class=block-text>Trial 4 out of 60</p>","null","","","","","","","","","","","","","","","","","","","","","","","","","",""
"","","","","","image-button-response","11","50209","0.0-2.0-2.0-1.3","5ec44da606cb7931f04a35e9","F1","batch6","spm_respsonse","5635.5","img/question_1_4.jpeg","1","mat_04","2","1","1","5635.5","","","","","","","","","","","","","","","","","","","","",""
"","","","","","html-keyboard-response","12","51275","0.0-2.0-2.0-0.4","5ec44da606cb7931f04a35e9","F1","batch6","spm_show_trial_num","null","<p class=block-text>Trial 5 out of 60</p>","null","","","","","","","","","","","","","","","","","","","","","","","","","",""
"","","","","","image-button-response","13","55895","0.0-2.0-2.0-1.4","5ec44da606cb7931f04a35e9","F1","batch6","spm_respsonse","4618.399999999907","img/question_1_5.jpeg","5","mat_05","6","1","1","4618.399999999907","","","","","","","","","","","","","","","","","","","","",""
"","","","","","html-keyboard-response","14","56955","0.0-2.0-2.0-0.5","5ec44da606cb7931f04a35e9","F1","batch6","spm_show_trial_num","null","<p class=block-text>Trial 6 out of 60</p>","null","","","","","","","","","","","","","","","","","","","","","","","","","",""
"","","","","","image-button-response","15","62681","0.0-2.0-2.0-1.5","5ec44da606cb7931f04a35e9","F1","batch6","spm_respsonse","5723.299999999814","img/question_1_6.jpeg","2","mat_06","3","1","1","5723.299999999814","","","","","","","","","","","","","","","","","","","","",""
"","","","","","html-keyboard-response","16","63747","0.0-2.0-2.0-0.6","5ec44da606cb7931f04a35e9","F1","batch6","spm_show_trial_num","null","<p class=block-text>Trial 7 out of 60</p>","null","","","","","","","","","","","","","","","","","","","","","","","","","",""
"","","","","","image-button-response","17","68801","0.0-2.0-2.0-1.6","5ec44da606cb7931f04a35e9","F1","batch6","spm_respsonse","5051.399999999907","img/question_1_7.jpeg","5","mat_07","6","1","1","5051.399999999907","","","","","","","","","","","","","","","","","","","","",""
"","","","","","html-keyboard-response","18","69867","0.0-2.0-2.0-0.7","5ec44da606cb7931f04a35e9","F1","batch6","spm_show_trial_num","null","<p class=block-text>Trial 8 out of 60</p>","null","","","","","","","","","","","","","","","","","","","","","","","","","",""
"","","","","","image-button-response","19","75587","0.0-2.0-2.0-1.7","5ec44da606cb7931f04a35e9","F1","batch6","spm_respsonse","5716.5","img/question_1_8.jpeg","1","mat_08","2","1","1","5716.5","","","","","","","","","","","","","","","","","","","","",""
"","","","","","html-keyboard-response","20","76651","0.0-2.0-2.0-0.8","5ec44da606cb7931f04a35e9","F1","batch6","spm_show_trial_num","null","<p class=block-text>Trial 9 out of 60</p>","null","","","","","","","","","","","","","","","","","","","","","","","","","",""
"","","","","","image-button-response","21","80281","0.0-2.0-2.0-1.8","5ec44da606cb7931f04a35e9","F1","batch6","spm_respsonse","3627.1999999997206","img/question_1_9.jpeg","0","mat_09","1","1","1","3627.1999999997206","","","","","","","","","","","","","","","","","","","","",""
"","","","","","html-keyboard-response","22","81347","0.0-2.0-2.0-0.9","5ec44da606cb7931f04a35e9","F1","batch6","spm_show_trial_num","null","<p class=block-text>Trial 10 out of 60</p>","null","","","","","","","","","","","","","","","","","","","","","","","","","",""
"","","","","","image-button-response","23","90570","0.0-2.0-2.0-1.9","5ec44da606cb7931f04a35e9","F1","batch6","spm_respsonse","9219.899999999907","img/question_1_10.jpeg","2","mat_10","3","1","1","9219.899999999907","","","","","","","","","","","","","","","","","","","","",""
"","","","","","html-keyboard-response","24","91635","0.0-2.0-2.0-0.10","5ec44da606cb7931f04a35e9","F1","batch6","spm_show_trial_num","null","<p class=block-text>Trial 11 out of 60</p>","null","","","","","","","","","","","","","","","","","","","","","","","","","",""
"","","","","","image-button-response","25","105770","0.0-2.0-2.0-1.10","5ec44da606cb7931f04a35e9","F1","batch6","spm_respsonse","14131.30000000028","img/question_1_11.jpeg","3","mat_11","4","1","1","14131.30000000028","","","","","","","","","","","","","","","","","","","","",""
"","","","","","html-keyboard-response","26","106835","0.0-2.0-2.0-0.11","5ec44da606cb7931f04a35e9","F1","batch6","spm_show_trial_num","null","<p class=block-text>Trial 12 out of 60</p>","null","","","","","","","","","","","","","","","","","","","","","","","","","",""
"","","","","","image-button-response","27","115175","0.0-2.0-2.0-1.11","5ec44da606cb7931f04a35e9","F1","batch6","spm_respsonse","8336.899999999907","img/question_1_12.jpeg","0","mat_12","5","0","0","8336.899999999907","","","","","","","","","","","","","","","","","","","","",""
"","","","","","html-keyboard-response","28","116235","0.0-2.0-2.0-0.12","5ec44da606cb7931f04a35e9","F1","batch6","spm_show_trial_num","null","<p class=block-text>Trial 13 out of 60</p>","null","","","","","","","","","","","","","","","","","","","","","","","","","",""
"","","","","","image-button-response","29","119484","0.0-2.0-2.0-1.12","5ec44da606cb7931f04a35e9","F1","batch6","spm_respsonse","3246.2000000001863","img/question_2_1.jpeg","1","mat_13","2","1","1","3246.2000000001863","","","","","","","","","","","","","","","","","","","","",""
"","","","","","html-keyboard-response","30","120547","0.0-2.0-2.0-0.13","5ec44da606cb7931f04a35e9","F1","batch6","spm_show_trial_num","null","<p class=block-text>Trial 14 out of 60</p>","null","","","","","","","","","","","","","","","","","","","","","","","","","",""
"","","","","","image-button-response","31","127599","0.0-2.0-2.0-1.13","5ec44da606cb7931f04a35e9","F1","batch6","spm_respsonse","7048.799999999814","img/question_2_2.jpeg","5","mat_14","6","1","1","7048.799999999814","","","","","","","","","","","","","","","","","","","","",""
"","","","","","html-keyboard-response","32","128659","0.0-2.0-2.0-0.14","5ec44da606cb7931f04a35e9","F1","batch6","spm_show_trial_num","null","<p class=block-text>Trial 15 out of 60</p>","null","","","","","","","","","","","","","","","","","","","","","","","","","",""
"","","","","","image-button-response","33","133188","0.0-2.0-2.0-1.14","5ec44da606cb7931f04a35e9","F1","batch6","spm_respsonse","4526.5","img/question_2_3.jpeg","0","mat_15","1","1","1","4526.5","","","","","","","","","","","","","","","","","","","","",""
"","","","","","html-keyboard-response","34","134251","0.0-2.0-2.0-0.15","5ec44da606cb7931f04a35e9","F1","batch6","spm_show_trial_num","null","<p class=block-text>Trial 16 out of 60</p>","null","","","","","","","","","","","","","","","","","","","","","","","","","",""
"","","","","","image-button-response","35","137305","0.0-2.0-2.0-1.15","5ec44da606cb7931f04a35e9","F1","batch6","spm_respsonse","3051.600000000093","img/question_2_4.jpeg","1","mat_16","2","1","1","3051.600000000093","","","","","","","","","","","","","","","","","","","","",""
"","","","","","html-keyboard-response","36","138371","0.0-2.0-2.0-0.16","5ec44da606cb7931f04a35e9","F1","batch6","spm_show_trial_num","null","<p class=block-text>Trial 17 out of 60</p>","null","","","","","","","","","","","","","","","","","","","","","","","","","",""
"","","","","","image-button-response","37","143619","0.0-2.0-2.0-1.16","5ec44da606cb7931f04a35e9","F1","batch6","spm_respsonse","5244.799999999814","img/question_2_5.jpeg","0","mat_17","1","1","1","5244.799999999814","","","","","","","","","","","","","","","","","","","","",""
"","","","","","html-keyboard-response","38","144683","0.0-2.0-2.0-0.17","5ec44da606cb7931f04a35e9","F1","batch6","spm_show_trial_num","null","<p class=block-text>Trial 18 out of 60</p>","null","","","","","","","","","","","","","","","","","","","","","","","","","",""
"","","","","","image-button-response","39","154231","0.0-2.0-2.0-1.17","5ec44da606cb7931f04a35e9","F1","batch6","spm_respsonse","9545.200000000186","img/question_2_6.jpeg","2","mat_18","3","1","1","9545.200000000186","","","","","","","","","","","","","","","","","","","","",""
"","","","","","html-keyboard-response","40","155291","0.0-2.0-2.0-0.18","5ec44da606cb7931f04a35e9","F1","batch6","spm_show_trial_num","null","<p class=block-text>Trial 19 out of 60</p>","null","","","","","","","","","","","","","","","","","","","","","","","","","",""
"","","","","","image-button-response","41","161136","0.0-2.0-2.0-1.18","5ec44da606cb7931f04a35e9","F1","batch6","spm_respsonse","5842.100000000093","img/question_2_7.jpeg","4","mat_19","5","1","1","5842.100000000093","","","","","","","","","","","","","","","","","","","","",""
"","","","","","html-keyboard-response","42","162203","0.0-2.0-2.0-0.19","5ec44da606cb7931f04a35e9","F1","batch6","spm_show_trial_num","null","<p class=block-text>Trial 20 out of 60</p>","null","","","","","","","","","","","","","","","","","","","","","","","","","",""
"","","","","","image-button-response","43","169661","0.0-2.0-2.0-1.19","5ec44da606cb7931f04a35e9","F1","batch6","spm_respsonse","7455.600000000093","img/question_2_8.jpeg","5","mat_20","6","1","1","7455.600000000093","","","","","","","","","","","","","","","","","","","","",""
"","","","","","html-keyboard-response","44","170723","0.0-2.0-2.0-0.20","5ec44da606cb7931f04a35e9","F1","batch6","spm_show_trial_num","null","<p class=block-text>Trial 21 out of 60</p>","null","","","","","","","","","","","","","","","","","","","","","","","","","",""
"","","","","","image-button-response","45","176000","0.0-2.0-2.0-1.20","5ec44da606cb7931f04a35e9","F1","batch6","spm_respsonse","5273.899999999907","img/question_2_9.jpeg","3","mat_21","4","1","1","5273.899999999907","","","","","","","","","","","","","","","","","","","","",""
"","","","","","html-keyboard-response","46","177059","0.0-2.0-2.0-0.21","5ec44da606cb7931f04a35e9","F1","batch6","spm_show_trial_num","null","<p class=block-text>Trial 22 out of 60</p>","null","","","","","","","","","","","","","","","","","","","","","","","","","",""
"","","","","","image-button-response","47","184040","0.0-2.0-2.0-1.21","5ec44da606cb7931f04a35e9","F1","batch6","spm_respsonse","6978","img/question_2_10.jpeg","2","mat_22","3","1","1","6978","","","","","","","","","","","","","","","","","","","","",""
"","","","","","html-keyboard-response","48","185099","0.0-2.0-2.0-0.22","5ec44da606cb7931f04a35e9","F1","batch6","spm_show_trial_num","null","<p class=block-text>Trial 23 out of 60</p>","null","","","","","","","","","","","","","","","","","","","","","","","","","",""
"","","","","","image-button-response","49","191454","0.0-2.0-2.0-1.22","5ec44da606cb7931f04a35e9","F1","batch6","spm_respsonse","6351.800000000279","img/question_2_11.jpeg","3","mat_23","4","1","1","6351.800000000279","","","","","","","","","","","","","","","","","","","","",""
"","","","","","html-keyboard-response","50","192515","0.0-2.0-2.0-0.23","5ec44da606cb7931f04a35e9","F1","batch6","spm_show_trial_num","null","<p class=block-text>Trial 24 out of 60</p>","null","","","","","","","","","","","","","","","","","","","","","","","","","",""
"","","","","","image-button-response","51","199096","0.0-2.0-2.0-1.23","5ec44da606cb7931f04a35e9","F1","batch6","spm_respsonse","6578.200000000186","img/question_2_12.jpeg","4","mat_24","5","1","1","6578.200000000186","","","","","","","","","","","","","","","","","","","","",""
"","","","","","html-button-response","52","201582","0.0-2.0-3.0","5ec44da606cb7931f04a35e9","F1","batch6","attention_check","2225.6999999997206","<p class = block-text>Attention check: Please choose 1<br></p>","0","","","true","","","","","","","","","","","","","","","","","","","","","","",""
"","","","","","html-keyboard-response","53","202387","0.0-2.0-4.0-0.0","5ec44da606cb7931f04a35e9","F1","batch6","spm_show_trial_num","null","<p class=block-text>Trial 25 out of 60</p>","null","","","","","","","","","","","","","","","","","","","","","","","","","",""
"","","","","","image-button-response","54","209310","0.0-2.0-4.0-1.0","5ec44da606cb7931f04a35e9","F1","batch6","spm_respsonse","6915.299999999814","img/question_3_1.jpeg","7","mat_25","8","1","1","6915.299999999814","","","","","","","","","","","","","","","","","","","","",""
"","","","","","html-keyboard-response","55","210370","0.0-2.0-4.0-0.1","5ec44da606cb7931f04a35e9","F1","batch6","spm_show_trial_num","null","<p class=block-text>Trial 26 out of 60</p>","null","","","","","","","","","","","","","","","","","","","","","","","","","",""
"","","","","","image-button-response","56","216179","0.0-2.0-4.0-1.1","5ec44da606cb7931f04a35e9","F1","batch6","spm_respsonse","5805.399999999907","img/question_3_2.jpeg","1","mat_26","2","1","1","5805.399999999907","","","","","","","","","","","","","","","","","","","","",""
"","","","","","html-keyboard-response","57","217242","0.0-2.0-4.0-0.2","5ec44da606cb7931f04a35e9","F1","batch6","spm_show_trial_num","null","<p class=block-text>Trial 27 out of 60</p>","null","","","","","","","","","","","","","","","","","","","","","","","","","",""
"","","","","","image-button-response","58","229315","0.0-2.0-4.0-1.2","5ec44da606cb7931f04a35e9","F1","batch6","spm_respsonse","12070.599999999627","img/question_3_3.jpeg","2","mat_27","3","1","1","12070.599999999627","","","","","","","","","","","","","","","","","","","","",""
"","","","","","html-keyboard-response","59","230379","0.0-2.0-4.0-0.3","5ec44da606cb7931f04a35e9","F1","batch6","spm_show_trial_num","null","<p class=block-text>Trial 28 out of 60</p>","null","","","","","","","","","","","","","","","","","","","","","","","","","",""
"","","","","","image-button-response","60","268282","0.0-2.0-4.0-1.3","5ec44da606cb7931f04a35e9","F1","batch6","spm_respsonse","37899.89999999991","img/question_3_4.jpeg","7","mat_28","8","1","1","37899.89999999991","","","","","","","","","","","","","","","","","","","","",""
"","","","","","html-keyboard-response","61","269347","0.0-2.0-4.0-0.4","5ec44da606cb7931f04a35e9","F1","batch6","spm_show_trial_num","null","<p class=block-text>Trial 29 out of 60</p>","null","","","","","","","","","","","","","","","","","","","","","","","","","",""
"","","","","","image-button-response","62","275127","0.0-2.0-4.0-1.4","5ec44da606cb7931f04a35e9","F1","batch6","spm_respsonse","5777.700000000186","img/question_3_5.jpeg","6","mat_29","7","1","1","5777.700000000186","","","","","","","","","","","","","","","","","","","","",""
"","","","","","html-keyboard-response","63","276187","0.0-2.0-4.0-0.5","5ec44da606cb7931f04a35e9","F1","batch6","spm_show_trial_num","null","<p class=block-text>Trial 30 out of 60</p>","null","","","","","","","","","","","","","","","","","","","","","","","","","",""
"","","","","","image-button-response","64","283350","0.0-2.0-4.0-1.5","5ec44da606cb7931f04a35e9","F1","batch6","spm_respsonse","7161","img/question_3_6.jpeg","3","mat_30","4","1","1","7161","","","","","","","","","","","","","","","","","","","","",""
"","","","","","html-keyboard-response","65","284411","0.0-2.0-4.0-0.6","5ec44da606cb7931f04a35e9","F1","batch6","spm_show_trial_num","null","<p class=block-text>Trial 31 out of 60</p>","null","","","","","","","","","","","","","","","","","","","","","","","","","",""
"","","","","","image-button-response","66","298647","0.0-2.0-4.0-1.6","5ec44da606cb7931f04a35e9","F1","batch6","spm_respsonse","14233.5","img/question_3_7.jpeg","4","mat_31","5","1","1","14233.5","","","","","","","","","","","","","","","","","","","","",""
"","","","","","html-keyboard-response","67","299707","0.0-2.0-4.0-0.7","5ec44da606cb7931f04a35e9","F1","batch6","spm_show_trial_num","null","<p class=block-text>Trial 32 out of 60</p>","null","","","","","","","","","","","","","","","","","","","","","","","","","",""
"","","","","","image-button-response","68","334689","0.0-2.0-4.0-1.7","5ec44da606cb7931f04a35e9","F1","batch6","spm_respsonse","34979.30000000028","img/question_3_8.jpeg","0","mat_32","1","1","1","34979.30000000028","","","","","","","","","","","","","","","","","","","","",""
"","","","","","html-keyboard-response","69","335755","0.0-2.0-4.0-0.8","5ec44da606cb7931f04a35e9","F1","batch6","spm_show_trial_num","null","<p class=block-text>Trial 33 out of 60</p>","null","","","","","","","","","","","","","","","","","","","","","","","","","",""
"","","","","","image-button-response","70","357060","0.0-2.0-4.0-1.8","5ec44da606cb7931f04a35e9","F1","batch6","spm_respsonse","21302.5","img/question_3_9.jpeg","6","mat_33","7","1","1","21302.5","","","","","","","","","","","","","","","","","","","","",""
"","","","","","html-keyboard-response","71","358123","0.0-2.0-4.0-0.9","5ec44da606cb7931f04a35e9","F1","batch6","spm_show_trial_num","null","<p class=block-text>Trial 34 out of 60</p>","null","","","","","","","","","","","","","","","","","","","","","","","","","",""
"","","","","","image-button-response","72","375436","0.0-2.0-4.0-1.9","5ec44da606cb7931f04a35e9","F1","batch6","spm_respsonse","17311.100000000093","img/question_3_10.jpeg","7","mat_34","6","0","0","17311.100000000093","","","","","","","","","","","","","","","","","","","","",""
"","","","","","html-keyboard-response","73","376499","0.0-2.0-4.0-0.10","5ec44da606cb7931f04a35e9","F1","batch6","spm_show_trial_num","null","<p class=block-text>Trial 35 out of 60</p>","null","","","","","","","","","","","","","","","","","","","","","","","","","",""
"","","","","","image-button-response","74","396841","0.0-2.0-4.0-1.10","5ec44da606cb7931f04a35e9","F1","batch6","spm_respsonse","20339.30000000028","img/question_3_11.jpeg","3","mat_35","1","0","0","20339.30000000028","","","","","","","","","","","","","","","","","","","","",""
"","","","","","html-keyboard-response","75","397907","0.0-2.0-4.0-0.11","5ec44da606cb7931f04a35e9","F1","batch6","spm_show_trial_num","null","<p class=block-text>Trial 36 out of 60</p>","null","","","","","","","","","","","","","","","","","","","","","","","","","",""
"","","","","","image-button-response","76","420120","0.0-2.0-4.0-1.11","5ec44da606cb7931f04a35e9","F1","batch6","spm_respsonse","22209.299999999814","img/question_3_12.jpeg","3","mat_36","2","0","0","22209.299999999814","","","","","","","","","","","","","","","","","","","","",""
"","","","","","html-keyboard-response","77","421179","0.0-2.0-4.0-0.12","5ec44da606cb7931f04a35e9","F1","batch6","spm_show_trial_num","null","<p class=block-text>Trial 37 out of 60</p>","null","","","","","","","","","","","","","","","","","","","","","","","","","",""
"","","","","","image-button-response","78","426253","0.0-2.0-4.0-1.12","5ec44da606cb7931f04a35e9","F1","batch6","spm_respsonse","5071.899999999907","img/question_4_1.jpeg","2","mat_37","3","1","1","5071.899999999907","","","","","","","","","","","","","","","","","","","","",""
"","","","","","html-keyboard-response","79","427315","0.0-2.0-4.0-0.13","5ec44da606cb7931f04a35e9","F1","batch6","spm_show_trial_num","null","<p class=block-text>Trial 38 out of 60</p>","null","","","","","","","","","","","","","","","","","","","","","","","","","",""
"","","","","","image-button-response","80","442225","0.0-2.0-4.0-1.13","5ec44da606cb7931f04a35e9","F1","batch6","spm_respsonse","14906.80000000028","img/question_4_2.jpeg","3","mat_38","4","1","1","14906.80000000028","","","","","","","","","","","","","","","","","","","","",""
"","","","","","html-keyboard-response","81","443291","0.0-2.0-4.0-0.14","5ec44da606cb7931f04a35e9","F1","batch6","spm_show_trial_num","null","<p class=block-text>Trial 39 out of 60</p>","null","","","","","","","","","","","","","","","","","","","","","","","","","",""
"","","","","","image-button-response","82","466673","0.0-2.0-4.0-1.14","5ec44da606cb7931f04a35e9","F1","batch6","spm_respsonse","23379.400000000373","img/question_4_3.jpeg","2","mat_39","3","1","1","23379.400000000373","","","","","","","","","","","","","","","","","","","","",""
"","","","","","html-keyboard-response","83","467739","0.0-2.0-4.0-0.15","5ec44da606cb7931f04a35e9","F1","batch6","spm_show_trial_num","null","<p class=block-text>Trial 40 out of 60</p>","null","","","","","","","","","","","","","","","","","","","","","","","","","",""
"","","","","","image-button-response","84","477322","0.0-2.0-4.0-1.15","5ec44da606cb7931f04a35e9","F1","batch6","spm_respsonse","9580.700000000186","img/question_4_4.jpeg","6","mat_40","7","1","1","9580.700000000186","","","","","","","","","","","","","","","","","","","","",""
"","","","","","html-keyboard-response","85","478387","0.0-2.0-4.0-0.16","5ec44da606cb7931f04a35e9","F1","batch6","spm_show_trial_num","null","<p class=block-text>Trial 41 out of 60</p>","null","","","","","","","","","","","","","","","","","","","","","","","","","",""
"","","","","","image-button-response","86","489363","0.0-2.0-4.0-1.16","5ec44da606cb7931f04a35e9","F1","batch6","spm_respsonse","10973.5","img/question_4_5.jpeg","7","mat_41","8","1","1","10973.5","","","","","","","","","","","","","","","","","","","","",""
"","","","","","html-keyboard-response","87","490427","0.0-2.0-4.0-0.17","5ec44da606cb7931f04a35e9","F1","batch6","spm_show_trial_num","null","<p class=block-text>Trial 42 out of 60</p>","null","","","","","","","","","","","","","","","","","","","","","","","","","",""
"","","","","","image-button-response","88","499959","0.0-2.0-4.0-1.17","5ec44da606cb7931f04a35e9","F1","batch6","spm_respsonse","9529.899999999907","img/question_4_6.jpeg","5","mat_42","6","1","1","9529.899999999907","","","","","","","","","","","","","","","","","","","","",""
"","","","","","html-keyboard-response","89","501019","0.0-2.0-4.0-0.18","5ec44da606cb7931f04a35e9","F1","batch6","spm_show_trial_num","null","<p class=block-text>Trial 43 out of 60</p>","null","","","","","","","","","","","","","","","","","","","","","","","","","",""
"","","","","","image-button-response","90","528234","0.0-2.0-4.0-1.18","5ec44da606cb7931f04a35e9","F1","batch6","spm_respsonse","27212.600000000093","img/question_4_7.jpeg","4","mat_43","5","1","1","27212.600000000093","","","","","","","","","","","","","","","","","","","","",""
"","","","","","html-keyboard-response","91","529299","0.0-2.0-4.0-0.19","5ec44da606cb7931f04a35e9","F1","batch6","spm_show_trial_num","null","<p class=block-text>Trial 44 out of 60</p>","null","","","","","","","","","","","","","","","","","","","","","","","","","",""
"","","","","","image-button-response","92","539632","0.0-2.0-4.0-1.19","5ec44da606cb7931f04a35e9","F1","batch6","spm_respsonse","10330.700000000186","img/question_4_8.jpeg","3","mat_44","4","1","1","10330.700000000186","","","","","","","","","","","","","","","","","","","","",""
"","","","","","html-keyboard-response","93","540699","0.0-2.0-4.0-0.20","5ec44da606cb7931f04a35e9","F1","batch6","spm_show_trial_num","null","<p class=block-text>Trial 45 out of 60</p>","null","","","","","","","","","","","","","","","","","","","","","","","","","",""
"","","","","","image-button-response","94","559153","0.0-2.0-4.0-1.20","5ec44da606cb7931f04a35e9","F1","batch6","spm_respsonse","18452.299999999814","img/question_4_9.jpeg","0","mat_45","1","1","1","18452.299999999814","","","","","","","","","","","","","","","","","","","","",""
"","","","","","html-keyboard-response","95","560219","0.0-2.0-4.0-0.21","5ec44da606cb7931f04a35e9","F1","batch6","spm_show_trial_num","null","<p class=block-text>Trial 46 out of 60</p>","null","","","","","","","","","","","","","","","","","","","","","","","","","",""
"","","","","","image-button-response","96","590096","0.0-2.0-4.0-1.21","5ec44da606cb7931f04a35e9","F1","batch6","spm_respsonse","29874.599999999627","img/question_4_10.jpeg","1","mat_46","2","1","1","29874.599999999627","","","","","","","","","","","","","","","","","","","","",""
"","","","","","html-keyboard-response","97","591163","0.0-2.0-4.0-0.22","5ec44da606cb7931f04a35e9","F1","batch6","spm_show_trial_num","null","<p class=block-text>Trial 47 out of 60</p>","null","","","","","","","","","","","","","","","","","","","","","","","","","",""
"","","","","","image-button-response","98","611866","0.0-2.0-4.0-1.22","5ec44da606cb7931f04a35e9","F1","batch6","spm_respsonse","20700.200000000186","img/question_4_11.jpeg","4","mat_47","5","1","1","20700.200000000186","","","","","","","","","","","","","","","","","","","","",""
"","","","","","html-keyboard-response","99","612931","0.0-2.0-4.0-0.23","5ec44da606cb7931f04a35e9","F1","batch6","spm_show_trial_num","null","<p class=block-text>Trial 48 out of 60</p>","null","","","","","","","","","","","","","","","","","","","","","","","","","",""
"","","","","","image-button-response","100","628574","0.0-2.0-4.0-1.23","5ec44da606cb7931f04a35e9","F1","batch6","spm_respsonse","15640.099999999627","img/question_4_12.jpeg","7","mat_48","6","0","0","15640.099999999627","","","","","","","","","","","","","","","","","","","","",""
"","","","","","html-keyboard-response","101","629635","0.0-2.0-4.0-0.24","5ec44da606cb7931f04a35e9","F1","batch6","spm_show_trial_num","null","<p class=block-text>Trial 49 out of 60</p>","null","","","","","","","","","","","","","","","","","","","","","","","","","",""
"","","","","","image-button-response","102","649681","0.0-2.0-4.0-1.24","5ec44da606cb7931f04a35e9","F1","batch6","spm_respsonse","20043.899999999907","img/question_5_1.jpeg","6","mat_49","7","1","1","20043.899999999907","","","","","","","","","","","","","","","","","","","","",""
"","","","","","html-keyboard-response","103","650747","0.0-2.0-4.0-0.25","5ec44da606cb7931f04a35e9","F1","batch6","spm_show_trial_num","null","<p class=block-text>Trial 50 out of 60</p>","null","","","","","","","","","","","","","","","","","","","","","","","","","",""
"","","","","","image-button-response","104","671290","0.0-2.0-4.0-1.25","5ec44da606cb7931f04a35e9","F1","batch6","spm_respsonse","20535.399999999907","img/question_5_2.jpeg","5","mat_50","6","1","1","20535.399999999907","","","","","","","","","","","","","","","","","","","","",""
"","","","","","html-keyboard-response","105","672354","0.0-2.0-4.0-0.26","5ec44da606cb7931f04a35e9","F1","batch6","spm_show_trial_num","null","<p class=block-text>Trial 51 out of 60</p>","null","","","","","","","","","","","","","","","","","","","","","","","","","",""
"","","","","","image-button-response","106","687769","0.0-2.0-4.0-1.26","5ec44da606cb7931f04a35e9","F1","batch6","spm_respsonse","15411.700000000186","img/question_5_3.jpeg","7","mat_51","8","1","1","15411.700000000186","","","","","","","","","","","","","","","","","","","","",""
"","","","","","html-keyboard-response","107","688835","0.0-2.0-4.0-0.27","5ec44da606cb7931f04a35e9","F1","batch6","spm_show_trial_num","null","<p class=block-text>Trial 52 out of 60</p>","null","","","","","","","","","","","","","","","","","","","","","","","","","",""
"","","","","","image-button-response","108","716889","0.0-2.0-4.0-1.27","5ec44da606cb7931f04a35e9","F1","batch6","spm_respsonse","28051.80000000028","img/question_5_4.jpeg","1","mat_52","2","1","1","28051.80000000028","","","","","","","","","","","","","","","","","","","","",""
"","","","","","html-keyboard-response","109","717955","0.0-2.0-4.0-0.28","5ec44da606cb7931f04a35e9","F1","batch6","spm_show_trial_num","null","<p class=block-text>Trial 53 out of 60</p>","null","","","","","","","","","","","","","","","","","","","","","","","","","",""
"","","","","","image-button-response","110","747205","0.0-2.0-4.0-1.28","5ec44da606cb7931f04a35e9","F1","batch6","spm_respsonse","29247.799999999814","img/question_5_5.jpeg","6","mat_53","1","0","0","29247.799999999814","","","","","","","","","","","","","","","","","","","","",""
"","","","","","html-keyboard-response","111","748267","0.0-2.0-4.0-0.29","5ec44da606cb7931f04a35e9","F1","batch6","spm_show_trial_num","null","<p class=block-text>Trial 54 out of 60</p>","null","","","","","","","","","","","","","","","","","","","","","","","","","",""
"","","","","","image-button-response","112","787322","0.0-2.0-4.0-1.29","5ec44da606cb7931f04a35e9","F1","batch6","spm_respsonse","39052.10000000009","img/question_5_6.jpeg","7","mat_54","5","0","0","39052.10000000009","","","","","","","","","","","","","","","","","","","","",""
"","","","","","html-keyboard-response","113","788387","0.0-2.0-4.0-0.30","5ec44da606cb7931f04a35e9","F1","batch6","spm_show_trial_num","null","<p class=block-text>Trial 55 out of 60</p>","null","","","","","","","","","","","","","","","","","","","","","","","","","",""
"","","","","","image-button-response","114","817467","0.0-2.0-4.0-1.30","5ec44da606cb7931f04a35e9","F1","batch6","spm_respsonse","29077.600000000093","img/question_5_7.jpeg","4","mat_55","1","0","0","29077.600000000093","","","","","","","","","","","","","","","","","","","","",""
"","","","","","html-keyboard-response","115","818531","0.0-2.0-4.0-0.31","5ec44da606cb7931f04a35e9","F1","batch6","spm_show_trial_num","null","<p class=block-text>Trial 56 out of 60</p>","null","","","","","","","","","","","","","","","","","","","","","","","","","",""
"","","","","","image-button-response","116","836062","0.0-2.0-4.0-1.31","5ec44da606cb7931f04a35e9","F1","batch6","spm_respsonse","17528.700000000186","img/question_5_8.jpeg","5","mat_56","6","1","1","17528.700000000186","","","","","","","","","","","","","","","","","","","","",""
"","","","","","html-keyboard-response","117","837122","0.0-2.0-4.0-0.32","5ec44da606cb7931f04a35e9","F1","batch6","spm_show_trial_num","null","<p class=block-text>Trial 57 out of 60</p>","null","","","","","","","","","","","","","","","","","","","","","","","","","",""
"","","","","","image-button-response","118","852530","0.0-2.0-4.0-1.32","5ec44da606cb7931f04a35e9","F1","batch6","spm_respsonse","15404.799999999814","img/question_5_9.jpeg","6","mat_57","3","0","0","15404.799999999814","","","","","","","","","","","","","","","","","","","","",""
"","","","","","html-keyboard-response","119","853595","0.0-2.0-4.0-0.33","5ec44da606cb7931f04a35e9","F1","batch6","spm_show_trial_num","null","<p class=block-text>Trial 58 out of 60</p>","null","","","","","","","","","","","","","","","","","","","","","","","","","",""
"","","","","","image-button-response","120","862116","0.0-2.0-4.0-1.33","5ec44da606cb7931f04a35e9","F1","batch6","spm_respsonse","8519","img/question_5_10.jpeg","6","mat_58","2","0","0","8519","","","","","","","","","","","","","","","","","","","","",""
"","","","","","html-keyboard-response","121","863179","0.0-2.0-4.0-0.34","5ec44da606cb7931f04a35e9","F1","batch6","spm_show_trial_num","null","<p class=block-text>Trial 59 out of 60</p>","null","","","","","","","","","","","","","","","","","","","","","","","","","",""
"","","","","","image-button-response","122","877800","0.0-2.0-4.0-1.34","5ec44da606cb7931f04a35e9","F1","batch6","spm_respsonse","14618.5","img/question_5_11.jpeg","0","mat_59","4","0","0","14618.5","","","","","","","","","","","","","","","","","","","","",""
"","","","","","html-keyboard-response","123","878866","0.0-2.0-4.0-0.35","5ec44da606cb7931f04a35e9","F1","batch6","spm_show_trial_num","null","<p class=block-text>Trial 60 out of 60</p>","null","","","","","","","","","","","","","","","","","","","","","","","","","",""
"","","","","","image-button-response","124","895933","0.0-2.0-4.0-1.35","5ec44da606cb7931f04a35e9","F1","batch6","spm_respsonse","17063.80000000028","img/question_5_12.jpeg","4","mat_60","5","1","1","17063.80000000028","","","","","","","","","","","","","","","","","","","","",""
"","","","","","html-button-response","125","898059","0.0-2.0-5.0","5ec44da606cb7931f04a35e9","F1","batch6","spm_goodbye","1870.7999999998137","<p class= block-text>This concludes the Standard Progressive Matrix game. Thank you for your responses!<br> When you are ready, click the button continue</p>","0","","","","","","","","","","","","","","","","","","","","","","","","","",""
"true","","","","","fullscreen","126","900922","0.0-3.0-0.0","5ec44da606cb7931f04a35e9","F1","batch6","","","","","","","","","","","","","","","","","","","","","","","","","","","","","",""
"","","","","","instructions","127","943260","0.0-3.0-1.0-0.0-0.0","5ec44da606cb7931f04a35e9","F1","batch6","tol-instructions","42336.799999999814","","","","","","","","[{""page_index"":0,""viewing_time"":5030.100000000093},{""page_index"":1,""viewing_time"":5940.299999999814},{""page_index"":2,""viewing_time"":3029.600000000093},{""page_index"":3,""viewing_time"":16131.100000000093},{""page_index"":4,""viewing_time"":4768.199999999721},{""page_index"":5,""viewing_time"":5130.200000000186},{""page_index"":6,""viewing_time"":2306.7999999998137}]","","","","","","","","","","","","","","","","","","","",""
"","","","","","html-button-response","128","944376","0.0-3.0-1.0-1.0-0.0","5ec44da606cb7931f04a35e9","F1","batch6","tol_enter_quiz","1114.2999999998137","<p class=block-text> Let's answer a few questions <br>","0","","","","","","","","","","","","","","","","","","","","","","","","","",""
"","","","","","html-button-response","129","949120","0.0-3.0-1.0-1.0-1.0","5ec44da606cb7931f04a35e9","F1","batch6","tol_quiz","4742.5","<p class = block-text>True or False: You can only move the ball on top of a peg. <br></p>","0","","","true","","","","","","","","","","","","","","","","","","","","","","",""
"","","","","","html-button-response","130","950834","0.0-3.0-1.0-1.0-2.0","5ec44da606cb7931f04a35e9","F1","batch6","tol_quiz_feedback","1711","<p class = block-text>Correct! You can only move the ball on top of a peg.</p>","0","","","","","","","","","","","","","","","","","","","","","","","","","",""
"","","","","","html-button-response","131","954409","0.0-3.0-1.0-1.0-3.0","5ec44da606cb7931f04a35e9","F1","batch6","tol_quiz","3573.600000000093","<p class = block-text>True or False: You should try to match your board with the target board with fewest moves possible. <br></p>","0","","","true","","","","","","","","","","","","","","","","","","","","","","",""
"","","","","","html-button-response","132","955278","0.0-3.0-1.0-1.0-4.0","5ec44da606cb7931f04a35e9","F1","batch6","tol_quiz_feedback","868","<p class = block-text>Correct! </p>","0","","","","","","","","","","","","","","","","","","","","","","","","","",""
"","","","","","html-button-response","133","956799","0.0-3.0-2.0","5ec44da606cb7931f04a35e9","F1","batch6","","1519","<p class=block-text> Now that you've understood the game, let's practice a few easier examples before we start!<br> <br>","0","","","","","","","","","","","","","","","","","","","","","","","","","",""
"","","","","","single-stim-button","134","960702","0.0-3.0-3.0-0.0","5ec44da606cb7931f04a35e9","F1","batch6","tol_practice","3900","","","","","","","","","tol_peg_2","3900","3900","0","[[1,2,0],[0,0],[0]]","1","[[1,2,0],[0,0],[3]]","practice","3900","","","","","","","","","","",""
"","","","","","single-stim-button","135","962027","0.0-3.0-3.0-1.0","5ec44da606cb7931f04a35e9","F1","batch6","tol_practice","1324","","","","","","","","","tol_peg_3","1324","1324","0","[[1,2,0],[0,0],[3]]","1","[[1,2,0],[0,0],[3]]","practice","1324","","","","","","","","","","",""
"","","","","","poldrack-single-stim","136","963035","0.0-3.0-4.0","5ec44da606cb7931f04a35e9","F1","batch6","tol_feedback","-1","","","","","true","","","","","1000","1000","500","","","","","","-1","none","true","","0","","","","","",""
"","","","","","single-stim-button","137","966905","0.0-3.0-5.0-0.0","5ec44da606cb7931f04a35e9","F1","batch6","tol_practice","3868","","","","","","","","","tol_peg_1","3868","3868","0","[[1,0,0],[3,0],[0]]","2","[[0,0,0],[3,1],[2]]","practice","3868","","","","","","","","","","",""
"","","","","","single-stim-button","138","967785","0.0-3.0-5.0-1.0","5ec44da606cb7931f04a35e9","F1","batch6","tol_practice","879","","","","","","","","","tol_peg_3","879","879","0","[[1,0,0],[3,0],[2]]","2","[[0,0,0],[3,1],[2]]","practice","879","","","","","","","","","","",""
"","","","","","single-stim-button","139","969524","0.0-3.0-5.1-0.1","5ec44da606cb7931f04a35e9","F1","batch6","tol_practice","1738","","","","","","","","","tol_peg_1","1738","1738","0","[[0,0,0],[3,0],[2]]","3","[[0,0,0],[3,1],[2]]","practice","1738","","","","","","","","","","",""
"","","","","","single-stim-button","140","970985","0.0-3.0-5.1-1.1","5ec44da606cb7931f04a35e9","F1","batch6","tol_practice","1459","","","","","","","","","tol_peg_2","1459","1459","0","[[0,0,0],[3,1],[2]]","3","[[0,0,0],[3,1],[2]]","practice","1459","","","","","","","","","","",""
"","","","","","poldrack-single-stim","141","971987","0.0-3.0-6.0","5ec44da606cb7931f04a35e9","F1","batch6","tol_feedback","-1","","","","","true","","","","","1000","1000","500","","","","","","-1","none","true","","0","","","","","",""
"","","","","","single-stim-button","142","975646","0.0-3.0-7.0-0.0","5ec44da606cb7931f04a35e9","F1","batch6","tol_practice","3658","","","","","","","","","tol_peg_2","3658","3658","0","[[1,2,0],[0,0],[0]]","4","[[1,0,0],[2,0],[3]]","practice","3658","","","","","","","","","","",""
"","","","","","single-stim-button","143","977963","0.0-3.0-7.0-1.0","5ec44da606cb7931f04a35e9","F1","batch6","tol_practice","2316","","","","","","","","","tol_peg_3","2316","2316","0","[[1,2,0],[0,0],[3]]","4","[[1,0,0],[2,0],[3]]","practice","2316","","","","","","","","","","",""
"","","","","","single-stim-button","144","978821","0.0-3.0-7.1-0.1","5ec44da606cb7931f04a35e9","F1","batch6","tol_practice","857","","","","","","","","","tol_peg_1","857","857","0","[[1,0,0],[0,0],[3]]","5","[[1,0,0],[2,0],[3]]","practice","857","","","","","","","","","","",""
"","","","","","single-stim-button","145","979715","0.0-3.0-7.1-1.1","5ec44da606cb7931f04a35e9","F1","batch6","tol_practice","892","","","","","","","","","tol_peg_2","892","892","0","[[1,0,0],[2,0],[3]]","5","[[1,0,0],[2,0],[3]]","practice","892","","","","","","","","","","",""
"","","","","","poldrack-single-stim","146","980723","0.0-3.0-8.0","5ec44da606cb7931f04a35e9","F1","batch6","tol_feedback","-1","","","","","true","","","","","1000","1000","500","","","","","","-1","none","true","","0","","","","","",""
"","","","","","html-button-response","147","982829","0.0-3.0-9.0","5ec44da606cb7931f04a35e9","F1","batch6","tol_instruction","2105","<div class = centerbox><p class = center-block-text>Great job! You are done with practice trials<br>You are about to start official trials.<br> <br> Problem <strong>1</strong> out of 25 problems</p></div>","0","","","","","","","","","","","","","","","","","","","","","","","","","",""
"","","","","","single-stim-button","148","988504","0.0-3.0-10.0-0.0","5ec44da606cb7931f04a35e9","F1","batch6","tol_tohand","4668","","","","","","","","","tol_peg_2","4668","4668","0","[[1,2,0],[0,0],[0]]","1","[[1,3,0],[2,0],[0]]","0","0","","","","","","3","","","","",""
"","","","","","single-stim-button","149","992838","0.0-3.0-10.0-1.0","5ec44da606cb7931f04a35e9","F1","batch6","tol_toboard","4333","","","","","","","","","tol_peg_3","4333","4333","0","[[1,2,0],[0,0],[3]]","1","[[1,3,0],[2,0],[0]]","0","0","","","","","","3","","","","",""
"","","","","","single-stim-button","150","994082","0.0-3.0-10.1-0.1","5ec44da606cb7931f04a35e9","F1","batch6","tol_tohand","1242","","","","","","","","","tol_peg_1","1242","1242","0","[[1,0,0],[0,0],[3]]","2","[[1,3,0],[2,0],[0]]","0","0","","","","","","3","","","","",""
"","","","","","single-stim-button","151","996496","0.0-3.0-10.1-1.1","5ec44da606cb7931f04a35e9","F1","batch6","tol_toboard","2413","","","","","","","","","tol_peg_2","2413","2413","0","[[1,0,0],[2,0],[3]]","2","[[1,3,0],[2,0],[0]]","0","0","","","","","","3","","","","",""
"","","","","","single-stim-button","152","997330","0.0-3.0-10.2-0.2","5ec44da606cb7931f04a35e9","F1","batch6","tol_tohand","832","","","","","","","","","tol_peg_3","832","832","0","[[1,0,0],[2,0],[0]]","3","[[1,3,0],[2,0],[0]]","0","0","","","","","","3","","","","",""
"","","","","","single-stim-button","153","998995","0.0-3.0-10.2-1.2","5ec44da606cb7931f04a35e9","F1","batch6","tol_toboard","1665","","","","","","","","","tol_peg_1","1665","1665","0","[[1,3,0],[2,0],[0]]","3","[[1,3,0],[2,0],[0]]","0","0","","","","","","3","","","","",""
"","","","","","poldrack-single-stim","154","1000003","0.0-3.0-11.0","5ec44da606cb7931f04a35e9","F1","batch6","tol_feedback","-1","","","","","true","","","","","1000","1000","500","","","","","","-1","none","true","4668","6742","","","","","",""
"","","","","","html-button-response","155","1001375","0.0-3.0-12.0","5ec44da606cb7931f04a35e9","F1","batch6","tol_trial_num","1370.5999999996275","<div class = centerbox><p class = center-block-text>problem <strong>2</strong> out of 25 problems</p></div>","0","","","","","","","","","","","","","","","","","","","","","","","","","",""
"","","","","","single-stim-button","156","1006058","0.0-3.0-13.0-0.0","5ec44da606cb7931f04a35e9","F1","batch6","tol_tohand","4682","","","","","","","","","tol_peg_1","4682","4682","0","[[1,0,0],[3,0],[0]]","1","[[2,1,3],[0,0],[0]]","1","0","","","","","","5","","","","",""
"","","","","","single-stim-button","157","1007139","0.0-3.0-13.0-1.0","5ec44da606cb7931f04a35e9","F1","batch6","tol_toboard","1074","","","","","","","","","tol_peg_3","1074","1074","0","[[1,0,0],[3,0],[2]]","1","[[2,1,3],[0,0],[0]]","1","0","","","","","","5","","","","",""
"","","","","","single-stim-button","158","1015465","0.0-3.0-13.1-0.1","5ec44da606cb7931f04a35e9","F1","batch6","tol_tohand","8325","","","","","","","","","tol_peg_2","8325","8325","0","[[1,0,0],[0,0],[2]]","2","[[2,1,3],[0,0],[0]]","1","0","","","","","","5","","","","",""
"","","","","","single-stim-button","159","1020438","0.0-3.0-13.1-1.1","5ec44da606cb7931f04a35e9","F1","batch6","tol_toboard","4972","","","","","","","","","tol_peg_1","4972","4972","0","[[1,3,0],[0,0],[2]]","2","[[2,1,3],[0,0],[0]]","1","0","","","","","","5","","","","",""
"","","","","","single-stim-button","160","1021899","0.0-3.0-13.2-0.2","5ec44da606cb7931f04a35e9","F1","batch6","tol_tohand","1460","","","","","","","","","tol_peg_3","1460","1460","0","[[1,3,0],[0,0],[0]]","3","[[2,1,3],[0,0],[0]]","1","0","","","","","","5","","","","",""
"","","","","","single-stim-button","161","1022563","0.0-3.0-13.2-1.2","5ec44da606cb7931f04a35e9","F1","batch6","tol_toboard","663","","","","","","","","","tol_peg_2","663","663","0","[[1,3,0],[2,0],[0]]","3","[[2,1,3],[0,0],[0]]","1","0","","","","","","5","","","","",""
"","","","","","single-stim-button","162","1024568","0.0-3.0-13.3-0.3","5ec44da606cb7931f04a35e9","F1","batch6","tol_tohand","2003","","","","","","","","","tol_peg_1","2003","2003","0","[[1,0,0],[2,0],[0]]","4","[[2,1,3],[0,0],[0]]","1","0","","","","","","5","","","","",""
"","","","","","single-stim-button","163","1026124","0.0-3.0-13.3-1.3","5ec44da606cb7931f04a35e9","F1","batch6","tol_toboard","1555","","","","","","","","","tol_peg_3","1555","1555","0","[[1,0,0],[2,0],[3]]","4","[[2,1,3],[0,0],[0]]","1","0","","","","","","5","","","","",""
"","","","","","single-stim-button","164","1028611","0.0-3.0-13.4-0.4","5ec44da606cb7931f04a35e9","F1","batch6","tol_tohand","2487","","","","","","","","","tol_peg_1","2487","2487","0","[[0,0,0],[2,0],[3]]","5","[[2,1,3],[0,0],[0]]","1","0","","","","","","5","","","","",""
"","","","","","single-stim-button","165","1032233","0.0-3.0-13.4-1.4","5ec44da606cb7931f04a35e9","F1","batch6","tol_toboard","3622","","","","","","","","","tol_peg_2","3622","3622","0","[[0,0,0],[2,1],[3]]","5","[[2,1,3],[0,0],[0]]","1","0","","","","","","5","","","","",""
"","","","","","single-stim-button","166","1035867","0.0-3.0-13.5-0.5","5ec44da606cb7931f04a35e9","F1","batch6","tol_tohand","3633","","","","","","","","","tol_peg_2","3633","3633","0","[[0,0,0],[2,0],[3]]","6","[[2,1,3],[0,0],[0]]","1","0","","","","","","5","","","","",""
"","","","","","single-stim-button","167","1037268","0.0-3.0-13.5-1.5","5ec44da606cb7931f04a35e9","F1","batch6","tol_toboard","1400","","","","","","","","","tol_peg_1","1400","1400","0","[[1,0,0],[2,0],[3]]","6","[[2,1,3],[0,0],[0]]","1","0","","","","","","5","","","","",""
"","","","","","single-stim-button","168","1044826","0.0-3.0-13.6-0.6","5ec44da606cb7931f04a35e9","F1","batch6","tol_tohand","7557","","","","","","","","","tol_peg_2","7557","7557","0","[[1,0,0],[0,0],[3]]","7","[[2,1,3],[0,0],[0]]","1","0","","","","","","5","","","","",""
"","","","","","single-stim-button","169","1047313","0.0-3.0-13.6-1.6","5ec44da606cb7931f04a35e9","F1","batch6","tol_toboard","2485","","","","","","","","","tol_peg_1","2485","2485","0","[[1,2,0],[0,0],[3]]","7","[[2,1,3],[0,0],[0]]","1","0","","","","","","5","","","","",""
"","","","","","single-stim-button","170","1048134","0.0-3.0-13.7-0.7","5ec44da606cb7931f04a35e9","F1","batch6","tol_tohand","820","","","","","","","","","tol_peg_3","820","820","0","[[1,2,0],[0,0],[0]]","8","[[2,1,3],[0,0],[0]]","1","0","","","","","","5","","","","",""
"","","","","","single-stim-button","171","1049800","0.0-3.0-13.7-1.7","5ec44da606cb7931f04a35e9","F1","batch6","tol_toboard","1666","","","","","","","","","tol_peg_2","1666","1666","0","[[1,2,0],[3,0],[0]]","8","[[2,1,3],[0,0],[0]]","1","0","","","","","","5","","","","",""
"","","","","","single-stim-button","172","1051431","0.0-3.0-13.8-0.8","5ec44da606cb7931f04a35e9","F1","batch6","tol_tohand","1629","","","","","","","","","tol_peg_1","1629","1629","0","[[1,0,0],[3,0],[0]]","9","[[2,1,3],[0,0],[0]]","1","0","","","","","","5","","","","",""
"","","","","","single-stim-button","173","1052216","0.0-3.0-13.8-1.8","5ec44da606cb7931f04a35e9","F1","batch6","tol_toboard","784","","","","","","","","","tol_peg_2","784","784","0","[[1,0,0],[3,2],[0]]","9","[[2,1,3],[0,0],[0]]","1","0","","","","","","5","","","","",""
"","","","","","single-stim-button","174","1052904","0.0-3.0-13.9-0.9","5ec44da606cb7931f04a35e9","F1","batch6","tol_tohand","687","","","","","","","","","tol_peg_1","687","687","0","[[0,0,0],[3,2],[0]]","10","[[2,1,3],[0,0],[0]]","1","0","","","","","","5","","","","",""
"","","","","","single-stim-button","175","1053809","0.0-3.0-13.9-1.9","5ec44da606cb7931f04a35e9","F1","batch6","tol_toboard","903","","","","","","","","","tol_peg_3","903","903","0","[[0,0,0],[3,2],[1]]","10","[[2,1,3],[0,0],[0]]","1","0","","","","","","5","","","","",""
"","","","","","single-stim-button","176","1054739","0.0-3.0-13.10-0.10","5ec44da606cb7931f04a35e9","F1","batch6","tol_tohand","929","","","","","","","","","tol_peg_2","929","929","0","[[0,0,0],[3,0],[1]]","11","[[2,1,3],[0,0],[0]]","1","0","","","","","","5","","","","",""
"","","","","","single-stim-button","177","1055331","0.0-3.0-13.10-1.10","5ec44da606cb7931f04a35e9","F1","batch6","tol_toboard","591","","","","","","","","","tol_peg_1","591","591","0","[[2,0,0],[3,0],[1]]","11","[[2,1,3],[0,0],[0]]","1","0","","","","","","5","","","","",""
"","","","","","single-stim-button","178","1056816","0.0-3.0-13.11-0.11","5ec44da606cb7931f04a35e9","F1","batch6","tol_tohand","1485","","","","","","","","","tol_peg_3","1485","1485","0","[[2,0,0],[3,0],[0]]","12","[[2,1,3],[0,0],[0]]","1","0","","","","","","5","","","","",""
"","","","","","single-stim-button","179","1057891","0.0-3.0-13.11-1.11","5ec44da606cb7931f04a35e9","F1","batch6","tol_toboard","1073","","","","","","","","","tol_peg_1","1073","1073","0","[[2,1,0],[3,0],[0]]","12","[[2,1,3],[0,0],[0]]","1","0","","","","","","5","","","","",""
"","","","","","single-stim-button","180","1058567","0.0-3.0-13.12-0.12","5ec44da606cb7931f04a35e9","F1","batch6","tol_tohand","676","","","","","","","","","tol_peg_2","676","676","0","[[2,1,0],[0,0],[0]]","13","[[2,1,3],[0,0],[0]]","1","0","","","","","","5","","","","",""
"","","","","","single-stim-button","181","1059568","0.0-3.0-13.12-1.12","5ec44da606cb7931f04a35e9","F1","batch6","tol_toboard","1000","","","","","","","","","tol_peg_1","1000","1000","0","[[2,1,3],[0,0],[0]]","13","[[2,1,3],[0,0],[0]]","1","0","","","","","","5","","","","",""
"","","","","","poldrack-single-stim","182","1060571","0.0-3.0-14.0","5ec44da606cb7931f04a35e9","F1","batch6","tol_feedback","-1","","","","","true","","","","","1000","1000","500","","","","","","-1","none","true","4682","36373","","","","","",""
"","","","","","html-button-response","183","1061972","0.0-3.0-15.0","5ec44da606cb7931f04a35e9","F1","batch6","tol_trial_num","1399.5999999996275","<div class = centerbox><p class = center-block-text>problem <strong>3</strong> out of 25 problems</p></div>","0","","","","","","","","","","","","","","","","","","","","","","","","","",""
"","","","","","single-stim-button","184","1066281","0.0-3.0-16.0-0.0","5ec44da606cb7931f04a35e9","F1","batch6","tol_tohand","4308","","","","","","","","","tol_peg_1","4308","4308","0","[[2,0,0],[0,0],[1]]","1","[[1,2,0],[3,0],[0]]","2","0","","","","","","4","","","","",""
"","","","","","single-stim-button","185","1066813","0.0-3.0-16.0-1.0","5ec44da606cb7931f04a35e9","F1","batch6","tol_toboard","531","","","","","","","","","tol_peg_2","531","531","0","[[2,0,0],[3,0],[1]]","1","[[1,2,0],[3,0],[0]]","2","0","","","","","","4","","","","",""
"","","","","","single-stim-button","186","1068612","0.0-3.0-16.1-0.1","5ec44da606cb7931f04a35e9","F1","batch6","tol_tohand","1797","","","","","","","","","tol_peg_1","1797","1797","0","[[0,0,0],[3,0],[1]]","2","[[1,2,0],[3,0],[0]]","2","0","","","","","","4","","","","",""
"","","","","","single-stim-button","187","1069264","0.0-3.0-16.1-1.1","5ec44da606cb7931f04a35e9","F1","batch6","tol_toboard","652","","","","","","","","","tol_peg_2","652","652","0","[[0,0,0],[3,2],[1]]","2","[[1,2,0],[3,0],[0]]","2","0","","","","","","4","","","","",""
"","","","","","single-stim-button","188","1069903","0.0-3.0-16.2-0.2","5ec44da606cb7931f04a35e9","F1","batch6","tol_tohand","637","","","","","","","","","tol_peg_3","637","637","0","[[0,0,0],[3,2],[0]]","3","[[1,2,0],[3,0],[0]]","2","0","","","","","","4","","","","",""
"","","","","","single-stim-button","189","1070737","0.0-3.0-16.2-1.2","5ec44da606cb7931f04a35e9","F1","batch6","tol_toboard","834","","","","","","","","","tol_peg_1","834","834","0","[[1,0,0],[3,2],[0]]","3","[[1,2,0],[3,0],[0]]","2","0","","","","","","4","","","","",""
"","","","","","single-stim-button","190","1071245","0.0-3.0-16.3-0.3","5ec44da606cb7931f04a35e9","F1","batch6","tol_tohand","506","","","","","","","","","tol_peg_2","506","506","0","[[1,0,0],[3,0],[0]]","4","[[1,2,0],[3,0],[0]]","2","0","","","","","","4","","","","",""
"","","","","","single-stim-button","191","1071630","0.0-3.0-16.3-1.3","5ec44da606cb7931f04a35e9","F1","batch6","tol_toboard","385","","","","","","","","","tol_peg_1","385","385","0","[[1,2,0],[3,0],[0]]","4","[[1,2,0],[3,0],[0]]","2","0","","","","","","4","","","","",""
"","","","","","poldrack-single-stim","192","1072635","0.0-3.0-17.0","5ec44da606cb7931f04a35e9","F1","batch6","tol_feedback","-1","","","","","true","","","","","1000","1000","500","","","","","","-1","none","true","4308","7248","","","","","",""
"","","","","","html-button-response","193","1077257","0.0-3.0-18.0","5ec44da606cb7931f04a35e9","F1","batch6","tol_trial_num","4620.5999999996275","<div class = centerbox><p class = center-block-text>problem <strong>4</strong> out of 25 problems</p></div>","0","","","","","","","","","","","","","","","","","","","","","","","","","",""
"","","","","","single-stim-button","194","1084427","0.0-3.0-19.0-0.0","5ec44da606cb7931f04a35e9","F1","batch6","tol_tohand","7169","","","","","","","","","tol_peg_2","7169","7169","0","[[3,0,0],[2,0],[0]]","1","[[3,0,0],[1,0],[2]]","3","0","","","","","","3","","","","",""
"","","","","","single-stim-button","195","1086118","0.0-3.0-19.0-1.0","5ec44da606cb7931f04a35e9","F1","batch6","tol_toboard","1689","","","","","","","","","tol_peg_1","1689","1689","0","[[3,1,0],[2,0],[0]]","1","[[3,0,0],[1,0],[2]]","3","0","","","","","","3","","","","",""
"","","","","","single-stim-button","196","1086807","0.0-3.0-19.1-0.1","5ec44da606cb7931f04a35e9","F1","batch6","tol_tohand","689","","","","","","","","","tol_peg_2","689","689","0","[[3,1,0],[0,0],[0]]","2","[[3,0,0],[1,0],[2]]","3","0","","","","","","3","","","","",""
"","","","","","single-stim-button","197","1087565","0.0-3.0-19.1-1.1","5ec44da606cb7931f04a35e9","F1","batch6","tol_toboard","757","","","","","","","","","tol_peg_3","757","757","0","[[3,1,0],[0,0],[2]]","2","[[3,0,0],[1,0],[2]]","3","0","","","","","","3","","","","",""
"","","","","","single-stim-button","198","1088230","0.0-3.0-19.2-0.2","5ec44da606cb7931f04a35e9","F1","batch6","tol_tohand","665","","","","","","","","","tol_peg_1","665","665","0","[[3,0,0],[0,0],[2]]","3","[[3,0,0],[1,0],[2]]","3","0","","","","","","3","","","","",""
"","","","","","single-stim-button","199","1088738","0.0-3.0-19.2-1.2","5ec44da606cb7931f04a35e9","F1","batch6","tol_toboard","507","","","","","","","","","tol_peg_2","507","507","0","[[3,0,0],[1,0],[2]]","3","[[3,0,0],[1,0],[2]]","3","0","","","","","","3","","","","",""
"","","","","","poldrack-single-stim","200","1089747","0.0-3.0-20.0","5ec44da606cb7931f04a35e9","F1","batch6","tol_feedback","-1","","","","","true","","","","","1000","1000","500","","","","","","-1","none","true","7169","8523","","","","","",""
"","","","","","html-button-response","201","1091141","0.0-3.0-21.0","5ec44da606cb7931f04a35e9","F1","batch6","tol_trial_num","1393.300000000745","<div class = centerbox><p class = center-block-text>problem <strong>5</strong> out of 25 problems</p></div>","0","","","","","","","","","","","","","","","","","","","","","","","","","",""
"","","","","","single-stim-button","202","1097672","0.0-3.0-22.0-0.0","5ec44da606cb7931f04a35e9","F1","batch6","tol_tohand","6529","","","","","","","","","tol_peg_3","6529","6529","0","[[1,0,0],[2,0],[0]]","1","[[0,0,0],[1,2],[3]]","4","0","","","","","","7","","","","",""
"","","","","","single-stim-button","203","1098310","0.0-3.0-22.0-1.0","5ec44da606cb7931f04a35e9","F1","batch6","tol_toboard","638","","","","","","","","","tol_peg_2","638","638","0","[[1,0,0],[2,3],[0]]","1","[[0,0,0],[1,2],[3]]","4","0","","","","","","7","","","","",""
"","","","","","single-stim-button","204","1098856","0.0-3.0-22.1-0.1","5ec44da606cb7931f04a35e9","F1","batch6","tol_tohand","544","","","","","","","","","tol_peg_1","544","544","0","[[0,0,0],[2,3],[0]]","2","[[0,0,0],[1,2],[3]]","4","0","","","","","","7","","","","",""
"","","","","","single-stim-button","205","1099351","0.0-3.0-22.1-1.1","5ec44da606cb7931f04a35e9","F1","batch6","tol_toboard","493","","","","","","","","","tol_peg_3","493","493","0","[[0,0,0],[2,3],[1]]","2","[[0,0,0],[1,2],[3]]","4","0","","","","","","7","","","","",""
"","","","","","single-stim-button","206","1100522","0.0-3.0-22.2-0.2","5ec44da606cb7931f04a35e9","F1","batch6","tol_tohand","1171","","","","","","","","","tol_peg_2","1171","1171","0","[[0,0,0],[2,0],[1]]","3","[[0,0,0],[1,2],[3]]","4","0","","","","","","7","","","","",""
"","","","","","single-stim-button","207","1100932","0.0-3.0-22.2-1.2","5ec44da606cb7931f04a35e9","F1","batch6","tol_toboard","408","","","","","","","","","tol_peg_1","408","408","0","[[3,0,0],[2,0],[1]]","3","[[0,0,0],[1,2],[3]]","4","0","","","","","","7","","","","",""
"","","","","","single-stim-button","208","1103322","0.0-3.0-22.3-0.3","5ec44da606cb7931f04a35e9","F1","batch6","tol_tohand","2390","","","","","","","","","tol_peg_2","2390","2390","0","[[3,0,0],[0,0],[1]]","4","[[0,0,0],[1,2],[3]]","4","0","","","","","","7","","","","",""
"","","","","","single-stim-button","209","1103733","0.0-3.0-22.3-1.3","5ec44da606cb7931f04a35e9","F1","batch6","tol_toboard","409","","","","","","","","","tol_peg_1","409","409","0","[[3,2,0],[0,0],[1]]","4","[[0,0,0],[1,2],[3]]","4","0","","","","","","7","","","","",""
"","","","","","single-stim-button","210","1104675","0.0-3.0-22.4-0.4","5ec44da606cb7931f04a35e9","F1","batch6","tol_tohand","942","","","","","","","","","tol_peg_3","942","942","0","[[3,2,0],[0,0],[0]]","5","[[0,0,0],[1,2],[3]]","4","0","","","","","","7","","","","",""
"","","","","","single-stim-button","211","1105073","0.0-3.0-22.4-1.4","5ec44da606cb7931f04a35e9","F1","batch6","tol_toboard","396","","","","","","","","","tol_peg_2","396","396","0","[[3,2,0],[1,0],[0]]","5","[[0,0,0],[1,2],[3]]","4","0","","","","","","7","","","","",""
"","","","","","single-stim-button","212","1105702","0.0-3.0-22.5-0.5","5ec44da606cb7931f04a35e9","F1","batch6","tol_tohand","628","","","","","","","","","tol_peg_1","628","628","0","[[3,0,0],[1,0],[0]]","6","[[0,0,0],[1,2],[3]]","4","0","","","","","","7","","","","",""
"","","","","","single-stim-button","213","1106112","0.0-3.0-22.5-1.5","5ec44da606cb7931f04a35e9","F1","batch6","tol_toboard","410","","","","","","","","","tol_peg_2","410","410","0","[[3,0,0],[1,2],[0]]","6","[[0,0,0],[1,2],[3]]","4","0","","","","","","7","","","","",""
"","","","","","single-stim-button","214","1106535","0.0-3.0-22.6-0.6","5ec44da606cb7931f04a35e9","F1","batch6","tol_tohand","421","","","","","","","","","tol_peg_1","421","421","0","[[0,0,0],[1,2],[0]]","7","[[0,0,0],[1,2],[3]]","4","0","","","","","","7","","","","",""
"","","","","","single-stim-button","215","1106981","0.0-3.0-22.6-1.6","5ec44da606cb7931f04a35e9","F1","batch6","tol_toboard","445","","","","","","","","","tol_peg_3","445","445","0","[[0,0,0],[1,2],[3]]","7","[[0,0,0],[1,2],[3]]","4","0","","","","","","7","","","","",""
"","","","","","poldrack-single-stim","216","1107987","0.0-3.0-23.0","5ec44da606cb7931f04a35e9","F1","batch6","tol_feedback","-1","","","","","true","","","","","1000","1000","500","","","","","","-1","none","true","6529","12625","","","","","",""
"","","","","","html-button-response","217","1113996","0.0-3.0-24.0","5ec44da606cb7931f04a35e9","F1","batch6","tol_trial_num","6007.799999999814","<div class = centerbox><p class = center-block-text>problem <strong>6</strong> out of 25 problems</p></div>","0","","","","","","","","","","","","","","","","","","","","","","","","","",""
"","","","","","single-stim-button","218","1128158","0.0-3.0-25.0-0.0","5ec44da606cb7931f04a35e9","F1","batch6","tol_tohand","14160","","","","","","","","","tol_peg_2","14160","14160","0","[[0,0,0],[1,0],[3]]","1","[[1,0,0],[2,3],[0]]","5","0","","","","","","6","","","","",""
"","","","","","single-stim-button","219","1128604","0.0-3.0-25.0-1.0","5ec44da606cb7931f04a35e9","F1","batch6","tol_toboard","444","","","","","","","","","tol_peg_1","444","444","0","[[2,0,0],[1,0],[3]]","1","[[1,0,0],[2,3],[0]]","5","0","","","","","","6","","","","",""
"","","","","","single-stim-button","220","1129292","0.0-3.0-25.1-0.1","5ec44da606cb7931f04a35e9","F1","batch6","tol_tohand","688","","","","","","","","","tol_peg_3","688","688","0","[[2,0,0],[1,0],[0]]","2","[[1,0,0],[2,3],[0]]","5","0","","","","","","6","","","","",""
"","","","","","single-stim-button","221","1130657","0.0-3.0-25.1-1.1","5ec44da606cb7931f04a35e9","F1","batch6","tol_toboard","1364","","","","","","","","","tol_peg_1","1364","1364","0","[[2,3,0],[1,0],[0]]","2","[[1,0,0],[2,3],[0]]","5","0","","","","","","6","","","","",""
"","","","","","single-stim-button","222","1131153","0.0-3.0-25.2-0.2","5ec44da606cb7931f04a35e9","F1","batch6","tol_tohand","494","","","","","","","","","tol_peg_2","494","494","0","[[2,3,0],[0,0],[0]]","3","[[1,0,0],[2,3],[0]]","5","0","","","","","","6","","","","",""
"","","","","","single-stim-button","223","1131634","0.0-3.0-25.2-1.2","5ec44da606cb7931f04a35e9","F1","batch6","tol_toboard","481","","","","","","","","","tol_peg_3","481","481","0","[[2,3,0],[0,0],[1]]","3","[[1,0,0],[2,3],[0]]","5","0","","","","","","6","","","","",""
"","","","","","single-stim-button","224","1134460","0.0-3.0-25.3-0.3","5ec44da606cb7931f04a35e9","F1","batch6","tol_tohand","2825","","","","","","","","","tol_peg_1","2825","2825","0","[[2,0,0],[0,0],[1]]","4","[[1,0,0],[2,3],[0]]","5","0","","","","","","6","","","","",""
"","","","","","single-stim-button","225","1136006","0.0-3.0-25.3-1.3","5ec44da606cb7931f04a35e9","F1","batch6","tol_toboard","1545","","","","","","","","","tol_peg_2","1545","1545","0","[[2,0,0],[3,0],[1]]","4","[[1,0,0],[2,3],[0]]","5","0","","","","","","6","","","","",""
"","","","","","single-stim-button","226","1136778","0.0-3.0-25.4-0.4","5ec44da606cb7931f04a35e9","F1","batch6","tol_tohand","770","","","","","","","","","tol_peg_1","770","770","0","[[0,0,0],[3,0],[1]]","5","[[1,0,0],[2,3],[0]]","5","0","","","","","","6","","","","",""
"","","","","","single-stim-button","227","1137189","0.0-3.0-25.4-1.4","5ec44da606cb7931f04a35e9","F1","batch6","tol_toboard","410","","","","","","","","","tol_peg_2","410","410","0","[[0,0,0],[3,2],[1]]","5","[[1,0,0],[2,3],[0]]","5","0","","","","","","6","","","","",""
"","","","","","single-stim-button","228","1137938","0.0-3.0-25.5-0.5","5ec44da606cb7931f04a35e9","F1","batch6","tol_tohand","749","","","","","","","","","tol_peg_3","749","749","0","[[0,0,0],[3,2],[0]]","6","[[1,0,0],[2,3],[0]]","5","0","","","","","","6","","","","",""
"","","","","","single-stim-button","229","1138480","0.0-3.0-25.5-1.5","5ec44da606cb7931f04a35e9","F1","batch6","tol_toboard","541","","","","","","","","","tol_peg_1","541","541","0","[[1,0,0],[3,2],[0]]","6","[[1,0,0],[2,3],[0]]","5","0","","","","","","6","","","","",""
"","","","","","single-stim-button","230","1139145","0.0-3.0-25.6-0.6","5ec44da606cb7931f04a35e9","F1","batch6","tol_tohand","663","","","","","","","","","tol_peg_2","663","663","0","[[1,0,0],[3,0],[0]]","7","[[1,0,0],[2,3],[0]]","5","0","","","","","","6","","","","",""
"","","","","","single-stim-button","231","1139785","0.0-3.0-25.6-1.6","5ec44da606cb7931f04a35e9","F1","batch6","tol_toboard","640","","","","","","","","","tol_peg_3","640","640","0","[[1,0,0],[3,0],[2]]","7","[[1,0,0],[2,3],[0]]","5","0","","","","","","6","","","","",""
"","","","","","single-stim-button","232","1140583","0.0-3.0-25.7-0.7","5ec44da606cb7931f04a35e9","F1","batch6","tol_tohand","796","","","","","","","","","tol_peg_2","796","796","0","[[1,0,0],[0,0],[2]]","8","[[1,0,0],[2,3],[0]]","5","0","","","","","","6","","","","",""
"","","","","","single-stim-button","233","1141016","0.0-3.0-25.7-1.7","5ec44da606cb7931f04a35e9","F1","batch6","tol_toboard","433","","","","","","","","","tol_peg_1","433","433","0","[[1,3,0],[0,0],[2]]","8","[[1,0,0],[2,3],[0]]","5","0","","","","","","6","","","","",""
"","","","","","single-stim-button","234","1141523","0.0-3.0-25.8-0.8","5ec44da606cb7931f04a35e9","F1","batch6","tol_tohand","506","","","","","","","","","tol_peg_3","506","506","0","[[1,3,0],[0,0],[0]]","9","[[1,0,0],[2,3],[0]]","5","0","","","","","","6","","","","",""
"","","","","","single-stim-button","235","1141910","0.0-3.0-25.8-1.8","5ec44da606cb7931f04a35e9","F1","batch6","tol_toboard","386","","","","","","","","","tol_peg_2","386","386","0","[[1,3,0],[2,0],[0]]","9","[[1,0,0],[2,3],[0]]","5","0","","","","","","6","","","","",""
"","","","","","single-stim-button","236","1142671","0.0-3.0-25.9-0.9","5ec44da606cb7931f04a35e9","F1","batch6","tol_tohand","759","","","","","","","","","tol_peg_2","759","759","0","[[1,3,0],[0,0],[0]]","10","[[1,0,0],[2,3],[0]]","5","0","","","","","","6","","","","",""
"","","","","","single-stim-button","237","1144481","0.0-3.0-25.9-1.9","5ec44da606cb7931f04a35e9","F1","batch6","tol_toboard","1808","","","","","","","","","tol_peg_2","1808","1808","0","[[1,3,0],[2,0],[0]]","10","[[1,0,0],[2,3],[0]]","5","0","","","","","","6","","","","",""
"","","","","","single-stim-button","238","1145109","0.0-3.0-25.10-0.10","5ec44da606cb7931f04a35e9","F1","batch6","tol_tohand","627","","","","","","","","","tol_peg_1","627","627","0","[[1,0,0],[2,0],[0]]","11","[[1,0,0],[2,3],[0]]","5","0","","","","","","6","","","","",""
"","","","","","single-stim-button","239","1145592","0.0-3.0-25.10-1.10","5ec44da606cb7931f04a35e9","F1","batch6","tol_toboard","481","","","","","","","","","tol_peg_2","481","481","0","[[1,0,0],[2,3],[0]]","11","[[1,0,0],[2,3],[0]]","5","0","","","","","","6","","","","",""
"","","","","","poldrack-single-stim","240","1146595","0.0-3.0-26.0","5ec44da606cb7931f04a35e9","F1","batch6","tol_feedback","-1","","","","","true","","","","","1000","1000","500","","","","","","-1","none","true","14160","23037","","","","","",""
"","","","","","html-button-response","241","1147766","0.0-3.0-27.0","5ec44da606cb7931f04a35e9","F1","batch6","tol_trial_num","1169.2000000001863","<div class = centerbox><p class = center-block-text>problem <strong>7</strong> out of 25 problems</p></div>","0","","","","","","","","","","","","","","","","","","","","","","","","","",""
"","","","","","single-stim-button","242","1150916","0.0-3.0-28.0-0.0","5ec44da606cb7931f04a35e9","F1","batch6","tol_tohand","3149","","","","","","","","","tol_peg_1","3149","3149","0","[[2,0,0],[0,0],[3]]","1","[[1,2,0],[3,0],[0]]","6","0","","","","","","5","","","","",""
"","","","","","single-stim-button","243","1151435","0.0-3.0-28.0-1.0","5ec44da606cb7931f04a35e9","F1","batch6","tol_toboard","518","","","","","","","","","tol_peg_2","518","518","0","[[2,0,0],[1,0],[3]]","1","[[1,2,0],[3,0],[0]]","6","0","","","","","","5","","","","",""
"","","","","","single-stim-button","244","1155746","0.0-3.0-28.1-0.1","5ec44da606cb7931f04a35e9","F1","batch6","tol_tohand","4310","","","","","","","","","tol_peg_3","4310","4310","0","[[2,0,0],[1,0],[0]]","2","[[1,2,0],[3,0],[0]]","6","0","","","","","","5","","","","",""
"","","","","","single-stim-button","245","1156277","0.0-3.0-28.1-1.1","5ec44da606cb7931f04a35e9","F1","batch6","tol_toboard","530","","","","","","","","","tol_peg_2","530","530","0","[[2,0,0],[1,3],[0]]","2","[[1,2,0],[3,0],[0]]","6","0","","","","","","5","","","","",""
"","","","","","single-stim-button","246","1156760","0.0-3.0-28.2-0.2","5ec44da606cb7931f04a35e9","F1","batch6","tol_tohand","481","","","","","","","","","tol_peg_1","481","481","0","[[0,0,0],[1,3],[0]]","3","[[1,2,0],[3,0],[0]]","6","0","","","","","","5","","","","",""
"","","","","","single-stim-button","247","1157280","0.0-3.0-28.2-1.2","5ec44da606cb7931f04a35e9","F1","batch6","tol_toboard","518","","","","","","","","","tol_peg_3","518","518","0","[[0,0,0],[1,3],[2]]","3","[[1,2,0],[3,0],[0]]","6","0","","","","","","5","","","","",""
"","","","","","single-stim-button","248","1161251","0.0-3.0-28.3-0.3","5ec44da606cb7931f04a35e9","F1","batch6","tol_tohand","3971","","","","","","","","","tol_peg_2","3971","3971","0","[[0,0,0],[1,0],[2]]","4","[[1,2,0],[3,0],[0]]","6","0","","","","","","5","","","","",""
"","","","","","single-stim-button","249","1161722","0.0-3.0-28.3-1.3","5ec44da606cb7931f04a35e9","F1","batch6","tol_toboard","470","","","","","","","","","tol_peg_1","470","470","0","[[3,0,0],[1,0],[2]]","4","[[1,2,0],[3,0],[0]]","6","0","","","","","","5","","","","",""
"","","","","","single-stim-button","250","1162242","0.0-3.0-28.4-0.4","5ec44da606cb7931f04a35e9","F1","batch6","tol_tohand","519","","","","","","","","","tol_peg_2","519","519","0","[[3,0,0],[0,0],[2]]","5","[[1,2,0],[3,0],[0]]","6","0","","","","","","5","","","","",""
"","","","","","single-stim-button","251","1164366","0.0-3.0-28.4-1.4","5ec44da606cb7931f04a35e9","F1","batch6","tol_toboard","2124","","","","","","","","","tol_peg_1","2124","2124","0","[[3,1,0],[0,0],[2]]","5","[[1,2,0],[3,0],[0]]","6","0","","","","","","5","","","","",""
"","","","","","single-stim-button","252","1165103","0.0-3.0-28.5-0.5","5ec44da606cb7931f04a35e9","F1","batch6","tol_tohand","736","","","","","","","","","tol_peg_3","736","736","0","[[3,1,0],[0,0],[0]]","6","[[1,2,0],[3,0],[0]]","6","0","","","","","","5","","","","",""
"","","","","","single-stim-button","253","1165779","0.0-3.0-28.5-1.5","5ec44da606cb7931f04a35e9","F1","batch6","tol_toboard","675","","","","","","","","","tol_peg_2","675","675","0","[[3,1,0],[2,0],[0]]","6","[[1,2,0],[3,0],[0]]","6","0","","","","","","5","","","","",""
"","","","","","single-stim-button","254","1166480","0.0-3.0-28.6-0.6","5ec44da606cb7931f04a35e9","F1","batch6","tol_tohand","700","","","","","","","","","tol_peg_1","700","700","0","[[3,0,0],[2,0],[0]]","7","[[1,2,0],[3,0],[0]]","6","0","","","","","","5","","","","",""
"","","","","","single-stim-button","255","1167325","0.0-3.0-28.6-1.6","5ec44da606cb7931f04a35e9","F1","batch6","tol_toboard","844","","","","","","","","","tol_peg_3","844","844","0","[[3,0,0],[2,0],[1]]","7","[[1,2,0],[3,0],[0]]","6","0","","","","","","5","","","","",""
"","","","","","single-stim-button","256","1167965","0.0-3.0-28.7-0.7","5ec44da606cb7931f04a35e9","F1","batch6","tol_tohand","639","","","","","","","","","tol_peg_1","639","639","0","[[0,0,0],[2,0],[1]]","8","[[1,2,0],[3,0],[0]]","6","0","","","","","","5","","","","",""
"","","","","","single-stim-button","257","1169002","0.0-3.0-28.7-1.7","5ec44da606cb7931f04a35e9","F1","batch6","tol_toboard","1036","","","","","","","","","tol_peg_2","1036","1036","0","[[0,0,0],[2,3],[1]]","8","[[1,2,0],[3,0],[0]]","6","0","","","","","","5","","","","",""
"","","","","","single-stim-button","258","1169522","0.0-3.0-28.8-0.8","5ec44da606cb7931f04a35e9","F1","batch6","tol_tohand","519","","","","","","","","","tol_peg_3","519","519","0","[[0,0,0],[2,3],[0]]","9","[[1,2,0],[3,0],[0]]","6","0","","","","","","5","","","","",""
"","","","","","single-stim-button","259","1170016","0.0-3.0-28.8-1.8","5ec44da606cb7931f04a35e9","F1","batch6","tol_toboard","492","","","","","","","","","tol_peg_1","492","492","0","[[1,0,0],[2,3],[0]]","9","[[1,2,0],[3,0],[0]]","6","0","","","","","","5","","","","",""
"","","","","","single-stim-button","260","1170512","0.0-3.0-28.9-0.9","5ec44da606cb7931f04a35e9","F1","batch6","tol_tohand","496","","","","","","","","","tol_peg_2","496","496","0","[[1,0,0],[2,0],[0]]","10","[[1,2,0],[3,0],[0]]","6","0","","","","","","5","","","","",""
"","","","","","single-stim-button","261","1170983","0.0-3.0-28.9-1.9","5ec44da606cb7931f04a35e9","F1","batch6","tol_toboard","469","","","","","","","","","tol_peg_3","469","469","0","[[1,0,0],[2,0],[3]]","10","[[1,2,0],[3,0],[0]]","6","0","","","","","","5","","","","",""
"","","","","","single-stim-button","262","1172033","0.0-3.0-28.10-0.10","5ec44da606cb7931f04a35e9","F1","batch6","tol_tohand","1048","","","","","","","","","tol_peg_2","1048","1048","0","[[1,0,0],[0,0],[3]]","11","[[1,2,0],[3,0],[0]]","6","0","","","","","","5","","","","",""
"","","","","","single-stim-button","263","1172480","0.0-3.0-28.10-1.10","5ec44da606cb7931f04a35e9","F1","batch6","tol_toboard","447","","","","","","","","","tol_peg_1","447","447","0","[[1,2,0],[0,0],[3]]","11","[[1,2,0],[3,0],[0]]","6","0","","","","","","5","","","","",""
"","","","","","single-stim-button","264","1172963","0.0-3.0-28.11-0.11","5ec44da606cb7931f04a35e9","F1","batch6","tol_tohand","481","","","","","","","","","tol_peg_3","481","481","0","[[1,2,0],[0,0],[0]]","12","[[1,2,0],[3,0],[0]]","6","0","","","","","","5","","","","",""
"","","","","","single-stim-button","265","1173313","0.0-3.0-28.11-1.11","5ec44da606cb7931f04a35e9","F1","batch6","tol_toboard","349","","","","","","","","","tol_peg_2","349","349","0","[[1,2,0],[3,0],[0]]","12","[[1,2,0],[3,0],[0]]","6","0","","","","","","5","","","","",""
"","","","","","poldrack-single-stim","266","1174323","0.0-3.0-29.0","5ec44da606cb7931f04a35e9","F1","batch6","tol_feedback","-1","","","","","true","","","","","1000","1000","500","","","","","","-1","none","true","3149","17049","","","","","",""
"","","","","","html-button-response","267","1175366","0.0-3.0-30.0","5ec44da606cb7931f04a35e9","F1","batch6","tol_trial_num","1041.7999999998137","<div class = centerbox><p class = center-block-text>problem <strong>8</strong> out of 25 problems</p></div>","0","","","","","","","","","","","","","","","","","","","","","","","","","",""
"","","","","","single-stim-button","268","1178576","0.0-3.0-31.0-0.0","5ec44da606cb7931f04a35e9","F1","batch6","tol_tohand","3209","","","","","","","","","tol_peg_3","3209","3209","0","[[0,0,0],[2,3],[0]]","1","[[1,2,0],[3,0],[0]]","7","0","","","","","","4","","","","",""
"","","","","","single-stim-button","269","1179084","0.0-3.0-31.0-1.0","5ec44da606cb7931f04a35e9","F1","batch6","tol_toboard","506","","","","","","","","","tol_peg_1","506","506","0","[[1,0,0],[2,3],[0]]","1","[[1,2,0],[3,0],[0]]","7","0","","","","","","4","","","","",""
"","","","","","single-stim-button","270","1180727","0.0-3.0-31.1-0.1","5ec44da606cb7931f04a35e9","F1","batch6","tol_tohand","1642","","","","","","","","","tol_peg_2","1642","1642","0","[[1,0,0],[2,0],[0]]","2","[[1,2,0],[3,0],[0]]","7","0","","","","","","4","","","","",""
"","","","","","single-stim-button","271","1181258","0.0-3.0-31.1-1.1","5ec44da606cb7931f04a35e9","F1","batch6","tol_toboard","531","","","","","","","","","tol_peg_3","531","531","0","[[1,0,0],[2,0],[3]]","2","[[1,2,0],[3,0],[0]]","7","0","","","","","","4","","","","",""
"","","","","","single-stim-button","272","1181765","0.0-3.0-31.2-0.2","5ec44da606cb7931f04a35e9","F1","batch6","tol_tohand","506","","","","","","","","","tol_peg_2","506","506","0","[[1,0,0],[0,0],[3]]","3","[[1,2,0],[3,0],[0]]","7","0","","","","","","4","","","","",""
"","","","","","single-stim-button","273","1182187","0.0-3.0-31.2-1.2","5ec44da606cb7931f04a35e9","F1","batch6","tol_toboard","421","","","","","","","","","tol_peg_1","421","421","0","[[1,2,0],[0,0],[3]]","3","[[1,2,0],[3,0],[0]]","7","0","","","","","","4","","","","",""
"","","","","","single-stim-button","274","1182671","0.0-3.0-31.3-0.3","5ec44da606cb7931f04a35e9","F1","batch6","tol_tohand","482","","","","","","","","","tol_peg_3","482","482","0","[[1,2,0],[0,0],[0]]","4","[[1,2,0],[3,0],[0]]","7","0","","","","","","4","","","","",""
"","","","","","single-stim-button","275","1183069","0.0-3.0-31.3-1.3","5ec44da606cb7931f04a35e9","F1","batch6","tol_toboard","398","","","","","","","","","tol_peg_2","398","398","0","[[1,2,0],[3,0],[0]]","4","[[1,2,0],[3,0],[0]]","7","0","","","","","","4","","","","",""
"","","","","","poldrack-single-stim","276","1184075","0.0-3.0-32.0","5ec44da606cb7931f04a35e9","F1","batch6","tol_feedback","-1","","","","","true","","","","","1000","1000","500","","","","","","-1","none","true","3209","5839","","","","","",""
"","","","","","html-button-response","277","1187428","0.0-3.0-33.0","5ec44da606cb7931f04a35e9","F1","batch6","tol_trial_num","3352.100000000559","<div class = centerbox><p class = center-block-text>problem <strong>9</strong> out of 25 problems</p></div>","0","","","","","","","","","","","","","","","","","","","","","","","","","",""
"","","","","","single-stim-button","278","1199162","0.0-3.0-34.0-0.0","5ec44da606cb7931f04a35e9","F1","batch6","tol_tohand","11733","","","","","","","","","tol_peg_3","11733","11733","0","[[3,2,0],[0,0],[0]]","1","[[2,1,0],[3,0],[0]]","8","0","","","","","","6","","","","",""
"","","","","","single-stim-button","279","1199971","0.0-3.0-34.0-1.0","5ec44da606cb7931f04a35e9","F1","batch6","tol_toboard","807","","","","","","","","","tol_peg_2","807","807","0","[[3,2,0],[1,0],[0]]","1","[[2,1,0],[3,0],[0]]","8","0","","","","","","6","","","","",""
"","","","","","single-stim-button","280","1200587","0.0-3.0-34.1-0.1","5ec44da606cb7931f04a35e9","F1","batch6","tol_tohand","616","","","","","","","","","tol_peg_1","616","616","0","[[3,0,0],[1,0],[0]]","2","[[2,1,0],[3,0],[0]]","8","0","","","","","","6","","","","",""
"","","","","","single-stim-button","281","1200987","0.0-3.0-34.1-1.1","5ec44da606cb7931f04a35e9","F1","batch6","tol_toboard","398","","","","","","","","","tol_peg_2","398","398","0","[[3,0,0],[1,2],[0]]","2","[[2,1,0],[3,0],[0]]","8","0","","","","","","6","","","","",""
"","","","","","single-stim-button","282","1201494","0.0-3.0-34.2-0.2","5ec44da606cb7931f04a35e9","F1","batch6","tol_tohand","506","","","","","","","","","tol_peg_1","506","506","0","[[0,0,0],[1,2],[0]]","3","[[2,1,0],[3,0],[0]]","8","0","","","","","","6","","","","",""
"","","","","","single-stim-button","283","1201999","0.0-3.0-34.2-1.2","5ec44da606cb7931f04a35e9","F1","batch6","tol_toboard","504","","","","","","","","","tol_peg_3","504","504","0","[[0,0,0],[1,2],[3]]","3","[[2,1,0],[3,0],[0]]","8","0","","","","","","6","","","","",""
"","","","","","single-stim-button","284","1203630","0.0-3.0-34.3-0.3","5ec44da606cb7931f04a35e9","F1","batch6","tol_tohand","1629","","","","","","","","","tol_peg_2","1629","1629","0","[[0,0,0],[1,0],[3]]","4","[[2,1,0],[3,0],[0]]","8","0","","","","","","6","","","","",""
"","","","","","single-stim-button","285","1206576","0.0-3.0-34.3-1.3","5ec44da606cb7931f04a35e9","F1","batch6","tol_toboard","2946","","","","","","","","","tol_peg_1","2946","2946","0","[[2,0,0],[1,0],[3]]","4","[[2,1,0],[3,0],[0]]","8","0","","","","","","6","","","","",""
"","","","","","single-stim-button","286","1207252","0.0-3.0-34.4-0.4","5ec44da606cb7931f04a35e9","F1","batch6","tol_tohand","674","","","","","","","","","tol_peg_3","674","674","0","[[2,0,0],[1,0],[0]]","5","[[2,1,0],[3,0],[0]]","8","0","","","","","","6","","","","",""
"","","","","","single-stim-button","287","1208374","0.0-3.0-34.4-1.4","5ec44da606cb7931f04a35e9","F1","batch6","tol_toboard","1122","","","","","","","","","tol_peg_2","1122","1122","0","[[2,0,0],[1,3],[0]]","5","[[2,1,0],[3,0],[0]]","8","0","","","","","","6","","","","",""
"","","","","","single-stim-button","288","1208967","0.0-3.0-34.5-0.5","5ec44da606cb7931f04a35e9","F1","batch6","tol_tohand","592","","","","","","","","","tol_peg_1","592","592","0","[[0,0,0],[1,3],[0]]","6","[[2,1,0],[3,0],[0]]","8","0","","","","","","6","","","","",""
"","","","","","single-stim-button","289","1209450","0.0-3.0-34.5-1.5","5ec44da606cb7931f04a35e9","F1","batch6","tol_toboard","482","","","","","","","","","tol_peg_3","482","482","0","[[0,0,0],[1,3],[2]]","6","[[2,1,0],[3,0],[0]]","8","0","","","","","","6","","","","",""
"","","","","","single-stim-button","290","1211164","0.0-3.0-34.6-0.6","5ec44da606cb7931f04a35e9","F1","batch6","tol_tohand","1712","","","","","","","","","tol_peg_2","1712","1712","0","[[0,0,0],[1,0],[2]]","7","[[2,1,0],[3,0],[0]]","8","0","","","","","","6","","","","",""
"","","","","","single-stim-button","291","1211599","0.0-3.0-34.6-1.6","5ec44da606cb7931f04a35e9","F1","batch6","tol_toboard","434","","","","","","","","","tol_peg_1","434","434","0","[[3,0,0],[1,0],[2]]","7","[[2,1,0],[3,0],[0]]","8","0","","","","","","6","","","","",""
"","","","","","single-stim-button","292","1216862","0.0-3.0-34.7-0.7","5ec44da606cb7931f04a35e9","F1","batch6","tol_tohand","5263","","","","","","","","","tol_peg_3","5263","5263","0","[[3,0,0],[1,0],[0]]","8","[[2,1,0],[3,0],[0]]","8","0","","","","","","6","","","","",""
"","","","","","single-stim-button","293","1217310","0.0-3.0-34.7-1.7","5ec44da606cb7931f04a35e9","F1","batch6","tol_toboard","446","","","","","","","","","tol_peg_1","446","446","0","[[3,2,0],[1,0],[0]]","8","[[2,1,0],[3,0],[0]]","8","0","","","","","","6","","","","",""
"","","","","","single-stim-button","294","1218698","0.0-3.0-34.8-0.8","5ec44da606cb7931f04a35e9","F1","batch6","tol_tohand","1388","","","","","","","","","tol_peg_2","1388","1388","0","[[3,2,0],[0,0],[0]]","9","[[2,1,0],[3,0],[0]]","8","0","","","","","","6","","","","",""
"","","","","","single-stim-button","295","1219181","0.0-3.0-34.8-1.8","5ec44da606cb7931f04a35e9","F1","batch6","tol_toboard","483","","","","","","","","","tol_peg_3","483","483","0","[[3,2,0],[0,0],[1]]","9","[[2,1,0],[3,0],[0]]","8","0","","","","","","6","","","","",""
"","","","","","single-stim-button","296","1219688","0.0-3.0-34.9-0.9","5ec44da606cb7931f04a35e9","F1","batch6","tol_tohand","506","","","","","","","","","tol_peg_1","506","506","0","[[3,0,0],[0,0],[1]]","10","[[2,1,0],[3,0],[0]]","8","0","","","","","","6","","","","",""
"","","","","","single-stim-button","297","1220062","0.0-3.0-34.9-1.9","5ec44da606cb7931f04a35e9","F1","batch6","tol_toboard","373","","","","","","","","","tol_peg_2","373","373","0","[[3,0,0],[2,0],[1]]","10","[[2,1,0],[3,0],[0]]","8","0","","","","","","6","","","","",""
"","","","","","single-stim-button","298","1220557","0.0-3.0-34.10-0.10","5ec44da606cb7931f04a35e9","F1","batch6","tol_tohand","493","","","","","","","","","tol_peg_1","493","493","0","[[0,0,0],[2,0],[1]]","11","[[2,1,0],[3,0],[0]]","8","0","","","","","","6","","","","",""
"","","","","","single-stim-button","299","1221040","0.0-3.0-34.10-1.10","5ec44da606cb7931f04a35e9","F1","batch6","tol_toboard","481","","","","","","","","","tol_peg_2","481","481","0","[[0,0,0],[2,3],[1]]","11","[[2,1,0],[3,0],[0]]","8","0","","","","","","6","","","","",""
"","","","","","single-stim-button","300","1222357","0.0-3.0-34.11-0.11","5ec44da606cb7931f04a35e9","F1","batch6","tol_tohand","1316","","","","","","","","","tol_peg_2","1316","1316","0","[[0,0,0],[2,0],[1]]","12","[[2,1,0],[3,0],[0]]","8","0","","","","","","6","","","","",""
"","","","","","single-stim-button","301","1222742","0.0-3.0-34.11-1.11","5ec44da606cb7931f04a35e9","F1","batch6","tol_toboard","385","","","","","","","","","tol_peg_1","385","385","0","[[3,0,0],[2,0],[1]]","12","[[2,1,0],[3,0],[0]]","8","0","","","","","","6","","","","",""
"","","","","","single-stim-button","302","1223491","0.0-3.0-34.12-0.12","5ec44da606cb7931f04a35e9","F1","batch6","tol_tohand","748","","","","","","","","","tol_peg_3","748","748","0","[[3,0,0],[2,0],[0]]","13","[[2,1,0],[3,0],[0]]","8","0","","","","","","6","","","","",""
"","","","","","single-stim-button","303","1224240","0.0-3.0-34.12-1.12","5ec44da606cb7931f04a35e9","F1","batch6","tol_toboard","748","","","","","","","","","tol_peg_1","748","748","0","[[3,1,0],[2,0],[0]]","13","[[2,1,0],[3,0],[0]]","8","0","","","","","","6","","","","",""
"","","","","","single-stim-button","304","1226691","0.0-3.0-34.13-0.13","5ec44da606cb7931f04a35e9","F1","batch6","tol_tohand","2449","","","","","","","","","tol_peg_2","2449","2449","0","[[3,1,0],[0,0],[0]]","14","[[2,1,0],[3,0],[0]]","8","0","","","","","","6","","","","",""
"","","","","","single-stim-button","305","1228719","0.0-3.0-34.13-1.13","5ec44da606cb7931f04a35e9","F1","batch6","tol_toboard","2028","","","","","","","","","tol_peg_3","2028","2028","0","[[3,1,0],[0,0],[2]]","14","[[2,1,0],[3,0],[0]]","8","0","","","","","","6","","","","",""
"","","","","","single-stim-button","306","1233621","0.0-3.0-34.14-0.14","5ec44da606cb7931f04a35e9","F1","batch6","tol_tohand","4901","","","","","","","","","tol_peg_1","4901","4901","0","[[3,0,0],[0,0],[2]]","15","[[2,1,0],[3,0],[0]]","8","0","","","","","","6","","","","",""
"","","","","","single-stim-button","307","1234127","0.0-3.0-34.14-1.14","5ec44da606cb7931f04a35e9","F1","batch6","tol_toboard","505","","","","","","","","","tol_peg_2","505","505","0","[[3,0,0],[1,0],[2]]","15","[[2,1,0],[3,0],[0]]","8","0","","","","","","6","","","","",""
"","","","","","single-stim-button","308","1235589","0.0-3.0-34.15-0.15","5ec44da606cb7931f04a35e9","F1","batch6","tol_tohand","1461","","","","","","","","","tol_peg_1","1461","1461","0","[[0,0,0],[1,0],[2]]","16","[[2,1,0],[3,0],[0]]","8","0","","","","","","6","","","","",""
"","","","","","single-stim-button","309","1235952","0.0-3.0-34.15-1.15","5ec44da606cb7931f04a35e9","F1","batch6","tol_toboard","362","","","","","","","","","tol_peg_2","362","362","0","[[0,0,0],[1,3],[2]]","16","[[2,1,0],[3,0],[0]]","8","0","","","","","","6","","","","",""
"","","","","","single-stim-button","310","1236398","0.0-3.0-34.16-0.16","5ec44da606cb7931f04a35e9","F1","batch6","tol_tohand","445","","","","","","","","","tol_peg_3","445","445","0","[[0,0,0],[1,3],[0]]","17","[[2,1,0],[3,0],[0]]","8","0","","","","","","6","","","","",""
"","","","","","single-stim-button","311","1236942","0.0-3.0-34.16-1.16","5ec44da606cb7931f04a35e9","F1","batch6","tol_toboard","542","","","","","","","","","tol_peg_1","542","542","0","[[2,0,0],[1,3],[0]]","17","[[2,1,0],[3,0],[0]]","8","0","","","","","","6","","","","",""
"","","","","","single-stim-button","312","1237667","0.0-3.0-34.17-0.17","5ec44da606cb7931f04a35e9","F1","batch6","tol_tohand","724","","","","","","","","","tol_peg_2","724","724","0","[[2,0,0],[1,0],[0]]","18","[[2,1,0],[3,0],[0]]","8","0","","","","","","6","","","","",""
"","","","","","single-stim-button","313","1238077","0.0-3.0-34.17-1.17","5ec44da606cb7931f04a35e9","F1","batch6","tol_toboard","410","","","","","","","","","tol_peg_3","410","410","0","[[2,0,0],[1,0],[3]]","18","[[2,1,0],[3,0],[0]]","8","0","","","","","","6","","","","",""
"","","","","","single-stim-button","314","1238596","0.0-3.0-34.18-0.18","5ec44da606cb7931f04a35e9","F1","batch6","tol_tohand","518","","","","","","","","","tol_peg_2","518","518","0","[[2,0,0],[0,0],[3]]","19","[[2,1,0],[3,0],[0]]","8","0","","","","","","6","","","","",""
"","","","","","single-stim-button","315","1239235","0.0-3.0-34.18-1.18","5ec44da606cb7931f04a35e9","F1","batch6","tol_toboard","638","","","","","","","","","tol_peg_1","638","638","0","[[2,1,0],[0,0],[3]]","19","[[2,1,0],[3,0],[0]]","8","0","","","","","","6","","","","",""
"","","","","","single-stim-button","316","1239815","0.0-3.0-34.19-0.19","5ec44da606cb7931f04a35e9","F1","batch6","tol_tohand","578","","","","","","","","","tol_peg_3","578","578","0","[[2,1,0],[0,0],[0]]","20","[[2,1,0],[3,0],[0]]","8","0","","","","","","6","","","","",""
"","","","","","single-stim-button","317","1240238","0.0-3.0-34.19-1.19","5ec44da606cb7931f04a35e9","F1","batch6","tol_toboard","421","","","","","","","","","tol_peg_2","421","421","0","[[2,1,0],[3,0],[0]]","20","[[2,1,0],[3,0],[0]]","8","0","","","","","","6","","","","",""
"","","","","","poldrack-single-stim","318","1241243","0.0-3.0-35.0","5ec44da606cb7931f04a35e9","F1","batch6","tol_feedback","-1","","","","","true","","","","","1000","1000","500","","","","","","-1","none","true","11733","38252","","","","","",""
"","","","","","html-button-response","319","1243122","0.0-3.0-36.0","5ec44da606cb7931f04a35e9","F1","batch6","tol_trial_num","1878.0999999996275","<div class = centerbox><p class = center-block-text>problem <strong>10</strong> out of 25 problems</p></div>","0","","","","","","","","","","","","","","","","","","","","","","","","","",""
"","","","","","single-stim-button","320","1250874","0.0-3.0-37.0-0.0","5ec44da606cb7931f04a35e9","F1","batch6","tol_tohand","7751","","","","","","","","","tol_peg_2","7751","7751","0","[[3,0,0],[0,0],[2]]","1","[[3,0,0],[2,1],[0]]","9","0","","","","","","3","","","","",""
"","","","","","single-stim-button","321","1251297","0.0-3.0-37.0-1.0","5ec44da606cb7931f04a35e9","F1","batch6","tol_toboard","422","","","","","","","","","tol_peg_1","422","422","0","[[3,1,0],[0,0],[2]]","1","[[3,0,0],[2,1],[0]]","9","0","","","","","","3","","","","",""
"","","","","","single-stim-button","322","1251853","0.0-3.0-37.1-0.1","5ec44da606cb7931f04a35e9","F1","batch6","tol_tohand","555","","","","","","","","","tol_peg_3","555","555","0","[[3,1,0],[0,0],[0]]","2","[[3,0,0],[2,1],[0]]","9","0","","","","","","3","","","","",""
"","","","","","single-stim-button","323","1252239","0.0-3.0-37.1-1.1","5ec44da606cb7931f04a35e9","F1","batch6","tol_toboard","385","","","","","","","","","tol_peg_2","385","385","0","[[3,1,0],[2,0],[0]]","2","[[3,0,0],[2,1],[0]]","9","0","","","","","","3","","","","",""
"","","","","","single-stim-button","324","1253604","0.0-3.0-37.2-0.2","5ec44da606cb7931f04a35e9","F1","batch6","tol_tohand","1363","","","","","","","","","tol_peg_1","1363","1363","0","[[3,0,0],[2,0],[0]]","3","[[3,0,0],[2,1],[0]]","9","0","","","","","","3","","","","",""
"","","","","","single-stim-button","325","1253954","0.0-3.0-37.2-1.2","5ec44da606cb7931f04a35e9","F1","batch6","tol_toboard","350","","","","","","","","","tol_peg_2","350","350","0","[[3,0,0],[2,1],[0]]","3","[[3,0,0],[2,1],[0]]","9","0","","","","","","3","","","","",""
"","","","","","poldrack-single-stim","326","1254963","0.0-3.0-38.0","5ec44da606cb7931f04a35e9","F1","batch6","tol_feedback","-1","","","","","true","","","","","1000","1000","500","","","","","","-1","none","true","7751","9669","","","","","",""
"","","","","","html-button-response","327","1255909","0.0-3.0-39.0","5ec44da606cb7931f04a35e9","F1","batch6","tol_trial_num","945.5","<div class = centerbox><p class = center-block-text>problem <strong>11</strong> out of 25 problems</p></div>","0","","","","","","","","","","","","","","","","","","","","","","","","","",""
"","","","","","single-stim-button","328","1266353","0.0-3.0-40.0-0.0","5ec44da606cb7931f04a35e9","F1","batch6","tol_tohand","10443","","","","","","","","","tol_peg_1","10443","10443","0","[[1,0,0],[3,0],[0]]","1","[[2,0,0],[1,3],[0]]","10","0","","","","","","6","","","","",""
"","","","","","single-stim-button","329","1267016","0.0-3.0-40.0-1.0","5ec44da606cb7931f04a35e9","F1","batch6","tol_toboard","662","","","","","","","","","tol_peg_3","662","662","0","[[1,0,0],[3,0],[2]]","1","[[2,0,0],[1,3],[0]]","10","0","","","","","","6","","","","",""
"","","","","","single-stim-button","330","1273730","0.0-3.0-40.1-0.1","5ec44da606cb7931f04a35e9","F1","batch6","tol_tohand","6712","","","","","","","","","tol_peg_3","6712","6712","0","[[1,0,0],[3,0],[0]]","2","[[2,0,0],[1,3],[0]]","10","0","","","","","","6","","","","",""
"","","","","","single-stim-button","331","1274611","0.0-3.0-40.1-1.1","5ec44da606cb7931f04a35e9","F1","batch6","tol_toboard","880","","","","","","","","","tol_peg_2","880","880","0","[[1,0,0],[3,2],[0]]","2","[[2,0,0],[1,3],[0]]","10","0","","","","","","6","","","","",""
"","","","","","single-stim-button","332","1275177","0.0-3.0-40.2-0.2","5ec44da606cb7931f04a35e9","F1","batch6","tol_tohand","566","","","","","","","","","tol_peg_1","566","566","0","[[0,0,0],[3,2],[0]]","3","[[2,0,0],[1,3],[0]]","10","0","","","","","","6","","","","",""
"","","","","","single-stim-button","333","1275674","0.0-3.0-40.2-1.2","5ec44da606cb7931f04a35e9","F1","batch6","tol_toboard","495","","","","","","","","","tol_peg_3","495","495","0","[[0,0,0],[3,2],[1]]","3","[[2,0,0],[1,3],[0]]","10","0","","","","","","6","","","","",""
"","","","","","single-stim-button","334","1276845","0.0-3.0-40.3-0.3","5ec44da606cb7931f04a35e9","F1","batch6","tol_tohand","1170","","","","","","","","","tol_peg_2","1170","1170","0","[[0,0,0],[3,0],[1]]","4","[[2,0,0],[1,3],[0]]","10","0","","","","","","6","","","","",""
"","","","","","single-stim-button","335","1277376","0.0-3.0-40.3-1.3","5ec44da606cb7931f04a35e9","F1","batch6","tol_toboard","531","","","","","","","","","tol_peg_1","531","531","0","[[2,0,0],[3,0],[1]]","4","[[2,0,0],[1,3],[0]]","10","0","","","","","","6","","","","",""
"","","","","","single-stim-button","336","1278652","0.0-3.0-40.4-0.4","5ec44da606cb7931f04a35e9","F1","batch6","tol_tohand","1275","","","","","","","","","tol_peg_2","1275","1275","0","[[2,0,0],[0,0],[1]]","5","[[2,0,0],[1,3],[0]]","10","0","","","","","","6","","","","",""
"","","","","","single-stim-button","337","1279038","0.0-3.0-40.4-1.4","5ec44da606cb7931f04a35e9","F1","batch6","tol_toboard","385","","","","","","","","","tol_peg_1","385","385","0","[[2,3,0],[0,0],[1]]","5","[[2,0,0],[1,3],[0]]","10","0","","","","","","6","","","","",""
"","","","","","single-stim-button","338","1279582","0.0-3.0-40.5-0.5","5ec44da606cb7931f04a35e9","F1","batch6","tol_tohand","543","","","","","","","","","tol_peg_3","543","543","0","[[2,3,0],[0,0],[0]]","6","[[2,0,0],[1,3],[0]]","10","0","","","","","","6","","","","",""
"","","","","","single-stim-button","339","1280016","0.0-3.0-40.5-1.5","5ec44da606cb7931f04a35e9","F1","batch6","tol_toboard","433","","","","","","","","","tol_peg_2","433","433","0","[[2,3,0],[1,0],[0]]","6","[[2,0,0],[1,3],[0]]","10","0","","","","","","6","","","","",""
"","","","","","single-stim-button","340","1280464","0.0-3.0-40.6-0.6","5ec44da606cb7931f04a35e9","F1","batch6","tol_tohand","446","","","","","","","","","tol_peg_1","446","446","0","[[2,0,0],[1,0],[0]]","7","[[2,0,0],[1,3],[0]]","10","0","","","","","","6","","","","",""
"","","","","","single-stim-button","341","1280825","0.0-3.0-40.6-1.6","5ec44da606cb7931f04a35e9","F1","batch6","tol_toboard","361","","","","","","","","","tol_peg_2","361","361","0","[[2,0,0],[1,3],[0]]","7","[[2,0,0],[1,3],[0]]","10","0","","","","","","6","","","","",""
"","","","","","poldrack-single-stim","342","1281835","0.0-3.0-41.0","5ec44da606cb7931f04a35e9","F1","batch6","tol_feedback","-1","","","","","true","","","","","1000","1000","500","","","","","","-1","none","true","10443","21155","","","","","",""
"","","","","","html-button-response","343","1285643","0.0-3.0-42.0","5ec44da606cb7931f04a35e9","F1","batch6","tol_trial_num","3807","<div class = centerbox><p class = center-block-text>problem <strong>12</strong> out of 25 problems</p></div>","0","","","","","","","","","","","","","","","","","","","","","","","","","",""
"","","","","","single-stim-button","344","1289796","0.0-3.0-43.0-0.0","5ec44da606cb7931f04a35e9","F1","batch6","tol_tohand","4152","","","","","","","","","tol_peg_1","4152","4152","0","[[1,0,0],[3,0],[0]]","1","[[2,3,0],[0,0],[1]]","11","0","","","","","","4","","","","",""
"","","","","","single-stim-button","345","1290182","0.0-3.0-43.0-1.0","5ec44da606cb7931f04a35e9","F1","batch6","tol_toboard","385","","","","","","","","","tol_peg_2","385","385","0","[[1,0,0],[3,2],[0]]","1","[[2,3,0],[0,0],[1]]","11","0","","","","","","4","","","","",""
"","","","","","single-stim-button","346","1290629","0.0-3.0-43.1-0.1","5ec44da606cb7931f04a35e9","F1","batch6","tol_tohand","446","","","","","","","","","tol_peg_1","446","446","0","[[0,0,0],[3,2],[0]]","2","[[2,3,0],[0,0],[1]]","11","0","","","","","","4","","","","",""
"","","","","","single-stim-button","347","1291087","0.0-3.0-43.1-1.1","5ec44da606cb7931f04a35e9","F1","batch6","tol_toboard","457","","","","","","","","","tol_peg_3","457","457","0","[[0,0,0],[3,2],[1]]","2","[[2,3,0],[0,0],[1]]","11","0","","","","","","4","","","","",""
"","","","","","single-stim-button","348","1293974","0.0-3.0-43.2-0.2","5ec44da606cb7931f04a35e9","F1","batch6","tol_tohand","2886","","","","","","","","","tol_peg_2","2886","2886","0","[[0,0,0],[3,0],[1]]","3","[[2,3,0],[0,0],[1]]","11","0","","","","","","4","","","","",""
"","","","","","single-stim-button","349","1294372","0.0-3.0-43.2-1.2","5ec44da606cb7931f04a35e9","F1","batch6","tol_toboard","397","","","","","","","","","tol_peg_1","397","397","0","[[2,0,0],[3,0],[1]]","3","[[2,3,0],[0,0],[1]]","11","0","","","","","","4","","","","",""
"","","","","","single-stim-button","350","1295218","0.0-3.0-43.3-0.3","5ec44da606cb7931f04a35e9","F1","batch6","tol_tohand","844","","","","","","","","","tol_peg_1","844","844","0","[[0,0,0],[3,0],[1]]","4","[[2,3,0],[0,0],[1]]","11","0","","","","","","4","","","","",""
"","","","","","single-stim-button","351","1295676","0.0-3.0-43.3-1.3","5ec44da606cb7931f04a35e9","F1","batch6","tol_toboard","458","","","","","","","","","tol_peg_2","458","458","0","[[0,0,0],[3,2],[1]]","4","[[2,3,0],[0,0],[1]]","11","0","","","","","","4","","","","",""
"","","","","","single-stim-button","352","1296388","0.0-3.0-43.4-0.4","5ec44da606cb7931f04a35e9","F1","batch6","tol_tohand","711","","","","","","","","","tol_peg_2","711","711","0","[[0,0,0],[3,0],[1]]","5","[[2,3,0],[0,0],[1]]","11","0","","","","","","4","","","","",""
"","","","","","single-stim-button","353","1296799","0.0-3.0-43.4-1.4","5ec44da606cb7931f04a35e9","F1","batch6","tol_toboard","409","","","","","","","","","tol_peg_1","409","409","0","[[2,0,0],[3,0],[1]]","5","[[2,3,0],[0,0],[1]]","11","0","","","","","","4","","","","",""
"","","","","","single-stim-button","354","1297232","0.0-3.0-43.5-0.5","5ec44da606cb7931f04a35e9","F1","batch6","tol_tohand","433","","","","","","","","","tol_peg_2","433","433","0","[[2,0,0],[0,0],[1]]","6","[[2,3,0],[0,0],[1]]","11","0","","","","","","4","","","","",""
