"success","timeout","failed_images","failed_audio","failed_video","trial_type","trial_index","time_elapsed","internal_node_id","subject_id","study_id","session_id","view_history","rt","task","stimulus","response","correct","mouse_click","stim_duration","block_duration","timing_post_trial","current_position","tol_num_moves_made","tol_target","tol_problem_id","tol_rt","key_press","possible_responses","tol_correct","preplanning","tol_rt_per_trial","tol_min_moves","item","answer","spm_correct","spm_rt","fiar_detect_rt","fiar_detect_correct","total_correct_fiar_detect","post_trial_gap","choices"
"true","false","[]","[]","[]","preload","0","5192","0.0-0.0","5ec6d423fc10270f0bbbc90e","D2","batch4","","","","","","","","","","","","","","","","","","","","","","","","","","","","","",""
"true","","","","","fullscreen","1","42111","0.0-1.0-0.0","5ec6d423fc10270f0bbbc90e","D2","batch4","","","","","","","","","","","","","","","","","","","","","","","","","","","","","",""
"true","","","","","fullscreen","2","56999","0.0-2.0-0.0","5ec6d423fc10270f0bbbc90e","D2","batch4","","","","","","","","","","","","","","","","","","","","","","","","","","","","","",""
"","","","","","instructions","3","189093","0.0-2.0-1.0-0.0-0.0","5ec6d423fc10270f0bbbc90e","D2","batch4","[{""page_index"":0,""viewing_time"":8081.199999809265},{""page_index"":1,""viewing_time"":67635.09999990463},{""page_index"":2,""viewing_time"":3247.5},{""page_index"":3,""viewing_time"":8401},{""page_index"":4,""viewing_time"":8944.700000286102},{""page_index"":5,""viewing_time"":14202.699999809265},{""page_index"":6,""viewing_time"":21577.300000190735}]","132090","tol-instructions","","","","","","","","","","","","","","","","","","","","","","","","","","",""
"","","","","","html-button-response","4","190160","0.0-2.0-1.0-1.0-0.0","5ec6d423fc10270f0bbbc90e","D2","batch4","","1065.5","tol_enter_quiz","<p class=block-text> Let's answer a few questions <br>","0","","","","","","","","","","","","","","","","","","","","","","","","",""
"","","","","","html-button-response","5","193441","0.0-2.0-1.0-1.0-1.0","5ec6d423fc10270f0bbbc90e","D2","batch4","","3277.6000003814697","tol_quiz","<p class = block-text>True or False: You can only move the ball on top of a peg. <br></p>","0","true","","","","","","","","","","","","","","","","","","","","","","","",""
"","","","","","html-button-response","6","194132","0.0-2.0-1.0-1.0-2.0","5ec6d423fc10270f0bbbc90e","D2","batch4","","686.2000002861023","tol_quiz_feedback","<p class = block-text>Correct! You can only move the ball on top of a peg.</p>","0","","","","","","","","","","","","","","","","","","","","","","","","",""
"","","","","","html-button-response","7","195880","0.0-2.0-1.0-1.0-3.0","5ec6d423fc10270f0bbbc90e","D2","batch4","","1747.2999997138977","tol_quiz","<p class = block-text>True or False: You should try to match your board with the target board with fewest moves possible. <br></p>","0","true","","","","","","","","","","","","","","","","","","","","","","","",""
"","","","","","html-button-response","8","196450","0.0-2.0-1.0-1.0-4.0","5ec6d423fc10270f0bbbc90e","D2","batch4","","568.0999999046326","tol_quiz_feedback","<p class = block-text>Correct! </p>","0","","","","","","","","","","","","","","","","","","","","","","","","",""
"","","","","","html-button-response","9","197589","0.0-2.0-2.0","5ec6d423fc10270f0bbbc90e","D2","batch4","","1137","","<p class=block-text> Now that you've understood the game, let's practice a few easier examples before we start!<br> <br>","0","","","","","","","","","","","","","","","","","","","","","","","","",""
"","","","","","single-stim-button","10","199884","0.0-2.0-3.0-0.0","5ec6d423fc10270f0bbbc90e","D2","batch4","","2290","tol_practice","","","","tol_peg_2","2290","2290","0","[[1,2,0],[0,0],[0]]","1","[[1,2,0],[0,0],[3]]","practice","2290","","","","","","","","","","","","","","",""
"","","","","","single-stim-button","11","201080","0.0-2.0-3.0-1.0","5ec6d423fc10270f0bbbc90e","D2","batch4","","1194","tol_practice","","","","tol_peg_3","1194","1194","0","[[1,2,0],[0,0],[3]]","1","[[1,2,0],[0,0],[3]]","practice","1194","","","","","","","","","","","","","","",""
"","","","","","poldrack-single-stim","12","202083","0.0-2.0-4.0","5ec6d423fc10270f0bbbc90e","D2","batch4","","-1","tol_feedback","","","true","","1000","1000","500","","","","","","-1","none","true","","0","","","","","","","","","",""
"","","","","","single-stim-button","13","204890","0.0-2.0-5.0-0.0","5ec6d423fc10270f0bbbc90e","D2","batch4","","2806","tol_practice","","","","tol_peg_1","2806","2806","0","[[1,0,0],[3,0],[0]]","2","[[0,0,0],[3,1],[2]]","practice","2806","","","","","","","","","","","","","","",""
"","","","","","single-stim-button","14","205756","0.0-2.0-5.0-1.0","5ec6d423fc10270f0bbbc90e","D2","batch4","","865","tol_practice","","","","tol_peg_3","865","865","0","[[1,0,0],[3,0],[2]]","2","[[0,0,0],[3,1],[2]]","practice","865","","","","","","","","","","","","","","",""
"","","","","","single-stim-button","15","206511","0.0-2.0-5.1-0.1","5ec6d423fc10270f0bbbc90e","D2","batch4","","752","tol_practice","","","","tol_peg_1","752","752","0","[[0,0,0],[3,0],[2]]","3","[[0,0,0],[3,1],[2]]","practice","752","","","","","","","","","","","","","","",""
"","","","","","single-stim-button","16","207257","0.0-2.0-5.1-1.1","5ec6d423fc10270f0bbbc90e","D2","batch4","","745","tol_practice","","","","tol_peg_2","745","745","0","[[0,0,0],[3,1],[2]]","3","[[0,0,0],[3,1],[2]]","practice","745","","","","","","","","","","","","","","",""
"","","","","","poldrack-single-stim","17","208263","0.0-2.0-6.0","5ec6d423fc10270f0bbbc90e","D2","batch4","","-1","tol_feedback","","","true","","1000","1000","500","","","","","","-1","none","true","","0","","","","","","","","","",""
"","","","","","single-stim-button","18","210562","0.0-2.0-7.0-0.0","5ec6d423fc10270f0bbbc90e","D2","batch4","","2297","tol_practice","","","","tol_peg_2","2297","2297","0","[[1,2,0],[0,0],[0]]","4","[[1,0,0],[2,0],[3]]","practice","2297","","","","","","","","","","","","","","",""
"","","","","","single-stim-button","19","211444","0.0-2.0-7.0-1.0","5ec6d423fc10270f0bbbc90e","D2","batch4","","882","tol_practice","","","","tol_peg_3","882","882","0","[[1,2,0],[0,0],[3]]","4","[[1,0,0],[2,0],[3]]","practice","882","","","","","","","","","","","","","","",""
"","","","","","single-stim-button","20","212294","0.0-2.0-7.1-0.1","5ec6d423fc10270f0bbbc90e","D2","batch4","","849","tol_practice","","","","tol_peg_1","849","849","0","[[1,0,0],[0,0],[3]]","5","[[1,0,0],[2,0],[3]]","practice","849","","","","","","","","","","","","","","",""
"","","","","","single-stim-button","21","212840","0.0-2.0-7.1-1.1","5ec6d423fc10270f0bbbc90e","D2","batch4","","544","tol_practice","","","","tol_peg_2","544","544","0","[[1,0,0],[2,0],[3]]","5","[[1,0,0],[2,0],[3]]","practice","544","","","","","","","","","","","","","","",""
"","","","","","poldrack-single-stim","22","213847","0.0-2.0-8.0","5ec6d423fc10270f0bbbc90e","D2","batch4","","-1","tol_feedback","","","true","","1000","1000","500","","","","","","-1","none","true","","0","","","","","","","","","",""
"","","","","","html-button-response","23","215279","0.0-2.0-9.0","5ec6d423fc10270f0bbbc90e","D2","batch4","","1430.8000001907349","tol_instruction","<div class = centerbox><p class = center-block-text>Great job! You are done with practice trials<br>You are about to start official trials.<br> <br> Problem <strong>1</strong> out of 25 problems</p></div>","0","","","","","","","","","","","","","","","","","","","","","","","","",""
"","","","","","single-stim-button","24","218376","0.0-2.0-10.0-0.0","5ec6d423fc10270f0bbbc90e","D2","batch4","","2093","tol_tohand","","","","tol_peg_1","2093","2093","0","[[1,0,0],[3,0],[0]]","1","[[1,3,0],[2,0],[0]]","0","0","","","","","","3","","","","","","","","",""
"","","","","","single-stim-button","25","220822","0.0-2.0-10.0-1.0","5ec6d423fc10270f0bbbc90e","D2","batch4","","2445","tol_toboard","","","","tol_peg_1","2445","2445","0","[[1,2,0],[3,0],[0]]","1","[[1,3,0],[2,0],[0]]","0","0","","","","","","3","","","","","","","","",""
"","","","","","single-stim-button","26","221945","0.0-2.0-10.1-0.1","5ec6d423fc10270f0bbbc90e","D2","batch4","","1122","tol_tohand","","","","tol_peg_2","1122","1122","0","[[1,2,0],[0,0],[0]]","2","[[1,3,0],[2,0],[0]]","0","0","","","","","","3","","","","","","","","",""
"","","","","","single-stim-button","27","222900","0.0-2.0-10.1-1.1","5ec6d423fc10270f0bbbc90e","D2","batch4","","953","tol_toboard","","","","tol_peg_3","953","953","0","[[1,2,0],[0,0],[3]]","2","[[1,3,0],[2,0],[0]]","0","0","","","","","","3","","","","","","","","",""
"","","","","","single-stim-button","28","223733","0.0-2.0-10.2-0.2","5ec6d423fc10270f0bbbc90e","D2","batch4","","833","tol_tohand","","","","tol_peg_1","833","833","0","[[1,0,0],[0,0],[3]]","3","[[1,3,0],[2,0],[0]]","0","0","","","","","","3","","","","","","","","",""
"","","","","","single-stim-button","29","224344","0.0-2.0-10.2-1.2","5ec6d423fc10270f0bbbc90e","D2","batch4","","609","tol_toboard","","","","tol_peg_2","609","609","0","[[1,0,0],[2,0],[3]]","3","[[1,3,0],[2,0],[0]]","0","0","","","","","","3","","","","","","","","",""
"","","","","","single-stim-button","30","224929","0.0-2.0-10.3-0.3","5ec6d423fc10270f0bbbc90e","D2","batch4","","585","tol_tohand","","","","tol_peg_3","585","585","0","[[1,0,0],[2,0],[0]]","4","[[1,3,0],[2,0],[0]]","0","0","","","","","","3","","","","","","","","",""
"","","","","","single-stim-button","31","225716","0.0-2.0-10.3-1.3","5ec6d423fc10270f0bbbc90e","D2","batch4","","786","tol_toboard","","","","tol_peg_1","786","786","0","[[1,3,0],[2,0],[0]]","4","[[1,3,0],[2,0],[0]]","0","0","","","","","","3","","","","","","","","",""
"","","","","","poldrack-single-stim","32","226720","0.0-2.0-11.0","5ec6d423fc10270f0bbbc90e","D2","batch4","","-1","tol_feedback","","","true","","1000","1000","500","","","","","","-1","none","true","2093","4633","","","","","","","","","",""
"","","","","","html-button-response","33","227681","0.0-2.0-12.0","5ec6d423fc10270f0bbbc90e","D2","batch4","","959.9000000953674","tol_trial_num","<div class = centerbox><p class = center-block-text>problem <strong>2</strong> out of 25 problems</p></div>","0","","","","","","","","","","","","","","","","","","","","","","","","",""
"","","","","","single-stim-button","34","232880","0.0-2.0-13.0-0.0","5ec6d423fc10270f0bbbc90e","D2","batch4","","5198","tol_tohand","","","","tol_peg_1","5198","5198","0","[[1,0,0],[3,0],[0]]","1","[[2,1,3],[0,0],[0]]","1","0","","","","","","5","","","","","","","","",""
"","","","","","single-stim-button","35","234348","0.0-2.0-13.0-1.0","5ec6d423fc10270f0bbbc90e","D2","batch4","","1467","tol_toboard","","","","tol_peg_2","1467","1467","0","[[1,0,0],[3,2],[0]]","1","[[2,1,3],[0,0],[0]]","1","0","","","","","","5","","","","","","","","",""
"","","","","","single-stim-button","36","235407","0.0-2.0-13.1-0.1","5ec6d423fc10270f0bbbc90e","D2","batch4","","1057","tol_tohand","","","","tol_peg_1","1057","1057","0","[[0,0,0],[3,2],[0]]","2","[[2,1,3],[0,0],[0]]","1","0","","","","","","5","","","","","","","","",""
"","","","","","single-stim-button","37","236289","0.0-2.0-13.1-1.1","5ec6d423fc10270f0bbbc90e","D2","batch4","","882","tol_toboard","","","","tol_peg_3","882","882","0","[[0,0,0],[3,2],[1]]","2","[[2,1,3],[0,0],[0]]","1","0","","","","","","5","","","","","","","","",""
"","","","","","single-stim-button","38","237003","0.0-2.0-13.2-0.2","5ec6d423fc10270f0bbbc90e","D2","batch4","","713","tol_tohand","","","","tol_peg_2","713","713","0","[[0,0,0],[3,0],[1]]","3","[[2,1,3],[0,0],[0]]","1","0","","","","","","5","","","","","","","","",""
"","","","","","single-stim-button","39","237862","0.0-2.0-13.2-1.2","5ec6d423fc10270f0bbbc90e","D2","batch4","","858","tol_toboard","","","","tol_peg_1","858","858","0","[[2,0,0],[3,0],[1]]","3","[[2,1,3],[0,0],[0]]","1","0","","","","","","5","","","","","","","","",""
"","","","","","single-stim-button","40","238520","0.0-2.0-13.3-0.3","5ec6d423fc10270f0bbbc90e","D2","batch4","","657","tol_tohand","","","","tol_peg_3","657","657","0","[[2,0,0],[3,0],[0]]","4","[[2,1,3],[0,0],[0]]","1","0","","","","","","5","","","","","","","","",""
"","","","","","single-stim-button","41","239331","0.0-2.0-13.3-1.3","5ec6d423fc10270f0bbbc90e","D2","batch4","","810","tol_toboard","","","","tol_peg_1","810","810","0","[[2,1,0],[3,0],[0]]","4","[[2,1,3],[0,0],[0]]","1","0","","","","","","5","","","","","","","","",""
"","","","","","single-stim-button","42","239883","0.0-2.0-13.4-0.4","5ec6d423fc10270f0bbbc90e","D2","batch4","","552","tol_tohand","","","","tol_peg_2","552","552","0","[[2,1,0],[0,0],[0]]","5","[[2,1,3],[0,0],[0]]","1","0","","","","","","5","","","","","","","","",""
"","","","","","single-stim-button","43","240478","0.0-2.0-13.4-1.4","5ec6d423fc10270f0bbbc90e","D2","batch4","","594","tol_toboard","","","","tol_peg_1","594","594","0","[[2,1,3],[0,0],[0]]","5","[[2,1,3],[0,0],[0]]","1","0","","","","","","5","","","","","","","","",""
"","","","","","poldrack-single-stim","44","241484","0.0-2.0-14.0","5ec6d423fc10270f0bbbc90e","D2","batch4","","-1","tol_feedback","","","true","","1000","1000","500","","","","","","-1","none","true","5198","8177","","","","","","","","","",""
"","","","","","html-button-response","45","242644","0.0-2.0-15.0","5ec6d423fc10270f0bbbc90e","D2","batch4","","1159.0999999046326","tol_trial_num","<div class = centerbox><p class = center-block-text>problem <strong>3</strong> out of 25 problems</p></div>","0","","","","","","","","","","","","","","","","","","","","","","","","",""
"","","","","","single-stim-button","46","245115","0.0-2.0-16.0-0.0","5ec6d423fc10270f0bbbc90e","D2","batch4","","2469","tol_tohand","","","","tol_peg_1","2469","2469","0","[[2,0,0],[0,0],[1]]","1","[[1,2,0],[3,0],[0]]","2","0","","","","","","4","","","","","","","","",""
"","","","","","single-stim-button","47","245886","0.0-2.0-16.0-1.0","5ec6d423fc10270f0bbbc90e","D2","batch4","","771","tol_toboard","","","","tol_peg_2","771","771","0","[[2,0,0],[3,0],[1]]","1","[[1,2,0],[3,0],[0]]","2","0","","","","","","4","","","","","","","","",""
"","","","","","single-stim-button","48","247353","0.0-2.0-16.1-0.1","5ec6d423fc10270f0bbbc90e","D2","batch4","","1465","tol_tohand","","","","tol_peg_1","1465","1465","0","[[0,0,0],[3,0],[1]]","2","[[1,2,0],[3,0],[0]]","2","0","","","","","","4","","","","","","","","",""
"","","","","","single-stim-button","49","248114","0.0-2.0-16.1-1.1","5ec6d423fc10270f0bbbc90e","D2","batch4","","761","tol_toboard","","","","tol_peg_2","761","761","0","[[0,0,0],[3,2],[1]]","2","[[1,2,0],[3,0],[0]]","2","0","","","","","","4","","","","","","","","",""
"","","","","","single-stim-button","50","248812","0.0-2.0-16.2-0.2","5ec6d423fc10270f0bbbc90e","D2","batch4","","697","tol_tohand","","","","tol_peg_3","697","697","0","[[0,0,0],[3,2],[0]]","3","[[1,2,0],[3,0],[0]]","2","0","","","","","","4","","","","","","","","",""
"","","","","","single-stim-button","51","249550","0.0-2.0-16.2-1.2","5ec6d423fc10270f0bbbc90e","D2","batch4","","737","tol_toboard","","","","tol_peg_1","737","737","0","[[1,0,0],[3,2],[0]]","3","[[1,2,0],[3,0],[0]]","2","0","","","","","","4","","","","","","","","",""
"","","","","","single-stim-button","52","250176","0.0-2.0-16.3-0.3","5ec6d423fc10270f0bbbc90e","D2","batch4","","625","tol_tohand","","","","tol_peg_2","625","625","0","[[1,0,0],[3,0],[0]]","4","[[1,2,0],[3,0],[0]]","2","0","","","","","","4","","","","","","","","",""
"","","","","","single-stim-button","53","250730","0.0-2.0-16.3-1.3","5ec6d423fc10270f0bbbc90e","D2","batch4","","554","tol_toboard","","","","tol_peg_1","554","554","0","[[1,2,0],[3,0],[0]]","4","[[1,2,0],[3,0],[0]]","2","0","","","","","","4","","","","","","","","",""
"","","","","","poldrack-single-stim","54","251740","0.0-2.0-17.0","5ec6d423fc10270f0bbbc90e","D2","batch4","","-1","tol_feedback","","","true","","1000","1000","500","","","","","","-1","none","true","2469","5256","","","","","","","","","",""
"","","","","","html-button-response","55","252566","0.0-2.0-18.0","5ec6d423fc10270f0bbbc90e","D2","batch4","","825","tol_trial_num","<div class = centerbox><p class = center-block-text>problem <strong>4</strong> out of 25 problems</p></div>","0","","","","","","","","","","","","","","","","","","","","","","","","",""
"","","","","","single-stim-button","56","254757","0.0-2.0-19.0-0.0","5ec6d423fc10270f0bbbc90e","D2","batch4","","2189","tol_tohand","","","","tol_peg_2","2189","2189","0","[[3,0,0],[2,0],[0]]","1","[[3,0,0],[1,0],[2]]","3","0","","","","","","3","","","","","","","","",""
"","","","","","single-stim-button","57","255879","0.0-2.0-19.0-1.0","5ec6d423fc10270f0bbbc90e","D2","batch4","","1122","tol_toboard","","","","tol_peg_1","1122","1122","0","[[3,1,0],[2,0],[0]]","1","[[3,0,0],[1,0],[2]]","3","0","","","","","","3","","","","","","","","",""
"","","","","","single-stim-button","58","256473","0.0-2.0-19.1-0.1","5ec6d423fc10270f0bbbc90e","D2","batch4","","593","tol_tohand","","","","tol_peg_2","593","593","0","[[3,1,0],[0,0],[0]]","2","[[3,0,0],[1,0],[2]]","3","0","","","","","","3","","","","","","","","",""
"","","","","","single-stim-button","59","257195","0.0-2.0-19.1-1.1","5ec6d423fc10270f0bbbc90e","D2","batch4","","722","tol_toboard","","","","tol_peg_3","722","722","0","[[3,1,0],[0,0],[2]]","2","[[3,0,0],[1,0],[2]]","3","0","","","","","","3","","","","","","","","",""
"","","","","","single-stim-button","60","257748","0.0-2.0-19.2-0.2","5ec6d423fc10270f0bbbc90e","D2","batch4","","552","tol_tohand","","","","tol_peg_1","552","552","0","[[3,0,0],[0,0],[2]]","3","[[3,0,0],[1,0],[2]]","3","0","","","","","","3","","","","","","","","",""
"","","","","","single-stim-button","61","258511","0.0-2.0-19.2-1.2","5ec6d423fc10270f0bbbc90e","D2","batch4","","762","tol_toboard","","","","tol_peg_2","762","762","0","[[3,0,0],[1,0],[2]]","3","[[3,0,0],[1,0],[2]]","3","0","","","","","","3","","","","","","","","",""
"","","","","","poldrack-single-stim","62","259518","0.0-2.0-20.0","5ec6d423fc10270f0bbbc90e","D2","batch4","","-1","tol_feedback","","","true","","1000","1000","500","","","","","","-1","none","true","2189","3334","","","","","","","","","",""
"","","","","","html-button-response","63","261663","0.0-2.0-21.0","5ec6d423fc10270f0bbbc90e","D2","batch4","","2144.2999997138977","tol_trial_num","<div class = centerbox><p class = center-block-text>problem <strong>5</strong> out of 25 problems</p></div>","0","","","","","","","","","","","","","","","","","","","","","","","","",""
"","","","","","single-stim-button","64","264824","0.0-2.0-22.0-0.0","5ec6d423fc10270f0bbbc90e","D2","batch4","","3160","tol_tohand","","","","tol_peg_2","3160","3160","0","[[1,0,0],[0,0],[3]]","1","[[0,0,0],[1,2],[3]]","4","0","","","","","","7","","","","","","","","",""
"","","","","","single-stim-button","65","268145","0.0-2.0-22.0-1.0","5ec6d423fc10270f0bbbc90e","D2","batch4","","3320","tol_toboard","","","","tol_peg_2","3320","3320","0","[[1,0,0],[2,0],[3]]","1","[[0,0,0],[1,2],[3]]","4","0","","","","","","7","","","","","","","","",""
"","","","","","single-stim-button","66","269293","0.0-2.0-22.1-0.1","5ec6d423fc10270f0bbbc90e","D2","batch4","","1146","tol_tohand","","","","tol_peg_3","1146","1146","0","[[1,0,0],[2,0],[0]]","2","[[0,0,0],[1,2],[3]]","4","0","","","","","","7","","","","","","","","",""
"","","","","","single-stim-button","67","270128","0.0-2.0-22.1-1.1","5ec6d423fc10270f0bbbc90e","D2","batch4","","834","tol_toboard","","","","tol_peg_1","834","834","0","[[1,3,0],[2,0],[0]]","2","[[0,0,0],[1,2],[3]]","4","0","","","","","","7","","","","","","","","",""
"","","","","","single-stim-button","68","270833","0.0-2.0-22.2-0.2","5ec6d423fc10270f0bbbc90e","D2","batch4","","705","tol_tohand","","","","tol_peg_2","705","705","0","[[1,3,0],[0,0],[0]]","3","[[0,0,0],[1,2],[3]]","4","0","","","","","","7","","","","","","","","",""
"","","","","","single-stim-button","69","271763","0.0-2.0-22.2-1.2","5ec6d423fc10270f0bbbc90e","D2","batch4","","929","tol_toboard","","","","tol_peg_3","929","929","0","[[1,3,0],[0,0],[2]]","3","[[0,0,0],[1,2],[3]]","4","0","","","","","","7","","","","","","","","",""
"","","","","","single-stim-button","70","273023","0.0-2.0-22.3-0.3","5ec6d423fc10270f0bbbc90e","D2","batch4","","1259","tol_tohand","","","","tol_peg_1","1259","1259","0","[[1,0,0],[0,0],[2]]","4","[[0,0,0],[1,2],[3]]","4","0","","","","","","7","","","","","","","","",""
"","","","","","single-stim-button","71","282454","0.0-2.0-22.3-1.3","5ec6d423fc10270f0bbbc90e","D2","batch4","","9431","tol_toboard","","","","tol_peg_2","9431","9431","0","[[1,0,0],[3,0],[2]]","4","[[0,0,0],[1,2],[3]]","4","0","","","","","","7","","","","","","","","",""
"","","","","","single-stim-button","72","283144","0.0-2.0-22.4-0.4","5ec6d423fc10270f0bbbc90e","D2","batch4","","687","tol_tohand","","","","tol_peg_3","687","687","0","[[1,0,0],[3,0],[0]]","5","[[0,0,0],[1,2],[3]]","4","0","","","","","","7","","","","","","","","",""
"","","","","","single-stim-button","73","284099","0.0-2.0-22.4-1.4","5ec6d423fc10270f0bbbc90e","D2","batch4","","955","tol_toboard","","","","tol_peg_1","955","955","0","[[1,2,0],[3,0],[0]]","5","[[0,0,0],[1,2],[3]]","4","0","","","","","","7","","","","","","","","",""
"","","","","","single-stim-button","74","284965","0.0-2.0-22.5-0.5","5ec6d423fc10270f0bbbc90e","D2","batch4","","865","tol_tohand","","","","tol_peg_2","865","865","0","[[1,2,0],[0,0],[0]]","6","[[0,0,0],[1,2],[3]]","4","0","","","","","","7","","","","","","","","",""
"","","","","","single-stim-button","75","285800","0.0-2.0-22.5-1.5","5ec6d423fc10270f0bbbc90e","D2","batch4","","833","tol_toboard","","","","tol_peg_3","833","833","0","[[1,2,0],[0,0],[3]]","6","[[0,0,0],[1,2],[3]]","4","0","","","","","","7","","","","","","","","",""
"","","","","","single-stim-button","76","287918","0.0-2.0-22.6-0.6","5ec6d423fc10270f0bbbc90e","D2","batch4","","2117","tol_tohand","","","","tol_peg_1","2117","2117","0","[[1,0,0],[0,0],[3]]","7","[[0,0,0],[1,2],[3]]","4","0","","","","","","7","","","","","","","","",""
"","","","","","single-stim-button","77","288631","0.0-2.0-22.6-1.6","5ec6d423fc10270f0bbbc90e","D2","batch4","","713","tol_toboard","","","","tol_peg_2","713","713","0","[[1,0,0],[2,0],[3]]","7","[[0,0,0],[1,2],[3]]","4","0","","","","","","7","","","","","","","","",""
"","","","","","single-stim-button","78","289267","0.0-2.0-22.7-0.7","5ec6d423fc10270f0bbbc90e","D2","batch4","","635","tol_tohand","","","","tol_peg_1","635","635","0","[[0,0,0],[2,0],[3]]","8","[[0,0,0],[1,2],[3]]","4","0","","","","","","7","","","","","","","","",""
"","","","","","single-stim-button","79","289787","0.0-2.0-22.7-1.7","5ec6d423fc10270f0bbbc90e","D2","batch4","","519","tol_toboard","","","","tol_peg_2","519","519","0","[[0,0,0],[2,1],[3]]","8","[[0,0,0],[1,2],[3]]","4","0","","","","","","7","","","","","","","","",""
"","","","","","single-stim-button","80","291961","0.0-2.0-22.8-0.8","5ec6d423fc10270f0bbbc90e","D2","batch4","","2173","tol_tohand","","","","tol_peg_3","2173","2173","0","[[0,0,0],[2,1],[0]]","9","[[0,0,0],[1,2],[3]]","4","0","","","","","","7","","","","","","","","",""
"","","","","","single-stim-button","81","292619","0.0-2.0-22.8-1.8","5ec6d423fc10270f0bbbc90e","D2","batch4","","658","tol_toboard","","","","tol_peg_1","658","658","0","[[3,0,0],[2,1],[0]]","9","[[0,0,0],[1,2],[3]]","4","0","","","","","","7","","","","","","","","",""
"","","","","","single-stim-button","82","293172","0.0-2.0-22.9-0.9","5ec6d423fc10270f0bbbc90e","D2","batch4","","553","tol_tohand","","","","tol_peg_2","553","553","0","[[3,0,0],[2,0],[0]]","10","[[0,0,0],[1,2],[3]]","4","0","","","","","","7","","","","","","","","",""
"","","","","","single-stim-button","83","294071","0.0-2.0-22.9-1.9","5ec6d423fc10270f0bbbc90e","D2","batch4","","897","tol_toboard","","","","tol_peg_3","897","897","0","[[3,0,0],[2,0],[1]]","10","[[0,0,0],[1,2],[3]]","4","0","","","","","","7","","","","","","","","",""
"","","","","","single-stim-button","84","294745","0.0-2.0-22.10-0.10","5ec6d423fc10270f0bbbc90e","D2","batch4","","673","tol_tohand","","","","tol_peg_2","673","673","0","[[3,0,0],[0,0],[1]]","11","[[0,0,0],[1,2],[3]]","4","0","","","","","","7","","","","","","","","",""
"","","","","","single-stim-button","85","295467","0.0-2.0-22.10-1.10","5ec6d423fc10270f0bbbc90e","D2","batch4","","722","tol_toboard","","","","tol_peg_1","722","722","0","[[3,2,0],[0,0],[1]]","11","[[0,0,0],[1,2],[3]]","4","0","","","","","","7","","","","","","","","",""
"","","","","","single-stim-button","86","296502","0.0-2.0-22.11-0.11","5ec6d423fc10270f0bbbc90e","D2","batch4","","1033","tol_tohand","","","","tol_peg_3","1033","1033","0","[[3,2,0],[0,0],[0]]","12","[[0,0,0],[1,2],[3]]","4","0","","","","","","7","","","","","","","","",""
"","","","","","single-stim-button","87","297023","0.0-2.0-22.11-1.11","5ec6d423fc10270f0bbbc90e","D2","batch4","","521","tol_toboard","","","","tol_peg_2","521","521","0","[[3,2,0],[1,0],[0]]","12","[[0,0,0],[1,2],[3]]","4","0","","","","","","7","","","","","","","","",""
"","","","","","single-stim-button","88","297890","0.0-2.0-22.12-0.12","5ec6d423fc10270f0bbbc90e","D2","batch4","","866","tol_tohand","","","","tol_peg_1","866","866","0","[[3,0,0],[1,0],[0]]","13","[[0,0,0],[1,2],[3]]","4","0","","","","","","7","","","","","","","","",""
"","","","","","single-stim-button","89","298427","0.0-2.0-22.12-1.12","5ec6d423fc10270f0bbbc90e","D2","batch4","","535","tol_toboard","","","","tol_peg_2","535","535","0","[[3,0,0],[1,2],[0]]","13","[[0,0,0],[1,2],[3]]","4","0","","","","","","7","","","","","","","","",""
"","","","","","single-stim-button","90","299021","0.0-2.0-22.13-0.13","5ec6d423fc10270f0bbbc90e","D2","batch4","","593","tol_tohand","","","","tol_peg_1","593","593","0","[[0,0,0],[1,2],[0]]","14","[[0,0,0],[1,2],[3]]","4","0","","","","","","7","","","","","","","","",""
"","","","","","single-stim-button","91","299711","0.0-2.0-22.13-1.13","5ec6d423fc10270f0bbbc90e","D2","batch4","","689","tol_toboard","","","","tol_peg_3","689","689","0","[[0,0,0],[1,2],[3]]","14","[[0,0,0],[1,2],[3]]","4","0","","","","","","7","","","","","","","","",""
"","","","","","poldrack-single-stim","92","300721","0.0-2.0-23.0","5ec6d423fc10270f0bbbc90e","D2","batch4","","-1","tol_feedback","","","true","","1000","1000","500","","","","","","-1","none","true","3160","16465","","","","","","","","","",""
"","","","","","html-button-response","93","301540","0.0-2.0-24.0","5ec6d423fc10270f0bbbc90e","D2","batch4","","817.2000002861023","tol_trial_num","<div class = centerbox><p class = center-block-text>problem <strong>6</strong> out of 25 problems</p></div>","0","","","","","","","","","","","","","","","","","","","","","","","","",""
"","","","","","single-stim-button","94","307508","0.0-2.0-25.0-0.0","5ec6d423fc10270f0bbbc90e","D2","batch4","","5968","tol_tohand","","","","tol_peg_3","5968","5968","0","[[0,0,0],[1,2],[0]]","1","[[1,0,0],[2,3],[0]]","5","0","","","","","","6","","","","","","","","",""
"","","","","","single-stim-button","95","309097","0.0-2.0-25.0-1.0","5ec6d423fc10270f0bbbc90e","D2","batch4","","1588","tol_toboard","","","","tol_peg_1","1588","1588","0","[[3,0,0],[1,2],[0]]","1","[[1,0,0],[2,3],[0]]","5","0","","","","","","6","","","","","","","","",""
"","","","","","single-stim-button","96","309738","0.0-2.0-25.1-0.1","5ec6d423fc10270f0bbbc90e","D2","batch4","","640","tol_tohand","","","","tol_peg_2","640","640","0","[[3,0,0],[1,0],[0]]","2","[[1,0,0],[2,3],[0]]","5","0","","","","","","6","","","","","","","","",""
"","","","","","single-stim-button","97","310428","0.0-2.0-25.1-1.1","5ec6d423fc10270f0bbbc90e","D2","batch4","","689","tol_toboard","","","","tol_peg_3","689","689","0","[[3,0,0],[1,0],[2]]","2","[[1,0,0],[2,3],[0]]","5","0","","","","","","6","","","","","","","","",""
"","","","","","single-stim-button","98","314167","0.0-2.0-25.2-0.2","5ec6d423fc10270f0bbbc90e","D2","batch4","","3737","tol_tohand","","","","tol_peg_3","3737","3737","0","[[3,0,0],[1,0],[0]]","3","[[1,0,0],[2,3],[0]]","5","0","","","","","","6","","","","","","","","",""
"","","","","","single-stim-button","99","314929","0.0-2.0-25.2-1.2","5ec6d423fc10270f0bbbc90e","D2","batch4","","760","tol_toboard","","","","tol_peg_1","760","760","0","[[3,2,0],[1,0],[0]]","3","[[1,0,0],[2,3],[0]]","5","0","","","","","","6","","","","","","","","",""
"","","","","","single-stim-button","100","315401","0.0-2.0-25.3-0.3","5ec6d423fc10270f0bbbc90e","D2","batch4","","472","tol_tohand","","","","tol_peg_2","472","472","0","[[3,2,0],[0,0],[0]]","4","[[1,0,0],[2,3],[0]]","5","0","","","","","","6","","","","","","","","",""
"","","","","","single-stim-button","101","316188","0.0-2.0-25.3-1.3","5ec6d423fc10270f0bbbc90e","D2","batch4","","786","tol_toboard","","","","tol_peg_3","786","786","0","[[3,2,0],[0,0],[1]]","4","[[1,0,0],[2,3],[0]]","5","0","","","","","","6","","","","","","","","",""
"","","","","","single-stim-button","102","317103","0.0-2.0-25.4-0.4","5ec6d423fc10270f0bbbc90e","D2","batch4","","914","tol_tohand","","","","tol_peg_1","914","914","0","[[3,0,0],[0,0],[1]]","5","[[1,0,0],[2,3],[0]]","5","0","","","","","","6","","","","","","","","",""
"","","","","","single-stim-button","103","317640","0.0-2.0-25.4-1.4","5ec6d423fc10270f0bbbc90e","D2","batch4","","536","tol_toboard","","","","tol_peg_2","536","536","0","[[3,0,0],[2,0],[1]]","5","[[1,0,0],[2,3],[0]]","5","0","","","","","","6","","","","","","","","",""
"","","","","","single-stim-button","104","318121","0.0-2.0-25.5-0.5","5ec6d423fc10270f0bbbc90e","D2","batch4","","480","tol_tohand","","","","tol_peg_1","480","480","0","[[0,0,0],[2,0],[1]]","6","[[1,0,0],[2,3],[0]]","5","0","","","","","","6","","","","","","","","",""
"","","","","","single-stim-button","105","318827","0.0-2.0-25.5-1.5","5ec6d423fc10270f0bbbc90e","D2","batch4","","705","tol_toboard","","","","tol_peg_2","705","705","0","[[0,0,0],[2,3],[1]]","6","[[1,0,0],[2,3],[0]]","5","0","","","","","","6","","","","","","","","",""
"","","","","","single-stim-button","106","319478","0.0-2.0-25.6-0.6","5ec6d423fc10270f0bbbc90e","D2","batch4","","649","tol_tohand","","","","tol_peg_3","649","649","0","[[0,0,0],[2,3],[0]]","7","[[1,0,0],[2,3],[0]]","5","0","","","","","","6","","","","","","","","",""
"","","","","","single-stim-button","107","320167","0.0-2.0-25.6-1.6","5ec6d423fc10270f0bbbc90e","D2","batch4","","689","tol_toboard","","","","tol_peg_1","689","689","0","[[1,0,0],[2,3],[0]]","7","[[1,0,0],[2,3],[0]]","5","0","","","","","","6","","","","","","","","",""
"","","","","","poldrack-single-stim","108","321177","0.0-2.0-26.0","5ec6d423fc10270f0bbbc90e","D2","batch4","","-1","tol_feedback","","","true","","1000","1000","500","","","","","","-1","none","true","5968","12860","","","","","","","","","",""
"","","","","","html-button-response","109","322974","0.0-2.0-27.0","5ec6d423fc10270f0bbbc90e","D2","batch4","","1796","tol_trial_num","<div class = centerbox><p class = center-block-text>problem <strong>7</strong> out of 25 problems</p></div>","0","","","","","","","","","","","","","","","","","","","","","","","","",""
"","","","","","single-stim-button","110","328494","0.0-2.0-28.0-0.0","5ec6d423fc10270f0bbbc90e","D2","batch4","","5519","tol_tohand","","","","tol_peg_3","5519","5519","0","[[2,1,0],[0,0],[0]]","1","[[1,2,0],[3,0],[0]]","6","0","","","","","","5","","","","","","","","",""
"","","","","","single-stim-button","111","329256","0.0-2.0-28.0-1.0","5ec6d423fc10270f0bbbc90e","D2","batch4","","761","tol_toboard","","","","tol_peg_2","761","761","0","[[2,1,0],[3,0],[0]]","1","[[1,2,0],[3,0],[0]]","6","0","","","","","","5","","","","","","","","",""
"","","","","","single-stim-button","112","330075","0.0-2.0-28.1-0.1","5ec6d423fc10270f0bbbc90e","D2","batch4","","818","tol_tohand","","","","tol_peg_1","818","818","0","[[2,0,0],[3,0],[0]]","2","[[1,2,0],[3,0],[0]]","6","0","","","","","","5","","","","","","","","",""
"","","","","","single-stim-button","113","330604","0.0-2.0-28.1-1.1","5ec6d423fc10270f0bbbc90e","D2","batch4","","528","tol_toboard","","","","tol_peg_2","528","528","0","[[2,0,0],[3,1],[0]]","2","[[1,2,0],[3,0],[0]]","6","0","","","","","","5","","","","","","","","",""
"","","","","","single-stim-button","114","331286","0.0-2.0-28.2-0.2","5ec6d423fc10270f0bbbc90e","D2","batch4","","680","tol_tohand","","","","tol_peg_1","680","680","0","[[0,0,0],[3,1],[0]]","3","[[1,2,0],[3,0],[0]]","6","0","","","","","","5","","","","","","","","",""
"","","","","","single-stim-button","115","332015","0.0-2.0-28.2-1.2","5ec6d423fc10270f0bbbc90e","D2","batch4","","728","tol_toboard","","","","tol_peg_3","728","728","0","[[0,0,0],[3,1],[2]]","3","[[1,2,0],[3,0],[0]]","6","0","","","","","","5","","","","","","","","",""
"","","","","","single-stim-button","116","332626","0.0-2.0-28.3-0.3","5ec6d423fc10270f0bbbc90e","D2","batch4","","610","tol_tohand","","","","tol_peg_2","610","610","0","[[0,0,0],[3,0],[2]]","4","[[1,2,0],[3,0],[0]]","6","0","","","","","","5","","","","","","","","",""
"","","","","","single-stim-button","117","333429","0.0-2.0-28.3-1.3","5ec6d423fc10270f0bbbc90e","D2","batch4","","802","tol_toboard","","","","tol_peg_1","802","802","0","[[1,0,0],[3,0],[2]]","4","[[1,2,0],[3,0],[0]]","6","0","","","","","","5","","","","","","","","",""
"","","","","","single-stim-button","118","334343","0.0-2.0-28.4-0.4","5ec6d423fc10270f0bbbc90e","D2","batch4","","913","tol_tohand","","","","tol_peg_3","913","913","0","[[1,0,0],[3,0],[0]]","5","[[1,2,0],[3,0],[0]]","6","0","","","","","","5","","","","","","","","",""
"","","","","","single-stim-button","119","335089","0.0-2.0-28.4-1.4","5ec6d423fc10270f0bbbc90e","D2","batch4","","746","tol_toboard","","","","tol_peg_1","746","746","0","[[1,2,0],[3,0],[0]]","5","[[1,2,0],[3,0],[0]]","6","0","","","","","","5","","","","","","","","",""
"","","","","","poldrack-single-stim","120","336098","0.0-2.0-29.0","5ec6d423fc10270f0bbbc90e","D2","batch4","","-1","tol_feedback","","","true","","1000","1000","500","","","","","","-1","none","true","5519","8540","","","","","","","","","",""
"","","","","","html-button-response","121","337062","0.0-2.0-30.0","5ec6d423fc10270f0bbbc90e","D2","batch4","","963.1999998092651","tol_trial_num","<div class = centerbox><p class = center-block-text>problem <strong>8</strong> out of 25 problems</p></div>","0","","","","","","","","","","","","","","","","","","","","","","","","",""
"","","","","","single-stim-button","122","339942","0.0-2.0-31.0-0.0","5ec6d423fc10270f0bbbc90e","D2","batch4","","2879","tol_tohand","","","","tol_peg_3","2879","2879","0","[[0,0,0],[2,3],[0]]","1","[[1,2,0],[3,0],[0]]","7","0","","","","","","4","","","","","","","","",""
"","","","","","single-stim-button","123","340688","0.0-2.0-31.0-1.0","5ec6d423fc10270f0bbbc90e","D2","batch4","","746","tol_toboard","","","","tol_peg_1","746","746","0","[[1,0,0],[2,3],[0]]","1","[[1,2,0],[3,0],[0]]","7","0","","","","","","4","","","","","","","","",""
"","","","","","single-stim-button","124","341298","0.0-2.0-31.1-0.1","5ec6d423fc10270f0bbbc90e","D2","batch4","","608","tol_tohand","","","","tol_peg_2","608","608","0","[[1,0,0],[2,0],[0]]","2","[[1,2,0],[3,0],[0]]","7","0","","","","","","4","","","","","","","","",""
"","","","","","single-stim-button","125","342052","0.0-2.0-31.1-1.1","5ec6d423fc10270f0bbbc90e","D2","batch4","","754","tol_toboard","","","","tol_peg_3","754","754","0","[[1,0,0],[2,0],[3]]","2","[[1,2,0],[3,0],[0]]","7","0","","","","","","4","","","","","","","","",""
"","","","","","single-stim-button","126","342646","0.0-2.0-31.2-0.2","5ec6d423fc10270f0bbbc90e","D2","batch4","","593","tol_tohand","","","","tol_peg_2","593","593","0","[[1,0,0],[0,0],[3]]","3","[[1,2,0],[3,0],[0]]","7","0","","","","","","4","","","","","","","","",""
"","","","","","single-stim-button","127","343409","0.0-2.0-31.2-1.2","5ec6d423fc10270f0bbbc90e","D2","batch4","","761","tol_toboard","","","","tol_peg_1","761","761","0","[[1,2,0],[0,0],[3]]","3","[[1,2,0],[3,0],[0]]","7","0","","","","","","4","","","","","","","","",""
"","","","","","single-stim-button","128","344162","0.0-2.0-31.3-0.3","5ec6d423fc10270f0bbbc90e","D2","batch4","","753","tol_tohand","","","","tol_peg_3","753","753","0","[[1,2,0],[0,0],[0]]","4","[[1,2,0],[3,0],[0]]","7","0","","","","","","4","","","","","","","","",""
"","","","","","single-stim-button","129","344700","0.0-2.0-31.3-1.3","5ec6d423fc10270f0bbbc90e","D2","batch4","","536","tol_toboard","","","","tol_peg_2","536","536","0","[[1,2,0],[3,0],[0]]","4","[[1,2,0],[3,0],[0]]","7","0","","","","","","4","","","","","","","","",""
"","","","","","poldrack-single-stim","130","345701","0.0-2.0-32.0","5ec6d423fc10270f0bbbc90e","D2","batch4","","-1","tol_feedback","","","true","","1000","1000","500","","","","","","-1","none","true","2879","4833","","","","","","","","","",""
"","","","","","html-button-response","131","346544","0.0-2.0-33.0","5ec6d423fc10270f0bbbc90e","D2","batch4","","841.6999998092651","tol_trial_num","<div class = centerbox><p class = center-block-text>problem <strong>9</strong> out of 25 problems</p></div>","0","","","","","","","","","","","","","","","","","","","","","","","","",""
"","","","","","single-stim-button","132","353902","0.0-2.0-34.0-0.0","5ec6d423fc10270f0bbbc90e","D2","batch4","","7356","tol_tohand","","","","tol_peg_3","7356","7356","0","[[3,2,0],[0,0],[0]]","1","[[2,1,0],[3,0],[0]]","8","0","","","","","","6","","","","","","","","",""
"","","","","","single-stim-button","133","356139","0.0-2.0-34.0-1.0","5ec6d423fc10270f0bbbc90e","D2","batch4","","2237","tol_toboard","","","","tol_peg_2","2237","2237","0","[[3,2,0],[1,0],[0]]","1","[[2,1,0],[3,0],[0]]","8","0","","","","","","6","","","","","","","","",""
"","","","","","single-stim-button","134","356846","0.0-2.0-34.1-0.1","5ec6d423fc10270f0bbbc90e","D2","batch4","","705","tol_tohand","","","","tol_peg_1","705","705","0","[[3,0,0],[1,0],[0]]","2","[[2,1,0],[3,0],[0]]","8","0","","","","","","6","","","","","","","","",""
"","","","","","single-stim-button","135","357800","0.0-2.0-34.1-1.1","5ec6d423fc10270f0bbbc90e","D2","batch4","","954","tol_toboard","","","","tol_peg_2","954","954","0","[[3,0,0],[1,2],[0]]","2","[[2,1,0],[3,0],[0]]","8","0","","","","","","6","","","","","","","","",""
"","","","","","single-stim-button","136","358474","0.0-2.0-34.2-0.2","5ec6d423fc10270f0bbbc90e","D2","batch4","","673","tol_tohand","","","","tol_peg_1","673","673","0","[[0,0,0],[1,2],[0]]","3","[[2,1,0],[3,0],[0]]","8","0","","","","","","6","","","","","","","","",""
"","","","","","single-stim-button","137","359477","0.0-2.0-34.2-1.2","5ec6d423fc10270f0bbbc90e","D2","batch4","","1002","tol_toboard","","","","tol_peg_3","1002","1002","0","[[0,0,0],[1,2],[3]]","3","[[2,1,0],[3,0],[0]]","8","0","","","","","","6","","","","","","","","",""
"","","","","","single-stim-button","138","360110","0.0-2.0-34.3-0.3","5ec6d423fc10270f0bbbc90e","D2","batch4","","632","tol_tohand","","","","tol_peg_2","632","632","0","[[0,0,0],[1,0],[3]]","4","[[2,1,0],[3,0],[0]]","8","0","","","","","","6","","","","","","","","",""
"","","","","","single-stim-button","139","360769","0.0-2.0-34.3-1.3","5ec6d423fc10270f0bbbc90e","D2","batch4","","657","tol_toboard","","","","tol_peg_1","657","657","0","[[2,0,0],[1,0],[3]]","4","[[2,1,0],[3,0],[0]]","8","0","","","","","","6","","","","","","","","",""
"","","","","","single-stim-button","140","361458","0.0-2.0-34.4-0.4","5ec6d423fc10270f0bbbc90e","D2","batch4","","688","tol_tohand","","","","tol_peg_2","688","688","0","[[2,0,0],[0,0],[3]]","5","[[2,1,0],[3,0],[0]]","8","0","","","","","","6","","","","","","","","",""
"","","","","","single-stim-button","141","362028","0.0-2.0-34.4-1.4","5ec6d423fc10270f0bbbc90e","D2","batch4","","570","tol_toboard","","","","tol_peg_1","570","570","0","[[2,1,0],[0,0],[3]]","5","[[2,1,0],[3,0],[0]]","8","0","","","","","","6","","","","","","","","",""
"","","","","","single-stim-button","142","363880","0.0-2.0-34.5-0.5","5ec6d423fc10270f0bbbc90e","D2","batch4","","1851","tol_tohand","","","","tol_peg_3","1851","1851","0","[[2,1,0],[0,0],[0]]","6","[[2,1,0],[3,0],[0]]","8","0","","","","","","6","","","","","","","","",""
"","","","","","single-stim-button","143","364523","0.0-2.0-34.5-1.5","5ec6d423fc10270f0bbbc90e","D2","batch4","","641","tol_toboard","","","","tol_peg_2","641","641","0","[[2,1,0],[3,0],[0]]","6","[[2,1,0],[3,0],[0]]","8","0","","","","","","6","","","","","","","","",""
"","","","","","poldrack-single-stim","144","365530","0.0-2.0-35.0","5ec6d423fc10270f0bbbc90e","D2","batch4","","-1","tol_feedback","","","true","","1000","1000","500","","","","","","-1","none","true","7356","11905","","","","","","","","","",""
"","","","","","html-button-response","145","374250","0.0-2.0-36.0","5ec6d423fc10270f0bbbc90e","D2","batch4","","8718.60000038147","tol_trial_num","<div class = centerbox><p class = center-block-text>problem <strong>10</strong> out of 25 problems</p></div>","0","","","","","","","","","","","","","","","","","","","","","","","","",""
"","","","","","single-stim-button","146","377203","0.0-2.0-37.0-0.0","5ec6d423fc10270f0bbbc90e","D2","batch4","","2952","tol_tohand","","","","tol_peg_2","2952","2952","0","[[3,0,0],[0,0],[2]]","1","[[3,0,0],[2,1],[0]]","9","0","","","","","","3","","","","","","","","",""
"","","","","","single-stim-button","147","377998","0.0-2.0-37.0-1.0","5ec6d423fc10270f0bbbc90e","D2","batch4","","793","tol_toboard","","","","tol_peg_1","793","793","0","[[3,1,0],[0,0],[2]]","1","[[3,0,0],[2,1],[0]]","9","0","","","","","","3","","","","","","","","",""
"","","","","","single-stim-button","148","378567","0.0-2.0-37.1-0.1","5ec6d423fc10270f0bbbc90e","D2","batch4","","568","tol_tohand","","","","tol_peg_3","568","568","0","[[3,1,0],[0,0],[0]]","2","[[3,0,0],[2,1],[0]]","9","0","","","","","","3","","","","","","","","",""
"","","","","","single-stim-button","149","379080","0.0-2.0-37.1-1.1","5ec6d423fc10270f0bbbc90e","D2","batch4","","513","tol_toboard","","","","tol_peg_2","513","513","0","[[3,1,0],[2,0],[0]]","2","[[3,0,0],[2,1],[0]]","9","0","","","","","","3","","","","","","","","",""
"","","","","","single-stim-button","150","379697","0.0-2.0-37.2-0.2","5ec6d423fc10270f0bbbc90e","D2","batch4","","615","tol_tohand","","","","tol_peg_1","615","615","0","[[3,0,0],[2,0],[0]]","3","[[3,0,0],[2,1],[0]]","9","0","","","","","","3","","","","","","","","",""
"","","","","","single-stim-button","151","380187","0.0-2.0-37.2-1.2","5ec6d423fc10270f0bbbc90e","D2","batch4","","490","tol_toboard","","","","tol_peg_2","490","490","0","[[3,0,0],[2,1],[0]]","3","[[3,0,0],[2,1],[0]]","9","0","","","","","","3","","","","","","","","",""
"","","","","","poldrack-single-stim","152","381190","0.0-2.0-38.0","5ec6d423fc10270f0bbbc90e","D2","batch4","","-1","tol_feedback","","","true","","1000","1000","500","","","","","","-1","none","true","2952","4135","","","","","","","","","",""
"","","","","","html-button-response","153","381896","0.0-2.0-39.0","5ec6d423fc10270f0bbbc90e","D2","batch4","","704.6999998092651","tol_trial_num","<div class = centerbox><p class = center-block-text>problem <strong>11</strong> out of 25 problems</p></div>","0","","","","","","","","","","","","","","","","","","","","","","","","",""
"","","","","","single-stim-button","154","388531","0.0-2.0-40.0-0.0","5ec6d423fc10270f0bbbc90e","D2","batch4","","6635","tol_tohand","","","","tol_peg_2","6635","6635","0","[[1,2,0],[0,0],[0]]","1","[[2,0,0],[1,3],[0]]","10","0","","","","","","6","","","","","","","","",""
"","","","","","single-stim-button","155","396602","0.0-2.0-40.0-1.0","5ec6d423fc10270f0bbbc90e","D2","batch4","","8070","tol_toboard","","","","tol_peg_2","8070","8070","0","[[1,2,0],[3,0],[0]]","1","[[2,0,0],[1,3],[0]]","10","0","","","","","","6","","","","","","","","",""
"","","","","","single-stim-button","156","397308","0.0-2.0-40.1-0.1","5ec6d423fc10270f0bbbc90e","D2","batch4","","705","tol_tohand","","","","tol_peg_1","705","705","0","[[1,0,0],[3,0],[0]]","2","[[2,0,0],[1,3],[0]]","10","0","","","","","","6","","","","","","","","",""
"","","","","","single-stim-button","157","397825","0.0-2.0-40.1-1.1","5ec6d423fc10270f0bbbc90e","D2","batch4","","515","tol_toboard","","","","tol_peg_2","515","515","0","[[1,0,0],[3,2],[0]]","2","[[2,0,0],[1,3],[0]]","10","0","","","","","","6","","","","","","","","",""
"","","","","","single-stim-button","158","398608","0.0-2.0-40.2-0.2","5ec6d423fc10270f0bbbc90e","D2","batch4","","782","tol_tohand","","","","tol_peg_1","782","782","0","[[0,0,0],[3,2],[0]]","3","[[2,0,0],[1,3],[0]]","10","0","","","","","","6","","","","","","","","",""
"","","","","","single-stim-button","159","399418","0.0-2.0-40.2-1.2","5ec6d423fc10270f0bbbc90e","D2","batch4","","809","tol_toboard","","","","tol_peg_3","809","809","0","[[0,0,0],[3,2],[1]]","3","[[2,0,0],[1,3],[0]]","10","0","","","","","","6","","","","","","","","",""
"","","","","","single-stim-button","160","400284","0.0-2.0-40.3-0.3","5ec6d423fc10270f0bbbc90e","D2","batch4","","866","tol_tohand","","","","tol_peg_2","866","866","0","[[0,0,0],[3,0],[1]]","4","[[2,0,0],[1,3],[0]]","10","0","","","","","","6","","","","","","","","",""
"","","","","","single-stim-button","161","401070","0.0-2.0-40.3-1.3","5ec6d423fc10270f0bbbc90e","D2","batch4","","786","tol_toboard","","","","tol_peg_1","786","786","0","[[2,0,0],[3,0],[1]]","4","[[2,0,0],[1,3],[0]]","10","0","","","","","","6","","","","","","","","",""
"","","","","","single-stim-button","162","401800","0.0-2.0-40.4-0.4","5ec6d423fc10270f0bbbc90e","D2","batch4","","729","tol_tohand","","","","tol_peg_2","729","729","0","[[2,0,0],[0,0],[1]]","5","[[2,0,0],[1,3],[0]]","10","0","","","","","","6","","","","","","","","",""
"","","","","","single-stim-button","163","402450","0.0-2.0-40.4-1.4","5ec6d423fc10270f0bbbc90e","D2","batch4","","649","tol_toboard","","","","tol_peg_1","649","649","0","[[2,3,0],[0,0],[1]]","5","[[2,0,0],[1,3],[0]]","10","0","","","","","","6","","","","","","","","",""
"","","","","","single-stim-button","164","403020","0.0-2.0-40.5-0.5","5ec6d423fc10270f0bbbc90e","D2","batch4","","568","tol_tohand","","","","tol_peg_3","568","568","0","[[2,3,0],[0,0],[0]]","6","[[2,0,0],[1,3],[0]]","10","0","","","","","","6","","","","","","","","",""
"","","","","","single-stim-button","165","403461","0.0-2.0-40.5-1.5","5ec6d423fc10270f0bbbc90e","D2","batch4","","440","tol_toboard","","","","tol_peg_2","440","440","0","[[2,3,0],[1,0],[0]]","6","[[2,0,0],[1,3],[0]]","10","0","","","","","","6","","","","","","","","",""
"","","","","","single-stim-button","166","404231","0.0-2.0-40.6-0.6","5ec6d423fc10270f0bbbc90e","D2","batch4","","770","tol_tohand","","","","tol_peg_1","770","770","0","[[2,0,0],[1,0],[0]]","7","[[2,0,0],[1,3],[0]]","10","0","","","","","","6","","","","","","","","",""
"","","","","","single-stim-button","167","405057","0.0-2.0-40.6-1.6","5ec6d423fc10270f0bbbc90e","D2","batch4","","825","tol_toboard","","","","tol_peg_2","825","825","0","[[2,0,0],[1,3],[0]]","7","[[2,0,0],[1,3],[0]]","10","0","","","","","","6","","","","","","","","",""
"","","","","","poldrack-single-stim","168","406063","0.0-2.0-41.0","5ec6d423fc10270f0bbbc90e","D2","batch4","","-1","tol_feedback","","","true","","1000","1000","500","","","","","","-1","none","true","6635","11055","","","","","","","","","",""
"","","","","","html-button-response","169","425557","0.0-2.0-42.0","5ec6d423fc10270f0bbbc90e","D2","batch4","","19492.39999961853","tol_trial_num","<div class = centerbox><p class = center-block-text>problem <strong>12</strong> out of 25 problems</p></div>","0","","","","","","","","","","","","","","","","","","","","","","","","",""
"","","","","","single-stim-button","170","429441","0.0-2.0-43.0-0.0","5ec6d423fc10270f0bbbc90e","D2","batch4","","3883","tol_tohand","","","","tol_peg_1","3883","3883","0","[[1,0,0],[3,0],[0]]","1","[[2,3,0],[0,0],[1]]","11","0","","","","","","4","","","","","","","","",""
"","","","","","single-stim-button","171","434864","0.0-2.0-43.0-1.0","5ec6d423fc10270f0bbbc90e","D2","batch4","","5421","tol_toboard","","","","tol_peg_3","5421","5421","0","[[1,0,0],[3,0],[2]]","1","[[2,3,0],[0,0],[1]]","11","0","","","","","","4","","","","","","","","",""
"","","","","","single-stim-button","172","435482","0.0-2.0-43.1-0.1","5ec6d423fc10270f0bbbc90e","D2","batch4","","616","tol_tohand","","","","tol_peg_1","616","616","0","[[0,0,0],[3,0],[2]]","2","[[2,3,0],[0,0],[1]]","11","0","","","","","","4","","","","","","","","",""
"","","","","","single-stim-button","173","435995","0.0-2.0-43.1-1.1","5ec6d423fc10270f0bbbc90e","D2","batch4","","513","tol_toboard","","","","tol_peg_2","513","513","0","[[0,0,0],[3,1],[2]]","2","[[2,3,0],[0,0],[1]]","11","0","","","","","","4","","","","","","","","",""
"","","","","","single-stim-button","174","436541","0.0-2.0-43.2-0.2","5ec6d423fc10270f0bbbc90e","D2","batch4","","544","tol_tohand","","","","tol_peg_3","544","544","0","[[0,0,0],[3,1],[0]]","3","[[2,3,0],[0,0],[1]]","11","0","","","","","","4","","","","","","","","",""
"","","","","","single-stim-button","175","437399","0.0-2.0-43.2-1.2","5ec6d423fc10270f0bbbc90e","D2","batch4","","858","tol_toboard","","","","tol_peg_1","858","858","0","[[2,0,0],[3,1],[0]]","3","[[2,3,0],[0,0],[1]]","11","0","","","","","","4","","","","","","","","",""
"","","","","","single-stim-button","176","438137","0.0-2.0-43.3-0.3","5ec6d423fc10270f0bbbc90e","D2","batch4","","737","tol_tohand","","","","tol_peg_2","737","737","0","[[2,0,0],[3,0],[0]]","4","[[2,3,0],[0,0],[1]]","11","0","","","","","","4","","","","","","","","",""
"","","","","","single-stim-button","177","438747","0.0-2.0-43.3-1.3","5ec6d423fc10270f0bbbc90e","D2","batch4","","608","tol_toboard","","","","tol_peg_3","608","608","0","[[2,0,0],[3,0],[1]]","4","[[2,3,0],[0,0],[1]]","11","0","","","","","","4","","","","","","","","",""
"","","","","","single-stim-button","178","439292","0.0-2.0-43.4-0.4","5ec6d423fc10270f0bbbc90e","D2","batch4","","545","tol_tohand","","","","tol_peg_2","545","545","0","[[2,0,0],[0,0],[1]]","5","[[2,3,0],[0,0],[1]]","11","0","","","","","","4","","","","","","","","",""
"","","","","","single-stim-button","179","440071","0.0-2.0-43.4-1.4","5ec6d423fc10270f0bbbc90e","D2","batch4","","777","tol_toboard","","","","tol_peg_1","777","777","0","[[2,3,0],[0,0],[1]]","5","[[2,3,0],[0,0],[1]]","11","0","","","","","","4","","","","","","","","",""
"","","","","","poldrack-single-stim","180","441084","0.0-2.0-44.0","5ec6d423fc10270f0bbbc90e","D2","batch4","","-1","tol_feedback","","","true","","1000","1000","500","","","","","","-1","none","true","3883","6325","","","","","","","","","",""
"","","","","","html-button-response","181","442173","0.0-2.0-45.0","5ec6d423fc10270f0bbbc90e","D2","batch4","","1087.7000002861023","tol_trial_num","<div class = centerbox><p class = center-block-text>problem <strong>13</strong> out of 25 problems</p></div>","0","","","","","","","","","","","","","","","","","","","","","","","","",""
"","","","","","single-stim-button","182","444627","0.0-2.0-46.0-0.0","5ec6d423fc10270f0bbbc90e","D2","batch4","","2454","tol_tohand","","","","tol_peg_1","2454","2454","0","[[1,0,0],[3,0],[0]]","1","[[0,0,0],[2,3],[1]]","12","0","","","","","","4","","","","","","","","",""
"","","","","","single-stim-button","183","445710","0.0-2.0-46.0-1.0","5ec6d423fc10270f0bbbc90e","D2","batch4","","1082","tol_toboard","","","","tol_peg_2","1082","1082","0","[[1,0,0],[3,2],[0]]","1","[[0,0,0],[2,3],[1]]","12","0","","","","","","4","","","","","","","","",""
"","","","","","single-stim-button","184","446328","0.0-2.0-46.1-0.1","5ec6d423fc10270f0bbbc90e","D2","batch4","","617","tol_tohand","","","","tol_peg_1","617","617","0","[[0,0,0],[3,2],[0]]","2","[[0,0,0],[2,3],[1]]","12","0","","","","","","4","","","","","","","","",""
"","","","","","single-stim-button","185","447026","0.0-2.0-46.1-1.1","5ec6d423fc10270f0bbbc90e","D2","batch4","","697","tol_toboard","","","","tol_peg_3","697","697","0","[[0,0,0],[3,2],[1]]","2","[[0,0,0],[2,3],[1]]","12","0","","","","","","4","","","","","","","","",""
"","","","","","single-stim-button","186","447973","0.0-2.0-46.2-0.2","5ec6d423fc10270f0bbbc90e","D2","batch4","","945","tol_tohand","","","","tol_peg_2","945","945","0","[[0,0,0],[3,0],[1]]","3","[[0,0,0],[2,3],[1]]","12","0","","","","","","4","","","","","","","","",""
"","","","","","single-stim-button","187","449360","0.0-2.0-46.2-1.2","5ec6d423fc10270f0bbbc90e","D2","batch4","","1387","tol_toboard","","","","tol_peg_1","1387","1387","0","[[2,0,0],[3,0],[1]]","3","[[0,0,0],[2,3],[1]]","12","0","","","","","","4","","","","","","","","",""
"","","","","","single-stim-button","188","452312","0.0-2.0-46.3-0.3","5ec6d423fc10270f0bbbc90e","D2","batch4","","2951","tol_tohand","","","","tol_peg_3","2951","2951","0","[[2,0,0],[3,0],[0]]","4","[[0,0,0],[2,3],[1]]","12","0","","","","","","4","","","","","","","","",""
"","","","","","single-stim-button","189","455385","0.0-2.0-46.3-1.3","5ec6d423fc10270f0bbbc90e","D2","batch4","","3072","tol_toboard","","","","tol_peg_1","3072","3072","0","[[2,1,0],[3,0],[0]]","4","[[0,0,0],[2,3],[1]]","12","0","","","","","","4","","","","","","","","",""
"","","","","","single-stim-button","190","457840","0.0-2.0-46.4-0.4","5ec6d423fc10270f0bbbc90e","D2","batch4","","2453","tol_tohand","","","","tol_peg_2","2453","2453","0","[[2,1,0],[0,0],[0]]","5","[[0,0,0],[2,3],[1]]","12","0","","","","","","4","","","","","","","","",""
"","","","","","single-stim-button","191","459043","0.0-2.0-46.4-1.4","5ec6d423fc10270f0bbbc90e","D2","batch4","","1202","tol_toboard","","","","tol_peg_3","1202","1202","0","[[2,1,0],[0,0],[3]]","5","[[0,0,0],[2,3],[1]]","12","0","","","","","","4","","","","","","","","",""
"","","","","","single-stim-button","192","460118","0.0-2.0-46.5-0.5","5ec6d423fc10270f0bbbc90e","D2","batch4","","1074","tol_tohand","","","","tol_peg_1","1074","1074","0","[[2,0,0],[0,0],[3]]","6","[[0,0,0],[2,3],[1]]","12","0","","","","","","4","","","","","","","","",""
"","","","","","single-stim-button","193","461402","0.0-2.0-46.5-1.5","5ec6d423fc10270f0bbbc90e","D2","batch4","","1282","tol_toboard","","","","tol_peg_2","1282","1282","0","[[2,0,0],[1,0],[3]]","6","[[0,0,0],[2,3],[1]]","12","0","","","","","","4","","","","","","","","",""
"","","","","","single-stim-button","194","462019","0.0-2.0-46.6-0.6","5ec6d423fc10270f0bbbc90e","D2","batch4","","617","tol_tohand","","","","tol_peg_3","617","617","0","[[2,0,0],[1,0],[0]]","7","[[0,0,0],[2,3],[1]]","12","0","","","","","","4","","","","","","","","",""
"","","","","","single-stim-button","195","462742","0.0-2.0-46.6-1.6","5ec6d423fc10270f0bbbc90e","D2","batch4","","721","tol_toboard","","","","tol_peg_1","721","721","0","[[2,3,0],[1,0],[0]]","7","[[0,0,0],[2,3],[1]]","12","0","","","","","","4","","","","","","","","",""
"","","","","","single-stim-button","196","463303","0.0-2.0-46.7-0.7","5ec6d423fc10270f0bbbc90e","D2","batch4","","561","tol_tohand","","","","tol_peg_2","561","561","0","[[2,3,0],[0,0],[0]]","8","[[0,0,0],[2,3],[1]]","12","0","","","","","","4","","","","","","","","",""
"","","","","","single-stim-button","197","464201","0.0-2.0-46.7-1.7","5ec6d423fc10270f0bbbc90e","D2","batch4","","897","tol_toboard","","","","tol_peg_3","897","897","0","[[2,3,0],[0,0],[1]]","8","[[0,0,0],[2,3],[1]]","12","0","","","","","","4","","","","","","","","",""
"","","","","","single-stim-button","198","465178","0.0-2.0-46.8-0.8","5ec6d423fc10270f0bbbc90e","D2","batch4","","976","tol_tohand","","","","tol_peg_1","976","976","0","[[2,0,0],[0,0],[1]]","9","[[0,0,0],[2,3],[1]]","12","0","","","","","","4","","","","","","","","",""
"","","","","","single-stim-button","199","465686","0.0-2.0-46.8-1.8","5ec6d423fc10270f0bbbc90e","D2","batch4","","506","tol_toboard","","","","tol_peg_2","506","506","0","[[2,0,0],[3,0],[1]]","9","[[0,0,0],[2,3],[1]]","12","0","","","","","","4","","","","","","","","",""
"","","","","","single-stim-button","200","468486","0.0-2.0-46.9-0.9","5ec6d423fc10270f0bbbc90e","D2","batch4","","2800","tol_tohand","","","","tol_peg_1","2800","2800","0","[[0,0,0],[3,0],[1]]","10","[[0,0,0],[2,3],[1]]","12","0","","","","","","4","","","","","","","","",""
"","","","","","single-stim-button","201","469336","0.0-2.0-46.9-1.9","5ec6d423fc10270f0bbbc90e","D2","batch4","","849","tol_toboard","","","","tol_peg_2","849","849","0","[[0,0,0],[3,2],[1]]","10","[[0,0,0],[2,3],[1]]","12","0","","","","","","4","","","","","","","","",""
"","","","","","single-stim-button","202","470074","0.0-2.0-46.10-0.10","5ec6d423fc10270f0bbbc90e","D2","batch4","","737","tol_tohand","","","","tol_peg_3","737","737","0","[[0,0,0],[3,2],[0]]","11","[[0,0,0],[2,3],[1]]","12","0","","","","","","4","","","","","","","","",""
"","","","","","single-stim-button","203","470981","0.0-2.0-46.10-1.10","5ec6d423fc10270f0bbbc90e","D2","batch4","","906","tol_toboard","","","","tol_peg_1","906","906","0","[[1,0,0],[3,2],[0]]","11","[[0,0,0],[2,3],[1]]","12","0","","","","","","4","","","","","","","","",""
"","","","","","single-stim-button","204","472233","0.0-2.0-46.11-0.11","5ec6d423fc10270f0bbbc90e","D2","batch4","","1250","tol_tohand","","","","tol_peg_2","1250","1250","0","[[1,0,0],[3,0],[0]]","12","[[0,0,0],[2,3],[1]]","12","0","","","","","","4","","","","","","","","",""
"","","","","","single-stim-button","205","473123","0.0-2.0-46.11-1.11","5ec6d423fc10270f0bbbc90e","D2","batch4","","890","tol_toboard","","","","tol_peg_3","890","890","0","[[1,0,0],[3,0],[2]]","12","[[0,0,0],[2,3],[1]]","12","0","","","","","","4","","","","","","","","",""
"","","","","","single-stim-button","206","473701","0.0-2.0-46.12-0.12","5ec6d423fc10270f0bbbc90e","D2","batch4","","577","tol_tohand","","","","tol_peg_2","577","577","0","[[1,0,0],[0,0],[2]]","13","[[0,0,0],[2,3],[1]]","12","0","","","","","","4","","","","","","","","",""
"","","","","","single-stim-button","207","474480","0.0-2.0-46.12-1.12","5ec6d423fc10270f0bbbc90e","D2","batch4","","778","tol_toboard","","","","tol_peg_1","778","778","0","[[1,3,0],[0,0],[2]]","13","[[0,0,0],[2,3],[1]]","12","0","","","","","","4","","","","","","","","",""
"","","","","","single-stim-button","208","475032","0.0-2.0-46.13-0.13","5ec6d423fc10270f0bbbc90e","D2","batch4","","552","tol_tohand","","","","tol_peg_3","552","552","0","[[1,3,0],[0,0],[0]]","14","[[0,0,0],[2,3],[1]]","12","0","","","","","","4","","","","","","","","",""
"","","","","","single-stim-button","209","475594","0.0-2.0-46.13-1.13","5ec6d423fc10270f0bbbc90e","D2","batch4","","561","tol_toboard","","","","tol_peg_2","561","561","0","[[1,3,0],[2,0],[0]]","14","[[0,0,0],[2,3],[1]]","12","0","","","","","","4","","","","","","","","",""
"","","","","","single-stim-button","210","476315","0.0-2.0-46.14-0.14","5ec6d423fc10270f0bbbc90e","D2","batch4","","720","tol_tohand","","","","tol_peg_1","720","720","0","[[1,0,0],[2,0],[0]]","15","[[0,0,0],[2,3],[1]]","12","0","","","","","","4","","","","","","","","",""
"","","","","","single-stim-button","211","476861","0.0-2.0-46.14-1.14","5ec6d423fc10270f0bbbc90e","D2","batch4","","545","tol_toboard","","","","tol_peg_2","545","545","0","[[1,0,0],[2,3],[0]]","15","[[0,0,0],[2,3],[1]]","12","0","","","","","","4","","","","","","","","",""
"","","","","","single-stim-button","212","477463","0.0-2.0-46.15-0.15","5ec6d423fc10270f0bbbc90e","D2","batch4","","601","tol_tohand","","","","tol_peg_1","601","601","0","[[0,0,0],[2,3],[0]]","16","[[0,0,0],[2,3],[1]]","12","0","","","","","","4","","","","","","","","",""
"","","","","","single-stim-button","213","478370","0.0-2.0-46.15-1.15","5ec6d423fc10270f0bbbc90e","D2","batch4","","905","tol_toboard","","","","tol_peg_3","905","905","0","[[0,0,0],[2,3],[1]]","16","[[0,0,0],[2,3],[1]]","12","0","","","","","","4","","","","","","","","",""
"","","","","","poldrack-single-stim","214","479374","0.0-2.0-47.0","5ec6d423fc10270f0bbbc90e","D2","batch4","","-1","tol_feedback","","","true","","1000","1000","500","","","","","","-1","none","true","2454","19885","","","","","","","","","",""
"","","","","","html-button-response","215","482501","0.0-2.0-48.0","5ec6d423fc10270f0bbbc90e","D2","batch4","","3126","attention_check","<p class = block-text>How many balls are in your board<br></p>","1","true","","","","","","","","","","","","","","","","","","","","","","","",""
"","","","","","html-button-response","216","483945","0.0-2.0-49.0","5ec6d423fc10270f0bbbc90e","D2","batch4","","1442.5","tol_trial_num","<div class = centerbox><p class = center-block-text>problem <strong>14</strong> out of 25 problems</p></div>","0","","","","","","","","","","","","","","","","","","","","","","","","",""
"","","","","","single-stim-button","217","486160","0.0-2.0-50.0-0.0","5ec6d423fc10270f0bbbc90e","D2","batch4","","2214","tol_tohand","","","","tol_peg_1","2214","2214","0","[[2,0,0],[3,0],[0]]","1","[[1,2,0],[3,0],[0]]","13","0","","","","","","4","","","","","","","","",""
"","","","","","single-stim-button","218","487346","0.0-2.0-50.0-1.0","5ec6d423fc10270f0bbbc90e","D2","batch4","","1184","tol_toboard","","","","tol_peg_3","1184","1184","0","[[2,0,0],[3,0],[1]]","1","[[1,2,0],[3,0],[0]]","13","0","","","","","","4","","","","","","","","",""
"","","","","","single-stim-button","219","488301","0.0-2.0-50.1-0.1","5ec6d423fc10270f0bbbc90e","D2","batch4","","955","tol_tohand","","","","tol_peg_1","955","955","0","[[0,0,0],[3,0],[1]]","2","[[1,2,0],[3,0],[0]]","13","0","","","","","","4","","","","","","","","",""
"","","","","","single-stim-button","220","489007","0.0-2.0-50.1-1.1","5ec6d423fc10270f0bbbc90e","D2","batch4","","704","tol_toboard","","","","tol_peg_2","704","704","0","[[0,0,0],[3,2],[1]]","2","[[1,2,0],[3,0],[0]]","13","0","","","","","","4","","","","","","","","",""
"","","","","","single-stim-button","221","489536","0.0-2.0-50.2-0.2","5ec6d423fc10270f0bbbc90e","D2","batch4","","528","tol_tohand","","","","tol_peg_3","528","528","0","[[0,0,0],[3,2],[0]]","3","[[1,2,0],[3,0],[0]]","13","0","","","","","","4","","","","","","","","",""
"","","","","","single-stim-button","222","490282","0.0-2.0-50.2-1.2","5ec6d423fc10270f0bbbc90e","D2","batch4","","745","tol_toboard","","","","tol_peg_1","745","745","0","[[1,0,0],[3,2],[0]]","3","[[1,2,0],[3,0],[0]]","13","0","","","","","","4","","","","","","","","",""
"","","","","","single-stim-button","223","490892","0.0-2.0-50.3-0.3","5ec6d423fc10270f0bbbc90e","D2","batch4","","609","tol_tohand","","","","tol_peg_2","609","609","0","[[1,0,0],[3,0],[0]]","4","[[1,2,0],[3,0],[0]]","13","0","","","","","","4","","","","","","","","",""
"","","","","","single-stim-button","224","491310","0.0-2.0-50.3-1.3","5ec6d423fc10270f0bbbc90e","D2","batch4","","416","tol_toboard","","","","tol_peg_1","416","416","0","[[1,2,0],[3,0],[0]]","4","[[1,2,0],[3,0],[0]]","13","0","","","","","","4","","","","","","","","",""
"","","","","","poldrack-single-stim","225","492312","0.0-2.0-51.0","5ec6d423fc10270f0bbbc90e","D2","batch4","","-1","tol_feedback","","","true","","1000","1000","500","","","","","","-1","none","true","2214","4306","","","","","","","","","",""
"","","","","","html-button-response","226","493042","0.0-2.0-52.0","5ec6d423fc10270f0bbbc90e","D2","batch4","","727.5","tol_trial_num","<div class = centerbox><p class = center-block-text>problem <strong>15</strong> out of 25 problems</p></div>","0","","","","","","","","","","","","","","","","","","","","","","","","",""
"","","","","","single-stim-button","227","496067","0.0-2.0-53.0-0.0","5ec6d423fc10270f0bbbc90e","D2","batch4","","3024","tol_tohand","","","","tol_peg_1","3024","3024","0","[[1,0,0],[3,0],[0]]","1","[[2,0,0],[3,0],[1]]","14","0","","","","","","3","","","","","","","","",""
"","","","","","single-stim-button","228","496782","0.0-2.0-53.0-1.0","5ec6d423fc10270f0bbbc90e","D2","batch4","","714","tol_toboard","","","","tol_peg_2","714","714","0","[[1,0,0],[3,2],[0]]","1","[[2,0,0],[3,0],[1]]","14","0","","","","","","3","","","","","","","","",""
"","","","","","single-stim-button","229","497336","0.0-2.0-53.1-0.1","5ec6d423fc10270f0bbbc90e","D2","batch4","","552","tol_tohand","","","","tol_peg_1","552","552","0","[[0,0,0],[3,2],[0]]","2","[[2,0,0],[3,0],[1]]","14","0","","","","","","3","","","","","","","","",""
"","","","","","single-stim-button","230","498017","0.0-2.0-53.1-1.1","5ec6d423fc10270f0bbbc90e","D2","batch4","","681","tol_toboard","","","","tol_peg_3","681","681","0","[[0,0,0],[3,2],[1]]","2","[[2,0,0],[3,0],[1]]","14","0","","","","","","3","","","","","","","","",""
"","","","","","single-stim-button","231","498587","0.0-2.0-53.2-0.2","5ec6d423fc10270f0bbbc90e","D2","batch4","","568","tol_tohand","","","","tol_peg_2","568","568","0","[[0,0,0],[3,0],[1]]","3","[[2,0,0],[3,0],[1]]","14","0","","","","","","3","","","","","","","","",""
"","","","","","single-stim-button","232","499446","0.0-2.0-53.2-1.2","5ec6d423fc10270f0bbbc90e","D2","batch4","","859","tol_toboard","","","","tol_peg_1","859","859","0","[[2,0,0],[3,0],[1]]","3","[[2,0,0],[3,0],[1]]","14","0","","","","","","3","","","","","","","","",""
"","","","","","poldrack-single-stim","233","500449","0.0-2.0-54.0","5ec6d423fc10270f0bbbc90e","D2","batch4","","-1","tol_feedback","","","true","","1000","1000","500","","","","","","-1","none","true","3024","4144","","","","","","","","","",""
"","","","","","html-button-response","234","501034","0.0-2.0-55.0","5ec6d423fc10270f0bbbc90e","D2","batch4","","583.9000000953674","tol_trial_num","<div class = centerbox><p class = center-block-text>problem <strong>16</strong> out of 25 problems</p></div>","0","","","","","","","","","","","","","","","","","","","","","","","","",""
"","","","","","single-stim-button","235","505406","0.0-2.0-56.0-0.0","5ec6d423fc10270f0bbbc90e","D2","batch4","","4371","tol_tohand","","","","tol_peg_3","4371","4371","0","[[0,0,0],[2,3],[0]]","1","[[2,3,0],[1,0],[0]]","15","0","","","","","","7","","","","","","","","",""
"","","","","","single-stim-button","236","506177","0.0-2.0-56.0-1.0","5ec6d423fc10270f0bbbc90e","D2","batch4","","769","tol_toboard","","","","tol_peg_1","769","769","0","[[1,0,0],[2,3],[0]]","1","[[2,3,0],[1,0],[0]]","15","0","","","","","","7","","","","","","","","",""
"","","","","","single-stim-button","237","510741","0.0-2.0-56.1-0.1","5ec6d423fc10270f0bbbc90e","D2","batch4","","4564","tol_tohand","","","","tol_peg_2","4564","4564","0","[[1,0,0],[2,0],[0]]","2","[[2,3,0],[1,0],[0]]","15","0","","","","","","7","","","","","","","","",""
"","","","","","single-stim-button","238","511816","0.0-2.0-56.1-1.1","5ec6d423fc10270f0bbbc90e","D2","batch4","","1074","tol_toboard","","","","tol_peg_3","1074","1074","0","[[1,0,0],[2,0],[3]]","2","[[2,3,0],[1,0],[0]]","15","0","","","","","","7","","","","","","","","",""
"","","","","","single-stim-button","239","514600","0.0-2.0-56.2-0.2","5ec6d423fc10270f0bbbc90e","D2","batch4","","2783","tol_tohand","","","","tol_peg_1","2783","2783","0","[[0,0,0],[2,0],[3]]","3","[[2,3,0],[1,0],[0]]","15","0","","","","","","7","","","","","","","","",""
"","","","","","single-stim-button","240","515386","0.0-2.0-56.2-1.2","5ec6d423fc10270f0bbbc90e","D2","batch4","","785","tol_toboard","","","","tol_peg_2","785","785","0","[[0,0,0],[2,1],[3]]","3","[[2,3,0],[1,0],[0]]","15","0","","","","","","7","","","","","","","","",""
"","","","","","single-stim-button","241","516694","0.0-2.0-56.3-0.3","5ec6d423fc10270f0bbbc90e","D2","batch4","","1307","tol_tohand","","","","tol_peg_2","1307","1307","0","[[0,0,0],[2,0],[3]]","4","[[2,3,0],[1,0],[0]]","15","0","","","","","","7","","","","","","","","",""
"","","","","","single-stim-button","242","518515","0.0-2.0-56.3-1.3","5ec6d423fc10270f0bbbc90e","D2","batch4","","1820","tol_toboard","","","","tol_peg_2","1820","1820","0","[[0,0,0],[2,1],[3]]","4","[[2,3,0],[1,0],[0]]","15","0","","","","","","7","","","","","","","","",""
"","","","","","single-stim-button","243","519157","0.0-2.0-56.4-0.4","5ec6d423fc10270f0bbbc90e","D2","batch4","","640","tol_tohand","","","","tol_peg_3","640","640","0","[[0,0,0],[2,1],[0]]","5","[[2,3,0],[1,0],[0]]","15","0","","","","","","7","","","","","","","","",""
"","","","","","single-stim-button","244","519902","0.0-2.0-56.4-1.4","5ec6d423fc10270f0bbbc90e","D2","batch4","","745","tol_toboard","","","","tol_peg_1","745","745","0","[[3,0,0],[2,1],[0]]","5","[[2,3,0],[1,0],[0]]","15","0","","","","","","7","","","","","","","","",""
"","","","","","single-stim-button","245","520753","0.0-2.0-56.5-0.5","5ec6d423fc10270f0bbbc90e","D2","batch4","","850","tol_tohand","","","","tol_peg_2","850","850","0","[[3,0,0],[2,0],[0]]","6","[[2,3,0],[1,0],[0]]","15","0","","","","","","7","","","","","","","","",""
"","","","","","single-stim-button","246","521283","0.0-2.0-56.5-1.5","5ec6d423fc10270f0bbbc90e","D2","batch4","","529","tol_toboard","","","","tol_peg_1","529","529","0","[[3,1,0],[2,0],[0]]","6","[[2,3,0],[1,0],[0]]","15","0","","","","","","7","","","","","","","","",""
"","","","","","single-stim-button","247","521925","0.0-2.0-56.6-0.6","5ec6d423fc10270f0bbbc90e","D2","batch4","","640","tol_tohand","","","","tol_peg_2","640","640","0","[[3,1,0],[0,0],[0]]","7","[[2,3,0],[1,0],[0]]","15","0","","","","","","7","","","","","","","","",""
"","","","","","single-stim-button","248","522815","0.0-2.0-56.6-1.6","5ec6d423fc10270f0bbbc90e","D2","batch4","","889","tol_toboard","","","","tol_peg_3","889","889","0","[[3,1,0],[0,0],[2]]","7","[[2,3,0],[1,0],[0]]","15","0","","","","","","7","","","","","","","","",""
"","","","","","single-stim-button","249","523505","0.0-2.0-56.7-0.7","5ec6d423fc10270f0bbbc90e","D2","batch4","","689","tol_tohand","","","","tol_peg_1","689","689","0","[[3,0,0],[0,0],[2]]","8","[[2,3,0],[1,0],[0]]","15","0","","","","","","7","","","","","","","","",""
"","","","","","single-stim-button","250","524194","0.0-2.0-56.7-1.7","5ec6d423fc10270f0bbbc90e","D2","batch4","","689","tol_toboard","","","","tol_peg_2","689","689","0","[[3,0,0],[1,0],[2]]","8","[[2,3,0],[1,0],[0]]","15","0","","","","","","7","","","","","","","","",""
"","","","","","single-stim-button","251","524957","0.0-2.0-56.8-0.8","5ec6d423fc10270f0bbbc90e","D2","batch4","","762","tol_tohand","","","","tol_peg_1","762","762","0","[[0,0,0],[1,0],[2]]","9","[[2,3,0],[1,0],[0]]","15","0","","","","","","7","","","","","","","","",""
"","","","","","single-stim-button","252","525542","0.0-2.0-56.8-1.8","5ec6d423fc10270f0bbbc90e","D2","batch4","","585","tol_toboard","","","","tol_peg_2","585","585","0","[[0,0,0],[1,3],[2]]","9","[[2,3,0],[1,0],[0]]","15","0","","","","","","7","","","","","","","","",""
"","","","","","single-stim-button","253","526152","0.0-2.0-56.9-0.9","5ec6d423fc10270f0bbbc90e","D2","batch4","","609","tol_tohand","","","","tol_peg_3","609","609","0","[[0,0,0],[1,3],[0]]","10","[[2,3,0],[1,0],[0]]","15","0","","","","","","7","","","","","","","","",""
"","","","","","single-stim-button","254","526794","0.0-2.0-56.9-1.9","5ec6d423fc10270f0bbbc90e","D2","batch4","","641","tol_toboard","","","","tol_peg_1","641","641","0","[[2,0,0],[1,3],[0]]","10","[[2,3,0],[1,0],[0]]","15","0","","","","","","7","","","","","","","","",""
"","","","","","single-stim-button","255","527709","0.0-2.0-56.10-0.10","5ec6d423fc10270f0bbbc90e","D2","batch4","","913","tol_tohand","","","","tol_peg_2","913","913","0","[[2,0,0],[1,0],[0]]","11","[[2,3,0],[1,0],[0]]","15","0","","","","","","7","","","","","","","","",""
"","","","","","single-stim-button","256","528247","0.0-2.0-56.10-1.10","5ec6d423fc10270f0bbbc90e","D2","batch4","","537","tol_toboard","","","","tol_peg_1","537","537","0","[[2,3,0],[1,0],[0]]","11","[[2,3,0],[1,0],[0]]","15","0","","","","","","7","","","","","","","","",""
"","","","","","poldrack-single-stim","257","529250","0.0-2.0-57.0","5ec6d423fc10270f0bbbc90e","D2","batch4","","-1","tol_feedback","","","true","","1000","1000","500","","","","","","-1","none","true","4371","18128","","","","","","","","","",""
"","","","","","html-button-response","258","533679","0.0-2.0-58.0","5ec6d423fc10270f0bbbc90e","D2","batch4","","4427.699999809265","tol_trial_num","<div class = centerbox><p class = center-block-text>problem <strong>17</strong> out of 25 problems</p></div>","0","","","","","","","","","","","","","","","","","","","","","","","","",""
"","","","","","single-stim-button","259","535781","0.0-2.0-59.0-0.0","5ec6d423fc10270f0bbbc90e","D2","batch4","","2100","tol_tohand","","","","tol_peg_2","2100","2100","0","[[1,2,0],[0,0],[0]]","1","[[3,1,0],[2,0],[0]]","16","0","","","","","","5","","","","","","","","",""
"","","","","","single-stim-button","260","536511","0.0-2.0-59.0-1.0","5ec6d423fc10270f0bbbc90e","D2","batch4","","730","tol_toboard","","","","tol_peg_3","730","730","0","[[1,2,0],[0,0],[3]]","1","[[3,1,0],[2,0],[0]]","16","0","","","","","","5","","","","","","","","",""
"","","","","","single-stim-button","261","537523","0.0-2.0-59.1-0.1","5ec6d423fc10270f0bbbc90e","D2","batch4","","1010","tol_tohand","","","","tol_peg_1","1010","1010","0","[[1,0,0],[0,0],[3]]","2","[[3,1,0],[2,0],[0]]","16","0","","","","","","5","","","","","","","","",""
"","","","","","single-stim-button","262","538140","0.0-2.0-59.1-1.1","5ec6d423fc10270f0bbbc90e","D2","batch4","","616","tol_toboard","","","","tol_peg_2","616","616","0","[[1,0,0],[2,0],[3]]","2","[[3,1,0],[2,0],[0]]","16","0","","","","","","5","","","","","","","","",""
"","","","","","single-stim-button","263","538581","0.0-2.0-59.2-0.2","5ec6d423fc10270f0bbbc90e","D2","batch4","","441","tol_tohand","","","","tol_peg_1","441","441","0","[[0,0,0],[2,0],[3]]","3","[[3,1,0],[2,0],[0]]","16","0","","","","","","5","","","","","","","","",""
"","","","","","single-stim-button","264","539054","0.0-2.0-59.2-1.2","5ec6d423fc10270f0bbbc90e","D2","batch4","","472","tol_toboard","","","","tol_peg_2","472","472","0","[[0,0,0],[2,1],[3]]","3","[[3,1,0],[2,0],[0]]","16","0","","","","","","5","","","","","","","","",""
"","","","","","single-stim-button","265","539576","0.0-2.0-59.3-0.3","5ec6d423fc10270f0bbbc90e","D2","batch4","","520","tol_tohand","","","","tol_peg_3","520","520","0","[[0,0,0],[2,1],[0]]","4","[[3,1,0],[2,0],[0]]","16","0","","","","","","5","","","","","","","","",""
"","","","","","single-stim-button","266","540153","0.0-2.0-59.3-1.3","5ec6d423fc10270f0bbbc90e","D2","batch4","","577","tol_toboard","","","","tol_peg_1","577","577","0","[[3,0,0],[2,1],[0]]","4","[[3,1,0],[2,0],[0]]","16","0","","","","","","5","","","","","","","","",""
"","","","","","single-stim-button","267","540739","0.0-2.0-59.4-0.4","5ec6d423fc10270f0bbbc90e","D2","batch4","","585","tol_tohand","","","","tol_peg_2","585","585","0","[[3,0,0],[2,0],[0]]","5","[[3,1,0],[2,0],[0]]","16","0","","","","","","5","","","","","","","","",""
"","","","","","single-stim-button","268","541309","0.0-2.0-59.4-1.4","5ec6d423fc10270f0bbbc90e","D2","batch4","","568","tol_toboard","","","","tol_peg_1","568","568","0","[[3,1,0],[2,0],[0]]","5","[[3,1,0],[2,0],[0]]","16","0","","","","","","5","","","","","","","","",""
"","","","","","poldrack-single-stim","269","542312","0.0-2.0-60.0","5ec6d423fc10270f0bbbc90e","D2","batch4","","-1","tol_feedback","","","true","","1000","1000","500","","","","","","-1","none","true","2100","4656","","","","","","","","","",""
"","","","","","html-button-response","270","543153","0.0-2.0-61.0","5ec6d423fc10270f0bbbc90e","D2","batch4","","840.2999997138977","tol_trial_num","<div class = centerbox><p class = center-block-text>problem <strong>18</strong> out of 25 problems</p></div>","0","","","","","","","","","","","","","","","","","","","","","","","","",""
"","","","","","single-stim-button","271","545175","0.0-2.0-62.0-0.0","5ec6d423fc10270f0bbbc90e","D2","batch4","","2021","tol_tohand","","","","tol_peg_2","2021","2021","0","[[1,2,0],[0,0],[0]]","1","[[3,0,0],[2,0],[1]]","17","0","","","","","","5","","","","","","","","",""
"","","","","","single-stim-button","272","545889","0.0-2.0-62.0-1.0","5ec6d423fc10270f0bbbc90e","D2","batch4","","713","tol_toboard","","","","tol_peg_3","713","713","0","[[1,2,0],[0,0],[3]]","1","[[3,0,0],[2,0],[1]]","17","0","","","","","","5","","","","","","","","",""
"","","","","","single-stim-button","273","546780","0.0-2.0-62.1-0.1","5ec6d423fc10270f0bbbc90e","D2","batch4","","889","tol_tohand","","","","tol_peg_1","889","889","0","[[1,0,0],[0,0],[3]]","2","[[3,0,0],[2,0],[1]]","17","0","","","","","","5","","","","","","","","",""
"","","","","","single-stim-button","274","547509","0.0-2.0-62.1-1.1","5ec6d423fc10270f0bbbc90e","D2","batch4","","729","tol_toboard","","","","tol_peg_2","729","729","0","[[1,0,0],[2,0],[3]]","2","[[3,0,0],[2,0],[1]]","17","0","","","","","","5","","","","","","","","",""
"","","","","","single-stim-button","275","548063","0.0-2.0-62.2-0.2","5ec6d423fc10270f0bbbc90e","D2","batch4","","553","tol_tohand","","","","tol_peg_1","553","553","0","[[0,0,0],[2,0],[3]]","3","[[3,0,0],[2,0],[1]]","17","0","","","","","","5","","","","","","","","",""
"","","","","","single-stim-button","276","548544","0.0-2.0-62.2-1.2","5ec6d423fc10270f0bbbc90e","D2","batch4","","480","tol_toboard","","","","tol_peg_2","480","480","0","[[0,0,0],[2,1],[3]]","3","[[3,0,0],[2,0],[1]]","17","0","","","","","","5","","","","","","","","",""
"","","","","","single-stim-button","277","549162","0.0-2.0-62.3-0.3","5ec6d423fc10270f0bbbc90e","D2","batch4","","617","tol_tohand","","","","tol_peg_3","617","617","0","[[0,0,0],[2,1],[0]]","4","[[3,0,0],[2,0],[1]]","17","0","","","","","","5","","","","","","","","",""
"","","","","","single-stim-button","278","549692","0.0-2.0-62.3-1.3","5ec6d423fc10270f0bbbc90e","D2","batch4","","528","tol_toboard","","","","tol_peg_1","528","528","0","[[3,0,0],[2,1],[0]]","4","[[3,0,0],[2,0],[1]]","17","0","","","","","","5","","","","","","","","",""
"","","","","","single-stim-button","279","550374","0.0-2.0-62.4-0.4","5ec6d423fc10270f0bbbc90e","D2","batch4","","681","tol_tohand","","","","tol_peg_2","681","681","0","[[3,0,0],[2,0],[0]]","5","[[3,0,0],[2,0],[1]]","17","0","","","","","","5","","","","","","","","",""
"","","","","","single-stim-button","280","550935","0.0-2.0-62.4-1.4","5ec6d423fc10270f0bbbc90e","D2","batch4","","561","tol_toboard","","","","tol_peg_3","561","561","0","[[3,0,0],[2,0],[1]]","5","[[3,0,0],[2,0],[1]]","17","0","","","","","","5","","","","","","","","",""
"","","","","","poldrack-single-stim","281","551939","0.0-2.0-63.0","5ec6d423fc10270f0bbbc90e","D2","batch4","","-1","tol_feedback","","","true","","1000","1000","500","","","","","","-1","none","true","2021","4761","","","","","","","","","",""
"","","","","","html-button-response","282","552989","0.0-2.0-64.0","5ec6d423fc10270f0bbbc90e","D2","batch4","","1048.5999999046326","tol_trial_num","<div class = centerbox><p class = center-block-text>problem <strong>19</strong> out of 25 problems</p></div>","0","","","","","","","","","","","","","","","","","","","","","","","","",""
"","","","","","single-stim-button","283","557747","0.0-2.0-65.0-0.0","5ec6d423fc10270f0bbbc90e","D2","batch4","","4757","tol_tohand","","","","tol_peg_2","4757","4757","0","[[1,2,0],[0,0],[0]]","1","[[0,0,0],[1,2],[3]]","18","0","","","","","","7","","","","","","","","",""
"","","","","","single-stim-button","284","558606","0.0-2.0-65.0-1.0","5ec6d423fc10270f0bbbc90e","D2","batch4","","857","tol_toboard","","","","tol_peg_3","857","857","0","[[1,2,0],[0,0],[3]]","1","[[0,0,0],[1,2],[3]]","18","0","","","","","","7","","","","","","","","",""
"","","","","","single-stim-button","285","561300","0.0-2.0-65.1-0.1","5ec6d423fc10270f0bbbc90e","D2","batch4","","2694","tol_tohand","","","","tol_peg_1","2694","2694","0","[[1,0,0],[0,0],[3]]","2","[[0,0,0],[1,2],[3]]","18","0","","","","","","7","","","","","","","","",""
"","","","","","single-stim-button","286","562697","0.0-2.0-65.1-1.1","5ec6d423fc10270f0bbbc90e","D2","batch4","","1392","tol_toboard","","","","tol_peg_1","1392","1392","0","[[1,2,0],[0,0],[3]]","2","[[0,0,0],[1,2],[3]]","18","0","","","","","","7","","","","","","","","",""
"","","","","","single-stim-button","287","563306","0.0-2.0-65.2-0.2","5ec6d423fc10270f0bbbc90e","D2","batch4","","608","tol_tohand","","","","tol_peg_3","608","608","0","[[1,2,0],[0,0],[0]]","3","[[0,0,0],[1,2],[3]]","18","0","","","","","","7","","","","","","","","",""
"","","","","","single-stim-button","288","563973","0.0-2.0-65.2-1.2","5ec6d423fc10270f0bbbc90e","D2","batch4","","665","tol_toboard","","","","tol_peg_2","665","665","0","[[1,2,0],[3,0],[0]]","3","[[0,0,0],[1,2],[3]]","18","0","","","","","","7","","","","","","","","",""
"","","","","","single-stim-button","289","564454","0.0-2.0-65.3-0.3","5ec6d423fc10270f0bbbc90e","D2","batch4","","480","tol_tohand","","","","tol_peg_1","480","480","0","[[1,0,0],[3,0],[0]]","4","[[0,0,0],[1,2],[3]]","18","0","","","","","","7","","","","","","","","",""
"","","","","","single-stim-button","290","565072","0.0-2.0-65.3-1.3","5ec6d423fc10270f0bbbc90e","D2","batch4","","616","tol_toboard","","","","tol_peg_2","616","616","0","[[1,0,0],[3,2],[0]]","4","[[0,0,0],[1,2],[3]]","18","0","","","","","","7","","","","","","","","",""
"","","","","","single-stim-button","291","565866","0.0-2.0-65.4-0.4","5ec6d423fc10270f0bbbc90e","D2","batch4","","793","tol_tohand","","","","tol_peg_1","793","793","0","[[0,0,0],[3,2],[0]]","5","[[0,0,0],[1,2],[3]]","18","0","","","","","","7","","","","","","","","",""
"","","","","","single-stim-button","292","568088","0.0-2.0-65.4-1.4","5ec6d423fc10270f0bbbc90e","D2","batch4","","2221","tol_toboard","","","","tol_peg_3","2221","2221","0","[[0,0,0],[3,2],[1]]","5","[[0,0,0],[1,2],[3]]","18","0","","","","","","7","","","","","","","","",""
"","","","","","single-stim-button","293","570270","0.0-2.0-65.5-0.5","5ec6d423fc10270f0bbbc90e","D2","batch4","","2181","tol_tohand","","","","tol_peg_2","2181","2181","0","[[0,0,0],[3,0],[1]]","6","[[0,0,0],[1,2],[3]]","18","0","","","","","","7","","","","","","","","",""
"","","","","","single-stim-button","294","571459","0.0-2.0-65.5-1.5","5ec6d423fc10270f0bbbc90e","D2","batch4","","1187","tol_toboard","","","","tol_peg_1","1187","1187","0","[[2,0,0],[3,0],[1]]","6","[[0,0,0],[1,2],[3]]","18","0","","","","","","7","","","","","","","","",""
"","","","","","single-stim-button","295","572300","0.0-2.0-65.6-0.6","5ec6d423fc10270f0bbbc90e","D2","batch4","","840","tol_tohand","","","","tol_peg_2","840","840","0","[[2,0,0],[0,0],[1]]","7","[[0,0,0],[1,2],[3]]","18","0","","","","","","7","","","","","","","","",""
"","","","","","single-stim-button","296","572974","0.0-2.0-65.6-1.6","5ec6d423fc10270f0bbbc90e","D2","batch4","","674","tol_toboard","","","","tol_peg_1","674","674","0","[[2,3,0],[0,0],[1]]","7","[[0,0,0],[1,2],[3]]","18","0","","","","","","7","","","","","","","","",""
"","","","","","single-stim-button","297","573503","0.0-2.0-65.7-0.7","5ec6d423fc10270f0bbbc90e","D2","batch4","","528","tol_tohand","","","","tol_peg_3","528","528","0","[[2,3,0],[0,0],[0]]","8","[[0,0,0],[1,2],[3]]","18","0","","","","","","7","","","","","","","","",""
"","","","","","single-stim-button","298","574009","0.0-2.0-65.7-1.7","5ec6d423fc10270f0bbbc90e","D2","batch4","","504","tol_toboard","","","","tol_peg_2","504","504","0","[[2,3,0],[1,0],[0]]","8","[[0,0,0],[1,2],[3]]","18","0","","","","","","7","","","","","","","","",""
"","","","","","single-stim-button","299","574667","0.0-2.0-65.8-0.8","5ec6d423fc10270f0bbbc90e","D2","batch4","","658","tol_tohand","","","","tol_peg_1","658","658","0","[[2,0,0],[1,0],[0]]","9","[[0,0,0],[1,2],[3]]","18","0","","","","","","7","","","","","","","","",""
"","","","","","single-stim-button","300","575156","0.0-2.0-65.8-1.8","5ec6d423fc10270f0bbbc90e","D2","batch4","","488","tol_toboard","","","","tol_peg_3","488","488","0","[[2,0,0],[1,0],[3]]","9","[[0,0,0],[1,2],[3]]","18","0","","","","","","7","","","","","","","","",""
"","","","","","single-stim-button","301","575645","0.0-2.0-65.9-0.9","5ec6d423fc10270f0bbbc90e","D2","batch4","","488","tol_tohand","","","","tol_peg_1","488","488","0","[[0,0,0],[1,0],[3]]","10","[[0,0,0],[1,2],[3]]","18","0","","","","","","7","","","","","","","","",""
"","","","","","single-stim-button","302","576086","0.0-2.0-65.9-1.9","5ec6d423fc10270f0bbbc90e","D2","batch4","","440","tol_toboard","","","","tol_peg_2","440","440","0","[[0,0,0],[1,2],[3]]","10","[[0,0,0],[1,2],[3]]","18","0","","","","","","7","","","","","","","","",""
"","","","","","poldrack-single-stim","303","577093","0.0-2.0-66.0","5ec6d423fc10270f0bbbc90e","D2","batch4","","-1","tol_feedback","","","true","","1000","1000","500","","","","","","-1","none","true","4757","14027","","","","","","","","","",""
"","","","","","html-button-response","304","577867","0.0-2.0-67.0","5ec6d423fc10270f0bbbc90e","D2","batch4","","772.5999999046326","tol_trial_num","<div class = centerbox><p class = center-block-text>problem <strong>20</strong> out of 25 problems</p></div>","0","","","","","","","","","","","","","","","","","","","","","","","","",""
"","","","","","single-stim-button","305","579873","0.0-2.0-68.0-0.0","5ec6d423fc10270f0bbbc90e","D2","batch4","","2004","tol_tohand","","","","tol_peg_2","2004","2004","0","[[1,2,0],[0,0],[0]]","1","[[2,1,0],[0,0],[3]]","19","0","","","","","","5","","","","","","","","",""
"","","","","","single-stim-button","306","583330","0.0-2.0-68.0-1.0","5ec6d423fc10270f0bbbc90e","D2","batch4","","3457","tol_toboard","","","","tol_peg_2","3457","3457","0","[[1,2,0],[3,0],[0]]","1","[[2,1,0],[0,0],[3]]","19","0","","","","","","5","","","","","","","","",""
"","","","","","single-stim-button","307","584229","0.0-2.0-68.1-0.1","5ec6d423fc10270f0bbbc90e","D2","batch4","","898","tol_tohand","","","","tol_peg_1","898","898","0","[[1,0,0],[3,0],[0]]","2","[[2,1,0],[0,0],[3]]","19","0","","","","","","5","","","","","","","","",""
"","","","","","single-stim-button","308","585047","0.0-2.0-68.1-1.1","5ec6d423fc10270f0bbbc90e","D2","batch4","","817","tol_toboard","","","","tol_peg_2","817","817","0","[[1,0,0],[3,2],[0]]","2","[[2,1,0],[0,0],[3]]","19","0","","","","","","5","","","","","","","","",""
"","","","","","single-stim-button","309","585649","0.0-2.0-68.2-0.2","5ec6d423fc10270f0bbbc90e","D2","batch4","","601","tol_tohand","","","","tol_peg_1","601","601","0","[[0,0,0],[3,2],[0]]","3","[[2,1,0],[0,0],[3]]","19","0","","","","","","5","","","","","","","","",""
"","","","","","single-stim-button","310","586363","0.0-2.0-68.2-1.2","5ec6d423fc10270f0bbbc90e","D2","batch4","","713","tol_toboard","","","","tol_peg_3","713","713","0","[[0,0,0],[3,2],[1]]","3","[[2,1,0],[0,0],[3]]","19","0","","","","","","5","","","","","","","","",""
"","","","","","single-stim-button","311","587093","0.0-2.0-68.3-0.3","5ec6d423fc10270f0bbbc90e","D2","batch4","","729","tol_tohand","","","","tol_peg_2","729","729","0","[[0,0,0],[3,0],[1]]","4","[[2,1,0],[0,0],[3]]","19","0","","","","","","5","","","","","","","","",""
"","","","","","single-stim-button","312","587784","0.0-2.0-68.3-1.3","5ec6d423fc10270f0bbbc90e","D2","batch4","","689","tol_toboard","","","","tol_peg_1","689","689","0","[[2,0,0],[3,0],[1]]","4","[[2,1,0],[0,0],[3]]","19","0","","","","","","5","","","","","","","","",""
"","","","","","single-stim-button","313","589741","0.0-2.0-68.4-0.4","5ec6d423fc10270f0bbbc90e","D2","batch4","","1957","tol_tohand","","","","tol_peg_3","1957","1957","0","[[2,0,0],[3,0],[0]]","5","[[2,1,0],[0,0],[3]]","19","0","","","","","","5","","","","","","","","",""
"","","","","","single-stim-button","314","590279","0.0-2.0-68.4-1.4","5ec6d423fc10270f0bbbc90e","D2","batch4","","537","tol_toboard","","","","tol_peg_2","537","537","0","[[2,0,0],[3,1],[0]]","5","[[2,1,0],[0,0],[3]]","19","0","","","","","","5","","","","","","","","",""
"","","","","","single-stim-button","315","591875","0.0-2.0-68.5-0.5","5ec6d423fc10270f0bbbc90e","D2","batch4","","1594","tol_tohand","","","","tol_peg_2","1594","1594","0","[[2,0,0],[3,0],[0]]","6","[[2,1,0],[0,0],[3]]","19","0","","","","","","5","","","","","","","","",""
"","","","","","single-stim-button","316","592677","0.0-2.0-68.5-1.5","5ec6d423fc10270f0bbbc90e","D2","batch4","","802","tol_toboard","","","","tol_peg_1","802","802","0","[[2,1,0],[3,0],[0]]","6","[[2,1,0],[0,0],[3]]","19","0","","","","","","5","","","","","","","","",""
"","","","","","single-stim-button","317","593334","0.0-2.0-68.6-0.6","5ec6d423fc10270f0bbbc90e","D2","batch4","","656","tol_tohand","","","","tol_peg_2","656","656","0","[[2,1,0],[0,0],[0]]","7","[[2,1,0],[0,0],[3]]","19","0","","","","","","5","","","","","","","","",""
"","","","","","single-stim-button","318","593929","0.0-2.0-68.6-1.6","5ec6d423fc10270f0bbbc90e","D2","batch4","","593","tol_toboard","","","","tol_peg_3","593","593","0","[[2,1,0],[0,0],[3]]","7","[[2,1,0],[0,0],[3]]","19","0","","","","","","5","","","","","","","","",""
"","","","","","poldrack-single-stim","319","594942","0.0-2.0-69.0","5ec6d423fc10270f0bbbc90e","D2","batch4","","-1","tol_feedback","","","true","","1000","1000","500","","","","","","-1","none","true","2004","8439","","","","","","","","","",""
"","","","","","html-button-response","320","596929","0.0-2.0-70.0","5ec6d423fc10270f0bbbc90e","D2","batch4","","1984.3999996185303","tol_trial_num","<div class = centerbox><p class = center-block-text>problem <strong>21</strong> out of 25 problems</p></div>","0","","","","","","","","","","","","","","","","","","","","","","","","",""
"","","","","","single-stim-button","321","599785","0.0-2.0-71.0-0.0","5ec6d423fc10270f0bbbc90e","D2","batch4","","2855","tol_tohand","","","","tol_peg_1","2855","2855","0","[[1,0,0],[3,0],[0]]","1","[[3,2,0],[0,0],[1]]","20","0","","","","","","6","","","","","","","","",""
"","","","","","single-stim-button","322","600331","0.0-2.0-71.0-1.0","5ec6d423fc10270f0bbbc90e","D2","batch4","","544","tol_toboard","","","","tol_peg_2","544","544","0","[[1,0,0],[3,2],[0]]","1","[[3,2,0],[0,0],[1]]","20","0","","","","","","6","","","","","","","","",""
"","","","","","single-stim-button","323","600997","0.0-2.0-71.1-0.1","5ec6d423fc10270f0bbbc90e","D2","batch4","","664","tol_tohand","","","","tol_peg_1","664","664","0","[[0,0,0],[3,2],[0]]","2","[[3,2,0],[0,0],[1]]","20","0","","","","","","6","","","","","","","","",""
"","","","","","single-stim-button","324","601902","0.0-2.0-71.1-1.1","5ec6d423fc10270f0bbbc90e","D2","batch4","","905","tol_toboard","","","","tol_peg_3","905","905","0","[[0,0,0],[3,2],[1]]","2","[[3,2,0],[0,0],[1]]","20","0","","","","","","6","","","","","","","","",""
"","","","","","single-stim-button","325","603339","0.0-2.0-71.2-0.2","5ec6d423fc10270f0bbbc90e","D2","batch4","","1435","tol_tohand","","","","tol_peg_2","1435","1435","0","[[0,0,0],[3,0],[1]]","3","[[3,2,0],[0,0],[1]]","20","0","","","","","","6","","","","","","","","",""
"","","","","","single-stim-button","326","605850","0.0-2.0-71.2-1.2","5ec6d423fc10270f0bbbc90e","D2","batch4","","2510","tol_toboard","","","","tol_peg_2","2510","2510","0","[[0,0,0],[3,2],[1]]","3","[[3,2,0],[0,0],[1]]","20","0","","","","","","6","","","","","","","","",""
"","","","","","single-stim-button","327","606499","0.0-2.0-71.3-0.3","5ec6d423fc10270f0bbbc90e","D2","batch4","","649","tol_tohand","","","","tol_peg_3","649","649","0","[[0,0,0],[3,2],[0]]","4","[[3,2,0],[0,0],[1]]","20","0","","","","","","6","","","","","","","","",""
"","","","","","single-stim-button","328","607021","0.0-2.0-71.3-1.3","5ec6d423fc10270f0bbbc90e","D2","batch4","","521","tol_toboard","","","","tol_peg_1","521","521","0","[[1,0,0],[3,2],[0]]","4","[[3,2,0],[0,0],[1]]","20","0","","","","","","6","","","","","","","","",""
"","","","","","single-stim-button","329","607654","0.0-2.0-71.4-0.4","5ec6d423fc10270f0bbbc90e","D2","batch4","","632","tol_tohand","","","","tol_peg_2","632","632","0","[[1,0,0],[3,0],[0]]","5","[[3,2,0],[0,0],[1]]","20","0","","","","","","6","","","","","","","","",""
"","","","","","single-stim-button","330","608489","0.0-2.0-71.4-1.4","5ec6d423fc10270f0bbbc90e","D2","batch4","","834","tol_toboard","","","","tol_peg_1","834","834","0","[[1,2,0],[3,0],[0]]","5","[[3,2,0],[0,0],[1]]","20","0","","","","","","6","","","","","","","","",""
"","","","","","single-stim-button","331","609371","0.0-2.0-71.5-0.5","5ec6d423fc10270f0bbbc90e","D2","batch4","","881","tol_tohand","","","","tol_peg_2","881","881","0","[[1,2,0],[0,0],[0]]","6","[[3,2,0],[0,0],[1]]","20","0","","","","","","6","","","","","","","","",""
"","","","","","single-stim-button","332","610406","0.0-2.0-71.5-1.5","5ec6d423fc10270f0bbbc90e","D2","batch4","","1033","tol_toboard","","","","tol_peg_3","1033","1033","0","[[1,2,0],[0,0],[3]]","6","[[3,2,0],[0,0],[1]]","20","0","","","","","","6","","","","","","","","",""
"","","","","","single-stim-button","333","611216","0.0-2.0-71.6-0.6","5ec6d423fc10270f0bbbc90e","D2","batch4","","810","tol_tohand","","","","tol_peg_1","810","810","0","[[1,0,0],[0,0],[3]]","7","[[3,2,0],[0,0],[1]]","20","0","","","","","","6","","","","","","","","",""
"","","","","","single-stim-button","334","611738","0.0-2.0-71.6-1.6","5ec6d423fc10270f0bbbc90e","D2","batch4","","520","tol_toboard","","","","tol_peg_2","520","520","0","[[1,0,0],[2,0],[3]]","7","[[3,2,0],[0,0],[1]]","20","0","","","","","","6","","","","","","","","",""
"","","","","","single-stim-button","335","612628","0.0-2.0-71.7-0.7","5ec6d423fc10270f0bbbc90e","D2","batch4","","890","tol_tohand","","","","tol_peg_1","890","890","0","[[0,0,0],[2,0],[3]]","8","[[3,2,0],[0,0],[1]]","20","0","","","","","","6","","","","","","","","",""
"","","","","","single-stim-button","336","613463","0.0-2.0-71.7-1.7","5ec6d423fc10270f0bbbc90e","D2","batch4","","833","tol_toboard","","","","tol_peg_2","833","833","0","[[0,0,0],[2,1],[3]]","8","[[3,2,0],[0,0],[1]]","20","0","","","","","","6","","","","","","","","",""
"","","","","","single-stim-button","337","614537","0.0-2.0-71.8-0.8","5ec6d423fc10270f0bbbc90e","D2","batch4","","1074","tol_tohand","","","","tol_peg_3","1074","1074","0","[[0,0,0],[2,1],[0]]","9","[[3,2,0],[0,0],[1]]","20","0","","","","","","6","","","","","","","","",""
"","","","","","single-stim-button","338","615244","0.0-2.0-71.8-1.8","5ec6d423fc10270f0bbbc90e","D2","batch4","","705","tol_toboard","","","","tol_peg_1","705","705","0","[[3,0,0],[2,1],[0]]","9","[[3,2,0],[0,0],[1]]","20","0","","","","","","6","","","","","","","","",""
"","","","","","single-stim-button","339","615924","0.0-2.0-71.9-0.9","5ec6d423fc10270f0bbbc90e","D2","batch4","","680","tol_tohand","","","","tol_peg_2","680","680","0","[[3,0,0],[2,0],[0]]","10","[[3,2,0],[0,0],[1]]","20","0","","","","","","6","","","","","","","","",""
"","","","","","single-stim-button","340","617088","0.0-2.0-71.9-1.9","5ec6d423fc10270f0bbbc90e","D2","batch4","","1163","tol_toboard","","","","tol_peg_3","1163","1163","0","[[3,0,0],[2,0],[1]]","10","[[3,2,0],[0,0],[1]]","20","0","","","","","","6","","","","","","","","",""
"","","","","","single-stim-button","341","617610","0.0-2.0-71.10-0.10","5ec6d423fc10270f0bbbc90e","D2","batch4","","521","tol_tohand","","","","tol_peg_2","521","521","0","[[3,0,0],[0,0],[1]]","11","[[3,2,0],[0,0],[1]]","20","0","","","","","","6","","","","","","","","",""
"","","","","","single-stim-button","342","618004","0.0-2.0-71.10-1.10","5ec6d423fc10270f0bbbc90e","D2","batch4","","393","tol_toboard","","","","tol_peg_1","393","393","0","[[3,2,0],[0,0],[1]]","11","[[3,2,0],[0,0],[1]]","20","0","","","","","","6","","","","","","","","",""
"","","","","","poldrack-single-stim","343","619014","0.0-2.0-72.0","5ec6d423fc10270f0bbbc90e","D2","batch4","","-1","tol_feedback","","","true","","1000","1000","500","","","","","","-1","none","true","2855","11091","","","","","","","","","",""
"","","","","","html-button-response","344","623520","0.0-2.0-73.0","5ec6d423fc10270f0bbbc90e","D2","batch4","","4505.10000038147","tol_trial_num","<div class = centerbox><p class = center-block-text>problem <strong>22</strong> out of 25 problems</p></div>","0","","","","","","","","","","","","","","","","","","","","","","","","",""
"","","","","","single-stim-button","345","627066","0.0-2.0-74.0-0.0","5ec6d423fc10270f0bbbc90e","D2","batch4","","3545","tol_tohand","","","","tol_peg_2","3545","3545","0","[[1,0,0],[2,0],[0]]","1","[[0,0,0],[1,2],[3]]","21","0","","","","","","6","","","","","","","","",""
"","","","","","single-stim-button","346","628118","0.0-2.0-74.0-1.0","5ec6d423fc10270f0bbbc90e","D2","batch4","","1051","tol_toboard","","","","tol_peg_1","1051","1051","0","[[1,3,0],[2,0],[0]]","1","[[0,0,0],[1,2],[3]]","21","0","","","","","","6","","","","","","","","",""
"","","","","","single-stim-button","347","629193","0.0-2.0-74.1-0.1","5ec6d423fc10270f0bbbc90e","D2","batch4","","1073","tol_tohand","","","","tol_peg_2","1073","1073","0","[[1,3,0],[0,0],[0]]","2","[[0,0,0],[1,2],[3]]","21","0","","","","","","6","","","","","","","","",""
"","","","","","single-stim-button","348","629850","0.0-2.0-74.1-1.1","5ec6d423fc10270f0bbbc90e","D2","batch4","","657","tol_toboard","","","","tol_peg_3","657","657","0","[[1,3,0],[0,0],[2]]","2","[[0,0,0],[1,2],[3]]","21","0","","","","","","6","","","","","","","","",""
"","","","","","single-stim-button","349","632330","0.0-2.0-74.2-0.2","5ec6d423fc10270f0bbbc90e","D2","batch4","","2479","tol_tohand","","","","tol_peg_1","2479","2479","0","[[1,0,0],[0,0],[2]]","3","[[0,0,0],[1,2],[3]]","21","0","","","","","","6","","","","","","","","",""
"","","","","","single-stim-button","350","633116","0.0-2.0-74.2-1.2","5ec6d423fc10270f0bbbc90e","D2","batch4","","785","tol_toboard","","","","tol_peg_2","785","785","0","[[1,0,0],[3,0],[2]]","3","[[0,0,0],[1,2],[3]]","21","0","","","","","","6","","","","","","","","",""
"","","","","","single-stim-button","351","633725","0.0-2.0-74.3-0.3","5ec6d423fc10270f0bbbc90e","D2","batch4","","608","tol_tohand","","","","tol_peg_3","608","608","0","[[1,0,0],[3,0],[0]]","4","[[0,0,0],[1,2],[3]]","21","0","","","","","","6","","","","","","","","",""
"","","","","","single-stim-button","352","634641","0.0-2.0-74.3-1.3","5ec6d423fc10270f0bbbc90e","D2","batch4","","914","tol_toboard","","","","tol_peg_1","914","914","0","[[1,2,0],[3,0],[0]]","4","[[0,0,0],[1,2],[3]]","21","0","","","","","","6","","","","","","","","",""
"","","","","","single-stim-button","353","635210","0.0-2.0-74.4-0.4","5ec6d423fc10270f0bbbc90e","D2","batch4","","568","tol_tohand","","","","tol_peg_2","568","568","0","[[1,2,0],[0,0],[0]]","5","[[0,0,0],[1,2],[3]]","21","0","","","","","","6","","","","","","","","",""
"","","","","","single-stim-button","354","636076","0.0-2.0-74.4-1.4","5ec6d423fc10270f0bbbc90e","D2","batch4","","866","tol_toboard","","","","tol_peg_3","866","866","0","[[1,2,0],[0,0],[3]]","5","[[0,0,0],[1,2],[3]]","21","0","","","","","","6","","","","","","","","",""
"","","","","","single-stim-button","355","636838","0.0-2.0-74.5-0.5","5ec6d423fc10270f0bbbc90e","D2","batch4","","761","tol_tohand","","","","tol_peg_1","761","761","0","[[1,0,0],[0,0],[3]]","6","[[0,0,0],[1,2],[3]]","21","0","","","","","","6","","","","","","","","",""
"","","","","","single-stim-button","356","637544","0.0-2.0-74.5-1.5","5ec6d423fc10270f0bbbc90e","D2","batch4","","705","tol_toboard","","","","tol_peg_2","705","705","0","[[1,0,0],[2,0],[3]]","6","[[0,0,0],[1,2],[3]]","21","0","","","","","","6","","","","","","","","",""
