"success","timeout","failed_images","failed_audio","failed_video","trial_type","trial_index","time_elapsed","internal_node_id","subject_id","study_id","session_id","task","rt","stimulus","response","item","answer","correct","spm_correct","spm_rt","view_history","fiar_detect_rt","fiar_detect_correct","total_correct_fiar_detect","post_trial_gap","choices","mouse_click","stim_duration","block_duration","timing_post_trial","current_position","tol_num_moves_made","tol_target","tol_problem_id","tol_rt","key_press","possible_responses","tol_correct","preplanning","tol_rt_per_trial","tol_min_moves"
"true","false","[]","[]","[]","preload","0","4589","0.0-0.0","5ecfe4891d96f707354f918b","F1","batch6","","","","","","","","","","","","","","","","","","","","","","","","","","","","","",""
"true","","","","","fullscreen","1","11415","0.0-1.0-0.0","5ecfe4891d96f707354f918b","F1","batch6","","","","","","","","","","","","","","","","","","","","","","","","","","","","","",""
"true","","","","","fullscreen","2","15416","0.0-2.0-0.0","5ecfe4891d96f707354f918b","F1","batch6","spm_fullscreen","","","","","","","","","","","","","","","","","","","","","","","","","","","","",""
"","","","","","html-button-response","3","23846","0.0-2.0-1.0","5ecfe4891d96f707354f918b","F1","batch6","","8428.300000011921","<p class = block-text><b>Instructions</b> <br>This is a widely used intelligence test in research. <br>In this test, a figure with a missing piece will be presented.<br>Below the figure are alternative pieces to complete the figure, only one of which is correct.<br> Different figures might involve different principles for obtaining the missing piece<br>Your job is to select the most logical piece to complete the figure.</p>","0","","","","","","","","","","","","","","","","","","","","","","","","","",""
"","","","","","html-keyboard-response","4","24658","0.0-2.0-2.0-0.0","5ecfe4891d96f707354f918b","F1","batch6","spm_show_trial_num","null","<p class=block-text>Trial 1 out of 60</p>","null","","","","","","","","","","","","","","","","","","","","","","","","","",""
"","","","","","image-button-response","5","31446","0.0-2.0-2.0-1.0","5ecfe4891d96f707354f918b","F1","batch6","spm_respsonse","6770.100000023842","img/question_1_1.jpeg","3","mat_01","4","1","1","6770.100000023842","","","","","","","","","","","","","","","","","","","","",""
"","","","","","html-keyboard-response","6","32513","0.0-2.0-2.0-0.1","5ecfe4891d96f707354f918b","F1","batch6","spm_show_trial_num","null","<p class=block-text>Trial 2 out of 60</p>","null","","","","","","","","","","","","","","","","","","","","","","","","","",""
"","","","","","image-button-response","7","35445","0.0-2.0-2.0-1.1","5ecfe4891d96f707354f918b","F1","batch6","spm_respsonse","2929","img/question_1_2.jpeg","4","mat_02","5","1","1","2929","","","","","","","","","","","","","","","","","","","","",""
"","","","","","html-keyboard-response","8","36513","0.0-2.0-2.0-0.2","5ecfe4891d96f707354f918b","F1","batch6","spm_show_trial_num","null","<p class=block-text>Trial 3 out of 60</p>","null","","","","","","","","","","","","","","","","","","","","","","","","","",""
"","","","","","image-button-response","9","39538","0.0-2.0-2.0-1.2","5ecfe4891d96f707354f918b","F1","batch6","spm_respsonse","3022.599999964237","img/question_1_3.jpeg","0","mat_03","1","1","1","3022.599999964237","","","","","","","","","","","","","","","","","","","","",""
"","","","","","html-keyboard-response","10","40604","0.0-2.0-2.0-0.3","5ecfe4891d96f707354f918b","F1","batch6","spm_show_trial_num","null","<p class=block-text>Trial 4 out of 60</p>","null","","","","","","","","","","","","","","","","","","","","","","","","","",""
"","","","","","image-button-response","11","43750","0.0-2.0-2.0-1.3","5ecfe4891d96f707354f918b","F1","batch6","spm_respsonse","3143.199999988079","img/question_1_4.jpeg","1","mat_04","2","1","1","3143.199999988079","","","","","","","","","","","","","","","","","","","","",""
"","","","","","html-keyboard-response","12","44821","0.0-2.0-2.0-0.4","5ecfe4891d96f707354f918b","F1","batch6","spm_show_trial_num","null","<p class=block-text>Trial 5 out of 60</p>","null","","","","","","","","","","","","","","","","","","","","","","","","","",""
"","","","","","image-button-response","13","47568","0.0-2.0-2.0-1.4","5ecfe4891d96f707354f918b","F1","batch6","spm_respsonse","2745","img/question_1_5.jpeg","5","mat_05","6","1","1","2745","","","","","","","","","","","","","","","","","","","","",""
"","","","","","html-keyboard-response","14","48637","0.0-2.0-2.0-0.5","5ecfe4891d96f707354f918b","F1","batch6","spm_show_trial_num","null","<p class=block-text>Trial 6 out of 60</p>","null","","","","","","","","","","","","","","","","","","","","","","","","","",""
"","","","","","image-button-response","15","53466","0.0-2.0-2.0-1.5","5ecfe4891d96f707354f918b","F1","batch6","spm_respsonse","4826.5","img/question_1_6.jpeg","2","mat_06","3","1","1","4826.5","","","","","","","","","","","","","","","","","","","","",""
"","","","","","html-keyboard-response","16","54529","0.0-2.0-2.0-0.6","5ecfe4891d96f707354f918b","F1","batch6","spm_show_trial_num","null","<p class=block-text>Trial 7 out of 60</p>","null","","","","","","","","","","","","","","","","","","","","","","","","","",""
"","","","","","image-button-response","17","58756","0.0-2.0-2.0-1.6","5ecfe4891d96f707354f918b","F1","batch6","spm_respsonse","4224.400000035763","img/question_1_7.jpeg","5","mat_07","6","1","1","4224.400000035763","","","","","","","","","","","","","","","","","","","","",""
"","","","","","html-keyboard-response","18","59821","0.0-2.0-2.0-0.7","5ecfe4891d96f707354f918b","F1","batch6","spm_show_trial_num","null","<p class=block-text>Trial 8 out of 60</p>","null","","","","","","","","","","","","","","","","","","","","","","","","","",""
"","","","","","image-button-response","19","63880","0.0-2.0-2.0-1.7","5ecfe4891d96f707354f918b","F1","batch6","spm_respsonse","4056.5","img/question_1_8.jpeg","1","mat_08","2","1","1","4056.5","","","","","","","","","","","","","","","","","","","","",""
"","","","","","html-keyboard-response","20","64947","0.0-2.0-2.0-0.8","5ecfe4891d96f707354f918b","F1","batch6","spm_show_trial_num","null","<p class=block-text>Trial 9 out of 60</p>","null","","","","","","","","","","","","","","","","","","","","","","","","","",""
"","","","","","image-button-response","21","71054","0.0-2.0-2.0-1.8","5ecfe4891d96f707354f918b","F1","batch6","spm_respsonse","6103.600000023842","img/question_1_9.jpeg","0","mat_09","1","1","1","6103.600000023842","","","","","","","","","","","","","","","","","","","","",""
"","","","","","html-keyboard-response","22","72115","0.0-2.0-2.0-0.9","5ecfe4891d96f707354f918b","F1","batch6","spm_show_trial_num","null","<p class=block-text>Trial 10 out of 60</p>","null","","","","","","","","","","","","","","","","","","","","","","","","","",""
"","","","","","image-button-response","23","76374","0.0-2.0-2.0-1.9","5ecfe4891d96f707354f918b","F1","batch6","spm_respsonse","4256.099999964237","img/question_1_10.jpeg","2","mat_10","3","1","1","4256.099999964237","","","","","","","","","","","","","","","","","","","","",""
"","","","","","html-keyboard-response","24","77444","0.0-2.0-2.0-0.10","5ecfe4891d96f707354f918b","F1","batch6","spm_show_trial_num","null","<p class=block-text>Trial 11 out of 60</p>","null","","","","","","","","","","","","","","","","","","","","","","","","","",""
"","","","","","image-button-response","25","87475","0.0-2.0-2.0-1.10","5ecfe4891d96f707354f918b","F1","batch6","spm_respsonse","10027.899999976158","img/question_1_11.jpeg","3","mat_11","4","1","1","10027.899999976158","","","","","","","","","","","","","","","","","","","","",""
"","","","","","html-keyboard-response","26","88542","0.0-2.0-2.0-0.11","5ecfe4891d96f707354f918b","F1","batch6","spm_show_trial_num","null","<p class=block-text>Trial 12 out of 60</p>","null","","","","","","","","","","","","","","","","","","","","","","","","","",""
"","","","","","image-button-response","27","98640","0.0-2.0-2.0-1.11","5ecfe4891d96f707354f918b","F1","batch6","spm_respsonse","10095.199999988079","img/question_1_12.jpeg","4","mat_12","5","1","1","10095.199999988079","","","","","","","","","","","","","","","","","","","","",""
"","","","","","html-keyboard-response","28","99710","0.0-2.0-2.0-0.12","5ecfe4891d96f707354f918b","F1","batch6","spm_show_trial_num","null","<p class=block-text>Trial 13 out of 60</p>","null","","","","","","","","","","","","","","","","","","","","","","","","","",""
"","","","","","image-button-response","29","102748","0.0-2.0-2.0-1.12","5ecfe4891d96f707354f918b","F1","batch6","spm_respsonse","3034.900000035763","img/question_2_1.jpeg","1","mat_13","2","1","1","3034.900000035763","","","","","","","","","","","","","","","","","","","","",""
"","","","","","html-keyboard-response","30","103814","0.0-2.0-2.0-0.13","5ecfe4891d96f707354f918b","F1","batch6","spm_show_trial_num","null","<p class=block-text>Trial 14 out of 60</p>","null","","","","","","","","","","","","","","","","","","","","","","","","","",""
"","","","","","image-button-response","31","108875","0.0-2.0-2.0-1.13","5ecfe4891d96f707354f918b","F1","batch6","spm_respsonse","5058.100000023842","img/question_2_2.jpeg","5","mat_14","6","1","1","5058.100000023842","","","","","","","","","","","","","","","","","","","","",""
"","","","","","html-keyboard-response","32","109943","0.0-2.0-2.0-0.14","5ecfe4891d96f707354f918b","F1","batch6","spm_show_trial_num","null","<p class=block-text>Trial 15 out of 60</p>","null","","","","","","","","","","","","","","","","","","","","","","","","","",""
"","","","","","image-button-response","33","112538","0.0-2.0-2.0-1.14","5ecfe4891d96f707354f918b","F1","batch6","spm_respsonse","2593.300000011921","img/question_2_3.jpeg","0","mat_15","1","1","1","2593.300000011921","","","","","","","","","","","","","","","","","","","","",""
"","","","","","html-keyboard-response","34","113607","0.0-2.0-2.0-0.15","5ecfe4891d96f707354f918b","F1","batch6","spm_show_trial_num","null","<p class=block-text>Trial 16 out of 60</p>","null","","","","","","","","","","","","","","","","","","","","","","","","","",""
"","","","","","image-button-response","35","116573","0.0-2.0-2.0-1.15","5ecfe4891d96f707354f918b","F1","batch6","spm_respsonse","2963.7000000476837","img/question_2_4.jpeg","1","mat_16","2","1","1","2963.7000000476837","","","","","","","","","","","","","","","","","","","","",""
"","","","","","html-keyboard-response","36","117639","0.0-2.0-2.0-0.16","5ecfe4891d96f707354f918b","F1","batch6","spm_show_trial_num","null","<p class=block-text>Trial 17 out of 60</p>","null","","","","","","","","","","","","","","","","","","","","","","","","","",""
"","","","","","image-button-response","37","127511","0.0-2.0-2.0-1.16","5ecfe4891d96f707354f918b","F1","batch6","spm_respsonse","9869","img/question_2_5.jpeg","0","mat_17","1","1","1","9869","","","","","","","","","","","","","","","","","","","","",""
"","","","","","html-keyboard-response","38","128567","0.0-2.0-2.0-0.17","5ecfe4891d96f707354f918b","F1","batch6","spm_show_trial_num","null","<p class=block-text>Trial 18 out of 60</p>","null","","","","","","","","","","","","","","","","","","","","","","","","","",""
"","","","","","image-button-response","39","132608","0.0-2.0-2.0-1.17","5ecfe4891d96f707354f918b","F1","batch6","spm_respsonse","4038","img/question_2_6.jpeg","2","mat_18","3","1","1","4038","","","","","","","","","","","","","","","","","","","","",""
"","","","","","html-keyboard-response","40","133678","0.0-2.0-2.0-0.18","5ecfe4891d96f707354f918b","F1","batch6","spm_show_trial_num","null","<p class=block-text>Trial 19 out of 60</p>","null","","","","","","","","","","","","","","","","","","","","","","","","","",""
"","","","","","image-button-response","41","138713","0.0-2.0-2.0-1.18","5ecfe4891d96f707354f918b","F1","batch6","spm_respsonse","5032","img/question_2_7.jpeg","4","mat_19","5","1","1","5032","","","","","","","","","","","","","","","","","","","","",""
"","","","","","html-keyboard-response","42","139783","0.0-2.0-2.0-0.19","5ecfe4891d96f707354f918b","F1","batch6","spm_show_trial_num","null","<p class=block-text>Trial 20 out of 60</p>","null","","","","","","","","","","","","","","","","","","","","","","","","","",""
"","","","","","image-button-response","43","142566","0.0-2.0-2.0-1.19","5ecfe4891d96f707354f918b","F1","batch6","spm_respsonse","2780.100000023842","img/question_2_8.jpeg","3","mat_20","6","0","0","2780.100000023842","","","","","","","","","","","","","","","","","","","","",""
"","","","","","html-keyboard-response","44","143632","0.0-2.0-2.0-0.20","5ecfe4891d96f707354f918b","F1","batch6","spm_show_trial_num","null","<p class=block-text>Trial 21 out of 60</p>","null","","","","","","","","","","","","","","","","","","","","","","","","","",""
"","","","","","image-button-response","45","147653","0.0-2.0-2.0-1.20","5ecfe4891d96f707354f918b","F1","batch6","spm_respsonse","4018.900000035763","img/question_2_9.jpeg","3","mat_21","4","1","1","4018.900000035763","","","","","","","","","","","","","","","","","","","","",""
"","","","","","html-keyboard-response","46","148717","0.0-2.0-2.0-0.21","5ecfe4891d96f707354f918b","F1","batch6","spm_show_trial_num","null","<p class=block-text>Trial 22 out of 60</p>","null","","","","","","","","","","","","","","","","","","","","","","","","","",""
"","","","","","image-button-response","47","151889","0.0-2.0-2.0-1.21","5ecfe4891d96f707354f918b","F1","batch6","spm_respsonse","3169.100000023842","img/question_2_10.jpeg","2","mat_22","3","1","1","3169.100000023842","","","","","","","","","","","","","","","","","","","","",""
"","","","","","html-keyboard-response","48","152960","0.0-2.0-2.0-0.22","5ecfe4891d96f707354f918b","F1","batch6","spm_show_trial_num","null","<p class=block-text>Trial 23 out of 60</p>","null","","","","","","","","","","","","","","","","","","","","","","","","","",""
"","","","","","image-button-response","49","158323","0.0-2.0-2.0-1.22","5ecfe4891d96f707354f918b","F1","batch6","spm_respsonse","5360.5","img/question_2_11.jpeg","3","mat_23","4","1","1","5360.5","","","","","","","","","","","","","","","","","","","","",""
"","","","","","html-keyboard-response","50","159387","0.0-2.0-2.0-0.23","5ecfe4891d96f707354f918b","F1","batch6","spm_show_trial_num","null","<p class=block-text>Trial 24 out of 60</p>","null","","","","","","","","","","","","","","","","","","","","","","","","","",""
"","","","","","image-button-response","51","180370","0.0-2.0-2.0-1.23","5ecfe4891d96f707354f918b","F1","batch6","spm_respsonse","20979.5","img/question_2_12.jpeg","4","mat_24","5","1","1","20979.5","","","","","","","","","","","","","","","","","","","","",""
"","","","","","html-button-response","52","182763","0.0-2.0-3.0","5ecfe4891d96f707354f918b","F1","batch6","attention_check","2131.300000011921","<p class = block-text>Attention check: Please choose 1<br></p>","0","","","true","","","","","","","","","","","","","","","","","","","","","","",""
"","","","","","html-keyboard-response","53","183577","0.0-2.0-4.0-0.0","5ecfe4891d96f707354f918b","F1","batch6","spm_show_trial_num","null","<p class=block-text>Trial 25 out of 60</p>","null","","","","","","","","","","","","","","","","","","","","","","","","","",""
"","","","","","image-button-response","54","189020","0.0-2.0-4.0-1.0","5ecfe4891d96f707354f918b","F1","batch6","spm_respsonse","5440.300000011921","img/question_3_1.jpeg","7","mat_25","8","1","1","5440.300000011921","","","","","","","","","","","","","","","","","","","","",""
"","","","","","html-keyboard-response","55","190089","0.0-2.0-4.0-0.1","5ecfe4891d96f707354f918b","F1","batch6","spm_show_trial_num","null","<p class=block-text>Trial 26 out of 60</p>","null","","","","","","","","","","","","","","","","","","","","","","","","","",""
"","","","","","image-button-response","56","195211","0.0-2.0-4.0-1.1","5ecfe4891d96f707354f918b","F1","batch6","spm_respsonse","5118.399999976158","img/question_3_2.jpeg","1","mat_26","2","1","1","5118.399999976158","","","","","","","","","","","","","","","","","","","","",""
"","","","","","html-keyboard-response","57","196281","0.0-2.0-4.0-0.2","5ecfe4891d96f707354f918b","F1","batch6","spm_show_trial_num","null","<p class=block-text>Trial 27 out of 60</p>","null","","","","","","","","","","","","","","","","","","","","","","","","","",""
"","","","","","image-button-response","58","203011","0.0-2.0-4.0-1.2","5ecfe4891d96f707354f918b","F1","batch6","spm_respsonse","6726.800000011921","img/question_3_3.jpeg","2","mat_27","3","1","1","6726.800000011921","","","","","","","","","","","","","","","","","","","","",""
"","","","","","html-keyboard-response","59","204081","0.0-2.0-4.0-0.3","5ecfe4891d96f707354f918b","F1","batch6","spm_show_trial_num","null","<p class=block-text>Trial 28 out of 60</p>","null","","","","","","","","","","","","","","","","","","","","","","","","","",""
"","","","","","image-button-response","60","211667","0.0-2.0-4.0-1.3","5ecfe4891d96f707354f918b","F1","batch6","spm_respsonse","7582.899999976158","img/question_3_4.jpeg","3","mat_28","8","0","0","7582.899999976158","","","","","","","","","","","","","","","","","","","","",""
"","","","","","html-keyboard-response","61","212734","0.0-2.0-4.0-0.4","5ecfe4891d96f707354f918b","F1","batch6","spm_show_trial_num","null","<p class=block-text>Trial 29 out of 60</p>","null","","","","","","","","","","","","","","","","","","","","","","","","","",""
"","","","","","image-button-response","62","222334","0.0-2.0-4.0-1.4","5ecfe4891d96f707354f918b","F1","batch6","spm_respsonse","9597","img/question_3_5.jpeg","6","mat_29","7","1","1","9597","","","","","","","","","","","","","","","","","","","","",""
"","","","","","html-keyboard-response","63","223402","0.0-2.0-4.0-0.5","5ecfe4891d96f707354f918b","F1","batch6","spm_show_trial_num","null","<p class=block-text>Trial 30 out of 60</p>","null","","","","","","","","","","","","","","","","","","","","","","","","","",""
"","","","","","image-button-response","64","233798","0.0-2.0-4.0-1.5","5ecfe4891d96f707354f918b","F1","batch6","spm_respsonse","10392.600000023842","img/question_3_6.jpeg","3","mat_30","4","1","1","10392.600000023842","","","","","","","","","","","","","","","","","","","","",""
"","","","","","html-keyboard-response","65","234862","0.0-2.0-4.0-0.6","5ecfe4891d96f707354f918b","F1","batch6","spm_show_trial_num","null","<p class=block-text>Trial 31 out of 60</p>","null","","","","","","","","","","","","","","","","","","","","","","","","","",""
"","","","","","image-button-response","66","240068","0.0-2.0-4.0-1.6","5ecfe4891d96f707354f918b","F1","batch6","spm_respsonse","5203.600000023842","img/question_3_7.jpeg","4","mat_31","5","1","1","5203.600000023842","","","","","","","","","","","","","","","","","","","","",""
"","","","","","html-keyboard-response","67","241138","0.0-2.0-4.0-0.7","5ecfe4891d96f707354f918b","F1","batch6","spm_show_trial_num","null","<p class=block-text>Trial 32 out of 60</p>","null","","","","","","","","","","","","","","","","","","","","","","","","","",""
"","","","","","image-button-response","68","259419","0.0-2.0-4.0-1.7","5ecfe4891d96f707354f918b","F1","batch6","spm_respsonse","18277.69999998808","img/question_3_8.jpeg","0","mat_32","1","1","1","18277.69999998808","","","","","","","","","","","","","","","","","","","","",""
"","","","","","html-keyboard-response","69","260483","0.0-2.0-4.0-0.8","5ecfe4891d96f707354f918b","F1","batch6","spm_show_trial_num","null","<p class=block-text>Trial 33 out of 60</p>","null","","","","","","","","","","","","","","","","","","","","","","","","","",""
"","","","","","image-button-response","70","265471","0.0-2.0-4.0-1.8","5ecfe4891d96f707354f918b","F1","batch6","spm_respsonse","4985","img/question_3_9.jpeg","6","mat_33","7","1","1","4985","","","","","","","","","","","","","","","","","","","","",""
"","","","","","html-keyboard-response","71","266539","0.0-2.0-4.0-0.9","5ecfe4891d96f707354f918b","F1","batch6","spm_show_trial_num","null","<p class=block-text>Trial 34 out of 60</p>","null","","","","","","","","","","","","","","","","","","","","","","","","","",""
"","","","","","image-button-response","72","282982","0.0-2.0-4.0-1.9","5ecfe4891d96f707354f918b","F1","batch6","spm_respsonse","16439.700000047684","img/question_3_10.jpeg","7","mat_34","6","0","0","16439.700000047684","","","","","","","","","","","","","","","","","","","","",""
"","","","","","html-keyboard-response","73","284052","0.0-2.0-4.0-0.10","5ecfe4891d96f707354f918b","F1","batch6","spm_show_trial_num","null","<p class=block-text>Trial 35 out of 60</p>","null","","","","","","","","","","","","","","","","","","","","","","","","","",""
"","","","","","image-button-response","74","301861","0.0-2.0-4.0-1.10","5ecfe4891d96f707354f918b","F1","batch6","spm_respsonse","17805.899999976158","img/question_3_11.jpeg","0","mat_35","1","1","1","17805.899999976158","","","","","","","","","","","","","","","","","","","","",""
"","","","","","html-keyboard-response","75","302929","0.0-2.0-4.0-0.11","5ecfe4891d96f707354f918b","F1","batch6","spm_show_trial_num","null","<p class=block-text>Trial 36 out of 60</p>","null","","","","","","","","","","","","","","","","","","","","","","","","","",""
"","","","","","image-button-response","76","317523","0.0-2.0-4.0-1.11","5ecfe4891d96f707354f918b","F1","batch6","spm_respsonse","14590.800000011921","img/question_3_12.jpeg","0","mat_36","2","0","0","14590.800000011921","","","","","","","","","","","","","","","","","","","","",""
"","","","","","html-keyboard-response","77","318584","0.0-2.0-4.0-0.12","5ecfe4891d96f707354f918b","F1","batch6","spm_show_trial_num","null","<p class=block-text>Trial 37 out of 60</p>","null","","","","","","","","","","","","","","","","","","","","","","","","","",""
"","","","","","image-button-response","78","321304","0.0-2.0-4.0-1.12","5ecfe4891d96f707354f918b","F1","batch6","spm_respsonse","2714.199999988079","img/question_4_1.jpeg","2","mat_37","3","1","1","2714.199999988079","","","","","","","","","","","","","","","","","","","","",""
"","","","","","html-keyboard-response","79","322373","0.0-2.0-4.0-0.13","5ecfe4891d96f707354f918b","F1","batch6","spm_show_trial_num","null","<p class=block-text>Trial 38 out of 60</p>","null","","","","","","","","","","","","","","","","","","","","","","","","","",""
"","","","","","image-button-response","80","333490","0.0-2.0-4.0-1.13","5ecfe4891d96f707354f918b","F1","batch6","spm_respsonse","11114.5","img/question_4_2.jpeg","3","mat_38","4","1","1","11114.5","","","","","","","","","","","","","","","","","","","","",""
"","","","","","html-keyboard-response","81","334557","0.0-2.0-4.0-0.14","5ecfe4891d96f707354f918b","F1","batch6","spm_show_trial_num","null","<p class=block-text>Trial 39 out of 60</p>","null","","","","","","","","","","","","","","","","","","","","","","","","","",""
"","","","","","image-button-response","82","338989","0.0-2.0-4.0-1.14","5ecfe4891d96f707354f918b","F1","batch6","spm_respsonse","4428.399999976158","img/question_4_3.jpeg","2","mat_39","3","1","1","4428.399999976158","","","","","","","","","","","","","","","","","","","","",""
"","","","","","html-keyboard-response","83","340053","0.0-2.0-4.0-0.15","5ecfe4891d96f707354f918b","F1","batch6","spm_show_trial_num","null","<p class=block-text>Trial 40 out of 60</p>","null","","","","","","","","","","","","","","","","","","","","","","","","","",""
"","","","","","image-button-response","84","349786","0.0-2.0-4.0-1.15","5ecfe4891d96f707354f918b","F1","batch6","spm_respsonse","9729.700000047684","img/question_4_4.jpeg","6","mat_40","7","1","1","9729.700000047684","","","","","","","","","","","","","","","","","","","","",""
"","","","","","html-keyboard-response","85","350854","0.0-2.0-4.0-0.16","5ecfe4891d96f707354f918b","F1","batch6","spm_show_trial_num","null","<p class=block-text>Trial 41 out of 60</p>","null","","","","","","","","","","","","","","","","","","","","","","","","","",""
"","","","","","image-button-response","86","357176","0.0-2.0-4.0-1.16","5ecfe4891d96f707354f918b","F1","batch6","spm_respsonse","6319.600000023842","img/question_4_5.jpeg","7","mat_41","8","1","1","6319.600000023842","","","","","","","","","","","","","","","","","","","","",""
"","","","","","html-keyboard-response","87","358246","0.0-2.0-4.0-0.17","5ecfe4891d96f707354f918b","F1","batch6","spm_show_trial_num","null","<p class=block-text>Trial 42 out of 60</p>","null","","","","","","","","","","","","","","","","","","","","","","","","","",""
"","","","","","image-button-response","88","370128","0.0-2.0-4.0-1.17","5ecfe4891d96f707354f918b","F1","batch6","spm_respsonse","11879.299999952316","img/question_4_6.jpeg","5","mat_42","6","1","1","11879.299999952316","","","","","","","","","","","","","","","","","","","","",""
"","","","","","html-keyboard-response","89","371198","0.0-2.0-4.0-0.18","5ecfe4891d96f707354f918b","F1","batch6","spm_show_trial_num","null","<p class=block-text>Trial 43 out of 60</p>","null","","","","","","","","","","","","","","","","","","","","","","","","","",""
"","","","","","image-button-response","90","383978","0.0-2.0-4.0-1.18","5ecfe4891d96f707354f918b","F1","batch6","spm_respsonse","12776.199999988079","img/question_4_7.jpeg","4","mat_43","5","1","1","12776.199999988079","","","","","","","","","","","","","","","","","","","","",""
"","","","","","html-keyboard-response","91","385047","0.0-2.0-4.0-0.19","5ecfe4891d96f707354f918b","F1","batch6","spm_show_trial_num","null","<p class=block-text>Trial 44 out of 60</p>","null","","","","","","","","","","","","","","","","","","","","","","","","","",""
"","","","","","image-button-response","92","396730","0.0-2.0-4.0-1.19","5ecfe4891d96f707354f918b","F1","batch6","spm_respsonse","11679.600000023842","img/question_4_8.jpeg","3","mat_44","4","1","1","11679.600000023842","","","","","","","","","","","","","","","","","","","","",""
"","","","","","html-keyboard-response","93","397795","0.0-2.0-4.0-0.20","5ecfe4891d96f707354f918b","F1","batch6","spm_show_trial_num","null","<p class=block-text>Trial 45 out of 60</p>","null","","","","","","","","","","","","","","","","","","","","","","","","","",""
"","","","","","image-button-response","94","412886","0.0-2.0-4.0-1.20","5ecfe4891d96f707354f918b","F1","batch6","spm_respsonse","15087.099999964237","img/question_4_9.jpeg","5","mat_45","1","0","0","15087.099999964237","","","","","","","","","","","","","","","","","","","","",""
"","","","","","html-keyboard-response","95","413952","0.0-2.0-4.0-0.21","5ecfe4891d96f707354f918b","F1","batch6","spm_show_trial_num","null","<p class=block-text>Trial 46 out of 60</p>","null","","","","","","","","","","","","","","","","","","","","","","","","","",""
"","","","","","image-button-response","96","435655","0.0-2.0-4.0-1.21","5ecfe4891d96f707354f918b","F1","batch6","spm_respsonse","21700.399999976158","img/question_4_10.jpeg","1","mat_46","2","1","1","21700.399999976158","","","","","","","","","","","","","","","","","","","","",""
"","","","","","html-keyboard-response","97","436720","0.0-2.0-4.0-0.22","5ecfe4891d96f707354f918b","F1","batch6","spm_show_trial_num","null","<p class=block-text>Trial 47 out of 60</p>","null","","","","","","","","","","","","","","","","","","","","","","","","","",""
"","","","","","image-button-response","98","459778","0.0-2.0-4.0-1.22","5ecfe4891d96f707354f918b","F1","batch6","spm_respsonse","23054.099999964237","img/question_4_11.jpeg","1","mat_47","5","0","0","23054.099999964237","","","","","","","","","","","","","","","","","","","","",""
"","","","","","html-keyboard-response","99","460847","0.0-2.0-4.0-0.23","5ecfe4891d96f707354f918b","F1","batch6","spm_show_trial_num","null","<p class=block-text>Trial 48 out of 60</p>","null","","","","","","","","","","","","","","","","","","","","","","","","","",""
"","","","","","image-button-response","100","476762","0.0-2.0-4.0-1.23","5ecfe4891d96f707354f918b","F1","batch6","spm_respsonse","15911.599999964237","img/question_4_12.jpeg","4","mat_48","6","0","0","15911.599999964237","","","","","","","","","","","","","","","","","","","","",""
"","","","","","html-keyboard-response","101","477829","0.0-2.0-4.0-0.24","5ecfe4891d96f707354f918b","F1","batch6","spm_show_trial_num","null","<p class=block-text>Trial 49 out of 60</p>","null","","","","","","","","","","","","","","","","","","","","","","","","","",""
"","","","","","image-button-response","102","486512","0.0-2.0-4.0-1.24","5ecfe4891d96f707354f918b","F1","batch6","spm_respsonse","8679.400000035763","img/question_5_1.jpeg","4","mat_49","7","0","0","8679.400000035763","","","","","","","","","","","","","","","","","","","","",""
"","","","","","html-keyboard-response","103","487573","0.0-2.0-4.0-0.25","5ecfe4891d96f707354f918b","F1","batch6","spm_show_trial_num","null","<p class=block-text>Trial 50 out of 60</p>","null","","","","","","","","","","","","","","","","","","","","","","","","","",""
"","","","","","image-button-response","104","500436","0.0-2.0-4.0-1.25","5ecfe4891d96f707354f918b","F1","batch6","spm_respsonse","12859.699999988079","img/question_5_2.jpeg","5","mat_50","6","1","1","12859.699999988079","","","","","","","","","","","","","","","","","","","","",""
"","","","","","html-keyboard-response","105","501506","0.0-2.0-4.0-0.26","5ecfe4891d96f707354f918b","F1","batch6","spm_show_trial_num","null","<p class=block-text>Trial 51 out of 60</p>","null","","","","","","","","","","","","","","","","","","","","","","","","","",""
"","","","","","image-button-response","106","512862","0.0-2.0-4.0-1.26","5ecfe4891d96f707354f918b","F1","batch6","spm_respsonse","11353.700000047684","img/question_5_3.jpeg","7","mat_51","8","1","1","11353.700000047684","","","","","","","","","","","","","","","","","","","","",""
"","","","","","html-keyboard-response","107","513931","0.0-2.0-4.0-0.27","5ecfe4891d96f707354f918b","F1","batch6","spm_show_trial_num","null","<p class=block-text>Trial 52 out of 60</p>","null","","","","","","","","","","","","","","","","","","","","","","","","","",""
"","","","","","image-button-response","108","522840","0.0-2.0-4.0-1.27","5ecfe4891d96f707354f918b","F1","batch6","spm_respsonse","8906.300000011921","img/question_5_4.jpeg","7","mat_52","2","0","0","8906.300000011921","","","","","","","","","","","","","","","","","","","","",""
"","","","","","html-keyboard-response","109","523907","0.0-2.0-4.0-0.28","5ecfe4891d96f707354f918b","F1","batch6","spm_show_trial_num","null","<p class=block-text>Trial 53 out of 60</p>","null","","","","","","","","","","","","","","","","","","","","","","","","","",""
"","","","","","image-button-response","110","537147","0.0-2.0-4.0-1.28","5ecfe4891d96f707354f918b","F1","batch6","spm_respsonse","13237.199999988079","img/question_5_5.jpeg","6","mat_53","1","0","0","13237.199999988079","","","","","","","","","","","","","","","","","","","","",""
"","","","","","html-keyboard-response","111","538211","0.0-2.0-4.0-0.29","5ecfe4891d96f707354f918b","F1","batch6","spm_show_trial_num","null","<p class=block-text>Trial 54 out of 60</p>","null","","","","","","","","","","","","","","","","","","","","","","","","","",""
"","","","","","image-button-response","112","551698","0.0-2.0-4.0-1.29","5ecfe4891d96f707354f918b","F1","batch6","spm_respsonse","13483.900000035763","img/question_5_6.jpeg","7","mat_54","5","0","0","13483.900000035763","","","","","","","","","","","","","","","","","","","","",""
"","","","","","html-keyboard-response","113","552764","0.0-2.0-4.0-0.30","5ecfe4891d96f707354f918b","F1","batch6","spm_show_trial_num","null","<p class=block-text>Trial 55 out of 60</p>","null","","","","","","","","","","","","","","","","","","","","","","","","","",""
"","","","","","image-button-response","114","568153","0.0-2.0-4.0-1.30","5ecfe4891d96f707354f918b","F1","batch6","spm_respsonse","15386.300000011921","img/question_5_7.jpeg","0","mat_55","1","1","1","15386.300000011921","","","","","","","","","","","","","","","","","","","","",""
"","","","","","html-keyboard-response","115","569220","0.0-2.0-4.0-0.31","5ecfe4891d96f707354f918b","F1","batch6","spm_show_trial_num","null","<p class=block-text>Trial 56 out of 60</p>","null","","","","","","","","","","","","","","","","","","","","","","","","","",""
"","","","","","image-button-response","116","580663","0.0-2.0-4.0-1.31","5ecfe4891d96f707354f918b","F1","batch6","spm_respsonse","11439.899999976158","img/question_5_8.jpeg","0","mat_56","6","0","0","11439.899999976158","","","","","","","","","","","","","","","","","","","","",""
"","","","","","html-keyboard-response","117","581733","0.0-2.0-4.0-0.32","5ecfe4891d96f707354f918b","F1","batch6","spm_show_trial_num","null","<p class=block-text>Trial 57 out of 60</p>","null","","","","","","","","","","","","","","","","","","","","","","","","","",""
"","","","","","image-button-response","118","593918","0.0-2.0-4.0-1.32","5ecfe4891d96f707354f918b","F1","batch6","spm_respsonse","12182.299999952316","img/question_5_9.jpeg","7","mat_57","3","0","0","12182.299999952316","","","","","","","","","","","","","","","","","","","","",""
"","","","","","html-keyboard-response","119","594985","0.0-2.0-4.0-0.33","5ecfe4891d96f707354f918b","F1","batch6","spm_show_trial_num","null","<p class=block-text>Trial 58 out of 60</p>","null","","","","","","","","","","","","","","","","","","","","","","","","","",""
"","","","","","image-button-response","120","605820","0.0-2.0-4.0-1.33","5ecfe4891d96f707354f918b","F1","batch6","spm_respsonse","10832","img/question_5_10.jpeg","1","mat_58","2","1","1","10832","","","","","","","","","","","","","","","","","","","","",""
"","","","","","html-keyboard-response","121","606885","0.0-2.0-4.0-0.34","5ecfe4891d96f707354f918b","F1","batch6","spm_show_trial_num","null","<p class=block-text>Trial 59 out of 60</p>","null","","","","","","","","","","","","","","","","","","","","","","","","","",""
"","","","","","image-button-response","122","626427","0.0-2.0-4.0-1.34","5ecfe4891d96f707354f918b","F1","batch6","spm_respsonse","19535.200000047684","img/question_5_11.jpeg","6","mat_59","4","0","0","19535.200000047684","","","","","","","","","","","","","","","","","","","","",""
"","","","","","html-keyboard-response","123","627498","0.0-2.0-4.0-0.35","5ecfe4891d96f707354f918b","F1","batch6","spm_show_trial_num","null","<p class=block-text>Trial 60 out of 60</p>","null","","","","","","","","","","","","","","","","","","","","","","","","","",""
"","","","","","image-button-response","124","659263","0.0-2.0-4.0-1.35","5ecfe4891d96f707354f918b","F1","batch6","spm_respsonse","31754","img/question_5_12.jpeg","6","mat_60","5","0","0","31754","","","","","","","","","","","","","","","","","","","","",""
"","","","","","html-button-response","125","661573","0.0-2.0-5.0","5ecfe4891d96f707354f918b","F1","batch6","spm_goodbye","2048.600000023842","<p class= block-text>This concludes the Standard Progressive Matrix game. Thank you for your responses!<br> When you are ready, click the button continue</p>","0","","","","","","","","","","","","","","","","","","","","","","","","","",""
"true","","","","","fullscreen","126","665558","0.0-3.0-0.0","5ecfe4891d96f707354f918b","F1","batch6","","","","","","","","","","","","","","","","","","","","","","","","","","","","","",""
"","","","","","instructions","127","685461","0.0-3.0-1.0-0.0","5ecfe4891d96f707354f918b","F1","batch6","","19900.400000035763","","","","","","","","[{""page_index"":0,""viewing_time"":2861},{""page_index"":1,""viewing_time"":2397.300000011921},{""page_index"":0,""viewing_time"":6278.199999988079},{""page_index"":1,""viewing_time"":8363.5}]","","","","","","","","","","","","","","","","","","","",""
"","","","","","html-button-response","128","686970","0.0-3.0-1.0-1.0-0.0","5ecfe4891d96f707354f918b","F1","batch6","pattern_enter_quiz","1507.5","<p class=block-text> Let's answer a few questions <br>","0","","","","","","","","","","","","","","","","","","","","","","","","","",""
"","","","","","html-button-response","129","690818","0.0-3.0-1.0-1.0-1.0","5ecfe4891d96f707354f918b","F1","batch6","pattern_quiz","3846","<p class = block-text>True or False: You will have as much time as you want to make each choice. <br></p>","1","","","true","","","","","","","","","","","","","","","","","","","","","","",""
"","","","","","html-button-response","130","692291","0.0-3.0-1.0-1.0-2.0","5ecfe4891d96f707354f918b","F1","batch6","pattern_quiz_feedback","1470.5","<p class = block-text>Correct! You should make your choice <strong> as fast as you can</strong>.</p>","0","","","","","","","","","","","","","","","","","","","","","","","","","",""
"","","","","","html-button-response","131","698174","0.0-3.0-1.0-1.0-3.0","5ecfe4891d96f707354f918b","F1","batch6","pattern_quiz","5881","<p class = block-text>True or False: You will look for 4 pieces in black or white color connected in a row either horizontally, vertically or diagonally. <br></p>","0","","","true","","","","","","","","","","","","","","","","","","","","","","",""
"","","","","","html-button-response","132","699062","0.0-3.0-1.0-1.0-4.0","5ecfe4891d96f707354f918b","F1","batch6","pattern_quiz_feedback","885.8000000119209","<p class = block-text>Correct! </p>","0","","","","","","","","","","","","","","","","","","","","","","","","","",""
"","","","","","html-button-response","133","700231","0.0-3.0-2.0","5ecfe4891d96f707354f918b","F1","batch6","pattern_enter_practice","1166.3999999761581","<p class=block-text> Now that you've understood the game, let's do a few practice trials before we start!<br> <br>","0","","","","","","","","","","","","","","","","","","","","","","","","","",""
"","","","","","image-keyboard-response","134","702015","0.0-3.0-3.0-0.0","5ecfe4891d96f707354f918b","F1","batch6","pattern_practice","1778.300000011921","stim/prac_yes_16_ver_w1.png","f","","f","true","","","","","","","","","","","","","","","","","","","","","","",""
"","","","","","html-keyboard-response","135","703029","0.0-3.0-3.0-1.0","5ecfe4891d96f707354f918b","F1","batch6","pattern_feedback","null","<p style=""font-size:30px;color:green;"">Correct!</p>","null","","","","","","","","","","","","","","","","","","","","","","","","","",""
"","","","","","image-keyboard-response","136","706013","0.0-3.0-3.0-0.1","5ecfe4891d96f707354f918b","F1","batch6","pattern_practice","2981.899999976158","stim/prac_no_18_1.png","j","","j","true","","","","","","","","","","","","","","","","","","","","","","",""
"","","","","","html-keyboard-response","137","707029","0.0-3.0-3.0-1.1","5ecfe4891d96f707354f918b","F1","batch6","pattern_feedback","null","<p style=""font-size:30px;color:green;"">Correct!</p>","null","","","","","","","","","","","","","","","","","","","","","","","","","",""
"","","","","","image-keyboard-response","138","708545","0.0-3.0-3.0-0.2","5ecfe4891d96f707354f918b","F1","batch6","pattern_practice","1513.9000000357628","stim/prac_no_16_1.png","j","","j","true","","","","","","","","","","","","","","","","","","","","","","",""
"","","","","","html-keyboard-response","139","709565","0.0-3.0-3.0-1.2","5ecfe4891d96f707354f918b","F1","batch6","pattern_feedback","null","<p style=""font-size:30px;color:green;"">Correct!</p>","null","","","","","","","","","","","","","","","","","","","","","","","","","",""
"","","","","","image-keyboard-response","140","711035","0.0-3.0-3.0-0.3","5ecfe4891d96f707354f918b","F1","batch6","pattern_practice","1467.699999988079","stim/prac_yes_20_dia_b1.png","j","","f","false","","","","","","","","","","","","","","","","","","","","","","",""
"","","","","","html-keyboard-response","141","712045","0.0-3.0-3.0-1.3","5ecfe4891d96f707354f918b","F1","batch6","pattern_feedback","null","<p style=""font-size:30px;color:red;"">Wrong.</p>","null","","","","","","","","","","","","","","","","","","","","","","","","","",""
"","","","","","image-keyboard-response","142","712962","0.0-3.0-3.0-0.4","5ecfe4891d96f707354f918b","F1","batch6","pattern_practice","915.3000000119209","stim/prac_yes_18_hor_w1.png","f","","f","true","","","","","","","","","","","","","","","","","","","","","","",""
"","","","","","html-keyboard-response","143","713971","0.0-3.0-3.0-1.4","5ecfe4891d96f707354f918b","F1","batch6","pattern_feedback","null","<p style=""font-size:30px;color:green;"">Correct!</p>","null","","","","","","","","","","","","","","","","","","","","","","","","","",""
"","","","","","html-button-response","144","715490","0.0-3.0-4.0","5ecfe4891d96f707354f918b","F1","batch6","pattern_enter_official_trials","1516.3999999761581","<p class=block-text> Good job! You are done with practice trials!<br>
        You responded correctly on 80% of the trials.<br>
        Press the button below to start official trials. Now you won't see any feedback about your response</p>","0","","","","","","","","","","","","","","","","","","","","","","","","","",""
"","","","","","html-keyboard-response","145","716301","0.0-3.0-5.0-0.0","5ecfe4891d96f707354f918b","F1","batch6","pattern_show_trial_num","null","<p class=block-text>Trial 1 out of 78</p>","null","","","","","","","","","","","","","","","","","","","","","","","","","",""
"","","","","","image-keyboard-response","146","721235","0.0-3.0-5.0-1.0","5ecfe4891d96f707354f918b","F1","batch6","pattern_response","4932.300000011921","stim/yes_42_dia_w1_w.png","j","pattern_64","f","false","","","","4932.300000011921","false","0","","","","","","","","","","","","","","","","",""
"","","","","","html-keyboard-response","147","722550","0.0-3.0-5.0-0.1","5ecfe4891d96f707354f918b","F1","batch6","pattern_show_trial_num","null","<p class=block-text>Trial 2 out of 78</p>","null","","","","","","","","","","","","","","","","","","","","","","","","","",""
"","","","","","image-keyboard-response","148","723500","0.0-3.0-5.0-1.1","5ecfe4891d96f707354f918b","F1","batch6","pattern_response","948.5","stim/no_45_1_w.png","f","pattern_25","j","false","","","","948.5","false","0","","","","","","","","","","","","","","","","",""
"","","","","","html-keyboard-response","149","724809","0.0-3.0-5.0-0.2","5ecfe4891d96f707354f918b","F1","batch6","pattern_show_trial_num","null","<p class=block-text>Trial 3 out of 78</p>","null","","","","","","","","","","","","","","","","","","","","","","","","","",""
"","","","","","image-keyboard-response","150","726506","0.0-3.0-5.0-1.2","5ecfe4891d96f707354f918b","F1","batch6","pattern_response","1695.7000000476837","stim/yes_53_ver_b1_b.png","f","pattern_74","f","true","","","","1695.7000000476837","true","1","","","","","","","","","","","","","","","","",""
"","","","","","html-keyboard-response","151","727817","0.0-3.0-5.0-0.3","5ecfe4891d96f707354f918b","F1","batch6","pattern_show_trial_num","null","<p class=block-text>Trial 4 out of 78</p>","null","","","","","","","","","","","","","","","","","","","","","","","","","",""
"","","","","","image-keyboard-response","152","731902","0.0-3.0-5.0-1.3","5ecfe4891d96f707354f918b","F1","batch6","pattern_response","4082.399999976158","stim/yes_58_dia_w1_w.png","j","pattern_76","f","false","","","","4082.399999976158","false","1","","","","","","","","","","","","","","","","",""
"","","","","","html-keyboard-response","153","733222","0.0-3.0-5.0-0.4","5ecfe4891d96f707354f918b","F1","batch6","pattern_show_trial_num","null","<p class=block-text>Trial 5 out of 78</p>","null","","","","","","","","","","","","","","","","","","","","","","","","","",""
"","","","","","image-keyboard-response","154","738309","0.0-3.0-5.0-1.4","5ecfe4891d96f707354f918b","F1","batch6","pattern_response","5084.100000023842","stim/no_58_1_w.png","j","pattern_35","j","true","","","","5084.100000023842","true","2","","","","","","","","","","","","","","","","",""
"","","","","","html-keyboard-response","155","739622","0.0-3.0-5.0-0.5","5ecfe4891d96f707354f918b","F1","batch6","pattern_show_trial_num","null","<p class=block-text>Trial 6 out of 78</p>","null","","","","","","","","","","","","","","","","","","","","","","","","","",""
"","","","","","image-keyboard-response","156","741219","0.0-3.0-5.0-1.5","5ecfe4891d96f707354f918b","F1","batch6","pattern_response","1594.7000000476837","stim/no_12_1.png","j","pattern_01","j","true","","","","1594.7000000476837","true","3","","","","","","","","","","","","","","","","",""
"","","","","","html-keyboard-response","157","742534","0.0-3.0-5.0-0.6","5ecfe4891d96f707354f918b","F1","batch6","pattern_show_trial_num","null","<p class=block-text>Trial 7 out of 78</p>","null","","","","","","","","","","","","","","","","","","","","","","","","","",""
"","","","","","image-keyboard-response","158","743463","0.0-3.0-5.0-1.6","5ecfe4891d96f707354f918b","F1","batch6","pattern_response","926.5999999642372","stim/no_53_1_b.png","f","pattern_33","j","false","","","","926.5999999642372","false","3","","","","","","","","","","","","","","","","",""
"","","","","","html-keyboard-response","159","744778","0.0-3.0-5.0-0.7","5ecfe4891d96f707354f918b","F1","batch6","pattern_show_trial_num","null","<p class=block-text>Trial 8 out of 78</p>","null","","","","","","","","","","","","","","","","","","","","","","","","","",""
"","","","","","image-keyboard-response","160","748648","0.0-3.0-5.0-1.7","5ecfe4891d96f707354f918b","F1","batch6","pattern_response","3868.399999976158","stim/no_39_1_w.png","j","pattern_21","j","true","","","","3868.399999976158","true","4","","","","","","","","","","","","","","","","",""
"","","","","","html-keyboard-response","161","749962","0.0-3.0-5.0-0.8","5ecfe4891d96f707354f918b","F1","batch6","pattern_show_trial_num","null","<p class=block-text>Trial 9 out of 78</p>","null","","","","","","","","","","","","","","","","","","","","","","","","","",""
"","","","","","image-keyboard-response","162","751293","0.0-3.0-5.0-1.8","5ecfe4891d96f707354f918b","F1","batch6","pattern_response","1327.7999999523163","stim/no_43_2_b.png","f","pattern_23","j","false","","","","1327.7999999523163","false","4","","","","","","","","","","","","","","","","",""
"","","","","","html-keyboard-response","163","752604","0.0-3.0-5.0-0.9","5ecfe4891d96f707354f918b","F1","batch6","pattern_show_trial_num","null","<p class=block-text>Trial 10 out of 78</p>","null","","","","","","","","","","","","","","","","","","","","","","","","","",""
"","","","","","image-keyboard-response","164","753577","0.0-3.0-5.0-1.9","5ecfe4891d96f707354f918b","F1","batch6","pattern_response","970.8999999761581","stim/yes_63_dia_b1.png","f","pattern_78","f","true","","","","970.8999999761581","true","5","","","","","","","","","","","","","","","","",""
"","","","","","html-keyboard-response","165","754895","0.0-3.0-5.0-0.10","5ecfe4891d96f707354f918b","F1","batch6","pattern_show_trial_num","null","<p class=block-text>Trial 11 out of 78</p>","null","","","","","","","","","","","","","","","","","","","","","","","","","",""
"","","","","","image-keyboard-response","166","755776","0.0-3.0-5.0-1.10","5ecfe4891d96f707354f918b","F1","batch6","pattern_response","879.1999999880791","stim/yes_39_hor_w1_w.png","f","pattern_62","f","true","","","","879.1999999880791","true","6","","","","","","","","","","","","","","","","",""
"","","","","","html-keyboard-response","167","757092","0.0-3.0-5.0-0.11","5ecfe4891d96f707354f918b","F1","batch6","pattern_show_trial_num","null","<p class=block-text>Trial 12 out of 78</p>","null","","","","","","","","","","","","","","","","","","","","","","","","","",""
"","","","","","image-keyboard-response","168","760143","0.0-3.0-5.0-1.11","5ecfe4891d96f707354f918b","F1","batch6","pattern_response","3048.7999999523163","stim/no_67_1.png","j","pattern_39","j","true","","","","3048.7999999523163","true","7","","","","","","","","","","","","","","","","",""
"","","","","","html-keyboard-response","169","761461","0.0-3.0-5.0-0.12","5ecfe4891d96f707354f918b","F1","batch6","pattern_show_trial_num","null","<p class=block-text>Trial 13 out of 78</p>","null","","","","","","","","","","","","","","","","","","","","","","","","","",""
"","","","","","image-keyboard-response","170","762614","0.0-3.0-5.0-1.12","5ecfe4891d96f707354f918b","F1","batch6","pattern_response","1150.699999988079","stim/yes_12_hor_w1_w.png","f","pattern_42","f","true","","","","1150.699999988079","true","8","","","","","","","","","","","","","","","","",""
"","","","","","html-keyboard-response","171","763932","0.0-3.0-5.0-0.13","5ecfe4891d96f707354f918b","F1","batch6","pattern_show_trial_num","null","<p class=block-text>Trial 14 out of 78</p>","null","","","","","","","","","","","","","","","","","","","","","","","","","",""
"","","","","","image-keyboard-response","172","766332","0.0-3.0-5.0-1.13","5ecfe4891d96f707354f918b","F1","batch6","pattern_response","2397.800000011921","stim/no_49_2_b.png","j","pattern_29","j","true","","","","2397.800000011921","true","9","","","","","","","","","","","","","","","","",""
"","","","","","html-keyboard-response","173","767643","0.0-3.0-5.0-0.14","5ecfe4891d96f707354f918b","F1","batch6","pattern_show_trial_num","null","<p class=block-text>Trial 15 out of 78</p>","null","","","","","","","","","","","","","","","","","","","","","","","","","",""
"","","","","","image-keyboard-response","174","769991","0.0-3.0-5.0-1.14","5ecfe4891d96f707354f918b","F1","batch6","pattern_response","2345.699999988079","stim/no_18_1_b.png","j","pattern_05","j","true","","","","2345.699999988079","true","10","","","","","","","","","","","","","","","","",""
"","","","","","html-keyboard-response","175","771311","0.0-3.0-5.0-0.15","5ecfe4891d96f707354f918b","F1","batch6","pattern_show_trial_num","null","<p class=block-text>Trial 16 out of 78</p>","null","","","","","","","","","","","","","","","","","","","","","","","","","",""
"","","","","","image-keyboard-response","176","773562","0.0-3.0-5.0-1.15","5ecfe4891d96f707354f918b","F1","batch6","pattern_response","2248.5","stim/yes_30_ver_b1_b.png","f","pattern_54","f","true","","","","2248.5","true","11","","","","","","","","","","","","","","","","",""
"","","","","","html-keyboard-response","177","774875","0.0-3.0-5.0-0.16","5ecfe4891d96f707354f918b","F1","batch6","pattern_show_trial_num","null","<p class=block-text>Trial 17 out of 78</p>","null","","","","","","","","","","","","","","","","","","","","","","","","","",""
"","","","","","image-keyboard-response","178","776082","0.0-3.0-5.0-1.16","5ecfe4891d96f707354f918b","F1","batch6","pattern_response","1204.8999999761581","stim/yes_23_ver_b1.png","f","pattern_48","f","true","","","","1204.8999999761581","true","12","","","","","","","","","","","","","","","","",""
"","","","","","html-keyboard-response","179","777399","0.0-3.0-5.0-0.17","5ecfe4891d96f707354f918b","F1","batch6","pattern_show_trial_num","null","<p class=block-text>Trial 18 out of 78</p>","null","","","","","","","","","","","","","","","","","","","","","","","","","",""
"","","","","","image-keyboard-response","180","780690","0.0-3.0-5.0-1.17","5ecfe4891d96f707354f918b","F1","batch6","pattern_response","3288.600000023842","stim/no_47_1_b.png","j","pattern_27","j","true","","","","3288.600000023842","true","13","","","","","","","","","","","","","","","","",""
"","","","","","html-keyboard-response","181","782008","0.0-3.0-5.0-0.18","5ecfe4891d96f707354f918b","F1","batch6","pattern_show_trial_num","null","<p class=block-text>Trial 19 out of 78</p>","null","","","","","","","","","","","","","","","","","","","","","","","","","",""
"","","","","","image-keyboard-response","182","784799","0.0-3.0-5.0-1.18","5ecfe4891d96f707354f918b","F1","batch6","pattern_response","2788.899999976158","stim/no_37_2_w.png","j","pattern_19","j","true","","","","2788.899999976158","true","14","","","","","","","","","","","","","","","","",""
"","","","","","html-keyboard-response","183","786107","0.0-3.0-5.0-0.19","5ecfe4891d96f707354f918b","F1","batch6","pattern_show_trial_num","null","<p class=block-text>Trial 20 out of 78</p>","null","","","","","","","","","","","","","","","","","","","","","","","","","",""
"","","","","","image-keyboard-response","184","787062","0.0-3.0-5.0-1.19","5ecfe4891d96f707354f918b","F1","batch6","pattern_response","953.3000000119209","stim/yes_70_ver_b1.png","f","pattern_80","f","true","","","","953.3000000119209","true","15","","","","","","","","","","","","","","","","",""
"","","","","","html-keyboard-response","185","788373","0.0-3.0-5.0-0.20","5ecfe4891d96f707354f918b","F1","batch6","pattern_show_trial_num","null","<p class=block-text>Trial 21 out of 78</p>","null","","","","","","","","","","","","","","","","","","","","","","","","","",""
"","","","","","image-keyboard-response","186","791073","0.0-3.0-5.0-1.20","5ecfe4891d96f707354f918b","F1","batch6","pattern_response","2698.600000023842","stim/no_33_1_b.png","j","pattern_15","j","true","","","","2698.600000023842","true","16","","","","","","","","","","","","","","","","",""
"","","","","","html-keyboard-response","187","792392","0.0-3.0-5.0-0.21","5ecfe4891d96f707354f918b","F1","batch6","pattern_show_trial_num","null","<p class=block-text>Trial 22 out of 78</p>","null","","","","","","","","","","","","","","","","","","","","","","","","","",""
"","","","","","image-keyboard-response","188","793402","0.0-3.0-5.0-1.21","5ecfe4891d96f707354f918b","F1","batch6","pattern_response","1008.2000000476837","stim/yes_37_hor_w1_w.png","f","pattern_60","f","true","","","","1008.2000000476837","true","17","","","","","","","","","","","","","","","","",""
"","","","","","html-keyboard-response","189","794720","0.0-3.0-5.0-0.22","5ecfe4891d96f707354f918b","F1","batch6","pattern_show_trial_num","null","<p class=block-text>Trial 23 out of 78</p>","null","","","","","","","","","","","","","","","","","","","","","","","","","",""
"","","","","","image-keyboard-response","190","796330","0.0-3.0-5.0-1.22","5ecfe4891d96f707354f918b","F1","batch6","pattern_response","1608.800000011921","stim/no_30_1_b.png","j","pattern_13","j","true","","","","1608.800000011921","true","18","","","","","","","","","","","","","","","","",""
"","","","","","html-keyboard-response","191","797648","0.0-3.0-5.0-0.23","5ecfe4891d96f707354f918b","F1","batch6","pattern_show_trial_num","null","<p class=block-text>Trial 24 out of 78</p>","null","","","","","","","","","","","","","","","","","","","","","","","","","",""
"","","","","","image-keyboard-response","192","798533","0.0-3.0-5.0-1.23","5ecfe4891d96f707354f918b","F1","batch6","pattern_response","882.5","stim/yes_44_ver_w1_w.png","f","pattern_66","f","true","","","","882.5","true","19","","","","","","","","","","","","","","","","",""
"","","","","","html-keyboard-response","193","799848","0.0-3.0-5.0-0.24","5ecfe4891d96f707354f918b","F1","batch6","pattern_show_trial_num","null","<p class=block-text>Trial 25 out of 78</p>","null","","","","","","","","","","","","","","","","","","","","","","","","","",""
"","","","","","image-keyboard-response","194","801157","0.0-3.0-5.0-1.24","5ecfe4891d96f707354f918b","F1","batch6","pattern_response","1307.6000000238419","stim/yes_51_dia_b1.png","f","pattern_72","f","true","","","","1307.6000000238419","true","20","","","","","","","","","","","","","","","","",""
"","","","","","html-keyboard-response","195","802472","0.0-3.0-5.0-0.25","5ecfe4891d96f707354f918b","F1","batch6","pattern_show_trial_num","null","<p class=block-text>Trial 26 out of 78</p>","null","","","","","","","","","","","","","","","","","","","","","","","","","",""
"","","","","","image-keyboard-response","196","803507","0.0-3.0-5.0-1.25","5ecfe4891d96f707354f918b","F1","batch6","pattern_response","1033.199999988079","stim/no_22_1_b.png","j","pattern_07","j","true","","","","1033.199999988079","true","21","","","","","","","","","","","","","","","","",""
"","","","","","html-keyboard-response","197","804824","0.0-3.0-5.0-0.26","5ecfe4891d96f707354f918b","F1","batch6","pattern_show_trial_num","null","<p class=block-text>Trial 27 out of 78</p>","null","","","","","","","","","","","","","","","","","","","","","","","","","",""
"","","","","","image-keyboard-response","198","805713","0.0-3.0-5.0-1.26","5ecfe4891d96f707354f918b","F1","batch6","pattern_response","887.1999999880791","stim/yes_17_ver_b1_b.png","f","pattern_46","f","true","","","","887.1999999880791","true","22","","","","","","","","","","","","","","","","",""
"","","","","","html-keyboard-response","199","807030","0.0-3.0-5.0-0.27","5ecfe4891d96f707354f918b","F1","batch6","pattern_show_trial_num","null","<p class=block-text>Trial 28 out of 78</p>","null","","","","","","","","","","","","","","","","","","","","","","","","","",""
"","","","","","image-keyboard-response","200","808471","0.0-3.0-5.0-1.27","5ecfe4891d96f707354f918b","F1","batch6","pattern_response","1439.9000000357628","stim/yes_29_hor_b1_b.png","f","pattern_52","f","true","","","","1439.9000000357628","true","23","","","","","","","","","","","","","","","","",""
"","","","","","html-keyboard-response","201","809780","0.0-3.0-5.0-0.28","5ecfe4891d96f707354f918b","F1","batch6","pattern_show_trial_num","null","<p class=block-text>Trial 29 out of 78</p>","null","","","","","","","","","","","","","","","","","","","","","","","","","",""
"","","","","","image-keyboard-response","202","810497","0.0-3.0-5.0-1.28","5ecfe4891d96f707354f918b","F1","batch6","pattern_response","714.5999999642372","stim/yes_15_dia_b1u_b.png","f","pattern_44","f","true","","","","714.5999999642372","true","24","","","","","","","","","","","","","","","","",""
"","","","","","html-keyboard-response","203","811816","0.0-3.0-5.0-0.29","5ecfe4891d96f707354f918b","F1","batch6","pattern_show_trial_num","null","<p class=block-text>Trial 30 out of 78</p>","null","","","","","","","","","","","","","","","","","","","","","","","","","",""
"","","","","","image-keyboard-response","204","812671","0.0-3.0-5.0-1.29","5ecfe4891d96f707354f918b","F1","batch6","pattern_response","853.3000000119209","stim/yes_33_dia_w1_w.png","f","pattern_56","f","true","","","","853.3000000119209","true","25","","","","","","","","","","","","","","","","",""
"","","","","","html-keyboard-response","205","813985","0.0-3.0-5.0-0.30","5ecfe4891d96f707354f918b","F1","batch6","pattern_show_trial_num","null","<p class=block-text>Trial 31 out of 78</p>","null","","","","","","","","","","","","","","","","","","","","","","","","","",""
"","","","","","image-keyboard-response","206","815251","0.0-3.0-5.0-1.30","5ecfe4891d96f707354f918b","F1","batch6","pattern_response","1264.5","stim/no_28_2.png","j","pattern_11","j","true","","","","1264.5","true","26","","","","","","","","","","","","","","","","",""
"","","","","","html-keyboard-response","207","816568","0.0-3.0-5.0-0.31","5ecfe4891d96f707354f918b","F1","batch6","pattern_show_trial_num","null","<p class=block-text>Trial 32 out of 78</p>","null","","","","","","","","","","","","","","","","","","","","","","","","","",""
"","","","","","image-keyboard-response","208","818232","0.0-3.0-5.0-1.31","5ecfe4891d96f707354f918b","F1","batch6","pattern_response","1663.0999999642372","stim/yes_49_hor_w1_b.png","f","pattern_70","f","true","","","","1663.0999999642372","true","27","","","","","","","","","","","","","","","","",""
"","","","","","html-keyboard-response","209","819548","0.0-3.0-5.0-0.32","5ecfe4891d96f707354f918b","F1","batch6","pattern_show_trial_num","null","<p class=block-text>Trial 33 out of 78</p>","null","","","","","","","","","","","","","","","","","","","","","","","","","",""
"","","","","","image-keyboard-response","210","821501","0.0-3.0-5.0-1.32","5ecfe4891d96f707354f918b","F1","batch6","pattern_response","1951.8999999761581","stim/no_36_1_b.png","j","pattern_17","j","true","","","","1951.8999999761581","true","28","","","","","","","","","","","","","","","","",""
"","","","","","html-keyboard-response","211","822817","0.0-3.0-5.0-0.33","5ecfe4891d96f707354f918b","F1","batch6","pattern_show_trial_num","null","<p class=block-text>Trial 34 out of 78</p>","null","","","","","","","","","","","","","","","","","","","","","","","","","",""
"","","","","","image-keyboard-response","212","823555","0.0-3.0-5.0-1.33","5ecfe4891d96f707354f918b","F1","batch6","pattern_response","737.0999999642372","stim/yes_26_dia_w2_w.png","f","pattern_50","f","true","","","","737.0999999642372","true","29","","","","","","","","","","","","","","","","",""
"","","","","","html-keyboard-response","213","824873","0.0-3.0-5.0-0.34","5ecfe4891d96f707354f918b","F1","batch6","pattern_show_trial_num","null","<p class=block-text>Trial 35 out of 78</p>","null","","","","","","","","","","","","","","","","","","","","","","","","","",""
"","","","","","image-keyboard-response","214","825541","0.0-3.0-5.0-1.34","5ecfe4891d96f707354f918b","F1","batch6","pattern_response","667","stim/yes_36_ver_w1_w.png","f","pattern_58","f","true","","","","667","true","30","","","","","","","","","","","","","","","","",""
"","","","","","html-keyboard-response","215","826857","0.0-3.0-5.0-0.35","5ecfe4891d96f707354f918b","F1","batch6","pattern_show_trial_num","null","<p class=block-text>Trial 36 out of 78</p>","null","","","","","","","","","","","","","","","","","","","","","","","","","",""
"","","","","","image-keyboard-response","216","828637","0.0-3.0-5.0-1.35","5ecfe4891d96f707354f918b","F1","batch6","pattern_response","1777.9000000357628","stim/no_51_1.png","j","pattern_31","j","true","","","","1777.9000000357628","true","31","","","","","","","","","","","","","","","","",""
"","","","","","html-keyboard-response","217","829952","0.0-3.0-5.0-0.36","5ecfe4891d96f707354f918b","F1","batch6","pattern_show_trial_num","null","<p class=block-text>Trial 37 out of 78</p>","null","","","","","","","","","","","","","","","","","","","","","","","","","",""
"","","","","","image-keyboard-response","218","831357","0.0-3.0-5.0-1.36","5ecfe4891d96f707354f918b","F1","batch6","pattern_response","1402.8999999761581","stim/no_15_1_w.png","j","pattern_03","j","true","","","","1402.8999999761581","true","32","","","","","","","","","","","","","","","","",""
"","","","","","html-keyboard-response","219","832673","0.0-3.0-5.0-0.37","5ecfe4891d96f707354f918b","F1","batch6","pattern_show_trial_num","null","<p class=block-text>Trial 38 out of 78</p>","null","","","","","","","","","","","","","","","","","","","","","","","","","",""
"","","","","","image-keyboard-response","220","833514","0.0-3.0-5.0-1.37","5ecfe4891d96f707354f918b","F1","batch6","pattern_response","839.4000000357628","stim/no_25_1_b.png","f","pattern_09","j","false","","","","839.4000000357628","false","32","","","","","","","","","","","","","","","","",""
"","","","","","html-keyboard-response","221","834833","0.0-3.0-5.0-0.38","5ecfe4891d96f707354f918b","F1","batch6","pattern_show_trial_num","null","<p class=block-text>Trial 39 out of 78</p>","null","","","","","","","","","","","","","","","","","","","","","","","","","",""
"","","","","","image-keyboard-response","222","835973","0.0-3.0-5.0-1.38","5ecfe4891d96f707354f918b","F1","batch6","pattern_response","1138.800000011921","stim/yes_46_ver_b1_b.png","f","pattern_68","f","true","","","","1138.800000011921","true","33","","","","","","","","","","","","","","","","",""
"","","","","","image-keyboard-response","223","839422","0.0-3.0-6.0","5ecfe4891d96f707354f918b","F1","batch6","attention_check","2939.600000023842","stim/empty_board.png","j","","j","true","","","","","","","500","[""f"",""j""]","","","","","","","","","","","","","","",""
"","","","","","html-keyboard-response","224","840233","0.0-3.0-7.0-0.0","5ecfe4891d96f707354f918b","F1","batch6","pattern_show_trial_num","null","<p class=block-text>Trial 40 out of 78</p>","null","","","","","","","","","","","","","","","","","","","","","","","","","",""
"","","","","","image-keyboard-response","225","841256","0.0-3.0-7.0-1.0","5ecfe4891d96f707354f918b","F1","batch6","pattern_response","1018.9000000357628","stim/yes_38_hor_b1_b.png","f","pattern_61","f","true","","","","1018.9000000357628","true","34","","","","","","","","","","","","","","","","",""
"","","","","","html-keyboard-response","226","842569","0.0-3.0-7.0-0.1","5ecfe4891d96f707354f918b","F1","batch6","pattern_show_trial_num","null","<p class=block-text>Trial 41 out of 78</p>","null","","","","","","","","","","","","","","","","","","","","","","","","","",""
"","","","","","image-keyboard-response","227","844059","0.0-3.0-7.0-1.1","5ecfe4891d96f707354f918b","F1","batch6","pattern_response","1487.800000011921","stim/no_32_1_w.png","j","pattern_14","j","true","","","","1487.800000011921","true","35","","","","","","","","","","","","","","","","",""
"","","","","","html-keyboard-response","228","845374","0.0-3.0-7.0-0.2","5ecfe4891d96f707354f918b","F1","batch6","pattern_show_trial_num","null","<p class=block-text>Trial 42 out of 78</p>","null","","","","","","","","","","","","","","","","","","","","","","","","","",""
"","","","","","image-keyboard-response","229","846625","0.0-3.0-7.0-1.2","5ecfe4891d96f707354f918b","F1","batch6","pattern_response","1249.7999999523163","stim/no_29_1_b.png","j","pattern_12","j","true","","","","1249.7999999523163","true","36","","","","","","","","","","","","","","","","",""
"","","","","","html-keyboard-response","230","847946","0.0-3.0-7.0-0.3","5ecfe4891d96f707354f918b","F1","batch6","pattern_show_trial_num","null","<p class=block-text>Trial 43 out of 78</p>","null","","","","","","","","","","","","","","","","","","","","","","","","","",""
"","","","","","image-keyboard-response","231","851710","0.0-3.0-7.0-1.3","5ecfe4891d96f707354f918b","F1","batch6","pattern_response","3762.199999988079","stim/no_70_2.png","j","pattern_40","j","true","","","","3762.199999988079","true","37","","","","","","","","","","","","","","","","",""
"","","","","","html-keyboard-response","232","853026","0.0-3.0-7.0-0.4","5ecfe4891d96f707354f918b","F1","batch6","pattern_show_trial_num","null","<p class=block-text>Trial 44 out of 78</p>","null","","","","","","","","","","","","","","","","","","","","","","","","","",""
"","","","","","image-keyboard-response","233","855821","0.0-3.0-7.0-1.4","5ecfe4891d96f707354f918b","F1","batch6","pattern_response","2793.199999988079","stim/no_65_1_b.png","j","pattern_38","j","true","","","","2793.199999988079","true","38","","","","","","","","","","","","","","","","",""
"","","","","","html-keyboard-response","234","857138","0.0-3.0-7.0-0.5","5ecfe4891d96f707354f918b","F1","batch6","pattern_show_trial_num","null","<p class=block-text>Trial 45 out of 78</p>","null","","","","","","","","","","","","","","","","","","","","","","","","","",""
"","","","","","image-keyboard-response","235","860020","0.0-3.0-7.0-1.5","5ecfe4891d96f707354f918b","F1","batch6","pattern_response","2880.099999964237","stim/no_36_2_w.png","j","pattern_18","j","true","","","","2880.099999964237","true","39","","","","","","","","","","","","","","","","",""
"","","","","","html-keyboard-response","236","861333","0.0-3.0-7.0-0.6","5ecfe4891d96f707354f918b","F1","batch6","pattern_show_trial_num","null","<p class=block-text>Trial 46 out of 78</p>","null","","","","","","","","","","","","","","","","","","","","","","","","","",""
"","","","","","image-keyboard-response","237","864217","0.0-3.0-7.0-1.6","5ecfe4891d96f707354f918b","F1","batch6","pattern_response","2881.699999988079","stim/no_50_1.png","j","pattern_30","j","true","","","","2881.699999988079","true","40","","","","","","","","","","","","","","","","",""
"","","","","","html-keyboard-response","238","865530","0.0-3.0-7.0-0.7","5ecfe4891d96f707354f918b","F1","batch6","pattern_show_trial_num","null","<p class=block-text>Trial 47 out of 78</p>","null","","","","","","","","","","","","","","","","","","","","","","","","","",""
"","","","","","image-keyboard-response","239","867186","0.0-3.0-7.0-1.7","5ecfe4891d96f707354f918b","F1","batch6","pattern_response","1653.699999988079","stim/no_20_1_w.png","j","pattern_06","j","true","","","","1653.699999988079","true","41","","","","","","","","","","","","","","","","",""
"","","","","","html-keyboard-response","240","868501","0.0-3.0-7.0-0.8","5ecfe4891d96f707354f918b","F1","batch6","pattern_show_trial_num","null","<p class=block-text>Trial 48 out of 78</p>","null","","","","","","","","","","","","","","","","","","","","","","","","","",""
"","","","","","image-keyboard-response","241","873920","0.0-3.0-7.0-1.8","5ecfe4891d96f707354f918b","F1","batch6","pattern_response","5416.300000011921","stim/yes_48_dia_w1_w.png","j","pattern_69","f","false","","","","5416.300000011921","false","41","","","","","","","","","","","","","","","","",""
"","","","","","html-keyboard-response","242","875231","0.0-3.0-7.0-0.9","5ecfe4891d96f707354f918b","F1","batch6","pattern_show_trial_num","null","<p class=block-text>Trial 49 out of 78</p>","null","","","","","","","","","","","","","","","","","","","","","","","","","",""
"","","","","","image-keyboard-response","243","876695","0.0-3.0-7.0-1.9","5ecfe4891d96f707354f918b","F1","batch6","pattern_response","1461.699999988079","stim/yes_43_ver_w1_w.png","f","pattern_65","f","true","","","","1461.699999988079","true","42","","","","","","","","","","","","","","","","",""
"","","","","","html-keyboard-response","244","878010","0.0-3.0-7.0-0.10","5ecfe4891d96f707354f918b","F1","batch6","pattern_show_trial_num","null","<p class=block-text>Trial 50 out of 78</p>","null","","","","","","","","","","","","","","","","","","","","","","","","","",""
"","","","","","image-keyboard-response","245","878734","0.0-3.0-7.0-1.10","5ecfe4891d96f707354f918b","F1","batch6","pattern_response","721.3000000119209","stim/yes_17_dia_w1.png","f","pattern_45","f","true","","","","721.3000000119209","true","43","","","","","","","","","","","","","","","","",""
"","","","","","html-keyboard-response","246","880051","0.0-3.0-7.0-0.11","5ecfe4891d96f707354f918b","F1","batch6","pattern_show_trial_num","null","<p class=block-text>Trial 51 out of 78</p>","null","","","","","","","","","","","","","","","","","","","","","","","","","",""
"","","","","","image-keyboard-response","247","883705","0.0-3.0-7.0-1.11","5ecfe4891d96f707354f918b","F1","batch6","pattern_response","3652.800000011921","stim/no_62_1_w.png","j","pattern_36","j","true","","","","3652.800000011921","true","44","","","","","","","","","","","","","","","","",""
"","","","","","html-keyboard-response","248","885016","0.0-3.0-7.0-0.12","5ecfe4891d96f707354f918b","F1","batch6","pattern_show_trial_num","null","<p class=block-text>Trial 52 out of 78</p>","null","","","","","","","","","","","","","","","","","","","","","","","","","",""
"","","","","","image-keyboard-response","249","886685","0.0-3.0-7.0-1.12","5ecfe4891d96f707354f918b","F1","batch6","pattern_response","1666.199999988079","stim/yes_67_hor_b1.png","f","pattern_79","f","true","","","","1666.199999988079","true","45","","","","","","","","","","","","","","","","",""
"","","","","","html-keyboard-response","250","888003","0.0-3.0-7.0-0.13","5ecfe4891d96f707354f918b","F1","batch6","pattern_show_trial_num","null","<p class=block-text>Trial 53 out of 78</p>","null","","","","","","","","","","","","","","","","","","","","","","","","","",""
"","","","","","image-keyboard-response","251","889873","0.0-3.0-7.0-1.13","5ecfe4891d96f707354f918b","F1","batch6","pattern_response","1868.300000011921","stim/yes_31_hor_b1.png","f","pattern_55","f","true","","","","1868.300000011921","true","46","","","","","","","","","","","","","","","","",""
"","","","","","html-keyboard-response","252","891187","0.0-3.0-7.0-0.14","5ecfe4891d96f707354f918b","F1","batch6","pattern_show_trial_num","null","<p class=block-text>Trial 54 out of 78</p>","null","","","","","","","","","","","","","","","","","","","","","","","","","",""
"","","","","","image-keyboard-response","253","892462","0.0-3.0-7.0-1.14","5ecfe4891d96f707354f918b","F1","batch6","pattern_response","1273.6000000238419","stim/yes_55_hor_w1_w.png","f","pattern_75","f","true","","","","1273.6000000238419","true","47","","","","","","","","","","","","","","","","",""
"","","","","","html-keyboard-response","254","893778","0.0-3.0-7.0-0.15","5ecfe4891d96f707354f918b","F1","batch6","pattern_show_trial_num","null","<p class=block-text>Trial 55 out of 78</p>","null","","","","","","","","","","","","","","","","","","","","","","","","","",""
"","","","","","image-keyboard-response","255","896065","0.0-3.0-7.0-1.15","5ecfe4891d96f707354f918b","F1","batch6","pattern_response","2285.199999988079","stim/no_38_1_b.png","j","pattern_20","j","true","","","","2285.199999988079","true","48","","","","","","","","","","","","","","","","",""
"","","","","","html-keyboard-response","256","897379","0.0-3.0-7.0-0.16","5ecfe4891d96f707354f918b","F1","batch6","pattern_show_trial_num","null","<p class=block-text>Trial 56 out of 78</p>","null","","","","","","","","","","","","","","","","","","","","","","","","","",""
"","","","","","image-keyboard-response","257","898845","0.0-3.0-7.0-1.16","5ecfe4891d96f707354f918b","F1","batch6","pattern_response","1464.1000000238419","stim/yes_29_ver_w1.png","f","pattern_53","f","true","","","","1464.1000000238419","true","49","","","","","","","","","","","","","","","","",""
"","","","","","html-keyboard-response","258","900162","0.0-3.0-7.0-0.17","5ecfe4891d96f707354f918b","F1","batch6","pattern_show_trial_num","null","<p class=block-text>Trial 57 out of 78</p>","null","","","","","","","","","","","","","","","","","","","","","","","","","",""
"","","","","","image-keyboard-response","259","902592","0.0-3.0-7.0-1.17","5ecfe4891d96f707354f918b","F1","batch6","pattern_response","2427.899999976158","stim/yes_60_ver_b1_b.png","j","pattern_77","f","false","","","","2427.899999976158","false","49","","","","","","","","","","","","","","","","",""
"","","","","","html-keyboard-response","260","903907","0.0-3.0-7.0-0.18","5ecfe4891d96f707354f918b","F1","batch6","pattern_show_trial_num","null","<p class=block-text>Trial 58 out of 78</p>","null","","","","","","","","","","","","","","","","","","","","","","","","","",""
"","","","","","image-keyboard-response","261","905015","0.0-3.0-7.0-1.18","5ecfe4891d96f707354f918b","F1","batch6","pattern_response","1105.3999999761581","stim/yes_35_dia_b1.png","f","pattern_57","f","true","","","","1105.3999999761581","true","50","","","","","","","","","","","","","","","","",""
"","","","","","html-keyboard-response","262","906327","0.0-3.0-7.0-0.19","5ecfe4891d96f707354f918b","F1","batch6","pattern_show_trial_num","null","<p class=block-text>Trial 59 out of 78</p>","null","","","","","","","","","","","","","","","","","","","","","","","","","",""
"","","","","","image-keyboard-response","263","906972","0.0-3.0-7.0-1.19","5ecfe4891d96f707354f918b","F1","batch6","pattern_response","643.3000000119209","stim/yes_25_hor_b1_b.png","f","pattern_49","f","true","","","","643.3000000119209","true","51","","","","","","","","","","","","","","","","",""
"","","","","","html-keyboard-response","264","908288","0.0-3.0-7.0-0.20","5ecfe4891d96f707354f918b","F1","batch6","pattern_show_trial_num","null","<p class=block-text>Trial 60 out of 78</p>","null","","","","","","","","","","","","","","","","","","","","","","","","","",""
"","","","","","image-keyboard-response","265","909099","0.0-3.0-7.0-1.20","5ecfe4891d96f707354f918b","F1","batch6","pattern_response","810","stim/yes_28_ver_b1.png","f","pattern_51","f","true","","","","810","true","52","","","","","","","","","","","","","","","","",""
"","","","","","html-keyboard-response","266","910419","0.0-3.0-7.0-0.21","5ecfe4891d96f707354f918b","F1","batch6","pattern_show_trial_num","null","<p class=block-text>Trial 61 out of 78</p>","null","","","","","","","","","","","","","","","","","","","","","","","","","",""
"","","","","","image-keyboard-response","267","913036","0.0-3.0-7.0-1.21","5ecfe4891d96f707354f918b","F1","batch6","pattern_response","2614.600000023842","stim/yes_50_dia_w1.png","j","pattern_71","f","false","","","","2614.600000023842","false","52","","","","","","","","","","","","","","","","",""
"","","","","","html-keyboard-response","268","914356","0.0-3.0-7.0-0.22","5ecfe4891d96f707354f918b","F1","batch6","pattern_show_trial_num","null","<p class=block-text>Trial 62 out of 78</p>","null","","","","","","","","","","","","","","","","","","","","","","","","","",""
"","","","","","image-keyboard-response","269","915903","0.0-3.0-7.0-1.22","5ecfe4891d96f707354f918b","F1","batch6","pattern_response","1545.800000011921","stim/no_17_1_w.png","j","pattern_04","j","true","","","","1545.800000011921","true","53","","","","","","","","","","","","","","","","",""
"","","","","","html-keyboard-response","270","917220","0.0-3.0-7.0-0.23","5ecfe4891d96f707354f918b","F1","batch6","pattern_show_trial_num","null","<p class=block-text>Trial 63 out of 78</p>","null","","","","","","","","","","","","","","","","","","","","","","","","","",""
"","","","","","image-keyboard-response","271","918658","0.0-3.0-7.0-1.23","5ecfe4891d96f707354f918b","F1","batch6","pattern_response","1436.800000011921","stim/yes_45_hor_b2_b.png","f","pattern_67","f","true","","","","1436.800000011921","true","54","","","","","","","","","","","","","","","","",""
"","","","","","html-keyboard-response","272","919970","0.0-3.0-7.0-0.24","5ecfe4891d96f707354f918b","F1","batch6","pattern_show_trial_num","null","<p class=block-text>Trial 64 out of 78</p>","null","","","","","","","","","","","","","","","","","","","","","","","","","",""
"","","","","","image-keyboard-response","273","921240","0.0-3.0-7.0-1.24","5ecfe4891d96f707354f918b","F1","batch6","pattern_response","1267.199999988079","stim/no_23_1.png","j","pattern_08","j","true","","","","1267.199999988079","true","55","","","","","","","","","","","","","","","","",""
"","","","","","html-keyboard-response","274","922554","0.0-3.0-7.0-0.25","5ecfe4891d96f707354f918b","F1","batch6","pattern_show_trial_num","null","<p class=block-text>Trial 65 out of 78</p>","null","","","","","","","","","","","","","","","","","","","","","","","","","",""
"","","","","","image-keyboard-response","275","924564","0.0-3.0-7.0-1.25","5ecfe4891d96f707354f918b","F1","batch6","pattern_response","2008.5","stim/yes_37_dia_w1.png","j","pattern_59","f","false","","","","2008.5","false","55","","","","","","","","","","","","","","","","",""
"","","","","","html-keyboard-response","276","925884","0.0-3.0-7.0-0.26","5ecfe4891d96f707354f918b","F1","batch6","pattern_show_trial_num","null","<p class=block-text>Trial 66 out of 78</p>","null","","","","","","","","","","","","","","","","","","","","","","","","","",""
"","","","","","image-keyboard-response","277","927376","0.0-3.0-7.0-1.26","5ecfe4891d96f707354f918b","F1","batch6","pattern_response","1490.5","stim/no_44_1.png","j","pattern_24","j","true","","","","1490.5","true","56","","","","","","","","","","","","","","","","",""
"","","","","","html-keyboard-response","278","928690","0.0-3.0-7.0-0.27","5ecfe4891d96f707354f918b","F1","batch6","pattern_show_trial_num","null","<p class=block-text>Trial 67 out of 78</p>","null","","","","","","","","","","","","","","","","","","","","","","","","","",""
"","","","","","image-keyboard-response","279","930204","0.0-3.0-7.0-1.27","5ecfe4891d96f707354f918b","F1","batch6","pattern_response","1511.4000000357628","stim/no_42_1_w.png","j","pattern_22","j","true","","","","1511.4000000357628","true","57","","","","","","","","","","","","","","","","",""
"","","","","","html-keyboard-response","280","931524","0.0-3.0-7.0-0.28","5ecfe4891d96f707354f918b","F1","batch6","pattern_show_trial_num","null","<p class=block-text>Trial 68 out of 78</p>","null","","","","","","","","","","","","","","","","","","","","","","","","","",""
"","","","","","image-keyboard-response","281","932212","0.0-3.0-7.0-1.28","5ecfe4891d96f707354f918b","F1","batch6","pattern_response","686.6999999880791","stim/yes_22_ver_w1.png","f","pattern_47","f","true","","","","686.6999999880791","true","58","","","","","","","","","","","","","","","","",""
"","","","","","html-keyboard-response","282","933529","0.0-3.0-7.0-0.29","5ecfe4891d96f707354f918b","F1","batch6","pattern_show_trial_num","null","<p class=block-text>Trial 69 out of 78</p>","null","","","","","","","","","","","","","","","","","","","","","","","","","",""
"","","","","","image-keyboard-response","283","936064","0.0-3.0-7.0-1.29","5ecfe4891d96f707354f918b","F1","batch6","pattern_response","2532.5","stim/no_55_1_w.png","j","pattern_34","j","true","","","","2532.5","true","59","","","","","","","","","","","","","","","","",""
"","","","","","html-keyboard-response","284","937375","0.0-3.0-7.0-0.30","5ecfe4891d96f707354f918b","F1","batch6","pattern_show_trial_num","null","<p class=block-text>Trial 70 out of 78</p>","null","","","","","","","","","","","","","","","","","","","","","","","","","",""
"","","","","","image-keyboard-response","285","938557","0.0-3.0-7.0-1.30","5ecfe4891d96f707354f918b","F1","batch6","pattern_response","1180.199999988079","stim/no_13_2_b.png","j","pattern_02","j","true","","","","1180.199999988079","true","60","","","","","","","","","","","","","","","","",""
"","","","","","html-keyboard-response","286","939872","0.0-3.0-7.0-0.31","5ecfe4891d96f707354f918b","F1","batch6","pattern_show_trial_num","null","<p class=block-text>Trial 71 out of 78</p>","null","","","","","","","","","","","","","","","","","","","","","","","","","",""
"","","","","","image-keyboard-response","287","941464","0.0-3.0-7.0-1.31","5ecfe4891d96f707354f918b","F1","batch6","pattern_response","1589.5","stim/yes_52_ver_w1.png","f","pattern_73","f","true","","","","1589.5","true","61","","","","","","","","","","","","","","","","",""
"","","","","","html-keyboard-response","288","942780","0.0-3.0-7.0-0.32","5ecfe4891d96f707354f918b","F1","batch6","pattern_show_trial_num","null","<p class=block-text>Trial 72 out of 78</p>","null","","","","","","","","","","","","","","","","","","","","","","","","","",""
"","","","","","image-keyboard-response","289","944106","0.0-3.0-7.0-1.32","5ecfe4891d96f707354f918b","F1","batch6","pattern_response","1323.300000011921","stim/no_34_1_b.png","j","pattern_16","j","true","","","","1323.300000011921","true","62","","","","","","","","","","","","","","","","",""
"","","","","","html-keyboard-response","290","945420","0.0-3.0-7.0-0.33","5ecfe4891d96f707354f918b","F1","batch6","pattern_show_trial_num","null","<p class=block-text>Trial 73 out of 78</p>","null","","","","","","","","","","","","","","","","","","","","","","","","","",""
"","","","","","image-keyboard-response","291","946312","0.0-3.0-7.0-1.33","5ecfe4891d96f707354f918b","F1","batch6","pattern_response","890.1999999880791","stim/yes_14_hor_b1_w.png","f","pattern_43","f","true","","","","890.1999999880791","true","63","","","","","","","","","","","","","","","","",""
"","","","","","html-keyboard-response","292","947629","0.0-3.0-7.0-0.34","5ecfe4891d96f707354f918b","F1","batch6","pattern_show_trial_num","null","<p class=block-text>Trial 74 out of 78</p>","null","","","","","","","","","","","","","","","","","","","","","","","","","",""
"","","","","","image-keyboard-response","293","950175","0.0-3.0-7.0-1.34","5ecfe4891d96f707354f918b","F1","batch6","pattern_response","2544.399999976158","stim/no_48_1_w.png","j","pattern_28","j","true","","","","2544.399999976158","true","64","","","","","","","","","","","","","","","","",""
"","","","","","html-keyboard-response","294","951493","0.0-3.0-7.0-0.35","5ecfe4891d96f707354f918b","F1","batch6","pattern_show_trial_num","null","<p class=block-text>Trial 75 out of 78</p>","null","","","","","","","","","","","","","","","","","","","","","","","","","",""
"","","","","","image-keyboard-response","295","953279","0.0-3.0-7.0-1.35","5ecfe4891d96f707354f918b","F1","batch6","pattern_response","1783.9000000357628","stim/yes_40_dia_b1_b.png","j","pattern_63","f","false","","","","1783.9000000357628","false","64","","","","","","","","","","","","","","","","",""
"","","","","","html-keyboard-response","296","954597","0.0-3.0-7.0-0.36","5ecfe4891d96f707354f918b","F1","batch6","pattern_show_trial_num","null","<p class=block-text>Trial 76 out of 78</p>","null","","","","","","","","","","","","","","","","","","","","","","","","","",""
"","","","","","image-keyboard-response","297","955955","0.0-3.0-7.0-1.36","5ecfe4891d96f707354f918b","F1","batch6","pattern_response","1355.699999988079","stim/no_26_1_w.png","j","pattern_10","j","true","","","","1355.699999988079","true","65","","","","","","","","","","","","","","","","",""
"","","","","","html-keyboard-response","298","957265","0.0-3.0-7.0-0.37","5ecfe4891d96f707354f918b","F1","batch6","pattern_show_trial_num","null","<p class=block-text>Trial 77 out of 78</p>","null","","","","","","","","","","","","","","","","","","","","","","","","","",""
"","","","","","image-keyboard-response","299","960553","0.0-3.0-7.0-1.37","5ecfe4891d96f707354f918b","F1","batch6","pattern_response","3286.2000000476837","stim/no_46_1_b.png","j","pattern_26","j","true","","","","3286.2000000476837","true","66","","","","","","","","","","","","","","","","",""
"","","","","","html-keyboard-response","300","961869","0.0-3.0-7.0-0.38","5ecfe4891d96f707354f918b","F1","batch6","pattern_show_trial_num","null","<p class=block-text>Trial 78 out of 78</p>","null","","","","","","","","","","","","","","","","","","","","","","","","","",""
"","","","","","image-keyboard-response","301","964036","0.0-3.0-7.0-1.38","5ecfe4891d96f707354f918b","F1","batch6","pattern_response","2164.599999964237","stim/no_52_1.png","j","pattern_32","j","true","","","","2164.599999964237","true","67","","","","","","","","","","","","","","","","",""
"","","","","","html-button-response","302","968082","0.0-3.0-8.0","5ecfe4891d96f707354f918b","F1","batch6","","3541.199999988079","<p class = block-text>This concludes the 4-in-a-row detection game.Thank you for your responses!<br>
            You responded correctly on 86% of the trials.<br>
            When you are ready, press ""Continue"" button to continue </p>","0","","","","","","","","","","","","","","","","","","","","","","","","","",""
"true","","","","","fullscreen","303","970674","0.0-4.0-0.0","5ecfe4891d96f707354f918b","F1","batch6","","","","","","","","","","","","","","","","","","","","","","","","","","","","","",""
"","","","","","instructions","304","993354","0.0-4.0-1.0-0.0-0.0","5ecfe4891d96f707354f918b","F1","batch6","tol-instructions","22678","","","","","","","","[{""page_index"":0,""viewing_time"":7126.199999988079},{""page_index"":1,""viewing_time"":2229.199999988079},{""page_index"":2,""viewing_time"":1905.3999999761581},{""page_index"":3,""viewing_time"":2389.600000023842},{""page_index"":4,""viewing_time"":4654.5},{""page_index"":5,""viewing_time"":1208.6000000238419},{""page_index"":6,""viewing_time"":3164}]","","","","","","","","","","","","","","","","","","","",""
"","","","","","html-button-response","305","1003239","0.0-4.0-1.0-1.0-0.0","5ecfe4891d96f707354f918b","F1","batch6","tol_enter_quiz","9884.300000011921","<p class=block-text> Let's answer a few questions <br>","0","","","","","","","","","","","","","","","","","","","","","","","","","",""
"","","","","","html-button-response","306","1007096","0.0-4.0-1.0-1.0-1.0","5ecfe4891d96f707354f918b","F1","batch6","tol_quiz","3854","<p class = block-text>True or False: You can only move the ball on top of a peg. <br></p>","0","","","true","","","","","","","","","","","","","","","","","","","","","","",""
"","","","","","html-button-response","307","1008525","0.0-4.0-1.0-1.0-2.0","5ecfe4891d96f707354f918b","F1","batch6","tol_quiz_feedback","1422.0999999642372","<p class = block-text>Correct! You can only move the ball on top of a peg.</p>","0","","","","","","","","","","","","","","","","","","","","","","","","","",""
"","","","","","html-button-response","308","1012000","0.0-4.0-1.0-1.0-3.0","5ecfe4891d96f707354f918b","F1","batch6","tol_quiz","3473.600000023842","<p class = block-text>True or False: You should try to match your board with the target board with fewest moves possible. <br></p>","0","","","true","","","","","","","","","","","","","","","","","","","","","","",""
"","","","","","html-button-response","309","1012824","0.0-4.0-1.0-1.0-4.0","5ecfe4891d96f707354f918b","F1","batch6","tol_quiz_feedback","822.6999999880791","<p class = block-text>Correct! </p>","0","","","","","","","","","","","","","","","","","","","","","","","","","",""
"","","","","","html-button-response","310","1014834","0.0-4.0-2.0","5ecfe4891d96f707354f918b","F1","batch6","","2007","<p class=block-text> Now that you've understood the game, let's practice a few easier examples before we start!<br> <br>","0","","","","","","","","","","","","","","","","","","","","","","","","","",""
"","","","","","single-stim-button","311","1018235","0.0-4.0-3.0-0.0","5ecfe4891d96f707354f918b","F1","batch6","tol_practice","3398","","","","","","","","","","","","","","tol_peg_2","3398","3398","0","[[1,2,0],[0,0],[0]]","1","[[1,2,0],[0,0],[3]]","practice","3398","","","","","",""
"","","","","","single-stim-button","312","1019289","0.0-4.0-3.0-1.0","5ecfe4891d96f707354f918b","F1","batch6","tol_practice","1052","","","","","","","","","","","","","","tol_peg_3","1052","1052","0","[[1,2,0],[0,0],[3]]","1","[[1,2,0],[0,0],[3]]","practice","1052","","","","","",""
"","","","","","poldrack-single-stim","313","1020303","0.0-4.0-4.0","5ecfe4891d96f707354f918b","F1","batch6","tol_feedback","-1","","","","","true","","","","","","","","","","1000","1000","500","","","","","","-1","none","true","","0",""
"","","","","","single-stim-button","314","1023638","0.0-4.0-5.0-0.0","5ecfe4891d96f707354f918b","F1","batch6","tol_practice","3334","","","","","","","","","","","","","","tol_peg_1","3334","3334","0","[[1,0,0],[3,0],[0]]","2","[[0,0,0],[3,1],[2]]","practice","3334","","","","","",""
"","","","","","single-stim-button","315","1024483","0.0-4.0-5.0-1.0","5ecfe4891d96f707354f918b","F1","batch6","tol_practice","844","","","","","","","","","","","","","","tol_peg_3","844","844","0","[[1,0,0],[3,0],[2]]","2","[[0,0,0],[3,1],[2]]","practice","844","","","","","",""
"","","","","","single-stim-button","316","1025443","0.0-4.0-5.1-0.1","5ecfe4891d96f707354f918b","F1","batch6","tol_practice","959","","","","","","","","","","","","","","tol_peg_1","959","959","0","[[0,0,0],[3,0],[2]]","3","[[0,0,0],[3,1],[2]]","practice","959","","","","","",""
"","","","","","single-stim-button","317","1026476","0.0-4.0-5.1-1.1","5ecfe4891d96f707354f918b","F1","batch6","tol_practice","1032","","","","","","","","","","","","","","tol_peg_2","1032","1032","0","[[0,0,0],[3,1],[2]]","3","[[0,0,0],[3,1],[2]]","practice","1032","","","","","",""
"","","","","","poldrack-single-stim","318","1027487","0.0-4.0-6.0","5ecfe4891d96f707354f918b","F1","batch6","tol_feedback","-1","","","","","true","","","","","","","","","","1000","1000","500","","","","","","-1","none","true","","0",""
"","","","","","single-stim-button","319","1030154","0.0-4.0-7.0-0.0","5ecfe4891d96f707354f918b","F1","batch6","tol_practice","2666","","","","","","","","","","","","","","tol_peg_2","2666","2666","0","[[1,2,0],[0,0],[0]]","4","[[1,0,0],[2,0],[3]]","practice","2666","","","","","",""
"","","","","","single-stim-button","320","1031011","0.0-4.0-7.0-1.0","5ecfe4891d96f707354f918b","F1","batch6","tol_practice","856","","","","","","","","","","","","","","tol_peg_3","856","856","0","[[1,2,0],[0,0],[3]]","4","[[1,0,0],[2,0],[3]]","practice","856","","","","","",""
"","","","","","single-stim-button","321","1031803","0.0-4.0-7.1-0.1","5ecfe4891d96f707354f918b","F1","batch6","tol_practice","791","","","","","","","","","","","","","","tol_peg_1","791","791","0","[[1,0,0],[0,0],[3]]","5","[[1,0,0],[2,0],[3]]","practice","791","","","","","",""
"","","","","","single-stim-button","322","1032824","0.0-4.0-7.1-1.1","5ecfe4891d96f707354f918b","F1","batch6","tol_practice","1020","","","","","","","","","","","","","","tol_peg_2","1020","1020","0","[[1,0,0],[2,0],[3]]","5","[[1,0,0],[2,0],[3]]","practice","1020","","","","","",""
"","","","","","poldrack-single-stim","323","1033829","0.0-4.0-8.0","5ecfe4891d96f707354f918b","F1","batch6","tol_feedback","-1","","","","","true","","","","","","","","","","1000","1000","500","","","","","","-1","none","true","","0",""
"","","","","","html-button-response","324","1035065","0.0-4.0-9.0","5ecfe4891d96f707354f918b","F1","batch6","tol_instruction","1234.4000000357628","<div class = centerbox><p class = center-block-text>Great job! You are done with practice trials<br>You are about to start official trials.<br> <br> Problem <strong>1</strong> out of 25 problems</p></div>","0","","","","","","","","","","","","","","","","","","","","","","","","","",""
"","","","","","single-stim-button","325","1040297","0.0-4.0-10.0-0.0","5ecfe4891d96f707354f918b","F1","batch6","tol_tohand","4226","","","","","","","","","","","","","","tol_peg_2","4226","4226","0","[[1,2,0],[0,0],[0]]","1","[[1,3,0],[2,0],[0]]","0","0","","","","","","3"
"","","","","","single-stim-button","326","1041074","0.0-4.0-10.0-1.0","5ecfe4891d96f707354f918b","F1","batch6","tol_toboard","775","","","","","","","","","","","","","","tol_peg_3","775","775","0","[[1,2,0],[0,0],[3]]","1","[[1,3,0],[2,0],[0]]","0","0","","","","","","3"
"","","","","","single-stim-button","327","1041818","0.0-4.0-10.1-0.1","5ecfe4891d96f707354f918b","F1","batch6","tol_tohand","743","","","","","","","","","","","","","","tol_peg_1","743","743","0","[[1,0,0],[0,0],[3]]","2","[[1,3,0],[2,0],[0]]","0","0","","","","","","3"
"","","","","","single-stim-button","328","1042707","0.0-4.0-10.1-1.1","5ecfe4891d96f707354f918b","F1","batch6","tol_toboard","887","","","","","","","","","","","","","","tol_peg_2","887","887","0","[[1,0,0],[2,0],[3]]","2","[[1,3,0],[2,0],[0]]","0","0","","","","","","3"
"","","","","","single-stim-button","329","1043619","0.0-4.0-10.2-0.2","5ecfe4891d96f707354f918b","F1","batch6","tol_tohand","912","","","","","","","","","","","","","","tol_peg_3","912","912","0","[[1,0,0],[2,0],[0]]","3","[[1,3,0],[2,0],[0]]","0","0","","","","","","3"
"","","","","","single-stim-button","330","1044416","0.0-4.0-10.2-1.2","5ecfe4891d96f707354f918b","F1","batch6","tol_toboard","795","","","","","","","","","","","","","","tol_peg_1","795","795","0","[[1,3,0],[2,0],[0]]","3","[[1,3,0],[2,0],[0]]","0","0","","","","","","3"
"","","","","","poldrack-single-stim","331","1045419","0.0-4.0-11.0","5ecfe4891d96f707354f918b","F1","batch6","tol_feedback","-1","","","","","true","","","","","","","","","","1000","1000","500","","","","","","-1","none","true","4226","5881",""
"","","","","","html-button-response","332","1046560","0.0-4.0-12.0","5ecfe4891d96f707354f918b","F1","batch6","tol_trial_num","1140.5","<div class = centerbox><p class = center-block-text>problem <strong>2</strong> out of 25 problems</p></div>","0","","","","","","","","","","","","","","","","","","","","","","","","","",""
"","","","","","single-stim-button","333","1048678","0.0-4.0-13.0-0.0","5ecfe4891d96f707354f918b","F1","batch6","tol_tohand","2116","","","","","","","","","","","","","","tol_peg_2","2116","2116","0","[[1,2,0],[0,0],[0]]","1","[[2,1,3],[0,0],[0]]","1","0","","","","","","5"
"","","","","","single-stim-button","334","1050519","0.0-4.0-13.0-1.0","5ecfe4891d96f707354f918b","F1","batch6","tol_toboard","1840","","","","","","","","","","","","","","tol_peg_3","1840","1840","0","[[1,2,0],[0,0],[3]]","1","[[2,1,3],[0,0],[0]]","1","0","","","","","","5"
"","","","","","single-stim-button","335","1051359","0.0-4.0-13.1-0.1","5ecfe4891d96f707354f918b","F1","batch6","tol_tohand","840","","","","","","","","","","","","","","tol_peg_1","840","840","0","[[1,0,0],[0,0],[3]]","2","[[2,1,3],[0,0],[0]]","1","0","","","","","","5"
"","","","","","single-stim-button","336","1052436","0.0-4.0-13.1-1.1","5ecfe4891d96f707354f918b","F1","batch6","tol_toboard","1075","","","","","","","","","","","","","","tol_peg_2","1075","1075","0","[[1,0,0],[2,0],[3]]","2","[[2,1,3],[0,0],[0]]","1","0","","","","","","5"
"","","","","","single-stim-button","337","1053134","0.0-4.0-13.2-0.2","5ecfe4891d96f707354f918b","F1","batch6","tol_tohand","697","","","","","","","","","","","","","","tol_peg_1","697","697","0","[[0,0,0],[2,0],[3]]","3","[[2,1,3],[0,0],[0]]","1","0","","","","","","5"
"","","","","","single-stim-button","338","1060260","0.0-4.0-13.2-1.2","5ecfe4891d96f707354f918b","F1","batch6","tol_toboard","7125","","","","","","","","","","","","","","tol_peg_1","7125","7125","0","[[1,0,0],[2,0],[3]]","3","[[2,1,3],[0,0],[0]]","1","0","","","","","","5"
"","","","","","single-stim-button","339","1061565","0.0-4.0-13.3-0.3","5ecfe4891d96f707354f918b","F1","batch6","tol_tohand","1303","","","","","","","","","","","","","","tol_peg_2","1303","1303","0","[[1,0,0],[0,0],[3]]","4","[[2,1,3],[0,0],[0]]","1","0","","","","","","5"
"","","","","","single-stim-button","340","1062470","0.0-4.0-13.3-1.3","5ecfe4891d96f707354f918b","F1","batch6","tol_toboard","903","","","","","","","","","","","","","","tol_peg_1","903","903","0","[[1,2,0],[0,0],[3]]","4","[[2,1,3],[0,0],[0]]","1","0","","","","","","5"
"","","","","","single-stim-button","341","1063378","0.0-4.0-13.4-0.4","5ecfe4891d96f707354f918b","F1","batch6","tol_tohand","908","","","","","","","","","","","","","","tol_peg_3","908","908","0","[[1,2,0],[0,0],[0]]","5","[[2,1,3],[0,0],[0]]","1","0","","","","","","5"
"","","","","","single-stim-button","342","1064234","0.0-4.0-13.4-1.4","5ecfe4891d96f707354f918b","F1","batch6","tol_toboard","855","","","","","","","","","","","","","","tol_peg_2","855","855","0","[[1,2,0],[3,0],[0]]","5","[[2,1,3],[0,0],[0]]","1","0","","","","","","5"
"","","","","","single-stim-button","343","1065011","0.0-4.0-13.5-0.5","5ecfe4891d96f707354f918b","F1","batch6","tol_tohand","776","","","","","","","","","","","","","","tol_peg_1","776","776","0","[[1,0,0],[3,0],[0]]","6","[[2,1,3],[0,0],[0]]","1","0","","","","","","5"
"","","","","","single-stim-button","344","1066507","0.0-4.0-13.5-1.5","5ecfe4891d96f707354f918b","F1","batch6","tol_toboard","1496","","","","","","","","","","","","","","tol_peg_3","1496","1496","0","[[1,0,0],[3,0],[2]]","6","[[2,1,3],[0,0],[0]]","1","0","","","","","","5"
"","","","","","single-stim-button","345","1067944","0.0-4.0-13.6-0.6","5ecfe4891d96f707354f918b","F1","batch6","tol_tohand","1436","","","","","","","","","","","","","","tol_peg_1","1436","1436","0","[[0,0,0],[3,0],[2]]","7","[[2,1,3],[0,0],[0]]","1","0","","","","","","5"
"","","","","","single-stim-button","346","1069048","0.0-4.0-13.6-1.6","5ecfe4891d96f707354f918b","F1","batch6","tol_toboard","1103","","","","","","","","","","","","","","tol_peg_2","1103","1103","0","[[0,0,0],[3,1],[2]]","7","[[2,1,3],[0,0],[0]]","1","0","","","","","","5"
"","","","","","single-stim-button","347","1069953","0.0-4.0-13.7-0.7","5ecfe4891d96f707354f918b","F1","batch6","tol_tohand","904","","","","","","","","","","","","","","tol_peg_3","904","904","0","[[0,0,0],[3,1],[0]]","8","[[2,1,3],[0,0],[0]]","1","0","","","","","","5"
