"success","timeout","failed_images","failed_audio","failed_video","trial_type","trial_index","time_elapsed","internal_node_id","subject_id","study_id","session_id","task","rt","stimulus","response","item","answer","correct","spm_correct","spm_rt","view_history","mouse_click","stim_duration","block_duration","timing_post_trial","current_position","tol_num_moves_made","tol_target","tol_problem_id","tol_rt","key_press","possible_responses","tol_correct","preplanning","tol_rt_per_trial","tol_min_moves","fiar_detect_rt","fiar_detect_correct","total_correct_fiar_detect","post_trial_gap","choices"
"true","false","[]","[]","[]","preload","0","1989","0.0-0.0","5edb164c0d7fc47972df387a","C3","batch3","","","","","","","","","","","","","","","","","","","","","","","","","","","","","",""
"true","","","","","fullscreen","1","53632","0.0-1.0-0.0","5edb164c0d7fc47972df387a","C3","batch3","","","","","","","","","","","","","","","","","","","","","","","","","","","","","",""
"true","","","","","fullscreen","2","56376","0.0-2.0-0.0","5edb164c0d7fc47972df387a","C3","batch3","spm_fullscreen","","","","","","","","","","","","","","","","","","","","","","","","","","","","",""
"","","","","","html-button-response","3","67392","0.0-2.0-1.0","5edb164c0d7fc47972df387a","C3","batch3","","11013.200000000012","<p class = block-text><b>Instructions</b> <br>This is a widely used intelligence test in research. <br>In this test, a figure with a missing piece will be presented.<br>Below the figure are alternative pieces to complete the figure, only one of which is correct.<br> Different figures might involve different principles for obtaining the missing piece<br>Your job is to select the most logical piece to complete the figure.</p>","0","","","","","","","","","","","","","","","","","","","","","","","","","",""
"","","","","","html-keyboard-response","4","68202","0.0-2.0-2.0-0.0","5edb164c0d7fc47972df387a","C3","batch3","spm_show_trial_num","null","<p class=block-text>Trial 1 out of 60</p>","null","","","","","","","","","","","","","","","","","","","","","","","","","",""
"","","","","","image-button-response","5","73638","0.0-2.0-2.0-1.0","5edb164c0d7fc47972df387a","C3","batch3","spm_respsonse","5423.599999999977","img/question_1_1.jpeg","3","mat_01","4","1","1","5423.599999999977","","","","","","","","","","","","","","","","","","","","",""
"","","","","","html-keyboard-response","6","74703","0.0-2.0-2.0-0.1","5edb164c0d7fc47972df387a","C3","batch3","spm_show_trial_num","null","<p class=block-text>Trial 2 out of 60</p>","null","","","","","","","","","","","","","","","","","","","","","","","","","",""
"","","","","","image-button-response","7","77340","0.0-2.0-2.0-1.1","5edb164c0d7fc47972df387a","C3","batch3","spm_respsonse","2635.5999999999767","img/question_1_2.jpeg","4","mat_02","5","1","1","2635.5999999999767","","","","","","","","","","","","","","","","","","","","",""
"","","","","","html-keyboard-response","8","78403","0.0-2.0-2.0-0.2","5edb164c0d7fc47972df387a","C3","batch3","spm_show_trial_num","null","<p class=block-text>Trial 3 out of 60</p>","null","","","","","","","","","","","","","","","","","","","","","","","","","",""
"","","","","","image-button-response","9","80968","0.0-2.0-2.0-1.2","5edb164c0d7fc47972df387a","C3","batch3","spm_respsonse","2564","img/question_1_3.jpeg","0","mat_03","1","1","1","2564","","","","","","","","","","","","","","","","","","","","",""
"","","","","","html-keyboard-response","10","82031","0.0-2.0-2.0-0.3","5edb164c0d7fc47972df387a","C3","batch3","spm_show_trial_num","null","<p class=block-text>Trial 4 out of 60</p>","null","","","","","","","","","","","","","","","","","","","","","","","","","",""
"","","","","","image-button-response","11","84965","0.0-2.0-2.0-1.3","5edb164c0d7fc47972df387a","C3","batch3","spm_respsonse","2931.7999999999884","img/question_1_4.jpeg","1","mat_04","2","1","1","2931.7999999999884","","","","","","","","","","","","","","","","","","","","",""
"","","","","","html-keyboard-response","12","86033","0.0-2.0-2.0-0.4","5edb164c0d7fc47972df387a","C3","batch3","spm_show_trial_num","null","<p class=block-text>Trial 5 out of 60</p>","null","","","","","","","","","","","","","","","","","","","","","","","","","",""
"","","","","","image-button-response","13","88754","0.0-2.0-2.0-1.4","5edb164c0d7fc47972df387a","C3","batch3","spm_respsonse","2718.2999999999884","img/question_1_5.jpeg","5","mat_05","6","1","1","2718.2999999999884","","","","","","","","","","","","","","","","","","","","",""
"","","","","","html-keyboard-response","14","89815","0.0-2.0-2.0-0.5","5edb164c0d7fc47972df387a","C3","batch3","spm_show_trial_num","null","<p class=block-text>Trial 6 out of 60</p>","null","","","","","","","","","","","","","","","","","","","","","","","","","",""
"","","","","","image-button-response","15","92715","0.0-2.0-2.0-1.5","5edb164c0d7fc47972df387a","C3","batch3","spm_respsonse","2898.2999999999884","img/question_1_6.jpeg","2","mat_06","3","1","1","2898.2999999999884","","","","","","","","","","","","","","","","","","","","",""
"","","","","","html-keyboard-response","16","93775","0.0-2.0-2.0-0.6","5edb164c0d7fc47972df387a","C3","batch3","spm_show_trial_num","null","<p class=block-text>Trial 7 out of 60</p>","null","","","","","","","","","","","","","","","","","","","","","","","","","",""
"","","","","","image-button-response","17","97554","0.0-2.0-2.0-1.6","5edb164c0d7fc47972df387a","C3","batch3","spm_respsonse","3777.399999999965","img/question_1_7.jpeg","5","mat_07","6","1","1","3777.399999999965","","","","","","","","","","","","","","","","","","","","",""
"","","","","","html-keyboard-response","18","98609","0.0-2.0-2.0-0.7","5edb164c0d7fc47972df387a","C3","batch3","spm_show_trial_num","null","<p class=block-text>Trial 8 out of 60</p>","null","","","","","","","","","","","","","","","","","","","","","","","","","",""
"","","","","","image-button-response","19","103345","0.0-2.0-2.0-1.7","5edb164c0d7fc47972df387a","C3","batch3","spm_respsonse","4734.300000000047","img/question_1_8.jpeg","1","mat_08","2","1","1","4734.300000000047","","","","","","","","","","","","","","","","","","","","",""
"","","","","","html-keyboard-response","20","104409","0.0-2.0-2.0-0.8","5edb164c0d7fc47972df387a","C3","batch3","spm_show_trial_num","null","<p class=block-text>Trial 9 out of 60</p>","null","","","","","","","","","","","","","","","","","","","","","","","","","",""
"","","","","","image-button-response","21","107474","0.0-2.0-2.0-1.8","5edb164c0d7fc47972df387a","C3","batch3","spm_respsonse","3063.7000000000116","img/question_1_9.jpeg","0","mat_09","1","1","1","3063.7000000000116","","","","","","","","","","","","","","","","","","","","",""
"","","","","","html-keyboard-response","22","108536","0.0-2.0-2.0-0.9","5edb164c0d7fc47972df387a","C3","batch3","spm_show_trial_num","null","<p class=block-text>Trial 10 out of 60</p>","null","","","","","","","","","","","","","","","","","","","","","","","","","",""
"","","","","","image-button-response","23","111981","0.0-2.0-2.0-1.9","5edb164c0d7fc47972df387a","C3","batch3","spm_respsonse","3443.5","img/question_1_10.jpeg","2","mat_10","3","1","1","3443.5","","","","","","","","","","","","","","","","","","","","",""
"","","","","","html-keyboard-response","24","113044","0.0-2.0-2.0-0.10","5edb164c0d7fc47972df387a","C3","batch3","spm_show_trial_num","null","<p class=block-text>Trial 11 out of 60</p>","null","","","","","","","","","","","","","","","","","","","","","","","","","",""
"","","","","","image-button-response","25","121182","0.0-2.0-2.0-1.10","5edb164c0d7fc47972df387a","C3","batch3","spm_respsonse","8135.5","img/question_1_11.jpeg","3","mat_11","4","1","1","8135.5","","","","","","","","","","","","","","","","","","","","",""
"","","","","","html-keyboard-response","26","122247","0.0-2.0-2.0-0.11","5edb164c0d7fc47972df387a","C3","batch3","spm_show_trial_num","null","<p class=block-text>Trial 12 out of 60</p>","null","","","","","","","","","","","","","","","","","","","","","","","","","",""
"","","","","","image-button-response","27","129471","0.0-2.0-2.0-1.11","5edb164c0d7fc47972df387a","C3","batch3","spm_respsonse","7221.400000000023","img/question_1_12.jpeg","4","mat_12","5","1","1","7221.400000000023","","","","","","","","","","","","","","","","","","","","",""
"","","","","","html-keyboard-response","28","130535","0.0-2.0-2.0-0.12","5edb164c0d7fc47972df387a","C3","batch3","spm_show_trial_num","null","<p class=block-text>Trial 13 out of 60</p>","null","","","","","","","","","","","","","","","","","","","","","","","","","",""
"","","","","","image-button-response","29","135430","0.0-2.0-2.0-1.12","5edb164c0d7fc47972df387a","C3","batch3","spm_respsonse","4892.799999999988","img/question_2_1.jpeg","2","mat_13","2","0","0","4892.799999999988","","","","","","","","","","","","","","","","","","","","",""
"","","","","","html-keyboard-response","30","136496","0.0-2.0-2.0-0.13","5edb164c0d7fc47972df387a","C3","batch3","spm_show_trial_num","null","<p class=block-text>Trial 14 out of 60</p>","null","","","","","","","","","","","","","","","","","","","","","","","","","",""
"","","","","","image-button-response","31","141093","0.0-2.0-2.0-1.13","5edb164c0d7fc47972df387a","C3","batch3","spm_respsonse","4595.200000000012","img/question_2_2.jpeg","5","mat_14","6","1","1","4595.200000000012","","","","","","","","","","","","","","","","","","","","",""
"","","","","","html-keyboard-response","32","142159","0.0-2.0-2.0-0.14","5edb164c0d7fc47972df387a","C3","batch3","spm_show_trial_num","null","<p class=block-text>Trial 15 out of 60</p>","null","","","","","","","","","","","","","","","","","","","","","","","","","",""
"","","","","","image-button-response","33","148374","0.0-2.0-2.0-1.14","5edb164c0d7fc47972df387a","C3","batch3","spm_respsonse","6213.600000000035","img/question_2_3.jpeg","0","mat_15","1","1","1","6213.600000000035","","","","","","","","","","","","","","","","","","","","",""
"","","","","","html-keyboard-response","34","149441","0.0-2.0-2.0-0.15","5edb164c0d7fc47972df387a","C3","batch3","spm_show_trial_num","null","<p class=block-text>Trial 16 out of 60</p>","null","","","","","","","","","","","","","","","","","","","","","","","","","",""
"","","","","","image-button-response","35","153587","0.0-2.0-2.0-1.15","5edb164c0d7fc47972df387a","C3","batch3","spm_respsonse","4144.800000000047","img/question_2_4.jpeg","1","mat_16","2","1","1","4144.800000000047","","","","","","","","","","","","","","","","","","","","",""
"","","","","","html-keyboard-response","36","154647","0.0-2.0-2.0-0.16","5edb164c0d7fc47972df387a","C3","batch3","spm_show_trial_num","null","<p class=block-text>Trial 17 out of 60</p>","null","","","","","","","","","","","","","","","","","","","","","","","","","",""
"","","","","","image-button-response","37","158215","0.0-2.0-2.0-1.16","5edb164c0d7fc47972df387a","C3","batch3","spm_respsonse","3566.2999999999884","img/question_2_5.jpeg","0","mat_17","1","1","1","3566.2999999999884","","","","","","","","","","","","","","","","","","","","",""
"","","","","","html-keyboard-response","38","159279","0.0-2.0-2.0-0.17","5edb164c0d7fc47972df387a","C3","batch3","spm_show_trial_num","null","<p class=block-text>Trial 18 out of 60</p>","null","","","","","","","","","","","","","","","","","","","","","","","","","",""
"","","","","","image-button-response","39","164763","0.0-2.0-2.0-1.17","5edb164c0d7fc47972df387a","C3","batch3","spm_respsonse","5481.299999999988","img/question_2_6.jpeg","2","mat_18","3","1","1","5481.299999999988","","","","","","","","","","","","","","","","","","","","",""
"","","","","","html-keyboard-response","40","165826","0.0-2.0-2.0-0.18","5edb164c0d7fc47972df387a","C3","batch3","spm_show_trial_num","null","<p class=block-text>Trial 19 out of 60</p>","null","","","","","","","","","","","","","","","","","","","","","","","","","",""
"","","","","","image-button-response","41","169696","0.0-2.0-2.0-1.18","5edb164c0d7fc47972df387a","C3","batch3","spm_respsonse","3868.0999999999767","img/question_2_7.jpeg","4","mat_19","5","1","1","3868.0999999999767","","","","","","","","","","","","","","","","","","","","",""
"","","","","","html-keyboard-response","42","170760","0.0-2.0-2.0-0.19","5edb164c0d7fc47972df387a","C3","batch3","spm_show_trial_num","null","<p class=block-text>Trial 20 out of 60</p>","null","","","","","","","","","","","","","","","","","","","","","","","","","",""
"","","","","","image-button-response","43","175422","0.0-2.0-2.0-1.19","5edb164c0d7fc47972df387a","C3","batch3","spm_respsonse","4659.799999999988","img/question_2_8.jpeg","5","mat_20","6","1","1","4659.799999999988","","","","","","","","","","","","","","","","","","","","",""
"","","","","","html-keyboard-response","44","176487","0.0-2.0-2.0-0.20","5edb164c0d7fc47972df387a","C3","batch3","spm_show_trial_num","null","<p class=block-text>Trial 21 out of 60</p>","null","","","","","","","","","","","","","","","","","","","","","","","","","",""
"","","","","","image-button-response","45","180344","0.0-2.0-2.0-1.20","5edb164c0d7fc47972df387a","C3","batch3","spm_respsonse","3854.6999999999534","img/question_2_9.jpeg","3","mat_21","4","1","1","3854.6999999999534","","","","","","","","","","","","","","","","","","","","",""
"","","","","","html-keyboard-response","46","181407","0.0-2.0-2.0-0.21","5edb164c0d7fc47972df387a","C3","batch3","spm_show_trial_num","null","<p class=block-text>Trial 22 out of 60</p>","null","","","","","","","","","","","","","","","","","","","","","","","","","",""
"","","","","","image-button-response","47","185757","0.0-2.0-2.0-1.21","5edb164c0d7fc47972df387a","C3","batch3","spm_respsonse","4348.100000000035","img/question_2_10.jpeg","2","mat_22","3","1","1","4348.100000000035","","","","","","","","","","","","","","","","","","","","",""
"","","","","","html-keyboard-response","48","186827","0.0-2.0-2.0-0.22","5edb164c0d7fc47972df387a","C3","batch3","spm_show_trial_num","null","<p class=block-text>Trial 23 out of 60</p>","null","","","","","","","","","","","","","","","","","","","","","","","","","",""
"","","","","","image-button-response","49","190796","0.0-2.0-2.0-1.22","5edb164c0d7fc47972df387a","C3","batch3","spm_respsonse","3967.2999999999884","img/question_2_11.jpeg","3","mat_23","4","1","1","3967.2999999999884","","","","","","","","","","","","","","","","","","","","",""
"","","","","","html-keyboard-response","50","191856","0.0-2.0-2.0-0.23","5edb164c0d7fc47972df387a","C3","batch3","spm_show_trial_num","null","<p class=block-text>Trial 24 out of 60</p>","null","","","","","","","","","","","","","","","","","","","","","","","","","",""
"","","","","","image-button-response","51","199900","0.0-2.0-2.0-1.23","5edb164c0d7fc47972df387a","C3","batch3","spm_respsonse","8041.899999999965","img/question_2_12.jpeg","4","mat_24","5","1","1","8041.899999999965","","","","","","","","","","","","","","","","","","","","",""
"","","","","","html-button-response","52","202324","0.0-2.0-3.0","5edb164c0d7fc47972df387a","C3","batch3","attention_check","2168.100000000035","<p class = block-text>Attention check: Please choose 1<br></p>","0","","","true","","","","","","","","","","","","","","","","","","","","","","",""
"","","","","","html-keyboard-response","53","203132","0.0-2.0-4.0-0.0","5edb164c0d7fc47972df387a","C3","batch3","spm_show_trial_num","null","<p class=block-text>Trial 25 out of 60</p>","null","","","","","","","","","","","","","","","","","","","","","","","","","",""
"","","","","","image-button-response","54","208498","0.0-2.0-4.0-1.0","5edb164c0d7fc47972df387a","C3","batch3","spm_respsonse","5362.800000000047","img/question_3_1.jpeg","7","mat_25","8","1","1","5362.800000000047","","","","","","","","","","","","","","","","","","","","",""
"","","","","","html-keyboard-response","55","209564","0.0-2.0-4.0-0.1","5edb164c0d7fc47972df387a","C3","batch3","spm_show_trial_num","null","<p class=block-text>Trial 26 out of 60</p>","null","","","","","","","","","","","","","","","","","","","","","","","","","",""
"","","","","","image-button-response","56","216296","0.0-2.0-4.0-1.1","5edb164c0d7fc47972df387a","C3","batch3","spm_respsonse","6730.299999999988","img/question_3_2.jpeg","1","mat_26","2","1","1","6730.299999999988","","","","","","","","","","","","","","","","","","","","",""
"","","","","","html-keyboard-response","57","217360","0.0-2.0-4.0-0.2","5edb164c0d7fc47972df387a","C3","batch3","spm_show_trial_num","null","<p class=block-text>Trial 27 out of 60</p>","null","","","","","","","","","","","","","","","","","","","","","","","","","",""
"","","","","","image-button-response","58","223121","0.0-2.0-4.0-1.2","5edb164c0d7fc47972df387a","C3","batch3","spm_respsonse","5758.899999999965","img/question_3_3.jpeg","2","mat_27","3","1","1","5758.899999999965","","","","","","","","","","","","","","","","","","","","",""
"","","","","","html-keyboard-response","59","224187","0.0-2.0-4.0-0.3","5edb164c0d7fc47972df387a","C3","batch3","spm_show_trial_num","null","<p class=block-text>Trial 28 out of 60</p>","null","","","","","","","","","","","","","","","","","","","","","","","","","",""
"","","","","","image-button-response","60","234447","0.0-2.0-4.0-1.3","5edb164c0d7fc47972df387a","C3","batch3","spm_respsonse","10258","img/question_3_4.jpeg","7","mat_28","8","1","1","10258","","","","","","","","","","","","","","","","","","","","",""
"","","","","","html-keyboard-response","61","235516","0.0-2.0-4.0-0.4","5edb164c0d7fc47972df387a","C3","batch3","spm_show_trial_num","null","<p class=block-text>Trial 29 out of 60</p>","null","","","","","","","","","","","","","","","","","","","","","","","","","",""
"","","","","","image-button-response","62","246829","0.0-2.0-4.0-1.4","5edb164c0d7fc47972df387a","C3","batch3","spm_respsonse","11311.099999999977","img/question_3_5.jpeg","6","mat_29","7","1","1","11311.099999999977","","","","","","","","","","","","","","","","","","","","",""
"","","","","","html-keyboard-response","63","247897","0.0-2.0-4.0-0.5","5edb164c0d7fc47972df387a","C3","batch3","spm_show_trial_num","null","<p class=block-text>Trial 30 out of 60</p>","null","","","","","","","","","","","","","","","","","","","","","","","","","",""
"","","","","","image-button-response","64","254809","0.0-2.0-4.0-1.5","5edb164c0d7fc47972df387a","C3","batch3","spm_respsonse","6910.199999999953","img/question_3_6.jpeg","3","mat_30","4","1","1","6910.199999999953","","","","","","","","","","","","","","","","","","","","",""
"","","","","","html-keyboard-response","65","255873","0.0-2.0-4.0-0.6","5edb164c0d7fc47972df387a","C3","batch3","spm_show_trial_num","null","<p class=block-text>Trial 31 out of 60</p>","null","","","","","","","","","","","","","","","","","","","","","","","","","",""
"","","","","","image-button-response","66","261595","0.0-2.0-4.0-1.6","5edb164c0d7fc47972df387a","C3","batch3","spm_respsonse","5719.300000000047","img/question_3_7.jpeg","4","mat_31","5","1","1","5719.300000000047","","","","","","","","","","","","","","","","","","","","",""
"","","","","","html-keyboard-response","67","262657","0.0-2.0-4.0-0.7","5edb164c0d7fc47972df387a","C3","batch3","spm_show_trial_num","null","<p class=block-text>Trial 32 out of 60</p>","null","","","","","","","","","","","","","","","","","","","","","","","","","",""
"","","","","","image-button-response","68","278862","0.0-2.0-4.0-1.7","5edb164c0d7fc47972df387a","C3","batch3","spm_respsonse","16203.20000000007","img/question_3_8.jpeg","0","mat_32","1","1","1","16203.20000000007","","","","","","","","","","","","","","","","","","","","",""
"","","","","","html-keyboard-response","69","279927","0.0-2.0-4.0-0.8","5edb164c0d7fc47972df387a","C3","batch3","spm_show_trial_num","null","<p class=block-text>Trial 33 out of 60</p>","null","","","","","","","","","","","","","","","","","","","","","","","","","",""
"","","","","","image-button-response","70","287531","0.0-2.0-4.0-1.8","5edb164c0d7fc47972df387a","C3","batch3","spm_respsonse","7601.79999999993","img/question_3_9.jpeg","6","mat_33","7","1","1","7601.79999999993","","","","","","","","","","","","","","","","","","","","",""
"","","","","","html-keyboard-response","71","288594","0.0-2.0-4.0-0.9","5edb164c0d7fc47972df387a","C3","batch3","spm_show_trial_num","null","<p class=block-text>Trial 34 out of 60</p>","null","","","","","","","","","","","","","","","","","","","","","","","","","",""
"","","","","","image-button-response","72","302412","0.0-2.0-4.0-1.9","5edb164c0d7fc47972df387a","C3","batch3","spm_respsonse","13815.79999999993","img/question_3_10.jpeg","7","mat_34","6","0","0","13815.79999999993","","","","","","","","","","","","","","","","","","","","",""
"","","","","","html-keyboard-response","73","303484","0.0-2.0-4.0-0.10","5edb164c0d7fc47972df387a","C3","batch3","spm_show_trial_num","null","<p class=block-text>Trial 35 out of 60</p>","null","","","","","","","","","","","","","","","","","","","","","","","","","",""
"","","","","","image-button-response","74","319047","0.0-2.0-4.0-1.10","5edb164c0d7fc47972df387a","C3","batch3","spm_respsonse","15561","img/question_3_11.jpeg","0","mat_35","1","1","1","15561","","","","","","","","","","","","","","","","","","","","",""
"","","","","","html-keyboard-response","75","320113","0.0-2.0-4.0-0.11","5edb164c0d7fc47972df387a","C3","batch3","spm_show_trial_num","null","<p class=block-text>Trial 36 out of 60</p>","null","","","","","","","","","","","","","","","","","","","","","","","","","",""
"","","","","","image-button-response","76","335592","0.0-2.0-4.0-1.11","5edb164c0d7fc47972df387a","C3","batch3","spm_respsonse","15477.5","img/question_3_12.jpeg","1","mat_36","2","1","1","15477.5","","","","","","","","","","","","","","","","","","","","",""
"","","","","","html-keyboard-response","77","336660","0.0-2.0-4.0-0.12","5edb164c0d7fc47972df387a","C3","batch3","spm_show_trial_num","null","<p class=block-text>Trial 37 out of 60</p>","null","","","","","","","","","","","","","","","","","","","","","","","","","",""
"","","","","","image-button-response","78","338877","0.0-2.0-4.0-1.12","5edb164c0d7fc47972df387a","C3","batch3","spm_respsonse","2214.600000000093","img/question_4_1.jpeg","2","mat_37","3","1","1","2214.600000000093","","","","","","","","","","","","","","","","","","","","",""
"","","","","","html-keyboard-response","79","339948","0.0-2.0-4.0-0.13","5edb164c0d7fc47972df387a","C3","batch3","spm_show_trial_num","null","<p class=block-text>Trial 38 out of 60</p>","null","","","","","","","","","","","","","","","","","","","","","","","","","",""
"","","","","","image-button-response","80","344765","0.0-2.0-4.0-1.13","5edb164c0d7fc47972df387a","C3","batch3","spm_respsonse","4814.900000000023","img/question_4_2.jpeg","3","mat_38","4","1","1","4814.900000000023","","","","","","","","","","","","","","","","","","","","",""
"","","","","","html-keyboard-response","81","345827","0.0-2.0-4.0-0.14","5edb164c0d7fc47972df387a","C3","batch3","spm_show_trial_num","null","<p class=block-text>Trial 39 out of 60</p>","null","","","","","","","","","","","","","","","","","","","","","","","","","",""
"","","","","","image-button-response","82","350338","0.0-2.0-4.0-1.14","5edb164c0d7fc47972df387a","C3","batch3","spm_respsonse","4509.5","img/question_4_3.jpeg","2","mat_39","3","1","1","4509.5","","","","","","","","","","","","","","","","","","","","",""
"","","","","","html-keyboard-response","83","351401","0.0-2.0-4.0-0.15","5edb164c0d7fc47972df387a","C3","batch3","spm_show_trial_num","null","<p class=block-text>Trial 40 out of 60</p>","null","","","","","","","","","","","","","","","","","","","","","","","","","",""
"","","","","","image-button-response","84","356008","0.0-2.0-4.0-1.15","5edb164c0d7fc47972df387a","C3","batch3","spm_respsonse","4605.20000000007","img/question_4_4.jpeg","6","mat_40","7","1","1","4605.20000000007","","","","","","","","","","","","","","","","","","","","",""
"","","","","","html-keyboard-response","85","357076","0.0-2.0-4.0-0.16","5edb164c0d7fc47972df387a","C3","batch3","spm_show_trial_num","null","<p class=block-text>Trial 41 out of 60</p>","null","","","","","","","","","","","","","","","","","","","","","","","","","",""
"","","","","","image-button-response","86","362518","0.0-2.0-4.0-1.16","5edb164c0d7fc47972df387a","C3","batch3","spm_respsonse","5440.29999999993","img/question_4_5.jpeg","7","mat_41","8","1","1","5440.29999999993","","","","","","","","","","","","","","","","","","","","",""
"","","","","","html-keyboard-response","87","363583","0.0-2.0-4.0-0.17","5edb164c0d7fc47972df387a","C3","batch3","spm_show_trial_num","null","<p class=block-text>Trial 42 out of 60</p>","null","","","","","","","","","","","","","","","","","","","","","","","","","",""
"","","","","","image-button-response","88","369073","0.0-2.0-4.0-1.17","5edb164c0d7fc47972df387a","C3","batch3","spm_respsonse","5488.400000000023","img/question_4_6.jpeg","5","mat_42","6","1","1","5488.400000000023","","","","","","","","","","","","","","","","","","","","",""
"","","","","","html-keyboard-response","89","370137","0.0-2.0-4.0-0.18","5edb164c0d7fc47972df387a","C3","batch3","spm_show_trial_num","null","<p class=block-text>Trial 43 out of 60</p>","null","","","","","","","","","","","","","","","","","","","","","","","","","",""
"","","","","","image-button-response","90","381996","0.0-2.0-4.0-1.18","5edb164c0d7fc47972df387a","C3","batch3","spm_respsonse","11855.599999999977","img/question_4_7.jpeg","4","mat_43","5","1","1","11855.599999999977","","","","","","","","","","","","","","","","","","","","",""
"","","","","","html-keyboard-response","91","383059","0.0-2.0-4.0-0.19","5edb164c0d7fc47972df387a","C3","batch3","spm_show_trial_num","null","<p class=block-text>Trial 44 out of 60</p>","null","","","","","","","","","","","","","","","","","","","","","","","","","",""
"","","","","","image-button-response","92","393043","0.0-2.0-4.0-1.19","5edb164c0d7fc47972df387a","C3","batch3","spm_respsonse","9981.900000000023","img/question_4_8.jpeg","1","mat_44","4","0","0","9981.900000000023","","","","","","","","","","","","","","","","","","","","",""
"","","","","","html-keyboard-response","93","394108","0.0-2.0-4.0-0.20","5edb164c0d7fc47972df387a","C3","batch3","spm_show_trial_num","null","<p class=block-text>Trial 45 out of 60</p>","null","","","","","","","","","","","","","","","","","","","","","","","","","",""
"","","","","","image-button-response","94","407023","0.0-2.0-4.0-1.20","5edb164c0d7fc47972df387a","C3","batch3","spm_respsonse","12913","img/question_4_9.jpeg","0","mat_45","1","1","1","12913","","","","","","","","","","","","","","","","","","","","",""
"","","","","","html-keyboard-response","95","408087","0.0-2.0-4.0-0.21","5edb164c0d7fc47972df387a","C3","batch3","spm_show_trial_num","null","<p class=block-text>Trial 46 out of 60</p>","null","","","","","","","","","","","","","","","","","","","","","","","","","",""
"","","","","","image-button-response","96","419765","0.0-2.0-4.0-1.21","5edb164c0d7fc47972df387a","C3","batch3","spm_respsonse","11675.400000000023","img/question_4_10.jpeg","1","mat_46","2","1","1","11675.400000000023","","","","","","","","","","","","","","","","","","","","",""
"","","","","","html-keyboard-response","97","420835","0.0-2.0-4.0-0.22","5edb164c0d7fc47972df387a","C3","batch3","spm_show_trial_num","null","<p class=block-text>Trial 47 out of 60</p>","null","","","","","","","","","","","","","","","","","","","","","","","","","",""
"","","","","","image-button-response","98","429253","0.0-2.0-4.0-1.22","5edb164c0d7fc47972df387a","C3","batch3","spm_respsonse","8414.600000000093","img/question_4_11.jpeg","7","mat_47","5","0","0","8414.600000000093","","","","","","","","","","","","","","","","","","","","",""
"","","","","","html-keyboard-response","99","430323","0.0-2.0-4.0-0.23","5edb164c0d7fc47972df387a","C3","batch3","spm_show_trial_num","null","<p class=block-text>Trial 48 out of 60</p>","null","","","","","","","","","","","","","","","","","","","","","","","","","",""
"","","","","","image-button-response","100","455653","0.0-2.0-4.0-1.23","5edb164c0d7fc47972df387a","C3","batch3","spm_respsonse","25326.900000000023","img/question_4_12.jpeg","4","mat_48","6","0","0","25326.900000000023","","","","","","","","","","","","","","","","","","","","",""
"","","","","","html-keyboard-response","101","456723","0.0-2.0-4.0-0.24","5edb164c0d7fc47972df387a","C3","batch3","spm_show_trial_num","null","<p class=block-text>Trial 49 out of 60</p>","null","","","","","","","","","","","","","","","","","","","","","","","","","",""
"","","","","","image-button-response","102","465230","0.0-2.0-4.0-1.24","5edb164c0d7fc47972df387a","C3","batch3","spm_respsonse","8504.300000000047","img/question_5_1.jpeg","6","mat_49","7","1","1","8504.300000000047","","","","","","","","","","","","","","","","","","","","",""
"","","","","","html-keyboard-response","103","466295","0.0-2.0-4.0-0.25","5edb164c0d7fc47972df387a","C3","batch3","spm_show_trial_num","null","<p class=block-text>Trial 50 out of 60</p>","null","","","","","","","","","","","","","","","","","","","","","","","","","",""
"","","","","","image-button-response","104","477853","0.0-2.0-4.0-1.25","5edb164c0d7fc47972df387a","C3","batch3","spm_respsonse","11556.5","img/question_5_2.jpeg","5","mat_50","6","1","1","11556.5","","","","","","","","","","","","","","","","","","","","",""
"","","","","","html-keyboard-response","105","478918","0.0-2.0-4.0-0.26","5edb164c0d7fc47972df387a","C3","batch3","spm_show_trial_num","null","<p class=block-text>Trial 51 out of 60</p>","null","","","","","","","","","","","","","","","","","","","","","","","","","",""
"","","","","","image-button-response","106","497060","0.0-2.0-4.0-1.26","5edb164c0d7fc47972df387a","C3","batch3","spm_respsonse","18140","img/question_5_3.jpeg","7","mat_51","8","1","1","18140","","","","","","","","","","","","","","","","","","","","",""
"","","","","","html-keyboard-response","107","498123","0.0-2.0-4.0-0.27","5edb164c0d7fc47972df387a","C3","batch3","spm_show_trial_num","null","<p class=block-text>Trial 52 out of 60</p>","null","","","","","","","","","","","","","","","","","","","","","","","","","",""
"","","","","","image-button-response","108","509863","0.0-2.0-4.0-1.27","5edb164c0d7fc47972df387a","C3","batch3","spm_respsonse","11737.699999999953","img/question_5_4.jpeg","6","mat_52","2","0","0","11737.699999999953","","","","","","","","","","","","","","","","","","","","",""
"","","","","","html-keyboard-response","109","510927","0.0-2.0-4.0-0.28","5edb164c0d7fc47972df387a","C3","batch3","spm_show_trial_num","null","<p class=block-text>Trial 53 out of 60</p>","null","","","","","","","","","","","","","","","","","","","","","","","","","",""
"","","","","","image-button-response","110","521893","0.0-2.0-4.0-1.28","5edb164c0d7fc47972df387a","C3","batch3","spm_respsonse","10963.699999999953","img/question_5_5.jpeg","0","mat_53","1","1","1","10963.699999999953","","","","","","","","","","","","","","","","","","","","",""
"","","","","","html-keyboard-response","111","522963","0.0-2.0-4.0-0.29","5edb164c0d7fc47972df387a","C3","batch3","spm_show_trial_num","null","<p class=block-text>Trial 54 out of 60</p>","null","","","","","","","","","","","","","","","","","","","","","","","","","",""
"","","","","","image-button-response","112","539698","0.0-2.0-4.0-1.29","5edb164c0d7fc47972df387a","C3","batch3","spm_respsonse","16732.59999999986","img/question_5_6.jpeg","4","mat_54","5","1","1","16732.59999999986","","","","","","","","","","","","","","","","","","","","",""
"","","","","","html-keyboard-response","113","540764","0.0-2.0-4.0-0.30","5edb164c0d7fc47972df387a","C3","batch3","spm_show_trial_num","null","<p class=block-text>Trial 55 out of 60</p>","null","","","","","","","","","","","","","","","","","","","","","","","","","",""
"","","","","","image-button-response","114","553303","0.0-2.0-4.0-1.30","5edb164c0d7fc47972df387a","C3","batch3","spm_respsonse","12537.199999999953","img/question_5_7.jpeg","3","mat_55","1","0","0","12537.199999999953","","","","","","","","","","","","","","","","","","","","",""
"","","","","","html-keyboard-response","115","554367","0.0-2.0-4.0-0.31","5edb164c0d7fc47972df387a","C3","batch3","spm_show_trial_num","null","<p class=block-text>Trial 56 out of 60</p>","null","","","","","","","","","","","","","","","","","","","","","","","","","",""
"","","","","","image-button-response","116","569960","0.0-2.0-4.0-1.31","5edb164c0d7fc47972df387a","C3","batch3","spm_respsonse","15590.5","img/question_5_8.jpeg","6","mat_56","6","0","0","15590.5","","","","","","","","","","","","","","","","","","","","",""
"","","","","","html-keyboard-response","117","571024","0.0-2.0-4.0-0.32","5edb164c0d7fc47972df387a","C3","batch3","spm_show_trial_num","null","<p class=block-text>Trial 57 out of 60</p>","null","","","","","","","","","","","","","","","","","","","","","","","","","",""
"","","","","","image-button-response","118","580820","0.0-2.0-4.0-1.32","5edb164c0d7fc47972df387a","C3","batch3","spm_respsonse","9794","img/question_5_9.jpeg","7","mat_57","3","0","0","9794","","","","","","","","","","","","","","","","","","","","",""
"","","","","","html-keyboard-response","119","581891","0.0-2.0-4.0-0.33","5edb164c0d7fc47972df387a","C3","batch3","spm_show_trial_num","null","<p class=block-text>Trial 58 out of 60</p>","null","","","","","","","","","","","","","","","","","","","","","","","","","",""
"","","","","","image-button-response","120","596150","0.0-2.0-4.0-1.33","5edb164c0d7fc47972df387a","C3","batch3","spm_respsonse","14256.200000000186","img/question_5_10.jpeg","6","mat_58","2","0","0","14256.200000000186","","","","","","","","","","","","","","","","","","","","",""
"","","","","","html-keyboard-response","121","597216","0.0-2.0-4.0-0.34","5edb164c0d7fc47972df387a","C3","batch3","spm_show_trial_num","null","<p class=block-text>Trial 59 out of 60</p>","null","","","","","","","","","","","","","","","","","","","","","","","","","",""
"","","","","","image-button-response","122","615644","0.0-2.0-4.0-1.34","5edb164c0d7fc47972df387a","C3","batch3","spm_respsonse","18425.600000000093","img/question_5_11.jpeg","5","mat_59","4","0","0","18425.600000000093","","","","","","","","","","","","","","","","","","","","",""
"","","","","","html-keyboard-response","123","616703","0.0-2.0-4.0-0.35","5edb164c0d7fc47972df387a","C3","batch3","spm_show_trial_num","null","<p class=block-text>Trial 60 out of 60</p>","null","","","","","","","","","","","","","","","","","","","","","","","","","",""
"","","","","","image-button-response","124","633807","0.0-2.0-4.0-1.35","5edb164c0d7fc47972df387a","C3","batch3","spm_respsonse","17101.899999999907","img/question_5_12.jpeg","5","mat_60","5","0","0","17101.899999999907","","","","","","","","","","","","","","","","","","","","",""
"","","","","","html-button-response","125","636335","0.0-2.0-5.0","5edb164c0d7fc47972df387a","C3","batch3","spm_goodbye","2267.399999999907","<p class= block-text>This concludes the Standard Progressive Matrix game. Thank you for your responses!<br> When you are ready, click the button continue</p>","0","","","","","","","","","","","","","","","","","","","","","","","","","",""
"true","","","","","fullscreen","126","663042","0.0-3.0-0.0","5edb164c0d7fc47972df387a","C3","batch3","","","","","","","","","","","","","","","","","","","","","","","","","","","","","",""
"","","","","","instructions","127","708264","0.0-3.0-1.0-0.0-0.0","5edb164c0d7fc47972df387a","C3","batch3","tol-instructions","45207.5","","","","","","","","[{""page_index"":0,""viewing_time"":11265.899999999907},{""page_index"":1,""viewing_time"":4679},{""page_index"":2,""viewing_time"":2527.6999999999534},{""page_index"":3,""viewing_time"":7421.90000000014},{""page_index"":4,""viewing_time"":7993.399999999907},{""page_index"":5,""viewing_time"":9902.699999999953},{""page_index"":6,""viewing_time"":1416.6999999999534}]","","","","","","","","","","","","","","","","","","","",""
"","","","","","html-button-response","128","709313","0.0-3.0-1.0-1.0-0.0","5edb164c0d7fc47972df387a","C3","batch3","tol_enter_quiz","1046.6999999999534","<p class=block-text> Let's answer a few questions <br>","0","","","","","","","","","","","","","","","","","","","","","","","","","",""
"","","","","","html-button-response","129","712695","0.0-3.0-1.0-1.0-1.0","5edb164c0d7fc47972df387a","C3","batch3","tol_quiz","3374.5","<p class = block-text>True or False: You can only move the ball on top of a peg. <br></p>","1","","","false","","","","","","","","","","","","","","","","","","","","","","",""
"","","","","","html-button-response","130","713882","0.0-3.0-1.0-1.0-2.0","5edb164c0d7fc47972df387a","C3","batch3","tol_quiz_feedback","1184.5","<p class = block-text>Incorrect. Remember, you can only move the ball on top of a peg.</p>","0","","","","","","","","","","","","","","","","","","","","","","","","","",""
"","","","","","html-button-response","131","716528","0.0-3.0-1.0-1.0-3.0","5edb164c0d7fc47972df387a","C3","batch3","tol_quiz","2642.1999999999534","<p class = block-text>True or False: You should try to match your board with the target board with fewest moves possible. <br></p>","0","","","true","","","","","","","","","","","","","","","","","","","","","","",""
"","","","","","html-button-response","132","717387","0.0-3.0-1.0-1.0-4.0","5edb164c0d7fc47972df387a","C3","batch3","tol_quiz_feedback","857.0999999998603","<p class = block-text>Correct! </p>","0","","","","","","","","","","","","","","","","","","","","","","","","","",""
"","","","","","html-button-response","133","719310","0.0-3.0-1.0-2.0-0.0","5edb164c0d7fc47972df387a","C3","batch3","","1920.0999999998603","<p class = block-text>You made too many incorrect choices.</p><p class = block-text>You will now repeat the instructions and quiz</p>","0","","","","","","","","","","","","","","","","","","","","","","","","","",""
"","","","","","instructions","134","723975","0.0-3.0-1.1-0.1-0.1","5edb164c0d7fc47972df387a","C3","batch3","tol-instructions","4661","","","","","","","","[{""page_index"":0,""viewing_time"":1159.0999999998603},{""page_index"":1,""viewing_time"":286.69999999995343},{""page_index"":2,""viewing_time"":453.70000000018626},{""page_index"":3,""viewing_time"":456.39999999990687},{""page_index"":4,""viewing_time"":501.30000000004657},{""page_index"":5,""viewing_time"":444.30000000004657},{""page_index"":6,""viewing_time"":1359.2999999998137}]","","","","","","","","","","","","","","","","","","","",""
"","","","","","html-button-response","135","724834","0.0-3.0-1.1-1.1-0.1","5edb164c0d7fc47972df387a","C3","batch3","tol_enter_quiz","857.8000000000466","<p class=block-text> Let's answer a few questions <br>","0","","","","","","","","","","","","","","","","","","","","","","","","","",""
"","","","","","html-button-response","136","725887","0.0-3.0-1.1-1.1-1.1","5edb164c0d7fc47972df387a","C3","batch3","tol_quiz","1050.9000000001397","<p class = block-text>True or False: You can only move the ball on top of a peg. <br></p>","0","","","true","","","","","","","","","","","","","","","","","","","","","","",""
"","","","","","html-button-response","137","726739","0.0-3.0-1.1-1.1-2.1","5edb164c0d7fc47972df387a","C3","batch3","tol_quiz_feedback","850.8000000000466","<p class = block-text>Correct! You can only move the ball on top of a peg.</p>","0","","","","","","","","","","","","","","","","","","","","","","","","","",""
"","","","","","html-button-response","138","727850","0.0-3.0-1.1-1.1-3.1","5edb164c0d7fc47972df387a","C3","batch3","tol_quiz","1109.5999999998603","<p class = block-text>True or False: You should try to match your board with the target board with fewest moves possible. <br></p>","0","","","true","","","","","","","","","","","","","","","","","","","","","","",""
"","","","","","html-button-response","139","728516","0.0-3.0-1.1-1.1-4.1","5edb164c0d7fc47972df387a","C3","batch3","tol_quiz_feedback","665.0999999998603","<p class = block-text>Correct! </p>","0","","","","","","","","","","","","","","","","","","","","","","","","","",""
"","","","","","html-button-response","140","729856","0.0-3.0-2.0","5edb164c0d7fc47972df387a","C3","batch3","","1338.7999999998137","<p class=block-text> Now that you've understood the game, let's practice a few easier examples before we start!<br> <br>","0","","","","","","","","","","","","","","","","","","","","","","","","","",""
"","","","","","single-stim-button","141","732670","0.0-3.0-3.0-0.0","5edb164c0d7fc47972df387a","C3","batch3","tol_practice","2813","","","","","","","","","tol_peg_2","2813","2813","0","[[1,2,0],[0,0],[0]]","1","[[1,2,0],[0,0],[3]]","practice","2813","","","","","","","","","","",""
"","","","","","single-stim-button","142","733691","0.0-3.0-3.0-1.0","5edb164c0d7fc47972df387a","C3","batch3","tol_practice","1020","","","","","","","","","tol_peg_3","1020","1020","0","[[1,2,0],[0,0],[3]]","1","[[1,2,0],[0,0],[3]]","practice","1020","","","","","","","","","","",""
"","","","","","poldrack-single-stim","143","734703","0.0-3.0-4.0","5edb164c0d7fc47972df387a","C3","batch3","tol_feedback","-1","","","","","true","","","","","1000","1000","500","","","","","","-1","none","true","","0","","","","","",""
"","","","","","single-stim-button","144","738809","0.0-3.0-5.0-0.0","5edb164c0d7fc47972df387a","C3","batch3","tol_practice","4105","","","","","","","","","tol_peg_1","4105","4105","0","[[1,0,0],[3,0],[0]]","2","[[0,0,0],[3,1],[2]]","practice","4105","","","","","","","","","","",""
"","","","","","single-stim-button","145","739727","0.0-3.0-5.0-1.0","5edb164c0d7fc47972df387a","C3","batch3","tol_practice","917","","","","","","","","","tol_peg_3","917","917","0","[[1,0,0],[3,0],[2]]","2","[[0,0,0],[3,1],[2]]","practice","917","","","","","","","","","","",""
"","","","","","single-stim-button","146","740681","0.0-3.0-5.1-0.1","5edb164c0d7fc47972df387a","C3","batch3","tol_practice","953","","","","","","","","","tol_peg_1","953","953","0","[[0,0,0],[3,0],[2]]","3","[[0,0,0],[3,1],[2]]","practice","953","","","","","","","","","","",""
"","","","","","single-stim-button","147","741502","0.0-3.0-5.1-1.1","5edb164c0d7fc47972df387a","C3","batch3","tol_practice","821","","","","","","","","","tol_peg_2","821","821","0","[[0,0,0],[3,1],[2]]","3","[[0,0,0],[3,1],[2]]","practice","821","","","","","","","","","","",""
"","","","","","poldrack-single-stim","148","742514","0.0-3.0-6.0","5edb164c0d7fc47972df387a","C3","batch3","tol_feedback","-1","","","","","true","","","","","1000","1000","500","","","","","","-1","none","true","","0","","","","","",""
"","","","","","single-stim-button","149","744406","0.0-3.0-7.0-0.0","5edb164c0d7fc47972df387a","C3","batch3","tol_practice","1891","","","","","","","","","tol_peg_2","1891","1891","0","[[1,2,0],[0,0],[0]]","4","[[1,0,0],[2,0],[3]]","practice","1891","","","","","","","","","","",""
"","","","","","single-stim-button","150","745201","0.0-3.0-7.0-1.0","5edb164c0d7fc47972df387a","C3","batch3","tol_practice","795","","","","","","","","","tol_peg_3","795","795","0","[[1,2,0],[0,0],[3]]","4","[[1,0,0],[2,0],[3]]","practice","795","","","","","","","","","","",""
"","","","","","single-stim-button","151","746101","0.0-3.0-7.1-0.1","5edb164c0d7fc47972df387a","C3","batch3","tol_practice","899","","","","","","","","","tol_peg_1","899","899","0","[[1,0,0],[0,0],[3]]","5","[[1,0,0],[2,0],[3]]","practice","899","","","","","","","","","","",""
"","","","","","single-stim-button","152","746822","0.0-3.0-7.1-1.1","5edb164c0d7fc47972df387a","C3","batch3","tol_practice","719","","","","","","","","","tol_peg_2","719","719","0","[[1,0,0],[2,0],[3]]","5","[[1,0,0],[2,0],[3]]","practice","719","","","","","","","","","","",""
"","","","","","poldrack-single-stim","153","747826","0.0-3.0-8.0","5edb164c0d7fc47972df387a","C3","batch3","tol_feedback","-1","","","","","true","","","","","1000","1000","500","","","","","","-1","none","true","","0","","","","","",""
"","","","","","html-button-response","154","750098","0.0-3.0-9.0","5edb164c0d7fc47972df387a","C3","batch3","tol_instruction","2270.5","<div class = centerbox><p class = center-block-text>Great job! You are done with practice trials<br>You are about to start official trials.<br> <br> Problem <strong>1</strong> out of 25 problems</p></div>","0","","","","","","","","","","","","","","","","","","","","","","","","","",""
"","","","","","single-stim-button","155","754479","0.0-3.0-10.0-0.0","5edb164c0d7fc47972df387a","C3","batch3","tol_tohand","3370","","","","","","","","","tol_peg_2","3370","3370","0","[[1,2,0],[0,0],[0]]","1","[[1,3,0],[2,0],[0]]","0","0","","","","","","3","","","","",""
"","","","","","single-stim-button","156","756258","0.0-3.0-10.0-1.0","5edb164c0d7fc47972df387a","C3","batch3","tol_toboard","1778","","","","","","","","","tol_peg_2","1778","1778","0","[[1,2,0],[3,0],[0]]","1","[[1,3,0],[2,0],[0]]","0","0","","","","","","3","","","","",""
"","","","","","single-stim-button","157","756858","0.0-3.0-10.1-0.1","5edb164c0d7fc47972df387a","C3","batch3","tol_tohand","600","","","","","","","","","tol_peg_1","600","600","0","[[1,0,0],[3,0],[0]]","2","[[1,3,0],[2,0],[0]]","0","0","","","","","","3","","","","",""
"","","","","","single-stim-button","158","757683","0.0-3.0-10.1-1.1","5edb164c0d7fc47972df387a","C3","batch3","tol_toboard","825","","","","","","","","","tol_peg_3","825","825","0","[[1,0,0],[3,0],[2]]","2","[[1,3,0],[2,0],[0]]","0","0","","","","","","3","","","","",""
"","","","","","single-stim-button","159","758493","0.0-3.0-10.2-0.2","5edb164c0d7fc47972df387a","C3","batch3","tol_tohand","809","","","","","","","","","tol_peg_2","809","809","0","[[1,0,0],[0,0],[2]]","3","[[1,3,0],[2,0],[0]]","0","0","","","","","","3","","","","",""
"","","","","","single-stim-button","160","758950","0.0-3.0-10.2-1.2","5edb164c0d7fc47972df387a","C3","batch3","tol_toboard","457","","","","","","","","","tol_peg_1","457","457","0","[[1,3,0],[0,0],[2]]","3","[[1,3,0],[2,0],[0]]","0","0","","","","","","3","","","","",""
"","","","","","single-stim-button","161","762631","0.0-3.0-10.3-0.3","5edb164c0d7fc47972df387a","C3","batch3","tol_tohand","3680","","","","","","","","","tol_peg_3","3680","3680","0","[[1,3,0],[0,0],[0]]","4","[[1,3,0],[2,0],[0]]","0","0","","","","","","3","","","","",""
"","","","","","single-stim-button","162","763015","0.0-3.0-10.3-1.3","5edb164c0d7fc47972df387a","C3","batch3","tol_toboard","383","","","","","","","","","tol_peg_2","383","383","0","[[1,3,0],[2,0],[0]]","4","[[1,3,0],[2,0],[0]]","0","0","","","","","","3","","","","",""
"","","","","","poldrack-single-stim","163","764022","0.0-3.0-11.0","5edb164c0d7fc47972df387a","C3","batch3","tol_feedback","-1","","","","","true","","","","","1000","1000","500","","","","","","-1","none","true","3370","8459","","","","","",""
"","","","","","html-button-response","164","764996","0.0-3.0-12.0","5edb164c0d7fc47972df387a","C3","batch3","tol_trial_num","972.1999999999534","<div class = centerbox><p class = center-block-text>problem <strong>2</strong> out of 25 problems</p></div>","0","","","","","","","","","","","","","","","","","","","","","","","","","",""
"","","","","","single-stim-button","165","770291","0.0-3.0-13.0-0.0","5edb164c0d7fc47972df387a","C3","batch3","tol_tohand","5295","","","","","","","","","tol_peg_1","5295","5295","0","[[1,0,0],[3,0],[0]]","1","[[2,1,3],[0,0],[0]]","1","0","","","","","","5","","","","",""
"","","","","","single-stim-button","166","771139","0.0-3.0-13.0-1.0","5edb164c0d7fc47972df387a","C3","batch3","tol_toboard","848","","","","","","","","","tol_peg_3","848","848","0","[[1,0,0],[3,0],[2]]","1","[[2,1,3],[0,0],[0]]","1","0","","","","","","5","","","","",""
"","","","","","single-stim-button","167","774589","0.0-3.0-13.1-0.1","5edb164c0d7fc47972df387a","C3","batch3","tol_tohand","3450","","","","","","","","","tol_peg_2","3450","3450","0","[[1,0,0],[0,0],[2]]","2","[[2,1,3],[0,0],[0]]","1","0","","","","","","5","","","","",""
"","","","","","single-stim-button","168","775721","0.0-3.0-13.1-1.1","5edb164c0d7fc47972df387a","C3","batch3","tol_toboard","1131","","","","","","","","","tol_peg_1","1131","1131","0","[[1,3,0],[0,0],[2]]","2","[[2,1,3],[0,0],[0]]","1","0","","","","","","5","","","","",""
"","","","","","single-stim-button","169","777199","0.0-3.0-13.2-0.2","5edb164c0d7fc47972df387a","C3","batch3","tol_tohand","1477","","","","","","","","","tol_peg_3","1477","1477","0","[[1,3,0],[0,0],[0]]","3","[[2,1,3],[0,0],[0]]","1","0","","","","","","5","","","","",""
"","","","","","single-stim-button","170","777905","0.0-3.0-13.2-1.2","5edb164c0d7fc47972df387a","C3","batch3","tol_toboard","705","","","","","","","","","tol_peg_2","705","705","0","[[1,3,0],[2,0],[0]]","3","[[2,1,3],[0,0],[0]]","1","0","","","","","","5","","","","",""
"","","","","","single-stim-button","171","779771","0.0-3.0-13.3-0.3","5edb164c0d7fc47972df387a","C3","batch3","tol_tohand","1865","","","","","","","","","tol_peg_1","1865","1865","0","[[1,0,0],[2,0],[0]]","4","[[2,1,3],[0,0],[0]]","1","0","","","","","","5","","","","",""
"","","","","","single-stim-button","172","780755","0.0-3.0-13.3-1.3","5edb164c0d7fc47972df387a","C3","batch3","tol_toboard","982","","","","","","","","","tol_peg_3","982","982","0","[[1,0,0],[2,0],[3]]","4","[[2,1,3],[0,0],[0]]","1","0","","","","","","5","","","","",""
"","","","","","single-stim-button","173","781400","0.0-3.0-13.4-0.4","5edb164c0d7fc47972df387a","C3","batch3","tol_tohand","644","","","","","","","","","tol_peg_1","644","644","0","[[0,0,0],[2,0],[3]]","5","[[2,1,3],[0,0],[0]]","1","0","","","","","","5","","","","",""
"","","","","","single-stim-button","174","781940","0.0-3.0-13.4-1.4","5edb164c0d7fc47972df387a","C3","batch3","tol_toboard","539","","","","","","","","","tol_peg_2","539","539","0","[[0,0,0],[2,1],[3]]","5","[[2,1,3],[0,0],[0]]","1","0","","","","","","5","","","","",""
"","","","","","single-stim-button","175","786822","0.0-3.0-13.5-0.5","5edb164c0d7fc47972df387a","C3","batch3","tol_tohand","4882","","","","","","","","","tol_peg_2","4882","4882","0","[[0,0,0],[2,0],[3]]","6","[[2,1,3],[0,0],[0]]","1","0","","","","","","5","","","","",""
"","","","","","single-stim-button","176","787310","0.0-3.0-13.5-1.5","5edb164c0d7fc47972df387a","C3","batch3","tol_toboard","486","","","","","","","","","tol_peg_1","486","486","0","[[1,0,0],[2,0],[3]]","6","[[2,1,3],[0,0],[0]]","1","0","","","","","","5","","","","",""
"","","","","","single-stim-button","177","788135","0.0-3.0-13.6-0.6","5edb164c0d7fc47972df387a","C3","batch3","tol_tohand","824","","","","","","","","","tol_peg_3","824","824","0","[[1,0,0],[2,0],[0]]","7","[[2,1,3],[0,0],[0]]","1","0","","","","","","5","","","","",""
"","","","","","single-stim-button","178","788660","0.0-3.0-13.6-1.6","5edb164c0d7fc47972df387a","C3","batch3","tol_toboard","525","","","","","","","","","tol_peg_2","525","525","0","[[1,0,0],[2,3],[0]]","7","[[2,1,3],[0,0],[0]]","1","0","","","","","","5","","","","",""
"","","","","","single-stim-button","179","789155","0.0-3.0-13.7-0.7","5edb164c0d7fc47972df387a","C3","batch3","tol_tohand","494","","","","","","","","","tol_peg_1","494","494","0","[[0,0,0],[2,3],[0]]","8","[[2,1,3],[0,0],[0]]","1","0","","","","","","5","","","","",""
"","","","","","single-stim-button","180","790828","0.0-3.0-13.7-1.7","5edb164c0d7fc47972df387a","C3","batch3","tol_toboard","1672","","","","","","","","","tol_peg_3","1672","1672","0","[[0,0,0],[2,3],[1]]","8","[[2,1,3],[0,0],[0]]","1","0","","","","","","5","","","","",""
"","","","","","single-stim-button","181","792335","0.0-3.0-13.8-0.8","5edb164c0d7fc47972df387a","C3","batch3","tol_tohand","1507","","","","","","","","","tol_peg_2","1507","1507","0","[[0,0,0],[2,0],[1]]","9","[[2,1,3],[0,0],[0]]","1","0","","","","","","5","","","","",""
"","","","","","single-stim-button","182","792786","0.0-3.0-13.8-1.8","5edb164c0d7fc47972df387a","C3","batch3","tol_toboard","451","","","","","","","","","tol_peg_2","451","451","0","[[0,0,0],[2,3],[1]]","9","[[2,1,3],[0,0],[0]]","1","0","","","","","","5","","","","",""
"","","","","","single-stim-button","183","793806","0.0-3.0-13.9-0.9","5edb164c0d7fc47972df387a","C3","batch3","tol_tohand","1020","","","","","","","","","tol_peg_2","1020","1020","0","[[0,0,0],[2,0],[1]]","10","[[2,1,3],[0,0],[0]]","1","0","","","","","","5","","","","",""
"","","","","","single-stim-button","184","795141","0.0-3.0-13.9-1.9","5edb164c0d7fc47972df387a","C3","batch3","tol_toboard","1335","","","","","","","","","tol_peg_1","1335","1335","0","[[3,0,0],[2,0],[1]]","10","[[2,1,3],[0,0],[0]]","1","0","","","","","","5","","","","",""
"","","","","","single-stim-button","185","798057","0.0-3.0-13.10-0.10","5edb164c0d7fc47972df387a","C3","batch3","tol_tohand","2916","","","","","","","","","tol_peg_2","2916","2916","0","[[3,0,0],[0,0],[1]]","11","[[2,1,3],[0,0],[0]]","1","0","","","","","","5","","","","",""
"","","","","","single-stim-button","186","798786","0.0-3.0-13.10-1.10","5edb164c0d7fc47972df387a","C3","batch3","tol_toboard","729","","","","","","","","","tol_peg_1","729","729","0","[[3,2,0],[0,0],[1]]","11","[[2,1,3],[0,0],[0]]","1","0","","","","","","5","","","","",""
"","","","","","single-stim-button","187","799461","0.0-3.0-13.11-0.11","5edb164c0d7fc47972df387a","C3","batch3","tol_tohand","674","","","","","","","","","tol_peg_3","674","674","0","[[3,2,0],[0,0],[0]]","12","[[2,1,3],[0,0],[0]]","1","0","","","","","","5","","","","",""
"","","","","","single-stim-button","188","800016","0.0-3.0-13.11-1.11","5edb164c0d7fc47972df387a","C3","batch3","tol_toboard","554","","","","","","","","","tol_peg_2","554","554","0","[[3,2,0],[1,0],[0]]","12","[[2,1,3],[0,0],[0]]","1","0","","","","","","5","","","","",""
"","","","","","single-stim-button","189","801471","0.0-3.0-13.12-0.12","5edb164c0d7fc47972df387a","C3","batch3","tol_tohand","1454","","","","","","","","","tol_peg_1","1454","1454","0","[[3,0,0],[1,0],[0]]","13","[[2,1,3],[0,0],[0]]","1","0","","","","","","5","","","","",""
"","","","","","single-stim-button","190","802191","0.0-3.0-13.12-1.12","5edb164c0d7fc47972df387a","C3","batch3","tol_toboard","719","","","","","","","","","tol_peg_3","719","719","0","[[3,0,0],[1,0],[2]]","13","[[2,1,3],[0,0],[0]]","1","0","","","","","","5","","","","",""
"","","","","","single-stim-button","191","802724","0.0-3.0-13.13-0.13","5edb164c0d7fc47972df387a","C3","batch3","tol_tohand","532","","","","","","","","","tol_peg_1","532","532","0","[[0,0,0],[1,0],[2]]","14","[[2,1,3],[0,0],[0]]","1","0","","","","","","5","","","","",""
"","","","","","single-stim-button","192","803264","0.0-3.0-13.13-1.13","5edb164c0d7fc47972df387a","C3","batch3","tol_toboard","539","","","","","","","","","tol_peg_2","539","539","0","[[0,0,0],[1,3],[2]]","14","[[2,1,3],[0,0],[0]]","1","0","","","","","","5","","","","",""
"","","","","","single-stim-button","193","803841","0.0-3.0-13.14-0.14","5edb164c0d7fc47972df387a","C3","batch3","tol_tohand","576","","","","","","","","","tol_peg_3","576","576","0","[[0,0,0],[1,3],[0]]","15","[[2,1,3],[0,0],[0]]","1","0","","","","","","5","","","","",""
"","","","","","single-stim-button","194","804981","0.0-3.0-13.14-1.14","5edb164c0d7fc47972df387a","C3","batch3","tol_toboard","1139","","","","","","","","","tol_peg_1","1139","1139","0","[[2,0,0],[1,3],[0]]","15","[[2,1,3],[0,0],[0]]","1","0","","","","","","5","","","","",""
"","","","","","single-stim-button","195","806540","0.0-3.0-13.15-0.15","5edb164c0d7fc47972df387a","C3","batch3","tol_tohand","1558","","","","","","","","","tol_peg_2","1558","1558","0","[[2,0,0],[1,0],[0]]","16","[[2,1,3],[0,0],[0]]","1","0","","","","","","5","","","","",""
"","","","","","single-stim-button","196","807321","0.0-3.0-13.15-1.15","5edb164c0d7fc47972df387a","C3","batch3","tol_toboard","780","","","","","","","","","tol_peg_3","780","780","0","[[2,0,0],[1,0],[3]]","16","[[2,1,3],[0,0],[0]]","1","0","","","","","","5","","","","",""
"","","","","","single-stim-button","197","807703","0.0-3.0-13.16-0.16","5edb164c0d7fc47972df387a","C3","batch3","tol_tohand","381","","","","","","","","","tol_peg_1","381","381","0","[[0,0,0],[1,0],[3]]","17","[[2,1,3],[0,0],[0]]","1","0","","","","","","5","","","","",""
"","","","","","single-stim-button","198","809294","0.0-3.0-13.16-1.16","5edb164c0d7fc47972df387a","C3","batch3","tol_toboard","1591","","","","","","","","","tol_peg_1","1591","1591","0","[[2,0,0],[1,0],[3]]","17","[[2,1,3],[0,0],[0]]","1","0","","","","","","5","","","","",""
"","","","","","single-stim-button","199","810726","0.0-3.0-13.17-0.17","5edb164c0d7fc47972df387a","C3","batch3","tol_tohand","1431","","","","","","","","","tol_peg_2","1431","1431","0","[[2,0,0],[0,0],[3]]","18","[[2,1,3],[0,0],[0]]","1","0","","","","","","5","","","","",""
"","","","","","single-stim-button","200","812317","0.0-3.0-13.17-1.17","5edb164c0d7fc47972df387a","C3","batch3","tol_toboard","1589","","","","","","","","","tol_peg_1","1589","1589","0","[[2,1,0],[0,0],[3]]","18","[[2,1,3],[0,0],[0]]","1","0","","","","","","5","","","","",""
"","","","","","single-stim-button","201","812655","0.0-3.0-13.18-0.18","5edb164c0d7fc47972df387a","C3","batch3","tol_tohand","337","","","","","","","","","tol_peg_1","337","337","0","[[2,0,0],[0,0],[3]]","19","[[2,1,3],[0,0],[0]]","1","0","","","","","","5","","","","",""
"","","","","","single-stim-button","202","813854","0.0-3.0-13.18-1.18","5edb164c0d7fc47972df387a","C3","batch3","tol_toboard","1199","","","","","","","","","tol_peg_1","1199","1199","0","[[2,1,0],[0,0],[3]]","19","[[2,1,3],[0,0],[0]]","1","0","","","","","","5","","","","",""
"","","","","","single-stim-button","203","815889","0.0-3.0-13.19-0.19","5edb164c0d7fc47972df387a","C3","batch3","tol_tohand","2034","","","","","","","","","tol_peg_3","2034","2034","0","[[2,1,0],[0,0],[0]]","20","[[2,1,3],[0,0],[0]]","1","0","","","","","","5","","","","",""
"","","","","","single-stim-button","204","816928","0.0-3.0-13.19-1.19","5edb164c0d7fc47972df387a","C3","batch3","tol_toboard","1039","","","","","","","","","tol_peg_1","1039","1039","0","[[2,1,3],[0,0],[0]]","20","[[2,1,3],[0,0],[0]]","1","0","","","","","","5","","","","",""
"","","","","","poldrack-single-stim","205","817933","0.0-3.0-14.0","5edb164c0d7fc47972df387a","C3","batch3","tol_feedback","-1","","","","","true","","","","","1000","1000","500","","","","","","-1","none","true","5295","33351","","","","","",""
"","","","","","html-button-response","206","819481","0.0-3.0-15.0","5edb164c0d7fc47972df387a","C3","batch3","tol_trial_num","1547.8999999999069","<div class = centerbox><p class = center-block-text>problem <strong>3</strong> out of 25 problems</p></div>","0","","","","","","","","","","","","","","","","","","","","","","","","","",""
"","","","","","single-stim-button","207","823038","0.0-3.0-16.0-0.0","5edb164c0d7fc47972df387a","C3","batch3","tol_tohand","3556","","","","","","","","","tol_peg_1","3556","3556","0","[[2,0,0],[0,0],[1]]","1","[[1,2,0],[3,0],[0]]","2","0","","","","","","4","","","","",""
"","","","","","single-stim-button","208","824626","0.0-3.0-16.0-1.0","5edb164c0d7fc47972df387a","C3","batch3","tol_toboard","1586","","","","","","","","","tol_peg_2","1586","1586","0","[[2,0,0],[3,0],[1]]","1","[[1,2,0],[3,0],[0]]","2","0","","","","","","4","","","","",""
"","","","","","single-stim-button","209","825700","0.0-3.0-16.1-0.1","5edb164c0d7fc47972df387a","C3","batch3","tol_tohand","1074","","","","","","","","","tol_peg_3","1074","1074","0","[[2,0,0],[3,0],[0]]","2","[[1,2,0],[3,0],[0]]","2","0","","","","","","4","","","","",""
"","","","","","single-stim-button","210","826472","0.0-3.0-16.1-1.1","5edb164c0d7fc47972df387a","C3","batch3","tol_toboard","772","","","","","","","","","tol_peg_3","772","772","0","[[2,0,0],[3,0],[1]]","2","[[1,2,0],[3,0],[0]]","2","0","","","","","","4","","","","",""
"","","","","","single-stim-button","211","827390","0.0-3.0-16.2-0.2","5edb164c0d7fc47972df387a","C3","batch3","tol_tohand","918","","","","","","","","","tol_peg_1","918","918","0","[[0,0,0],[3,0],[1]]","3","[[1,2,0],[3,0],[0]]","2","0","","","","","","4","","","","",""
"","","","","","single-stim-button","212","828262","0.0-3.0-16.2-1.2","5edb164c0d7fc47972df387a","C3","batch3","tol_toboard","870","","","","","","","","","tol_peg_2","870","870","0","[[0,0,0],[3,2],[1]]","3","[[1,2,0],[3,0],[0]]","2","0","","","","","","4","","","","",""
"","","","","","single-stim-button","213","828949","0.0-3.0-16.3-0.3","5edb164c0d7fc47972df387a","C3","batch3","tol_tohand","687","","","","","","","","","tol_peg_3","687","687","0","[[0,0,0],[3,2],[0]]","4","[[1,2,0],[3,0],[0]]","2","0","","","","","","4","","","","",""
"","","","","","single-stim-button","214","829787","0.0-3.0-16.3-1.3","5edb164c0d7fc47972df387a","C3","batch3","tol_toboard","838","","","","","","","","","tol_peg_1","838","838","0","[[1,0,0],[3,2],[0]]","4","[[1,2,0],[3,0],[0]]","2","0","","","","","","4","","","","",""
"","","","","","single-stim-button","215","830556","0.0-3.0-16.4-0.4","5edb164c0d7fc47972df387a","C3","batch3","tol_tohand","768","","","","","","","","","tol_peg_2","768","768","0","[[1,0,0],[3,0],[0]]","5","[[1,2,0],[3,0],[0]]","2","0","","","","","","4","","","","",""
"","","","","","single-stim-button","216","831377","0.0-3.0-16.4-1.4","5edb164c0d7fc47972df387a","C3","batch3","tol_toboard","819","","","","","","","","","tol_peg_1","819","819","0","[[1,2,0],[3,0],[0]]","5","[[1,2,0],[3,0],[0]]","2","0","","","","","","4","","","","",""
"","","","","","poldrack-single-stim","217","832383","0.0-3.0-17.0","5edb164c0d7fc47972df387a","C3","batch3","tol_feedback","-1","","","","","true","","","","","1000","1000","500","","","","","","-1","none","true","3556","7003","","","","","",""
"","","","","","html-button-response","218","833404","0.0-3.0-18.0","5edb164c0d7fc47972df387a","C3","batch3","tol_trial_num","1020.8999999999069","<div class = centerbox><p class = center-block-text>problem <strong>4</strong> out of 25 problems</p></div>","0","","","","","","","","","","","","","","","","","","","","","","","","","",""
"","","","","","single-stim-button","219","836805","0.0-3.0-19.0-0.0","5edb164c0d7fc47972df387a","C3","batch3","tol_tohand","3399","","","","","","","","","tol_peg_2","3399","3399","0","[[3,0,0],[2,0],[0]]","1","[[3,0,0],[1,0],[2]]","3","0","","","","","","3","","","","",""
"","","","","","single-stim-button","220","837757","0.0-3.0-19.0-1.0","5edb164c0d7fc47972df387a","C3","batch3","tol_toboard","952","","","","","","","","","tol_peg_1","952","952","0","[[3,1,0],[2,0],[0]]","1","[[3,0,0],[1,0],[2]]","3","0","","","","","","3","","","","",""
"","","","","","single-stim-button","221","838497","0.0-3.0-19.1-0.1","5edb164c0d7fc47972df387a","C3","batch3","tol_tohand","739","","","","","","","","","tol_peg_2","739","739","0","[[3,1,0],[0,0],[0]]","2","[[3,0,0],[1,0],[2]]","3","0","","","","","","3","","","","",""
"","","","","","single-stim-button","222","839248","0.0-3.0-19.1-1.1","5edb164c0d7fc47972df387a","C3","batch3","tol_toboard","751","","","","","","","","","tol_peg_3","751","751","0","[[3,1,0],[0,0],[2]]","2","[[3,0,0],[1,0],[2]]","3","0","","","","","","3","","","","",""
"","","","","","single-stim-button","223","840006","0.0-3.0-19.2-0.2","5edb164c0d7fc47972df387a","C3","batch3","tol_tohand","757","","","","","","","","","tol_peg_1","757","757","0","[[3,0,0],[0,0],[2]]","3","[[3,0,0],[1,0],[2]]","3","0","","","","","","3","","","","",""
"","","","","","single-stim-button","224","840891","0.0-3.0-19.2-1.2","5edb164c0d7fc47972df387a","C3","batch3","tol_toboard","885","","","","","","","","","tol_peg_2","885","885","0","[[3,0,0],[1,0],[2]]","3","[[3,0,0],[1,0],[2]]","3","0","","","","","","3","","","","",""
"","","","","","poldrack-single-stim","225","841893","0.0-3.0-20.0","5edb164c0d7fc47972df387a","C3","batch3","tol_feedback","-1","","","","","true","","","","","1000","1000","500","","","","","","-1","none","true","3399","4895","","","","","",""
"","","","","","html-button-response","226","842730","0.0-3.0-21.0","5edb164c0d7fc47972df387a","C3","batch3","tol_trial_num","835.4000000001397","<div class = centerbox><p class = center-block-text>problem <strong>5</strong> out of 25 problems</p></div>","0","","","","","","","","","","","","","","","","","","","","","","","","","",""
"","","","","","single-stim-button","227","851889","0.0-3.0-22.0-0.0","5edb164c0d7fc47972df387a","C3","batch3","tol_tohand","9159","","","","","","","","","tol_peg_2","9159","9159","0","[[1,0,0],[0,0],[3]]","1","[[0,0,0],[1,2],[3]]","4","0","","","","","","7","","","","",""
"","","","","","single-stim-button","228","852930","0.0-3.0-22.0-1.0","5edb164c0d7fc47972df387a","C3","batch3","tol_toboard","1038","","","","","","","","","tol_peg_1","1038","1038","0","[[1,2,0],[0,0],[3]]","1","[[0,0,0],[1,2],[3]]","4","0","","","","","","7","","","","",""
"","","","","","single-stim-button","229","853816","0.0-3.0-22.1-0.1","5edb164c0d7fc47972df387a","C3","batch3","tol_tohand","886","","","","","","","","","tol_peg_3","886","886","0","[[1,2,0],[0,0],[0]]","2","[[0,0,0],[1,2],[3]]","4","0","","","","","","7","","","","",""
"","","","","","single-stim-button","230","854835","0.0-3.0-22.1-1.1","5edb164c0d7fc47972df387a","C3","batch3","tol_toboard","1019","","","","","","","","","tol_peg_2","1019","1019","0","[[1,2,0],[3,0],[0]]","2","[[0,0,0],[1,2],[3]]","4","0","","","","","","7","","","","",""
"","","","","","single-stim-button","231","855907","0.0-3.0-22.2-0.2","5edb164c0d7fc47972df387a","C3","batch3","tol_tohand","1072","","","","","","","","","tol_peg_1","1072","1072","0","[[1,0,0],[3,0],[0]]","3","[[0,0,0],[1,2],[3]]","4","0","","","","","","7","","","","",""
"","","","","","single-stim-button","232","857127","0.0-3.0-22.2-1.2","5edb164c0d7fc47972df387a","C3","batch3","tol_toboard","1219","","","","","","","","","tol_peg_3","1219","1219","0","[[1,0,0],[3,0],[2]]","3","[[0,0,0],[1,2],[3]]","4","0","","","","","","7","","","","",""
"","","","","","single-stim-button","233","859016","0.0-3.0-22.3-0.3","5edb164c0d7fc47972df387a","C3","batch3","tol_tohand","1887","","","","","","","","","tol_peg_2","1887","1887","0","[[1,0,0],[0,0],[2]]","4","[[0,0,0],[1,2],[3]]","4","0","","","","","","7","","","","",""
"","","","","","single-stim-button","234","860840","0.0-3.0-22.3-1.3","5edb164c0d7fc47972df387a","C3","batch3","tol_toboard","1824","","","","","","","","","tol_peg_2","1824","1824","0","[[1,0,0],[3,0],[2]]","4","[[0,0,0],[1,2],[3]]","4","0","","","","","","7","","","","",""
"","","","","","single-stim-button","235","867056","0.0-3.0-22.4-0.4","5edb164c0d7fc47972df387a","C3","batch3","tol_tohand","6216","","","","","","","","","tol_peg_2","6216","6216","0","[[1,0,0],[0,0],[2]]","5","[[0,0,0],[1,2],[3]]","4","0","","","","","","7","","","","",""
"","","","","","single-stim-button","236","867893","0.0-3.0-22.4-1.4","5edb164c0d7fc47972df387a","C3","batch3","tol_toboard","837","","","","","","","","","tol_peg_2","837","837","0","[[1,0,0],[3,0],[2]]","5","[[0,0,0],[1,2],[3]]","4","0","","","","","","7","","","","",""
"","","","","","single-stim-button","237","868632","0.0-3.0-22.5-0.5","5edb164c0d7fc47972df387a","C3","batch3","tol_tohand","739","","","","","","","","","tol_peg_3","739","739","0","[[1,0,0],[3,0],[0]]","6","[[0,0,0],[1,2],[3]]","4","0","","","","","","7","","","","",""
"","","","","","single-stim-button","238","869504","0.0-3.0-22.5-1.5","5edb164c0d7fc47972df387a","C3","batch3","tol_toboard","871","","","","","","","","","tol_peg_1","871","871","0","[[1,2,0],[3,0],[0]]","6","[[0,0,0],[1,2],[3]]","4","0","","","","","","7","","","","",""
"","","","","","single-stim-button","239","870172","0.0-3.0-22.6-0.6","5edb164c0d7fc47972df387a","C3","batch3","tol_tohand","668","","","","","","","","","tol_peg_2","668","668","0","[[1,2,0],[0,0],[0]]","7","[[0,0,0],[1,2],[3]]","4","0","","","","","","7","","","","",""
"","","","","","single-stim-button","240","870894","0.0-3.0-22.6-1.6","5edb164c0d7fc47972df387a","C3","batch3","tol_toboard","721","","","","","","","","","tol_peg_3","721","721","0","[[1,2,0],[0,0],[3]]","7","[[0,0,0],[1,2],[3]]","4","0","","","","","","7","","","","",""
"","","","","","single-stim-button","241","871764","0.0-3.0-22.7-0.7","5edb164c0d7fc47972df387a","C3","batch3","tol_tohand","870","","","","","","","","","tol_peg_1","870","870","0","[[1,0,0],[0,0],[3]]","8","[[0,0,0],[1,2],[3]]","4","0","","","","","","7","","","","",""
"","","","","","single-stim-button","242","872668","0.0-3.0-22.7-1.7","5edb164c0d7fc47972df387a","C3","batch3","tol_toboard","903","","","","","","","","","tol_peg_2","903","903","0","[[1,0,0],[2,0],[3]]","8","[[0,0,0],[1,2],[3]]","4","0","","","","","","7","","","","",""
"","","","","","single-stim-button","243","876294","0.0-3.0-22.8-0.8","5edb164c0d7fc47972df387a","C3","batch3","tol_tohand","3626","","","","","","","","","tol_peg_3","3626","3626","0","[[1,0,0],[2,0],[0]]","9","[[0,0,0],[1,2],[3]]","4","0","","","","","","7","","","","",""
"","","","","","single-stim-button","244","877228","0.0-3.0-22.8-1.8","5edb164c0d7fc47972df387a","C3","batch3","tol_toboard","934","","","","","","","","","tol_peg_2","934","934","0","[[1,0,0],[2,3],[0]]","9","[[0,0,0],[1,2],[3]]","4","0","","","","","","7","","","","",""
"","","","","","single-stim-button","245","877963","0.0-3.0-22.9-0.9","5edb164c0d7fc47972df387a","C3","batch3","tol_tohand","734","","","","","","","","","tol_peg_1","734","734","0","[[0,0,0],[2,3],[0]]","10","[[0,0,0],[1,2],[3]]","4","0","","","","","","7","","","","",""
"","","","","","single-stim-button","246","879170","0.0-3.0-22.9-1.9","5edb164c0d7fc47972df387a","C3","batch3","tol_toboard","1205","","","","","","","","","tol_peg_3","1205","1205","0","[[0,0,0],[2,3],[1]]","10","[[0,0,0],[1,2],[3]]","4","0","","","","","","7","","","","",""
"","","","","","single-stim-button","247","880490","0.0-3.0-22.10-0.10","5edb164c0d7fc47972df387a","C3","batch3","tol_tohand","1320","","","","","","","","","tol_peg_2","1320","1320","0","[[0,0,0],[2,0],[1]]","11","[[0,0,0],[1,2],[3]]","4","0","","","","","","7","","","","",""
"","","","","","single-stim-button","248","881559","0.0-3.0-22.10-1.10","5edb164c0d7fc47972df387a","C3","batch3","tol_toboard","1069","","","","","","","","","tol_peg_1","1069","1069","0","[[3,0,0],[2,0],[1]]","11","[[0,0,0],[1,2],[3]]","4","0","","","","","","7","","","","",""
"","","","","","single-stim-button","249","882548","0.0-3.0-22.11-0.11","5edb164c0d7fc47972df387a","C3","batch3","tol_tohand","987","","","","","","","","","tol_peg_3","987","987","0","[[3,0,0],[2,0],[0]]","12","[[0,0,0],[1,2],[3]]","4","0","","","","","","7","","","","",""
"","","","","","single-stim-button","250","883235","0.0-3.0-22.11-1.11","5edb164c0d7fc47972df387a","C3","batch3","tol_toboard","687","","","","","","","","","tol_peg_2","687","687","0","[[3,0,0],[2,1],[0]]","12","[[0,0,0],[1,2],[3]]","4","0","","","","","","7","","","","",""
"","","","","","single-stim-button","251","883938","0.0-3.0-22.12-0.12","5edb164c0d7fc47972df387a","C3","batch3","tol_tohand","703","","","","","","","","","tol_peg_1","703","703","0","[[0,0,0],[2,1],[0]]","13","[[0,0,0],[1,2],[3]]","4","0","","","","","","7","","","","",""
"","","","","","single-stim-button","252","885111","0.0-3.0-22.12-1.12","5edb164c0d7fc47972df387a","C3","batch3","tol_toboard","1172","","","","","","","","","tol_peg_3","1172","1172","0","[[0,0,0],[2,1],[3]]","13","[[0,0,0],[1,2],[3]]","4","0","","","","","","7","","","","",""
"","","","","","single-stim-button","253","889164","0.0-3.0-22.13-0.13","5edb164c0d7fc47972df387a","C3","batch3","tol_tohand","4052","","","","","","","","","tol_peg_2","4052","4052","0","[[0,0,0],[2,0],[3]]","14","[[0,0,0],[1,2],[3]]","4","0","","","","","","7","","","","",""
"","","","","","single-stim-button","254","890074","0.0-3.0-22.13-1.13","5edb164c0d7fc47972df387a","C3","batch3","tol_toboard","910","","","","","","","","","tol_peg_1","910","910","0","[[1,0,0],[2,0],[3]]","14","[[0,0,0],[1,2],[3]]","4","0","","","","","","7","","","","",""
"","","","","","single-stim-button","255","893110","0.0-3.0-22.14-0.14","5edb164c0d7fc47972df387a","C3","batch3","tol_tohand","3034","","","","","","","","","tol_peg_2","3034","3034","0","[[1,0,0],[0,0],[3]]","15","[[0,0,0],[1,2],[3]]","4","0","","","","","","7","","","","",""
"","","","","","single-stim-button","256","893752","0.0-3.0-22.14-1.14","5edb164c0d7fc47972df387a","C3","batch3","tol_toboard","642","","","","","","","","","tol_peg_2","642","642","0","[[1,0,0],[2,0],[3]]","15","[[0,0,0],[1,2],[3]]","4","0","","","","","","7","","","","",""
"","","","","","single-stim-button","257","894688","0.0-3.0-22.15-0.15","5edb164c0d7fc47972df387a","C3","batch3","tol_tohand","935","","","","","","","","","tol_peg_3","935","935","0","[[1,0,0],[2,0],[0]]","16","[[0,0,0],[1,2],[3]]","4","0","","","","","","7","","","","",""
"","","","","","single-stim-button","258","895476","0.0-3.0-22.15-1.15","5edb164c0d7fc47972df387a","C3","batch3","tol_toboard","788","","","","","","","","","tol_peg_2","788","788","0","[[1,0,0],[2,3],[0]]","16","[[0,0,0],[1,2],[3]]","4","0","","","","","","7","","","","",""
"","","","","","single-stim-button","259","896398","0.0-3.0-22.16-0.16","5edb164c0d7fc47972df387a","C3","batch3","tol_tohand","921","","","","","","","","","tol_peg_1","921","921","0","[[0,0,0],[2,3],[0]]","17","[[0,0,0],[1,2],[3]]","4","0","","","","","","7","","","","",""
"","","","","","single-stim-button","260","897440","0.0-3.0-22.16-1.16","5edb164c0d7fc47972df387a","C3","batch3","tol_toboard","1042","","","","","","","","","tol_peg_3","1042","1042","0","[[0,0,0],[2,3],[1]]","17","[[0,0,0],[1,2],[3]]","4","0","","","","","","7","","","","",""
"","","","","","single-stim-button","261","898140","0.0-3.0-22.17-0.17","5edb164c0d7fc47972df387a","C3","batch3","tol_tohand","700","","","","","","","","","tol_peg_2","700","700","0","[[0,0,0],[2,0],[1]]","18","[[0,0,0],[1,2],[3]]","4","0","","","","","","7","","","","",""
"","","","","","single-stim-button","262","898847","0.0-3.0-22.17-1.17","5edb164c0d7fc47972df387a","C3","batch3","tol_toboard","706","","","","","","","","","tol_peg_1","706","706","0","[[3,0,0],[2,0],[1]]","18","[[0,0,0],[1,2],[3]]","4","0","","","","","","7","","","","",""
"","","","","","single-stim-button","263","899548","0.0-3.0-22.18-0.18","5edb164c0d7fc47972df387a","C3","batch3","tol_tohand","701","","","","","","","","","tol_peg_2","701","701","0","[[3,0,0],[0,0],[1]]","19","[[0,0,0],[1,2],[3]]","4","0","","","","","","7","","","","",""
"","","","","","single-stim-button","264","900469","0.0-3.0-22.18-1.18","5edb164c0d7fc47972df387a","C3","batch3","tol_toboard","920","","","","","","","","","tol_peg_1","920","920","0","[[3,2,0],[0,0],[1]]","19","[[0,0,0],[1,2],[3]]","4","0","","","","","","7","","","","",""
"","","","","","single-stim-button","265","901671","0.0-3.0-22.19-0.19","5edb164c0d7fc47972df387a","C3","batch3","tol_tohand","1202","","","","","","","","","tol_peg_3","1202","1202","0","[[3,2,0],[0,0],[0]]","20","[[0,0,0],[1,2],[3]]","4","0","","","","","","7","","","","",""
"","","","","","single-stim-button","266","902562","0.0-3.0-22.19-1.19","5edb164c0d7fc47972df387a","C3","batch3","tol_toboard","890","","","","","","","","","tol_peg_2","890","890","0","[[3,2,0],[1,0],[0]]","20","[[0,0,0],[1,2],[3]]","4","0","","","","","","7","","","","",""
"","","","","","single-stim-button","267","903565","0.0-3.0-22.20-0.20","5edb164c0d7fc47972df387a","C3","batch3","tol_tohand","1003","","","","","","","","","tol_peg_1","1003","1003","0","[[3,0,0],[1,0],[0]]","21","[[0,0,0],[1,2],[3]]","4","0","","","","","","7","","","","",""
"","","","","","single-stim-button","268","904367","0.0-3.0-22.20-1.20","5edb164c0d7fc47972df387a","C3","batch3","tol_toboard","802","","","","","","","","","tol_peg_2","802","802","0","[[3,0,0],[1,2],[0]]","21","[[0,0,0],[1,2],[3]]","4","0","","","","","","7","","","","",""
"","","","","","single-stim-button","269","905154","0.0-3.0-22.21-0.21","5edb164c0d7fc47972df387a","C3","batch3","tol_tohand","786","","","","","","","","","tol_peg_1","786","786","0","[[0,0,0],[1,2],[0]]","22","[[0,0,0],[1,2],[3]]","4","0","","","","","","7","","","","",""
"","","","","","single-stim-button","270","905973","0.0-3.0-22.21-1.21","5edb164c0d7fc47972df387a","C3","batch3","tol_toboard","819","","","","","","","","","tol_peg_3","819","819","0","[[0,0,0],[1,2],[3]]","22","[[0,0,0],[1,2],[3]]","4","0","","","","","","7","","","","",""
"","","","","","poldrack-single-stim","271","906985","0.0-3.0-23.0","5edb164c0d7fc47972df387a","C3","batch3","tol_feedback","-1","","","","","true","","","","","1000","1000","500","","","","","","-1","none","true","9159","42201","","","","","",""
"","","","","","html-button-response","272","908684","0.0-3.0-24.0","5edb164c0d7fc47972df387a","C3","batch3","tol_trial_num","1697.8000000000466","<div class = centerbox><p class = center-block-text>problem <strong>6</strong> out of 25 problems</p></div>","0","","","","","","","","","","","","","","","","","","","","","","","","","",""
"","","","","","single-stim-button","273","912758","0.0-3.0-25.0-0.0","5edb164c0d7fc47972df387a","C3","batch3","tol_tohand","4073","","","","","","","","","tol_peg_2","4073","4073","0","[[0,0,0],[1,0],[3]]","1","[[1,0,0],[2,3],[0]]","5","0","","","","","","6","","","","",""
"","","","","","single-stim-button","274","913531","0.0-3.0-25.0-1.0","5edb164c0d7fc47972df387a","C3","batch3","tol_toboard","773","","","","","","","","","tol_peg_1","773","773","0","[[2,0,0],[1,0],[3]]","1","[[1,0,0],[2,3],[0]]","5","0","","","","","","6","","","","",""
"","","","","","single-stim-button","275","914585","0.0-3.0-25.1-0.1","5edb164c0d7fc47972df387a","C3","batch3","tol_tohand","1054","","","","","","","","","tol_peg_2","1054","1054","0","[[2,0,0],[0,0],[3]]","2","[[1,0,0],[2,3],[0]]","5","0","","","","","","6","","","","",""
"","","","","","single-stim-button","276","915371","0.0-3.0-25.1-1.1","5edb164c0d7fc47972df387a","C3","batch3","tol_toboard","785","","","","","","","","","tol_peg_1","785","785","0","[[2,1,0],[0,0],[3]]","2","[[1,0,0],[2,3],[0]]","5","0","","","","","","6","","","","",""
"","","","","","single-stim-button","277","918021","0.0-3.0-25.2-0.2","5edb164c0d7fc47972df387a","C3","batch3","tol_tohand","2649","","","","","","","","","tol_peg_3","2649","2649","0","[[2,1,0],[0,0],[0]]","3","[[1,0,0],[2,3],[0]]","5","0","","","","","","6","","","","",""
"","","","","","single-stim-button","278","919026","0.0-3.0-25.2-1.2","5edb164c0d7fc47972df387a","C3","batch3","tol_toboard","1003","","","","","","","","","tol_peg_2","1003","1003","0","[[2,1,0],[3,0],[0]]","3","[[1,0,0],[2,3],[0]]","5","0","","","","","","6","","","","",""
"","","","","","single-stim-button","279","921695","0.0-3.0-25.3-0.3","5edb164c0d7fc47972df387a","C3","batch3","tol_tohand","2669","","","","","","","","","tol_peg_1","2669","2669","0","[[2,0,0],[3,0],[0]]","4","[[1,0,0],[2,3],[0]]","5","0","","","","","","6","","","","",""
"","","","","","single-stim-button","280","922500","0.0-3.0-25.3-1.3","5edb164c0d7fc47972df387a","C3","batch3","tol_toboard","805","","","","","","","","","tol_peg_3","805","805","0","[[2,0,0],[3,0],[1]]","4","[[1,0,0],[2,3],[0]]","5","0","","","","","","6","","","","",""
"","","","","","single-stim-button","281","923598","0.0-3.0-25.4-0.4","5edb164c0d7fc47972df387a","C3","batch3","tol_tohand","1098","","","","","","","","","tol_peg_1","1098","1098","0","[[0,0,0],[3,0],[1]]","5","[[1,0,0],[2,3],[0]]","5","0","","","","","","6","","","","",""
"","","","","","single-stim-button","282","925236","0.0-3.0-25.4-1.4","5edb164c0d7fc47972df387a","C3","batch3","tol_toboard","1638","","","","","","","","","tol_peg_2","1638","1638","0","[[0,0,0],[3,2],[1]]","5","[[1,0,0],[2,3],[0]]","5","0","","","","","","6","","","","",""
"","","","","","single-stim-button","283","926057","0.0-3.0-25.5-0.5","5edb164c0d7fc47972df387a","C3","batch3","tol_tohand","821","","","","","","","","","tol_peg_3","821","821","0","[[0,0,0],[3,2],[0]]","6","[[1,0,0],[2,3],[0]]","5","0","","","","","","6","","","","",""
"","","","","","single-stim-button","284","927011","0.0-3.0-25.5-1.5","5edb164c0d7fc47972df387a","C3","batch3","tol_toboard","954","","","","","","","","","tol_peg_1","954","954","0","[[1,0,0],[3,2],[0]]","6","[[1,0,0],[2,3],[0]]","5","0","","","","","","6","","","","",""
"","","","","","single-stim-button","285","928164","0.0-3.0-25.6-0.6","5edb164c0d7fc47972df387a","C3","batch3","tol_tohand","1153","","","","","","","","","tol_peg_2","1153","1153","0","[[1,0,0],[3,0],[0]]","7","[[1,0,0],[2,3],[0]]","5","0","","","","","","6","","","","",""
"","","","","","single-stim-button","286","929252","0.0-3.0-25.6-1.6","5edb164c0d7fc47972df387a","C3","batch3","tol_toboard","1087","","","","","","","","","tol_peg_3","1087","1087","0","[[1,0,0],[3,0],[2]]","7","[[1,0,0],[2,3],[0]]","5","0","","","","","","6","","","","",""
"","","","","","single-stim-button","287","929890","0.0-3.0-25.7-0.7","5edb164c0d7fc47972df387a","C3","batch3","tol_tohand","638","","","","","","","","","tol_peg_2","638","638","0","[[1,0,0],[0,0],[2]]","8","[[1,0,0],[2,3],[0]]","5","0","","","","","","6","","","","",""
"","","","","","single-stim-button","288","930758","0.0-3.0-25.7-1.7","5edb164c0d7fc47972df387a","C3","batch3","tol_toboard","867","","","","","","","","","tol_peg_1","867","867","0","[[1,3,0],[0,0],[2]]","8","[[1,0,0],[2,3],[0]]","5","0","","","","","","6","","","","",""
"","","","","","single-stim-button","289","931712","0.0-3.0-25.8-0.8","5edb164c0d7fc47972df387a","C3","batch3","tol_tohand","953","","","","","","","","","tol_peg_3","953","953","0","[[1,3,0],[0,0],[0]]","9","[[1,0,0],[2,3],[0]]","5","0","","","","","","6","","","","",""
"","","","","","single-stim-button","290","932399","0.0-3.0-25.8-1.8","5edb164c0d7fc47972df387a","C3","batch3","tol_toboard","685","","","","","","","","","tol_peg_2","685","685","0","[[1,3,0],[2,0],[0]]","9","[[1,0,0],[2,3],[0]]","5","0","","","","","","6","","","","",""
"","","","","","single-stim-button","291","933487","0.0-3.0-25.9-0.9","5edb164c0d7fc47972df387a","C3","batch3","tol_tohand","1088","","","","","","","","","tol_peg_1","1088","1088","0","[[1,0,0],[2,0],[0]]","10","[[1,0,0],[2,3],[0]]","5","0","","","","","","6","","","","",""
"","","","","","single-stim-button","292","934273","0.0-3.0-25.9-1.9","5edb164c0d7fc47972df387a","C3","batch3","tol_toboard","785","","","","","","","","","tol_peg_2","785","785","0","[[1,0,0],[2,3],[0]]","10","[[1,0,0],[2,3],[0]]","5","0","","","","","","6","","","","",""
"","","","","","poldrack-single-stim","293","935282","0.0-3.0-26.0","5edb164c0d7fc47972df387a","C3","batch3","tol_feedback","-1","","","","","true","","","","","1000","1000","500","","","","","","-1","none","true","4073","16196","","","","","",""
"","","","","","html-button-response","294","937060","0.0-3.0-27.0","5edb164c0d7fc47972df387a","C3","batch3","tol_trial_num","1777.4000000001397","<div class = centerbox><p class = center-block-text>problem <strong>7</strong> out of 25 problems</p></div>","0","","","","","","","","","","","","","","","","","","","","","","","","","",""
"","","","","","single-stim-button","295","940360","0.0-3.0-28.0-0.0","5edb164c0d7fc47972df387a","C3","batch3","tol_tohand","3299","","","","","","","","","tol_peg_1","3299","3299","0","[[2,0,0],[0,0],[3]]","1","[[1,2,0],[3,0],[0]]","6","0","","","","","","5","","","","",""
"","","","","","single-stim-button","296","941095","0.0-3.0-28.0-1.0","5edb164c0d7fc47972df387a","C3","batch3","tol_toboard","734","","","","","","","","","tol_peg_2","734","734","0","[[2,0,0],[1,0],[3]]","1","[[1,2,0],[3,0],[0]]","6","0","","","","","","5","","","","",""
"","","","","","single-stim-button","297","942813","0.0-3.0-28.1-0.1","5edb164c0d7fc47972df387a","C3","batch3","tol_tohand","1716","","","","","","","","","tol_peg_1","1716","1716","0","[[0,0,0],[1,0],[3]]","2","[[1,2,0],[3,0],[0]]","6","0","","","","","","5","","","","",""
"","","","","","single-stim-button","298","943413","0.0-3.0-28.1-1.1","5edb164c0d7fc47972df387a","C3","batch3","tol_toboard","599","","","","","","","","","tol_peg_2","599","599","0","[[0,0,0],[1,2],[3]]","2","[[1,2,0],[3,0],[0]]","6","0","","","","","","5","","","","",""
"","","","","","single-stim-button","299","943983","0.0-3.0-28.2-0.2","5edb164c0d7fc47972df387a","C3","batch3","tol_tohand","569","","","","","","","","","tol_peg_3","569","569","0","[[0,0,0],[1,2],[0]]","3","[[1,2,0],[3,0],[0]]","6","0","","","","","","5","","","","",""
"","","","","","single-stim-button","300","945430","0.0-3.0-28.2-1.2","5edb164c0d7fc47972df387a","C3","batch3","tol_toboard","1447","","","","","","","","","tol_peg_1","1447","1447","0","[[3,0,0],[1,2],[0]]","3","[[1,2,0],[3,0],[0]]","6","0","","","","","","5","","","","",""
"","","","","","single-stim-button","301","946166","0.0-3.0-28.3-0.3","5edb164c0d7fc47972df387a","C3","batch3","tol_tohand","734","","","","","","","","","tol_peg_2","734","734","0","[[3,0,0],[1,0],[0]]","4","[[1,2,0],[3,0],[0]]","6","0","","","","","","5","","","","",""
"","","","","","single-stim-button","302","946728","0.0-3.0-28.3-1.3","5edb164c0d7fc47972df387a","C3","batch3","tol_toboard","562","","","","","","","","","tol_peg_3","562","562","0","[[3,0,0],[1,0],[2]]","4","[[1,2,0],[3,0],[0]]","6","0","","","","","","5","","","","",""
"","","","","","single-stim-button","303","950051","0.0-3.0-28.4-0.4","5edb164c0d7fc47972df387a","C3","batch3","tol_tohand","3322","","","","","","","","","tol_peg_2","3322","3322","0","[[3,0,0],[0,0],[2]]","5","[[1,2,0],[3,0],[0]]","6","0","","","","","","5","","","","",""
"","","","","","single-stim-button","304","950606","0.0-3.0-28.4-1.4","5edb164c0d7fc47972df387a","C3","batch3","tol_toboard","555","","","","","","","","","tol_peg_1","555","555","0","[[3,1,0],[0,0],[2]]","5","[[1,2,0],[3,0],[0]]","6","0","","","","","","5","","","","",""
"","","","","","single-stim-button","305","951370","0.0-3.0-28.5-0.5","5edb164c0d7fc47972df387a","C3","batch3","tol_tohand","762","","","","","","","","","tol_peg_3","762","762","0","[[3,1,0],[0,0],[0]]","6","[[1,2,0],[3,0],[0]]","6","0","","","","","","5","","","","",""
"","","","","","single-stim-button","306","951836","0.0-3.0-28.5-1.5","5edb164c0d7fc47972df387a","C3","batch3","tol_toboard","466","","","","","","","","","tol_peg_2","466","466","0","[[3,1,0],[2,0],[0]]","6","[[1,2,0],[3,0],[0]]","6","0","","","","","","5","","","","",""
"","","","","","single-stim-button","307","952489","0.0-3.0-28.6-0.6","5edb164c0d7fc47972df387a","C3","batch3","tol_tohand","653","","","","","","","","","tol_peg_1","653","653","0","[[3,0,0],[2,0],[0]]","7","[[1,2,0],[3,0],[0]]","6","0","","","","","","5","","","","",""
"","","","","","single-stim-button","308","953074","0.0-3.0-28.6-1.6","5edb164c0d7fc47972df387a","C3","batch3","tol_toboard","585","","","","","","","","","tol_peg_2","585","585","0","[[3,0,0],[2,1],[0]]","7","[[1,2,0],[3,0],[0]]","6","0","","","","","","5","","","","",""
"","","","","","single-stim-button","309","953688","0.0-3.0-28.7-0.7","5edb164c0d7fc47972df387a","C3","batch3","tol_tohand","614","","","","","","","","","tol_peg_1","614","614","0","[[0,0,0],[2,1],[0]]","8","[[1,2,0],[3,0],[0]]","6","0","","","","","","5","","","","",""
"","","","","","single-stim-button","310","954483","0.0-3.0-28.7-1.7","5edb164c0d7fc47972df387a","C3","batch3","tol_toboard","794","","","","","","","","","tol_peg_3","794","794","0","[[0,0,0],[2,1],[3]]","8","[[1,2,0],[3,0],[0]]","6","0","","","","","","5","","","","",""
"","","","","","single-stim-button","311","954948","0.0-3.0-28.8-0.8","5edb164c0d7fc47972df387a","C3","batch3","tol_tohand","464","","","","","","","","","tol_peg_2","464","464","0","[[0,0,0],[2,0],[3]]","9","[[1,2,0],[3,0],[0]]","6","0","","","","","","5","","","","",""
"","","","","","single-stim-button","312","955421","0.0-3.0-28.8-1.8","5edb164c0d7fc47972df387a","C3","batch3","tol_toboard","473","","","","","","","","","tol_peg_1","473","473","0","[[1,0,0],[2,0],[3]]","9","[[1,2,0],[3,0],[0]]","6","0","","","","","","5","","","","",""
"","","","","","single-stim-button","313","956104","0.0-3.0-28.9-0.9","5edb164c0d7fc47972df387a","C3","batch3","tol_tohand","683","","","","","","","","","tol_peg_2","683","683","0","[[1,0,0],[0,0],[3]]","10","[[1,2,0],[3,0],[0]]","6","0","","","","","","5","","","","",""
"","","","","","single-stim-button","314","956546","0.0-3.0-28.9-1.9","5edb164c0d7fc47972df387a","C3","batch3","tol_toboard","441","","","","","","","","","tol_peg_1","441","441","0","[[1,2,0],[0,0],[3]]","10","[[1,2,0],[3,0],[0]]","6","0","","","","","","5","","","","",""
"","","","","","single-stim-button","315","957506","0.0-3.0-28.10-0.10","5edb164c0d7fc47972df387a","C3","batch3","tol_tohand","960","","","","","","","","","tol_peg_3","960","960","0","[[1,2,0],[0,0],[0]]","11","[[1,2,0],[3,0],[0]]","6","0","","","","","","5","","","","",""
"","","","","","single-stim-button","316","958435","0.0-3.0-28.10-1.10","5edb164c0d7fc47972df387a","C3","batch3","tol_toboard","929","","","","","","","","","tol_peg_2","929","929","0","[[1,2,0],[3,0],[0]]","11","[[1,2,0],[3,0],[0]]","6","0","","","","","","5","","","","",""
"","","","","","poldrack-single-stim","317","959444","0.0-3.0-29.0","5edb164c0d7fc47972df387a","C3","batch3","tol_feedback","-1","","","","","true","","","","","1000","1000","500","","","","","","-1","none","true","3299","13776","","","","","",""
"","","","","","html-button-response","318","960409","0.0-3.0-30.0","5edb164c0d7fc47972df387a","C3","batch3","tol_trial_num","963.8999999999069","<div class = centerbox><p class = center-block-text>problem <strong>8</strong> out of 25 problems</p></div>","0","","","","","","","","","","","","","","","","","","","","","","","","","",""
"","","","","","single-stim-button","319","967054","0.0-3.0-31.0-0.0","5edb164c0d7fc47972df387a","C3","batch3","tol_tohand","6645","","","","","","","","","tol_peg_3","6645","6645","0","[[0,0,0],[2,3],[0]]","1","[[1,2,0],[3,0],[0]]","7","0","","","","","","4","","","","",""
"","","","","","single-stim-button","320","967811","0.0-3.0-31.0-1.0","5edb164c0d7fc47972df387a","C3","batch3","tol_toboard","756","","","","","","","","","tol_peg_1","756","756","0","[[1,0,0],[2,3],[0]]","1","[[1,2,0],[3,0],[0]]","7","0","","","","","","4","","","","",""
"","","","","","single-stim-button","321","968599","0.0-3.0-31.1-0.1","5edb164c0d7fc47972df387a","C3","batch3","tol_tohand","787","","","","","","","","","tol_peg_2","787","787","0","[[1,0,0],[2,0],[0]]","2","[[1,2,0],[3,0],[0]]","7","0","","","","","","4","","","","",""
"","","","","","single-stim-button","322","969244","0.0-3.0-31.1-1.1","5edb164c0d7fc47972df387a","C3","batch3","tol_toboard","644","","","","","","","","","tol_peg_3","644","644","0","[[1,0,0],[2,0],[3]]","2","[[1,2,0],[3,0],[0]]","7","0","","","","","","4","","","","",""
"","","","","","single-stim-button","323","969896","0.0-3.0-31.2-0.2","5edb164c0d7fc47972df387a","C3","batch3","tol_tohand","651","","","","","","","","","tol_peg_2","651","651","0","[[1,0,0],[0,0],[3]]","3","[[1,2,0],[3,0],[0]]","7","0","","","","","","4","","","","",""
"","","","","","single-stim-button","324","970481","0.0-3.0-31.2-1.2","5edb164c0d7fc47972df387a","C3","batch3","tol_toboard","584","","","","","","","","","tol_peg_1","584","584","0","[[1,2,0],[0,0],[3]]","3","[[1,2,0],[3,0],[0]]","7","0","","","","","","4","","","","",""
"","","","","","single-stim-button","325","970999","0.0-3.0-31.3-0.3","5edb164c0d7fc47972df387a","C3","batch3","tol_tohand","517","","","","","","","","","tol_peg_3","517","517","0","[[1,2,0],[0,0],[0]]","4","[[1,2,0],[3,0],[0]]","7","0","","","","","","4","","","","",""
"","","","","","single-stim-button","326","971539","0.0-3.0-31.3-1.3","5edb164c0d7fc47972df387a","C3","batch3","tol_toboard","539","","","","","","","","","tol_peg_2","539","539","0","[[1,2,0],[3,0],[0]]","4","[[1,2,0],[3,0],[0]]","7","0","","","","","","4","","","","",""
"","","","","","poldrack-single-stim","327","972549","0.0-3.0-32.0","5edb164c0d7fc47972df387a","C3","batch3","tol_feedback","-1","","","","","true","","","","","1000","1000","500","","","","","","-1","none","true","6645","8600","","","","","",""
"","","","","","html-button-response","328","974255","0.0-3.0-33.0","5edb164c0d7fc47972df387a","C3","batch3","tol_trial_num","1704.1999999999534","<div class = centerbox><p class = center-block-text>problem <strong>9</strong> out of 25 problems</p></div>","0","","","","","","","","","","","","","","","","","","","","","","","","","",""
"","","","","","single-stim-button","329","977886","0.0-3.0-34.0-0.0","5edb164c0d7fc47972df387a","C3","batch3","tol_tohand","3631","","","","","","","","","tol_peg_1","3631","3631","0","[[3,0,0],[0,0],[1]]","1","[[2,1,0],[3,0],[0]]","8","0","","","","","","6","","","","",""
"","","","","","single-stim-button","330","978597","0.0-3.0-34.0-1.0","5edb164c0d7fc47972df387a","C3","batch3","tol_toboard","709","","","","","","","","","tol_peg_2","709","709","0","[[3,0,0],[2,0],[1]]","1","[[2,1,0],[3,0],[0]]","8","0","","","","","","6","","","","",""
"","","","","","single-stim-button","331","979947","0.0-3.0-34.1-0.1","5edb164c0d7fc47972df387a","C3","batch3","tol_tohand","1349","","","","","","","","","tol_peg_3","1349","1349","0","[[3,0,0],[2,0],[0]]","2","[[2,1,0],[3,0],[0]]","8","0","","","","","","6","","","","",""
"","","","","","single-stim-button","332","980487","0.0-3.0-34.1-1.1","5edb164c0d7fc47972df387a","C3","batch3","tol_toboard","539","","","","","","","","","tol_peg_2","539","539","0","[[3,0,0],[2,1],[0]]","2","[[2,1,0],[3,0],[0]]","8","0","","","","","","6","","","","",""
"","","","","","single-stim-button","333","981537","0.0-3.0-34.2-0.2","5edb164c0d7fc47972df387a","C3","batch3","tol_tohand","1049","","","","","","","","","tol_peg_1","1049","1049","0","[[0,0,0],[2,1],[0]]","3","[[2,1,0],[3,0],[0]]","8","0","","","","","","6","","","","",""
"","","","","","single-stim-button","334","982460","0.0-3.0-34.2-1.2","5edb164c0d7fc47972df387a","C3","batch3","tol_toboard","923","","","","","","","","","tol_peg_3","923","923","0","[[0,0,0],[2,1],[3]]","3","[[2,1,0],[3,0],[0]]","8","0","","","","","","6","","","","",""
"","","","","","single-stim-button","335","983525","0.0-3.0-34.3-0.3","5edb164c0d7fc47972df387a","C3","batch3","tol_tohand","1064","","","","","","","","","tol_peg_2","1064","1064","0","[[0,0,0],[2,0],[3]]","4","[[2,1,0],[3,0],[0]]","8","0","","","","","","6","","","","",""
"","","","","","single-stim-button","336","984042","0.0-3.0-34.3-1.3","5edb164c0d7fc47972df387a","C3","batch3","tol_toboard","516","","","","","","","","","tol_peg_1","516","516","0","[[1,0,0],[2,0],[3]]","4","[[2,1,0],[3,0],[0]]","8","0","","","","","","6","","","","",""
"","","","","","single-stim-button","337","985452","0.0-3.0-34.4-0.4","5edb164c0d7fc47972df387a","C3","batch3","tol_tohand","1410","","","","","","","","","tol_peg_3","1410","1410","0","[[1,0,0],[2,0],[0]]","5","[[2,1,0],[3,0],[0]]","8","0","","","","","","6","","","","",""
"","","","","","single-stim-button","338","985887","0.0-3.0-34.4-1.4","5edb164c0d7fc47972df387a","C3","batch3","tol_toboard","435","","","","","","","","","tol_peg_2","435","435","0","[[1,0,0],[2,3],[0]]","5","[[2,1,0],[3,0],[0]]","8","0","","","","","","6","","","","",""
"","","","","","single-stim-button","339","988175","0.0-3.0-34.5-0.5","5edb164c0d7fc47972df387a","C3","batch3","tol_tohand","2288","","","","","","","","","tol_peg_2","2288","2288","0","[[1,0,0],[2,0],[0]]","6","[[2,1,0],[3,0],[0]]","8","0","","","","","","6","","","","",""
"","","","","","single-stim-button","340","988693","0.0-3.0-34.5-1.5","5edb164c0d7fc47972df387a","C3","batch3","tol_toboard","518","","","","","","","","","tol_peg_3","518","518","0","[[1,0,0],[2,0],[3]]","6","[[2,1,0],[3,0],[0]]","8","0","","","","","","6","","","","",""
"","","","","","single-stim-button","341","990635","0.0-3.0-34.6-0.6","5edb164c0d7fc47972df387a","C3","batch3","tol_tohand","1941","","","","","","","","","tol_peg_3","1941","1941","0","[[1,0,0],[2,0],[0]]","7","[[2,1,0],[3,0],[0]]","8","0","","","","","","6","","","","",""
"","","","","","single-stim-button","342","991557","0.0-3.0-34.6-1.6","5edb164c0d7fc47972df387a","C3","batch3","tol_toboard","922","","","","","","","","","tol_peg_1","922","922","0","[[1,3,0],[2,0],[0]]","7","[[2,1,0],[3,0],[0]]","8","0","","","","","","6","","","","",""
"","","","","","single-stim-button","343","992007","0.0-3.0-34.7-0.7","5edb164c0d7fc47972df387a","C3","batch3","tol_tohand","449","","","","","","","","","tol_peg_2","449","449","0","[[1,3,0],[0,0],[0]]","8","[[2,1,0],[3,0],[0]]","8","0","","","","","","6","","","","",""
"","","","","","single-stim-button","344","992645","0.0-3.0-34.7-1.7","5edb164c0d7fc47972df387a","C3","batch3","tol_toboard","638","","","","","","","","","tol_peg_3","638","638","0","[[1,3,0],[0,0],[2]]","8","[[2,1,0],[3,0],[0]]","8","0","","","","","","6","","","","",""
"","","","","","single-stim-button","345","993305","0.0-3.0-34.8-0.8","5edb164c0d7fc47972df387a","C3","batch3","tol_tohand","659","","","","","","","","","tol_peg_1","659","659","0","[[1,0,0],[0,0],[2]]","9","[[2,1,0],[3,0],[0]]","8","0","","","","","","6","","","","",""
"","","","","","single-stim-button","346","994888","0.0-3.0-34.8-1.8","5edb164c0d7fc47972df387a","C3","batch3","tol_toboard","1582","","","","","","","","","tol_peg_2","1582","1582","0","[[1,0,0],[3,0],[2]]","9","[[2,1,0],[3,0],[0]]","8","0","","","","","","6","","","","",""
"","","","","","single-stim-button","347","995473","0.0-3.0-34.9-0.9","5edb164c0d7fc47972df387a","C3","batch3","tol_tohand","584","","","","","","","","","tol_peg_1","584","584","0","[[0,0,0],[3,0],[2]]","10","[[2,1,0],[3,0],[0]]","8","0","","","","","","6","","","","",""
"","","","","","single-stim-button","348","996028","0.0-3.0-34.9-1.9","5edb164c0d7fc47972df387a","C3","batch3","tol_toboard","554","","","","","","","","","tol_peg_2","554","554","0","[[0,0,0],[3,1],[2]]","10","[[2,1,0],[3,0],[0]]","8","0","","","","","","6","","","","",""
"","","","","","single-stim-button","349","996568","0.0-3.0-34.10-0.10","5edb164c0d7fc47972df387a","C3","batch3","tol_tohand","539","","","","","","","","","tol_peg_3","539","539","0","[[0,0,0],[3,1],[0]]","11","[[2,1,0],[3,0],[0]]","8","0","","","","","","6","","","","",""
"","","","","","single-stim-button","350","997063","0.0-3.0-34.10-1.10","5edb164c0d7fc47972df387a","C3","batch3","tol_toboard","494","","","","","","","","","tol_peg_1","494","494","0","[[2,0,0],[3,1],[0]]","11","[[2,1,0],[3,0],[0]]","8","0","","","","","","6","","","","",""
"","","","","","single-stim-button","351","997768","0.0-3.0-34.11-0.11","5edb164c0d7fc47972df387a","C3","batch3","tol_tohand","704","","","","","","","","","tol_peg_2","704","704","0","[[2,0,0],[3,0],[0]]","12","[[2,1,0],[3,0],[0]]","8","0","","","","","","6","","","","",""
"","","","","","single-stim-button","352","998165","0.0-3.0-34.11-1.11","5edb164c0d7fc47972df387a","C3","batch3","tol_toboard","396","","","","","","","","","tol_peg_1","396","396","0","[[2,1,0],[3,0],[0]]","12","[[2,1,0],[3,0],[0]]","8","0","","","","","","6","","","","",""
"","","","","","poldrack-single-stim","353","999170","0.0-3.0-35.0","5edb164c0d7fc47972df387a","C3","batch3","tol_feedback","-1","","","","","true","","","","","1000","1000","500","","","","","","-1","none","true","3631","15667","","","","","",""
