"success","timeout","failed_images","failed_audio","failed_video","trial_type","trial_index","time_elapsed","internal_node_id","subject_id","study_id","session_id","view_history","rt","stimulus","response","task","correct","answer","item","fiar_detect_rt","fiar_detect_correct","total_correct_fiar_detect","post_trial_gap","choices","mouse_click","stim_duration","block_duration","timing_post_trial","current_position","tol_num_moves_made","tol_target","tol_problem_id","tol_rt","key_press","possible_responses","tol_correct","preplanning","tol_rt_per_trial","tol_min_moves","spm_correct","spm_rt"
"true","false","[]","[]","[]","preload","0","1186","0.0-0.0","5edfb0770fb0722aa3839b6d","B2","batch2","","","","","","","","","","","","","","","","","","","","","","","","","","","","","",""
"true","","","","","fullscreen","1","12429","0.0-1.0-0.0","5edfb0770fb0722aa3839b6d","B2","batch2","","","","","","","","","","","","","","","","","","","","","","","","","","","","","",""
"true","","","","","fullscreen","2","16617","0.0-2.0-0.0","5edfb0770fb0722aa3839b6d","B2","batch2","","","","","","","","","","","","","","","","","","","","","","","","","","","","","",""
"","","","","","instructions","3","64850","0.0-2.0-1.0-0.0","5edfb0770fb0722aa3839b6d","B2","batch2","[{""page_index"":0,""viewing_time"":38162.30000001192},{""page_index"":1,""viewing_time"":10067.5}]","48230.20000000298","","","","","","","","","","","","","","","","","","","","","","","","","","","",""
"","","","","","html-button-response","4","66490","0.0-2.0-1.0-1.0-0.0","5edfb0770fb0722aa3839b6d","B2","batch2","","1638.5","<p class=block-text> Let's answer a few questions <br>","0","pattern_enter_quiz","","","","","","","","","","","","","","","","","","","","","","","","",""
"","","","","","html-button-response","5","71394","0.0-2.0-1.0-1.0-1.0","5edfb0770fb0722aa3839b6d","B2","batch2","","4903","<p class = block-text>True or False: You will have as much time as you want to make each choice. <br></p>","0","pattern_quiz","false","","","","","","","","","","","","","","","","","","","","","","","",""
"","","","","","html-button-response","6","73191","0.0-2.0-1.0-1.0-2.0","5edfb0770fb0722aa3839b6d","B2","batch2","","1795.2000000029802","<p class = block-text>Incorrect. Remember, You should make your choice as fast as you can.</p>","0","pattern_quiz_feedback","","","","","","","","","","","","","","","","","","","","","","","","",""
"","","","","","html-button-response","7","78591","0.0-2.0-1.0-1.0-3.0","5edfb0770fb0722aa3839b6d","B2","batch2","","5398.9000000059605","<p class = block-text>True or False: You will look for 4 pieces in black or white color connected in a row either horizontally, vertically or diagonally. <br></p>","0","pattern_quiz","true","","","","","","","","","","","","","","","","","","","","","","","",""
"","","","","","html-button-response","8","79359","0.0-2.0-1.0-1.0-4.0","5edfb0770fb0722aa3839b6d","B2","batch2","","766.2000000029802","<p class = block-text>Correct! </p>","0","pattern_quiz_feedback","","","","","","","","","","","","","","","","","","","","","","","","",""
"","","","","","html-button-response","9","80943","0.0-2.0-1.0-2.0-0.0","5edfb0770fb0722aa3839b6d","B2","batch2","","1582.5","<p class = block-text>You made too many incorrect choices.</p><p class = block-text>You will now repeat the instruction and quiz</p>","0","","","","","","","","","","","","","","","","","","","","","","","","","",""
"","","","","","instructions","10","85320","0.0-2.0-1.1-0.1","5edfb0770fb0722aa3839b6d","B2","batch2","[{""page_index"":0,""viewing_time"":1656.2999999970198},{""page_index"":1,""viewing_time"":983.6000000089407},{""page_index"":0,""viewing_time"":840.2999999970198},{""page_index"":1,""viewing_time"":895.7999999970198}]","4376.29999999702","","","","","","","","","","","","","","","","","","","","","","","","","","","",""
"","","","","","html-button-response","11","86312","0.0-2.0-1.1-1.1-0.1","5edfb0770fb0722aa3839b6d","B2","batch2","","991","<p class=block-text> Let's answer a few questions <br>","0","pattern_enter_quiz","","","","","","","","","","","","","","","","","","","","","","","","",""
"","","","","","html-button-response","12","87344","0.0-2.0-1.1-1.1-1.1","5edfb0770fb0722aa3839b6d","B2","batch2","","1031.0999999940395","<p class = block-text>True or False: You will have as much time as you want to make each choice. <br></p>","1","pattern_quiz","true","","","","","","","","","","","","","","","","","","","","","","","",""
"","","","","","html-button-response","13","88040","0.0-2.0-1.1-1.1-2.1","5edfb0770fb0722aa3839b6d","B2","batch2","","695.6000000089407","<p class = block-text>Correct! You should make your choice <strong> as fast as you can</strong>.</p>","0","pattern_quiz_feedback","","","","","","","","","","","","","","","","","","","","","","","","",""
"","","","","","html-button-response","14","95498","0.0-2.0-1.1-1.1-3.1","5edfb0770fb0722aa3839b6d","B2","batch2","","7456.699999988079","<p class = block-text>True or False: You will look for 4 pieces in black or white color connected in a row either horizontally, vertically or diagonally. <br></p>","0","pattern_quiz","true","","","","","","","","","","","","","","","","","","","","","","","",""
"","","","","","html-button-response","15","96312","0.0-2.0-1.1-1.1-4.1","5edfb0770fb0722aa3839b6d","B2","batch2","","813.2999999970198","<p class = block-text>Correct! </p>","0","pattern_quiz_feedback","","","","","","","","","","","","","","","","","","","","","","","","",""
"","","","","","html-button-response","16","99210","0.0-2.0-2.0","5edfb0770fb0722aa3839b6d","B2","batch2","","2896.5","<p class=block-text> Now that you've understood the game, let's do a few practice trials before we start!<br> <br>","0","pattern_enter_practice","","","","","","","","","","","","","","","","","","","","","","","","",""
"","","","","","image-keyboard-response","17","100407","0.0-2.0-3.0-0.0","5edfb0770fb0722aa3839b6d","B2","batch2","","1192.7000000029802","stim/prac_yes_16_ver_w1.png","f","pattern_practice","true","f","","","","","","","","","","","","","","","","","","","","","","",""
"","","","","","html-keyboard-response","18","101436","0.0-2.0-3.0-1.0","5edfb0770fb0722aa3839b6d","B2","batch2","","null","<p style=""font-size:30px;color:green;"">Correct!</p>","null","pattern_feedback","","","","","","","","","","","","","","","","","","","","","","","","",""
"","","","","","image-keyboard-response","19","103151","0.0-2.0-3.0-0.1","5edfb0770fb0722aa3839b6d","B2","batch2","","1712.9000000059605","stim/prac_no_18_1.png","j","pattern_practice","true","j","","","","","","","","","","","","","","","","","","","","","","",""
"","","","","","html-keyboard-response","20","104162","0.0-2.0-3.0-1.1","5edfb0770fb0722aa3839b6d","B2","batch2","","null","<p style=""font-size:30px;color:green;"">Correct!</p>","null","pattern_feedback","","","","","","","","","","","","","","","","","","","","","","","","",""
"","","","","","image-keyboard-response","21","105153","0.0-2.0-3.0-0.2","5edfb0770fb0722aa3839b6d","B2","batch2","","988.4000000059605","stim/prac_yes_18_hor_w1.png","f","pattern_practice","true","f","","","","","","","","","","","","","","","","","","","","","","",""
"","","","","","html-keyboard-response","22","106162","0.0-2.0-3.0-1.2","5edfb0770fb0722aa3839b6d","B2","batch2","","null","<p style=""font-size:30px;color:green;"">Correct!</p>","null","pattern_feedback","","","","","","","","","","","","","","","","","","","","","","","","",""
"","","","","","image-keyboard-response","23","107684","0.0-2.0-3.0-0.3","5edfb0770fb0722aa3839b6d","B2","batch2","","1520","stim/prac_no_16_1.png","j","pattern_practice","true","j","","","","","","","","","","","","","","","","","","","","","","",""
"","","","","","html-keyboard-response","24","108693","0.0-2.0-3.0-1.3","5edfb0770fb0722aa3839b6d","B2","batch2","","null","<p style=""font-size:30px;color:green;"">Correct!</p>","null","pattern_feedback","","","","","","","","","","","","","","","","","","","","","","","","",""
"","","","","","image-keyboard-response","25","109671","0.0-2.0-3.0-0.4","5edfb0770fb0722aa3839b6d","B2","batch2","","976.3999999910593","stim/prac_yes_20_dia_b1.png","f","pattern_practice","true","f","","","","","","","","","","","","","","","","","","","","","","",""
"","","","","","html-keyboard-response","26","110692","0.0-2.0-3.0-1.4","5edfb0770fb0722aa3839b6d","B2","batch2","","null","<p style=""font-size:30px;color:green;"">Correct!</p>","null","pattern_feedback","","","","","","","","","","","","","","","","","","","","","","","","",""
"","","","","","html-button-response","27","120803","0.0-2.0-4.0","5edfb0770fb0722aa3839b6d","B2","batch2","","10108.60000000894","<p class=block-text> Good job! You are done with practice trials!<br>
        You responded correctly on 100% of the trials.<br>
        Press the button below to start official trials. Now you won't see any feedback about your response</p>","0","pattern_enter_official_trials","","","","","","","","","","","","","","","","","","","","","","","","",""
"","","","","","html-keyboard-response","28","121607","0.0-2.0-5.0-0.0","5edfb0770fb0722aa3839b6d","B2","batch2","","null","<p class=block-text>Trial 1 out of 78</p>","null","pattern_show_trial_num","","","","","","","","","","","","","","","","","","","","","","","","",""
"","","","","","image-keyboard-response","29","125118","0.0-2.0-5.0-1.0","5edfb0770fb0722aa3839b6d","B2","batch2","","3508.3999999910593","stim/no_58_1_w.png","j","pattern_response","true","j","pattern_35","3508.3999999910593","true","1","","","","","","","","","","","","","","","","","","",""
"","","","","","html-keyboard-response","30","126439","0.0-2.0-5.0-0.1","5edfb0770fb0722aa3839b6d","B2","batch2","","null","<p class=block-text>Trial 2 out of 78</p>","null","pattern_show_trial_num","","","","","","","","","","","","","","","","","","","","","","","","",""
"","","","","","image-keyboard-response","31","132133","0.0-2.0-5.0-1.1","5edfb0770fb0722aa3839b6d","B2","batch2","","5692.199999988079","stim/no_51_1.png","j","pattern_response","true","j","pattern_31","5692.199999988079","true","2","","","","","","","","","","","","","","","","","","",""
"","","","","","html-keyboard-response","32","133447","0.0-2.0-5.0-0.2","5edfb0770fb0722aa3839b6d","B2","batch2","","null","<p class=block-text>Trial 3 out of 78</p>","null","pattern_show_trial_num","","","","","","","","","","","","","","","","","","","","","","","","",""
"","","","","","image-keyboard-response","33","134543","0.0-2.0-5.0-1.2","5edfb0770fb0722aa3839b6d","B2","batch2","","1093","stim/yes_46_ver_b1_b.png","f","pattern_response","true","f","pattern_68","1093","true","3","","","","","","","","","","","","","","","","","","",""
"","","","","","html-keyboard-response","34","135857","0.0-2.0-5.0-0.3","5edfb0770fb0722aa3839b6d","B2","batch2","","null","<p class=block-text>Trial 4 out of 78</p>","null","pattern_show_trial_num","","","","","","","","","","","","","","","","","","","","","","","","",""
"","","","","","image-keyboard-response","35","137099","0.0-2.0-5.0-1.3","5edfb0770fb0722aa3839b6d","B2","batch2","","1240.5","stim/yes_17_ver_b1_b.png","f","pattern_response","true","f","pattern_46","1240.5","true","4","","","","","","","","","","","","","","","","","","",""
"","","","","","html-keyboard-response","36","138416","0.0-2.0-5.0-0.4","5edfb0770fb0722aa3839b6d","B2","batch2","","null","<p class=block-text>Trial 5 out of 78</p>","null","pattern_show_trial_num","","","","","","","","","","","","","","","","","","","","","","","","",""
"","","","","","image-keyboard-response","37","139545","0.0-2.0-5.0-1.4","5edfb0770fb0722aa3839b6d","B2","batch2","","1126.4000000059605","stim/yes_26_dia_w2_w.png","f","pattern_response","true","f","pattern_50","1126.4000000059605","true","5","","","","","","","","","","","","","","","","","","",""
"","","","","","html-keyboard-response","38","140859","0.0-2.0-5.0-0.5","5edfb0770fb0722aa3839b6d","B2","batch2","","null","<p class=block-text>Trial 6 out of 78</p>","null","pattern_show_trial_num","","","","","","","","","","","","","","","","","","","","","","","","",""
"","","","","","image-keyboard-response","39","146758","0.0-2.0-5.0-1.5","5edfb0770fb0722aa3839b6d","B2","batch2","","5897.300000011921","stim/no_53_1_b.png","j","pattern_response","true","j","pattern_33","5897.300000011921","true","6","","","","","","","","","","","","","","","","","","",""
"","","","","","html-keyboard-response","40","148077","0.0-2.0-5.0-0.6","5edfb0770fb0722aa3839b6d","B2","batch2","","null","<p class=block-text>Trial 7 out of 78</p>","null","pattern_show_trial_num","","","","","","","","","","","","","","","","","","","","","","","","",""
"","","","","","image-keyboard-response","41","149262","0.0-2.0-5.0-1.6","5edfb0770fb0722aa3839b6d","B2","batch2","","1182.7999999970198","stim/yes_53_ver_b1_b.png","f","pattern_response","true","f","pattern_74","1182.7999999970198","true","7","","","","","","","","","","","","","","","","","","",""
"","","","","","html-keyboard-response","42","150574","0.0-2.0-5.0-0.7","5edfb0770fb0722aa3839b6d","B2","batch2","","null","<p class=block-text>Trial 8 out of 78</p>","null","pattern_show_trial_num","","","","","","","","","","","","","","","","","","","","","","","","",""
"","","","","","image-keyboard-response","43","154698","0.0-2.0-5.0-1.7","5edfb0770fb0722aa3839b6d","B2","batch2","","4121.9000000059605","stim/no_43_2_b.png","j","pattern_response","true","j","pattern_23","4121.9000000059605","true","8","","","","","","","","","","","","","","","","","","",""
"","","","","","html-keyboard-response","44","156004","0.0-2.0-5.0-0.8","5edfb0770fb0722aa3839b6d","B2","batch2","","null","<p class=block-text>Trial 9 out of 78</p>","null","pattern_show_trial_num","","","","","","","","","","","","","","","","","","","","","","","","",""
"","","","","","image-keyboard-response","45","156810","0.0-2.0-5.0-1.8","5edfb0770fb0722aa3839b6d","B2","batch2","","803.9000000059605","stim/yes_29_hor_b1_b.png","f","pattern_response","true","f","pattern_52","803.9000000059605","true","9","","","","","","","","","","","","","","","","","","",""
"","","","","","html-keyboard-response","46","158134","0.0-2.0-5.0-0.9","5edfb0770fb0722aa3839b6d","B2","batch2","","null","<p class=block-text>Trial 10 out of 78</p>","null","pattern_show_trial_num","","","","","","","","","","","","","","","","","","","","","","","","",""
"","","","","","image-keyboard-response","47","159132","0.0-2.0-5.0-1.9","5edfb0770fb0722aa3839b6d","B2","batch2","","996.3999999910593","stim/no_12_1.png","j","pattern_response","true","j","pattern_01","996.3999999910593","true","10","","","","","","","","","","","","","","","","","","",""
"","","","","","html-keyboard-response","48","160463","0.0-2.0-5.0-0.10","5edfb0770fb0722aa3839b6d","B2","batch2","","null","<p class=block-text>Trial 11 out of 78</p>","null","pattern_show_trial_num","","","","","","","","","","","","","","","","","","","","","","","","",""
"","","","","","image-keyboard-response","49","164458","0.0-2.0-5.0-1.10","5edfb0770fb0722aa3839b6d","B2","batch2","","3993","stim/no_37_2_w.png","j","pattern_response","true","j","pattern_19","3993","true","11","","","","","","","","","","","","","","","","","","",""
"","","","","","html-keyboard-response","50","165779","0.0-2.0-5.0-0.11","5edfb0770fb0722aa3839b6d","B2","batch2","","null","<p class=block-text>Trial 12 out of 78</p>","null","pattern_show_trial_num","","","","","","","","","","","","","","","","","","","","","","","","",""
"","","","","","image-keyboard-response","51","168283","0.0-2.0-5.0-1.11","5edfb0770fb0722aa3839b6d","B2","batch2","","2501.8999999910593","stim/yes_33_dia_w1_w.png","j","pattern_response","false","f","pattern_56","2501.8999999910593","false","11","","","","","","","","","","","","","","","","","","",""
"","","","","","html-keyboard-response","52","169591","0.0-2.0-5.0-0.12","5edfb0770fb0722aa3839b6d","B2","batch2","","null","<p class=block-text>Trial 13 out of 78</p>","null","pattern_show_trial_num","","","","","","","","","","","","","","","","","","","","","","","","",""
"","","","","","image-keyboard-response","53","172731","0.0-2.0-5.0-1.12","5edfb0770fb0722aa3839b6d","B2","batch2","","3137.9000000059605","stim/yes_42_dia_w1_w.png","f","pattern_response","true","f","pattern_64","3137.9000000059605","true","12","","","","","","","","","","","","","","","","","","",""
"","","","","","html-keyboard-response","54","174050","0.0-2.0-5.0-0.13","5edfb0770fb0722aa3839b6d","B2","batch2","","null","<p class=block-text>Trial 14 out of 78</p>","null","pattern_show_trial_num","","","","","","","","","","","","","","","","","","","","","","","","",""
"","","","","","image-keyboard-response","55","177296","0.0-2.0-5.0-1.13","5edfb0770fb0722aa3839b6d","B2","batch2","","3243.4000000059605","stim/no_33_1_b.png","j","pattern_response","true","j","pattern_15","3243.4000000059605","true","13","","","","","","","","","","","","","","","","","","",""
"","","","","","html-keyboard-response","56","178623","0.0-2.0-5.0-0.14","5edfb0770fb0722aa3839b6d","B2","batch2","","null","<p class=block-text>Trial 15 out of 78</p>","null","pattern_show_trial_num","","","","","","","","","","","","","","","","","","","","","","","","",""
"","","","","","image-keyboard-response","57","180016","0.0-2.0-5.0-1.14","5edfb0770fb0722aa3839b6d","B2","batch2","","1391","stim/yes_23_ver_b1.png","f","pattern_response","true","f","pattern_48","1391","true","14","","","","","","","","","","","","","","","","","","",""
"","","","","","html-keyboard-response","58","181326","0.0-2.0-5.0-0.15","5edfb0770fb0722aa3839b6d","B2","batch2","","null","<p class=block-text>Trial 16 out of 78</p>","null","pattern_show_trial_num","","","","","","","","","","","","","","","","","","","","","","","","",""
"","","","","","image-keyboard-response","59","185411","0.0-2.0-5.0-1.15","5edfb0770fb0722aa3839b6d","B2","batch2","","4083","stim/yes_63_dia_b1.png","f","pattern_response","true","f","pattern_78","4083","true","15","","","","","","","","","","","","","","","","","","",""
"","","","","","html-keyboard-response","60","186724","0.0-2.0-5.0-0.16","5edfb0770fb0722aa3839b6d","B2","batch2","","null","<p class=block-text>Trial 17 out of 78</p>","null","pattern_show_trial_num","","","","","","","","","","","","","","","","","","","","","","","","",""
"","","","","","image-keyboard-response","61","190801","0.0-2.0-5.0-1.16","5edfb0770fb0722aa3839b6d","B2","batch2","","4074.300000011921","stim/no_49_2_b.png","j","pattern_response","true","j","pattern_29","4074.300000011921","true","16","","","","","","","","","","","","","","","","","","",""
"","","","","","html-keyboard-response","62","192119","0.0-2.0-5.0-0.17","5edfb0770fb0722aa3839b6d","B2","batch2","","null","<p class=block-text>Trial 18 out of 78</p>","null","pattern_show_trial_num","","","","","","","","","","","","","","","","","","","","","","","","",""
"","","","","","image-keyboard-response","63","193690","0.0-2.0-5.0-1.17","5edfb0770fb0722aa3839b6d","B2","batch2","","1568.6000000089407","stim/yes_30_ver_b1_b.png","f","pattern_response","true","f","pattern_54","1568.6000000089407","true","17","","","","","","","","","","","","","","","","","","",""
"","","","","","html-keyboard-response","64","195000","0.0-2.0-5.0-0.18","5edfb0770fb0722aa3839b6d","B2","batch2","","null","<p class=block-text>Trial 19 out of 78</p>","null","pattern_show_trial_num","","","","","","","","","","","","","","","","","","","","","","","","",""
"","","","","","image-keyboard-response","65","199285","0.0-2.0-5.0-1.18","5edfb0770fb0722aa3839b6d","B2","batch2","","4283","stim/no_47_1_b.png","j","pattern_response","true","j","pattern_27","4283","true","18","","","","","","","","","","","","","","","","","","",""
"","","","","","html-keyboard-response","66","200587","0.0-2.0-5.0-0.19","5edfb0770fb0722aa3839b6d","B2","batch2","","null","<p class=block-text>Trial 20 out of 78</p>","null","pattern_show_trial_num","","","","","","","","","","","","","","","","","","","","","","","","",""
"","","","","","image-keyboard-response","67","201541","0.0-2.0-5.0-1.19","5edfb0770fb0722aa3839b6d","B2","batch2","","950.9000000059605","stim/no_15_1_w.png","j","pattern_response","true","j","pattern_03","950.9000000059605","true","19","","","","","","","","","","","","","","","","","","",""
"","","","","","html-keyboard-response","68","202862","0.0-2.0-5.0-0.20","5edfb0770fb0722aa3839b6d","B2","batch2","","null","<p class=block-text>Trial 21 out of 78</p>","null","pattern_show_trial_num","","","","","","","","","","","","","","","","","","","","","","","","",""
"","","","","","image-keyboard-response","69","207259","0.0-2.0-5.0-1.20","5edfb0770fb0722aa3839b6d","B2","batch2","","4395","stim/yes_44_ver_w1_w.png","j","pattern_response","false","f","pattern_66","4395","false","19","","","","","","","","","","","","","","","","","","",""
"","","","","","html-keyboard-response","70","208570","0.0-2.0-5.0-0.21","5edfb0770fb0722aa3839b6d","B2","batch2","","null","<p class=block-text>Trial 22 out of 78</p>","null","pattern_show_trial_num","","","","","","","","","","","","","","","","","","","","","","","","",""
"","","","","","image-keyboard-response","71","209567","0.0-2.0-5.0-1.21","5edfb0770fb0722aa3839b6d","B2","batch2","","995.0999999940395","stim/yes_37_hor_w1_w.png","f","pattern_response","true","f","pattern_60","995.0999999940395","true","20","","","","","","","","","","","","","","","","","","",""
"","","","","","html-keyboard-response","72","210893","0.0-2.0-5.0-0.22","5edfb0770fb0722aa3839b6d","B2","batch2","","null","<p class=block-text>Trial 23 out of 78</p>","null","pattern_show_trial_num","","","","","","","","","","","","","","","","","","","","","","","","",""
"","","","","","image-keyboard-response","73","213508","0.0-2.0-5.0-1.22","5edfb0770fb0722aa3839b6d","B2","batch2","","2612.5999999940395","stim/no_18_1_b.png","j","pattern_response","true","j","pattern_05","2612.5999999940395","true","21","","","","","","","","","","","","","","","","","","",""
"","","","","","html-keyboard-response","74","214819","0.0-2.0-5.0-0.23","5edfb0770fb0722aa3839b6d","B2","batch2","","null","<p class=block-text>Trial 24 out of 78</p>","null","pattern_show_trial_num","","","","","","","","","","","","","","","","","","","","","","","","",""
"","","","","","image-keyboard-response","75","218031","0.0-2.0-5.0-1.23","5edfb0770fb0722aa3839b6d","B2","batch2","","3209.2999999970198","stim/no_36_1_b.png","j","pattern_response","true","j","pattern_17","3209.2999999970198","true","22","","","","","","","","","","","","","","","","","","",""
"","","","","","html-keyboard-response","76","219340","0.0-2.0-5.0-0.24","5edfb0770fb0722aa3839b6d","B2","batch2","","null","<p class=block-text>Trial 25 out of 78</p>","null","pattern_show_trial_num","","","","","","","","","","","","","","","","","","","","","","","","",""
"","","","","","image-keyboard-response","77","222932","0.0-2.0-5.0-1.24","5edfb0770fb0722aa3839b6d","B2","batch2","","3590.5","stim/yes_58_dia_w1_w.png","f","pattern_response","true","f","pattern_76","3590.5","true","23","","","","","","","","","","","","","","","","","","",""
"","","","","","html-keyboard-response","78","224247","0.0-2.0-5.0-0.25","5edfb0770fb0722aa3839b6d","B2","batch2","","null","<p class=block-text>Trial 26 out of 78</p>","null","pattern_show_trial_num","","","","","","","","","","","","","","","","","","","","","","","","",""
"","","","","","image-keyboard-response","79","226873","0.0-2.0-5.0-1.25","5edfb0770fb0722aa3839b6d","B2","batch2","","2624.3999999910593","stim/no_25_1_b.png","j","pattern_response","true","j","pattern_09","2624.3999999910593","true","24","","","","","","","","","","","","","","","","","","",""
"","","","","","html-keyboard-response","80","228201","0.0-2.0-5.0-0.26","5edfb0770fb0722aa3839b6d","B2","batch2","","null","<p class=block-text>Trial 27 out of 78</p>","null","pattern_show_trial_num","","","","","","","","","","","","","","","","","","","","","","","","",""
"","","","","","image-keyboard-response","81","228951","0.0-2.0-5.0-1.26","5edfb0770fb0722aa3839b6d","B2","batch2","","746.8999999910593","stim/yes_12_hor_w1_w.png","f","pattern_response","true","f","pattern_42","746.8999999910593","true","25","","","","","","","","","","","","","","","","","","",""
"","","","","","html-keyboard-response","82","230281","0.0-2.0-5.0-0.27","5edfb0770fb0722aa3839b6d","B2","batch2","","null","<p class=block-text>Trial 28 out of 78</p>","null","pattern_show_trial_num","","","","","","","","","","","","","","","","","","","","","","","","",""
"","","","","","image-keyboard-response","83","231501","0.0-2.0-5.0-1.27","5edfb0770fb0722aa3839b6d","B2","batch2","","1219.5","stim/yes_49_hor_w1_b.png","f","pattern_response","true","f","pattern_70","1219.5","true","26","","","","","","","","","","","","","","","","","","",""
"","","","","","html-keyboard-response","84","232806","0.0-2.0-5.0-0.28","5edfb0770fb0722aa3839b6d","B2","batch2","","null","<p class=block-text>Trial 29 out of 78</p>","null","pattern_show_trial_num","","","","","","","","","","","","","","","","","","","","","","","","",""
"","","","","","image-keyboard-response","85","234645","0.0-2.0-5.0-1.28","5edfb0770fb0722aa3839b6d","B2","batch2","","1836.7999999970198","stim/yes_70_ver_b1.png","f","pattern_response","true","f","pattern_80","1836.7999999970198","true","27","","","","","","","","","","","","","","","","","","",""
"","","","","","html-keyboard-response","86","235967","0.0-2.0-5.0-0.29","5edfb0770fb0722aa3839b6d","B2","batch2","","null","<p class=block-text>Trial 30 out of 78</p>","null","pattern_show_trial_num","","","","","","","","","","","","","","","","","","","","","","","","",""
"","","","","","image-keyboard-response","87","236871","0.0-2.0-5.0-1.29","5edfb0770fb0722aa3839b6d","B2","batch2","","902.3000000119209","stim/yes_39_hor_w1_w.png","f","pattern_response","true","f","pattern_62","902.3000000119209","true","28","","","","","","","","","","","","","","","","","","",""
"","","","","","html-keyboard-response","88","238189","0.0-2.0-5.0-0.30","5edfb0770fb0722aa3839b6d","B2","batch2","","null","<p class=block-text>Trial 31 out of 78</p>","null","pattern_show_trial_num","","","","","","","","","","","","","","","","","","","","","","","","",""
"","","","","","image-keyboard-response","89","242304","0.0-2.0-5.0-1.30","5edfb0770fb0722aa3839b6d","B2","batch2","","4117","stim/no_45_1_w.png","j","pattern_response","true","j","pattern_25","4117","true","29","","","","","","","","","","","","","","","","","","",""
"","","","","","html-keyboard-response","90","243612","0.0-2.0-5.0-0.31","5edfb0770fb0722aa3839b6d","B2","batch2","","null","<p class=block-text>Trial 32 out of 78</p>","null","pattern_show_trial_num","","","","","","","","","","","","","","","","","","","","","","","","",""
"","","","","","image-keyboard-response","91","246372","0.0-2.0-5.0-1.31","5edfb0770fb0722aa3839b6d","B2","batch2","","2757.7999999970198","stim/no_39_1_w.png","j","pattern_response","true","j","pattern_21","2757.7999999970198","true","30","","","","","","","","","","","","","","","","","","",""
"","","","","","html-keyboard-response","92","247690","0.0-2.0-5.0-0.32","5edfb0770fb0722aa3839b6d","B2","batch2","","null","<p class=block-text>Trial 33 out of 78</p>","null","pattern_show_trial_num","","","","","","","","","","","","","","","","","","","","","","","","",""
"","","","","","image-keyboard-response","93","249725","0.0-2.0-5.0-1.32","5edfb0770fb0722aa3839b6d","B2","batch2","","2033","stim/no_28_2.png","j","pattern_response","true","j","pattern_11","2033","true","31","","","","","","","","","","","","","","","","","","",""
"","","","","","html-keyboard-response","94","251047","0.0-2.0-5.0-0.33","5edfb0770fb0722aa3839b6d","B2","batch2","","null","<p class=block-text>Trial 34 out of 78</p>","null","pattern_show_trial_num","","","","","","","","","","","","","","","","","","","","","","","","",""
"","","","","","image-keyboard-response","95","257198","0.0-2.0-5.0-1.33","5edfb0770fb0722aa3839b6d","B2","batch2","","6150","stim/no_67_1.png","j","pattern_response","true","j","pattern_39","6150","true","32","","","","","","","","","","","","","","","","","","",""
"","","","","","html-keyboard-response","96","258517","0.0-2.0-5.0-0.34","5edfb0770fb0722aa3839b6d","B2","batch2","","null","<p class=block-text>Trial 35 out of 78</p>","null","pattern_show_trial_num","","","","","","","","","","","","","","","","","","","","","","","","",""
"","","","","","image-keyboard-response","97","259559","0.0-2.0-5.0-1.34","5edfb0770fb0722aa3839b6d","B2","batch2","","1038.7999999970198","stim/yes_15_dia_b1u_b.png","f","pattern_response","true","f","pattern_44","1038.7999999970198","true","33","","","","","","","","","","","","","","","","","","",""
"","","","","","html-keyboard-response","98","260863","0.0-2.0-5.0-0.35","5edfb0770fb0722aa3839b6d","B2","batch2","","null","<p class=block-text>Trial 36 out of 78</p>","null","pattern_show_trial_num","","","","","","","","","","","","","","","","","","","","","","","","",""
"","","","","","image-keyboard-response","99","265765","0.0-2.0-5.0-1.35","5edfb0770fb0722aa3839b6d","B2","batch2","","4900.899999991059","stim/yes_51_dia_b1.png","j","pattern_response","false","f","pattern_72","4900.899999991059","false","33","","","","","","","","","","","","","","","","","","",""
"","","","","","html-keyboard-response","100","267083","0.0-2.0-5.0-0.36","5edfb0770fb0722aa3839b6d","B2","batch2","","null","<p class=block-text>Trial 37 out of 78</p>","null","pattern_show_trial_num","","","","","","","","","","","","","","","","","","","","","","","","",""
"","","","","","image-keyboard-response","101","268088","0.0-2.0-5.0-1.36","5edfb0770fb0722aa3839b6d","B2","batch2","","1002.5","stim/yes_36_ver_w1_w.png","f","pattern_response","true","f","pattern_58","1002.5","true","34","","","","","","","","","","","","","","","","","","",""
"","","","","","html-keyboard-response","102","269414","0.0-2.0-5.0-0.37","5edfb0770fb0722aa3839b6d","B2","batch2","","null","<p class=block-text>Trial 38 out of 78</p>","null","pattern_show_trial_num","","","","","","","","","","","","","","","","","","","","","","","","",""
"","","","","","image-keyboard-response","103","271793","0.0-2.0-5.0-1.37","5edfb0770fb0722aa3839b6d","B2","batch2","","2377.3999999910593","stim/no_30_1_b.png","j","pattern_response","true","j","pattern_13","2377.3999999910593","true","35","","","","","","","","","","","","","","","","","","",""
"","","","","","html-keyboard-response","104","273099","0.0-2.0-5.0-0.38","5edfb0770fb0722aa3839b6d","B2","batch2","","null","<p class=block-text>Trial 39 out of 78</p>","null","pattern_show_trial_num","","","","","","","","","","","","","","","","","","","","","","","","",""
"","","","","","image-keyboard-response","105","275061","0.0-2.0-5.0-1.38","5edfb0770fb0722aa3839b6d","B2","batch2","","1958.7999999970198","stim/no_22_1_b.png","j","pattern_response","true","j","pattern_07","1958.7999999970198","true","36","","","","","","","","","","","","","","","","","","",""
"","","","","","image-keyboard-response","106","277323","0.0-2.0-6.0","5edfb0770fb0722aa3839b6d","B2","batch2","","1746.2000000029802","stim/empty_board.png","j","attention_check","true","j","","","","","500","[""f"",""j""]","","","","","","","","","","","","","","","","",""
"","","","","","html-keyboard-response","107","278127","0.0-2.0-7.0-0.0","5edfb0770fb0722aa3839b6d","B2","batch2","","null","<p class=block-text>Trial 40 out of 78</p>","null","pattern_show_trial_num","","","","","","","","","","","","","","","","","","","","","","","","",""
"","","","","","image-keyboard-response","108","283386","0.0-2.0-7.0-1.0","5edfb0770fb0722aa3839b6d","B2","batch2","","5256","stim/no_23_1.png","j","pattern_response","true","j","pattern_08","5256","true","37","","","","","","","","","","","","","","","","","","",""
"","","","","","html-keyboard-response","109","284703","0.0-2.0-7.0-0.1","5edfb0770fb0722aa3839b6d","B2","batch2","","null","<p class=block-text>Trial 41 out of 78</p>","null","pattern_show_trial_num","","","","","","","","","","","","","","","","","","","","","","","","",""
"","","","","","image-keyboard-response","110","287487","0.0-2.0-7.0-1.1","5edfb0770fb0722aa3839b6d","B2","batch2","","2781.3999999910593","stim/yes_45_hor_b2_b.png","f","pattern_response","true","f","pattern_67","2781.3999999910593","true","38","","","","","","","","","","","","","","","","","","",""
"","","","","","html-keyboard-response","111","288812","0.0-2.0-7.0-0.2","5edfb0770fb0722aa3839b6d","B2","batch2","","null","<p class=block-text>Trial 42 out of 78</p>","null","pattern_show_trial_num","","","","","","","","","","","","","","","","","","","","","","","","",""
"","","","","","image-keyboard-response","112","295129","0.0-2.0-7.0-1.2","5edfb0770fb0722aa3839b6d","B2","batch2","","6314.70000000298","stim/no_65_1_b.png","j","pattern_response","true","j","pattern_38","6314.70000000298","true","39","","","","","","","","","","","","","","","","","","",""
"","","","","","html-keyboard-response","113","296452","0.0-2.0-7.0-0.3","5edfb0770fb0722aa3839b6d","B2","batch2","","null","<p class=block-text>Trial 43 out of 78</p>","null","pattern_show_trial_num","","","","","","","","","","","","","","","","","","","","","","","","",""
"","","","","","image-keyboard-response","114","300852","0.0-2.0-7.0-1.3","5edfb0770fb0722aa3839b6d","B2","batch2","","4398.79999999702","stim/no_52_1.png","j","pattern_response","true","j","pattern_32","4398.79999999702","true","40","","","","","","","","","","","","","","","","","","",""
"","","","","","html-keyboard-response","115","302170","0.0-2.0-7.0-0.4","5edfb0770fb0722aa3839b6d","B2","batch2","","null","<p class=block-text>Trial 44 out of 78</p>","null","pattern_show_trial_num","","","","","","","","","","","","","","","","","","","","","","","","",""
"","","","","","image-keyboard-response","116","306448","0.0-2.0-7.0-1.4","5edfb0770fb0722aa3839b6d","B2","batch2","","4283.70000000298","stim/no_50_1.png","j","pattern_response","true","j","pattern_30","4283.70000000298","true","41","","","","","","","","","","","","","","","","","","",""
"","","","","","html-keyboard-response","117","307765","0.0-2.0-7.0-0.5","5edfb0770fb0722aa3839b6d","B2","batch2","","null","<p class=block-text>Trial 45 out of 78</p>","null","pattern_show_trial_num","","","","","","","","","","","","","","","","","","","","","","","","",""
"","","","","","image-keyboard-response","118","314787","0.0-2.0-7.0-1.5","5edfb0770fb0722aa3839b6d","B2","batch2","","7019.79999999702","stim/no_62_1_w.png","j","pattern_response","true","j","pattern_36","7019.79999999702","true","42","","","","","","","","","","","","","","","","","","",""
"","","","","","html-keyboard-response","119","316105","0.0-2.0-7.0-0.6","5edfb0770fb0722aa3839b6d","B2","batch2","","null","<p class=block-text>Trial 46 out of 78</p>","null","pattern_show_trial_num","","","","","","","","","","","","","","","","","","","","","","","","",""
"","","","","","image-keyboard-response","120","317342","0.0-2.0-7.0-1.6","5edfb0770fb0722aa3839b6d","B2","batch2","","1234.7999999970198","stim/yes_17_dia_w1.png","f","pattern_response","true","f","pattern_45","1234.7999999970198","true","43","","","","","","","","","","","","","","","","","","",""
"","","","","","html-keyboard-response","121","318668","0.0-2.0-7.0-0.7","5edfb0770fb0722aa3839b6d","B2","batch2","","null","<p class=block-text>Trial 47 out of 78</p>","null","pattern_show_trial_num","","","","","","","","","","","","","","","","","","","","","","","","",""
"","","","","","image-keyboard-response","122","319768","0.0-2.0-7.0-1.7","5edfb0770fb0722aa3839b6d","B2","batch2","","1098.0999999940395","stim/yes_28_ver_b1.png","f","pattern_response","true","f","pattern_51","1098.0999999940395","true","44","","","","","","","","","","","","","","","","","","",""
"","","","","","html-keyboard-response","123","321099","0.0-2.0-7.0-0.8","5edfb0770fb0722aa3839b6d","B2","batch2","","null","<p class=block-text>Trial 48 out of 78</p>","null","pattern_show_trial_num","","","","","","","","","","","","","","","","","","","","","","","","",""
"","","","","","image-keyboard-response","124","321935","0.0-2.0-7.0-1.8","5edfb0770fb0722aa3839b6d","B2","batch2","","834.4000000059605","stim/yes_14_hor_b1_w.png","f","pattern_response","true","f","pattern_43","834.4000000059605","true","45","","","","","","","","","","","","","","","","","","",""
"","","","","","html-keyboard-response","125","323255","0.0-2.0-7.0-0.9","5edfb0770fb0722aa3839b6d","B2","batch2","","null","<p class=block-text>Trial 49 out of 78</p>","null","pattern_show_trial_num","","","","","","","","","","","","","","","","","","","","","","","","",""
"","","","","","image-keyboard-response","126","325488","0.0-2.0-7.0-1.9","5edfb0770fb0722aa3839b6d","B2","batch2","","2230.8999999910593","stim/no_32_1_w.png","j","pattern_response","true","j","pattern_14","2230.8999999910593","true","46","","","","","","","","","","","","","","","","","","",""
"","","","","","html-keyboard-response","127","326801","0.0-2.0-7.0-0.10","5edfb0770fb0722aa3839b6d","B2","batch2","","null","<p class=block-text>Trial 50 out of 78</p>","null","pattern_show_trial_num","","","","","","","","","","","","","","","","","","","","","","","","",""
"","","","","","image-keyboard-response","128","327695","0.0-2.0-7.0-1.10","5edfb0770fb0722aa3839b6d","B2","batch2","","891.5999999940395","stim/yes_25_hor_b1_b.png","f","pattern_response","true","f","pattern_49","891.5999999940395","true","47","","","","","","","","","","","","","","","","","","",""
"","","","","","html-keyboard-response","129","329009","0.0-2.0-7.0-0.11","5edfb0770fb0722aa3839b6d","B2","batch2","","null","<p class=block-text>Trial 51 out of 78</p>","null","pattern_show_trial_num","","","","","","","","","","","","","","","","","","","","","","","","",""
"","","","","","image-keyboard-response","130","332172","0.0-2.0-7.0-1.11","5edfb0770fb0722aa3839b6d","B2","batch2","","3161.5999999940395","stim/no_34_1_b.png","j","pattern_response","true","j","pattern_16","3161.5999999940395","true","48","","","","","","","","","","","","","","","","","","",""
"","","","","","html-keyboard-response","131","333489","0.0-2.0-7.0-0.12","5edfb0770fb0722aa3839b6d","B2","batch2","","null","<p class=block-text>Trial 52 out of 78</p>","null","pattern_show_trial_num","","","","","","","","","","","","","","","","","","","","","","","","",""
"","","","","","image-keyboard-response","132","334494","0.0-2.0-7.0-1.12","5edfb0770fb0722aa3839b6d","B2","batch2","","1002.7999999970198","stim/no_13_2_b.png","j","pattern_response","true","j","pattern_02","1002.7999999970198","true","49","","","","","","","","","","","","","","","","","","",""
"","","","","","html-keyboard-response","133","335812","0.0-2.0-7.0-0.13","5edfb0770fb0722aa3839b6d","B2","batch2","","null","<p class=block-text>Trial 53 out of 78</p>","null","pattern_show_trial_num","","","","","","","","","","","","","","","","","","","","","","","","",""
"","","","","","image-keyboard-response","134","339596","0.0-2.0-7.0-1.13","5edfb0770fb0722aa3839b6d","B2","batch2","","3781.5999999940395","stim/no_38_1_b.png","j","pattern_response","true","j","pattern_20","3781.5999999940395","true","50","","","","","","","","","","","","","","","","","","",""
"","","","","","html-keyboard-response","135","340921","0.0-2.0-7.0-0.14","5edfb0770fb0722aa3839b6d","B2","batch2","","null","<p class=block-text>Trial 54 out of 78</p>","null","pattern_show_trial_num","","","","","","","","","","","","","","","","","","","","","","","","",""
"","","","","","image-keyboard-response","136","342588","0.0-2.0-7.0-1.14","5edfb0770fb0722aa3839b6d","B2","batch2","","1665.5","stim/yes_52_ver_w1.png","f","pattern_response","true","f","pattern_73","1665.5","true","51","","","","","","","","","","","","","","","","","","",""
"","","","","","html-keyboard-response","137","343902","0.0-2.0-7.0-0.15","5edfb0770fb0722aa3839b6d","B2","batch2","","null","<p class=block-text>Trial 55 out of 78</p>","null","pattern_show_trial_num","","","","","","","","","","","","","","","","","","","","","","","","",""
"","","","","","image-keyboard-response","138","344995","0.0-2.0-7.0-1.15","5edfb0770fb0722aa3839b6d","B2","batch2","","1090.7000000029802","stim/yes_38_hor_b1_b.png","f","pattern_response","true","f","pattern_61","1090.7000000029802","true","52","","","","","","","","","","","","","","","","","","",""
"","","","","","html-keyboard-response","139","346312","0.0-2.0-7.0-0.16","5edfb0770fb0722aa3839b6d","B2","batch2","","null","<p class=block-text>Trial 56 out of 78</p>","null","pattern_show_trial_num","","","","","","","","","","","","","","","","","","","","","","","","",""
"","","","","","image-keyboard-response","140","347131","0.0-2.0-7.0-1.16","5edfb0770fb0722aa3839b6d","B2","batch2","","816.6000000089407","stim/yes_22_ver_w1.png","f","pattern_response","true","f","pattern_47","816.6000000089407","true","53","","","","","","","","","","","","","","","","","","",""
"","","","","","html-keyboard-response","141","348449","0.0-2.0-7.0-0.17","5edfb0770fb0722aa3839b6d","B2","batch2","","null","<p class=block-text>Trial 57 out of 78</p>","null","pattern_show_trial_num","","","","","","","","","","","","","","","","","","","","","","","","",""
"","","","","","image-keyboard-response","142","350141","0.0-2.0-7.0-1.17","5edfb0770fb0722aa3839b6d","B2","batch2","","1690.1000000089407","stim/yes_55_hor_w1_w.png","f","pattern_response","true","f","pattern_75","1690.1000000089407","true","54","","","","","","","","","","","","","","","","","","",""
"","","","","","html-keyboard-response","143","351457","0.0-2.0-7.0-0.18","5edfb0770fb0722aa3839b6d","B2","batch2","","null","<p class=block-text>Trial 58 out of 78</p>","null","pattern_show_trial_num","","","","","","","","","","","","","","","","","","","","","","","","",""
"","","","","","image-keyboard-response","144","352382","0.0-2.0-7.0-1.18","5edfb0770fb0722aa3839b6d","B2","batch2","","923.0999999940395","stim/yes_43_ver_w1_w.png","f","pattern_response","true","f","pattern_65","923.0999999940395","true","55","","","","","","","","","","","","","","","","","","",""
"","","","","","html-keyboard-response","145","353701","0.0-2.0-7.0-0.19","5edfb0770fb0722aa3839b6d","B2","batch2","","null","<p class=block-text>Trial 59 out of 78</p>","null","pattern_show_trial_num","","","","","","","","","","","","","","","","","","","","","","","","",""
"","","","","","image-keyboard-response","146","355023","0.0-2.0-7.0-1.19","5edfb0770fb0722aa3839b6d","B2","batch2","","1319.5","stim/yes_31_hor_b1.png","f","pattern_response","true","f","pattern_55","1319.5","true","56","","","","","","","","","","","","","","","","","","",""
"","","","","","html-keyboard-response","147","356335","0.0-2.0-7.0-0.20","5edfb0770fb0722aa3839b6d","B2","batch2","","null","<p class=block-text>Trial 60 out of 78</p>","null","pattern_show_trial_num","","","","","","","","","","","","","","","","","","","","","","","","",""
"","","","","","image-keyboard-response","148","357519","0.0-2.0-7.0-1.20","5edfb0770fb0722aa3839b6d","B2","batch2","","1182.5","stim/no_17_1_w.png","j","pattern_response","true","j","pattern_04","1182.5","true","57","","","","","","","","","","","","","","","","","","",""
"","","","","","html-keyboard-response","149","358842","0.0-2.0-7.0-0.21","5edfb0770fb0722aa3839b6d","B2","batch2","","null","<p class=block-text>Trial 61 out of 78</p>","null","pattern_show_trial_num","","","","","","","","","","","","","","","","","","","","","","","","",""
"","","","","","image-keyboard-response","150","360344","0.0-2.0-7.0-1.21","5edfb0770fb0722aa3839b6d","B2","batch2","","1499.800000011921","stim/no_26_1_w.png","j","pattern_response","true","j","pattern_10","1499.800000011921","true","58","","","","","","","","","","","","","","","","","","",""
"","","","","","html-keyboard-response","151","361653","0.0-2.0-7.0-0.22","5edfb0770fb0722aa3839b6d","B2","batch2","","null","<p class=block-text>Trial 62 out of 78</p>","null","pattern_show_trial_num","","","","","","","","","","","","","","","","","","","","","","","","",""
"","","","","","image-keyboard-response","152","364417","0.0-2.0-7.0-1.22","5edfb0770fb0722aa3839b6d","B2","batch2","","2762.4000000059605","stim/no_36_2_w.png","j","pattern_response","true","j","pattern_18","2762.4000000059605","true","59","","","","","","","","","","","","","","","","","","",""
"","","","","","html-keyboard-response","153","365741","0.0-2.0-7.0-0.23","5edfb0770fb0722aa3839b6d","B2","batch2","","null","<p class=block-text>Trial 63 out of 78</p>","null","pattern_show_trial_num","","","","","","","","","","","","","","","","","","","","","","","","",""
"","","","","","image-keyboard-response","154","368133","0.0-2.0-7.0-1.23","5edfb0770fb0722aa3839b6d","B2","batch2","","2380.800000011921","stim/no_70_2.png","j","pattern_response","true","j","pattern_40","2380.800000011921","true","60","","","","","","","","","","","","","","","","","","",""
"","","","","","html-keyboard-response","155","369455","0.0-2.0-7.0-0.24","5edfb0770fb0722aa3839b6d","B2","batch2","","null","<p class=block-text>Trial 64 out of 78</p>","null","pattern_show_trial_num","","","","","","","","","","","","","","","","","","","","","","","","",""
"","","","","","image-keyboard-response","156","371998","0.0-2.0-7.0-1.24","5edfb0770fb0722aa3839b6d","B2","batch2","","2541.2000000029802","stim/yes_50_dia_w1.png","j","pattern_response","false","f","pattern_71","2541.2000000029802","false","60","","","","","","","","","","","","","","","","","","",""
"","","","","","html-keyboard-response","157","373308","0.0-2.0-7.0-0.25","5edfb0770fb0722aa3839b6d","B2","batch2","","null","<p class=block-text>Trial 65 out of 78</p>","null","pattern_show_trial_num","","","","","","","","","","","","","","","","","","","","","","","","",""
"","","","","","image-keyboard-response","158","374674","0.0-2.0-7.0-1.25","5edfb0770fb0722aa3839b6d","B2","batch2","","1363.9000000059605","stim/yes_40_dia_b1_b.png","f","pattern_response","true","f","pattern_63","1363.9000000059605","true","61","","","","","","","","","","","","","","","","","","",""
"","","","","","html-keyboard-response","159","375995","0.0-2.0-7.0-0.26","5edfb0770fb0722aa3839b6d","B2","batch2","","null","<p class=block-text>Trial 66 out of 78</p>","null","pattern_show_trial_num","","","","","","","","","","","","","","","","","","","","","","","","",""
"","","","","","image-keyboard-response","160","377655","0.0-2.0-7.0-1.26","5edfb0770fb0722aa3839b6d","B2","batch2","","1657.7000000029802","stim/yes_35_dia_b1.png","j","pattern_response","false","f","pattern_57","1657.7000000029802","false","61","","","","","","","","","","","","","","","","","","",""
"","","","","","html-keyboard-response","161","378974","0.0-2.0-7.0-0.27","5edfb0770fb0722aa3839b6d","B2","batch2","","null","<p class=block-text>Trial 67 out of 78</p>","null","pattern_show_trial_num","","","","","","","","","","","","","","","","","","","","","","","","",""
"","","","","","image-keyboard-response","162","381036","0.0-2.0-7.0-1.27","5edfb0770fb0722aa3839b6d","B2","batch2","","2059.800000011921","stim/no_48_1_w.png","j","pattern_response","true","j","pattern_28","2059.800000011921","true","62","","","","","","","","","","","","","","","","","","",""
"","","","","","html-keyboard-response","163","382366","0.0-2.0-7.0-0.28","5edfb0770fb0722aa3839b6d","B2","batch2","","null","<p class=block-text>Trial 68 out of 78</p>","null","pattern_show_trial_num","","","","","","","","","","","","","","","","","","","","","","","","",""
"","","","","","image-keyboard-response","164","383476","0.0-2.0-7.0-1.28","5edfb0770fb0722aa3839b6d","B2","batch2","","1108.2999999970198","stim/yes_60_ver_b1_b.png","f","pattern_response","true","f","pattern_77","1108.2999999970198","true","63","","","","","","","","","","","","","","","","","","",""
"","","","","","html-keyboard-response","165","384802","0.0-2.0-7.0-0.29","5edfb0770fb0722aa3839b6d","B2","batch2","","null","<p class=block-text>Trial 69 out of 78</p>","null","pattern_show_trial_num","","","","","","","","","","","","","","","","","","","","","","","","",""
"","","","","","image-keyboard-response","166","387771","0.0-2.0-7.0-1.29","5edfb0770fb0722aa3839b6d","B2","batch2","","2966.7000000029802","stim/no_44_1.png","j","pattern_response","true","j","pattern_24","2966.7000000029802","true","64","","","","","","","","","","","","","","","","","","",""
"","","","","","html-keyboard-response","167","389101","0.0-2.0-7.0-0.30","5edfb0770fb0722aa3839b6d","B2","batch2","","null","<p class=block-text>Trial 70 out of 78</p>","null","pattern_show_trial_num","","","","","","","","","","","","","","","","","","","","","","","","",""
"","","","","","image-keyboard-response","168","391328","0.0-2.0-7.0-1.30","5edfb0770fb0722aa3839b6d","B2","batch2","","2224.5999999940395","stim/yes_48_dia_w1_w.png","f","pattern_response","true","f","pattern_69","2224.5999999940395","true","65","","","","","","","","","","","","","","","","","","",""
"","","","","","html-keyboard-response","169","392642","0.0-2.0-7.0-0.31","5edfb0770fb0722aa3839b6d","B2","batch2","","null","<p class=block-text>Trial 71 out of 78</p>","null","pattern_show_trial_num","","","","","","","","","","","","","","","","","","","","","","","","",""
"","","","","","image-keyboard-response","170","397136","0.0-2.0-7.0-1.31","5edfb0770fb0722aa3839b6d","B2","batch2","","4492","stim/no_46_1_b.png","j","pattern_response","true","j","pattern_26","4492","true","66","","","","","","","","","","","","","","","","","","",""
"","","","","","html-keyboard-response","171","398459","0.0-2.0-7.0-0.32","5edfb0770fb0722aa3839b6d","B2","batch2","","null","<p class=block-text>Trial 72 out of 78</p>","null","pattern_show_trial_num","","","","","","","","","","","","","","","","","","","","","","","","",""
"","","","","","image-keyboard-response","172","402870","0.0-2.0-7.0-1.32","5edfb0770fb0722aa3839b6d","B2","batch2","","4408.4000000059605","stim/no_55_1_w.png","j","pattern_response","true","j","pattern_34","4408.4000000059605","true","67","","","","","","","","","","","","","","","","","","",""
"","","","","","html-keyboard-response","173","404195","0.0-2.0-7.0-0.33","5edfb0770fb0722aa3839b6d","B2","batch2","","null","<p class=block-text>Trial 73 out of 78</p>","null","pattern_show_trial_num","","","","","","","","","","","","","","","","","","","","","","","","",""
"","","","","","image-keyboard-response","174","407184","0.0-2.0-7.0-1.33","5edfb0770fb0722aa3839b6d","B2","batch2","","2986.5","stim/yes_29_ver_w1.png","j","pattern_response","false","f","pattern_53","2986.5","false","67","","","","","","","","","","","","","","","","","","",""
"","","","","","html-keyboard-response","175","408498","0.0-2.0-7.0-0.34","5edfb0770fb0722aa3839b6d","B2","batch2","","null","<p class=block-text>Trial 74 out of 78</p>","null","pattern_show_trial_num","","","","","","","","","","","","","","","","","","","","","","","","",""
"","","","","","image-keyboard-response","176","411807","0.0-2.0-7.0-1.34","5edfb0770fb0722aa3839b6d","B2","batch2","","3306.2000000029802","stim/no_42_1_w.png","j","pattern_response","true","j","pattern_22","3306.2000000029802","true","68","","","","","","","","","","","","","","","","","","",""
"","","","","","html-keyboard-response","177","413115","0.0-2.0-7.0-0.35","5edfb0770fb0722aa3839b6d","B2","batch2","","null","<p class=block-text>Trial 75 out of 78</p>","null","pattern_show_trial_num","","","","","","","","","","","","","","","","","","","","","","","","",""
"","","","","","image-keyboard-response","178","416285","0.0-2.0-7.0-1.35","5edfb0770fb0722aa3839b6d","B2","batch2","","3168","stim/no_29_1_b.png","j","pattern_response","true","j","pattern_12","3168","true","69","","","","","","","","","","","","","","","","","","",""
"","","","","","html-keyboard-response","179","417600","0.0-2.0-7.0-0.36","5edfb0770fb0722aa3839b6d","B2","batch2","","null","<p class=block-text>Trial 76 out of 78</p>","null","pattern_show_trial_num","","","","","","","","","","","","","","","","","","","","","","","","",""
"","","","","","image-keyboard-response","180","419285","0.0-2.0-7.0-1.36","5edfb0770fb0722aa3839b6d","B2","batch2","","1682.0999999940395","stim/no_20_1_w.png","j","pattern_response","true","j","pattern_06","1682.0999999940395","true","70","","","","","","","","","","","","","","","","","","",""
"","","","","","html-keyboard-response","181","420607","0.0-2.0-7.0-0.37","5edfb0770fb0722aa3839b6d","B2","batch2","","null","<p class=block-text>Trial 77 out of 78</p>","null","pattern_show_trial_num","","","","","","","","","","","","","","","","","","","","","","","","",""
"","","","","","image-keyboard-response","182","425053","0.0-2.0-7.0-1.37","5edfb0770fb0722aa3839b6d","B2","batch2","","4436.29999999702","stim/yes_37_dia_w1.png","j","pattern_response","false","f","pattern_59","4436.29999999702","false","70","","","","","","","","","","","","","","","","","","",""
"","","","","","html-keyboard-response","183","426375","0.0-2.0-7.0-0.38","5edfb0770fb0722aa3839b6d","B2","batch2","","null","<p class=block-text>Trial 78 out of 78</p>","null","pattern_show_trial_num","","","","","","","","","","","","","","","","","","","","","","","","",""
"","","","","","image-keyboard-response","184","427692","0.0-2.0-7.0-1.38","5edfb0770fb0722aa3839b6d","B2","batch2","","1314.2000000029802","stim/yes_67_hor_b1.png","f","pattern_response","true","f","pattern_79","1314.2000000029802","true","71","","","","","","","","","","","","","","","","","","",""
"","","","","","html-button-response","185","454509","0.0-2.0-8.0","5edfb0770fb0722aa3839b6d","B2","batch2","","26301.09999999404","<p class = block-text>This concludes the 4-in-a-row detection game.Thank you for your responses!<br>
            You responded correctly on 91% of the trials.<br>
            When you are ready, press ""Continue"" button to continue </p>","0","","","","","","","","","","","","","","","","","","","","","","","","","",""
"true","","","","","fullscreen","186","457920","0.0-3.0-0.0","5edfb0770fb0722aa3839b6d","B2","batch2","","","","","","","","","","","","","","","","","","","","","","","","","","","","","",""
"","","","","","instructions","187","534102","0.0-3.0-1.0-0.0-0.0","5edfb0770fb0722aa3839b6d","B2","batch2","[{""page_index"":0,""viewing_time"":12371.10000000894},{""page_index"":1,""viewing_time"":3488.7999999970198},{""page_index"":2,""viewing_time"":4696.79999999702},{""page_index"":3,""viewing_time"":18115.90000000596},{""page_index"":4,""viewing_time"":7155.29999999702},{""page_index"":5,""viewing_time"":4192.20000000298},{""page_index"":4,""viewing_time"":3544.8999999910593},{""page_index"":5,""viewing_time"":19801.40000000596},{""page_index"":6,""viewing_time"":2813.5999999940395}]","76180.30000001192","","","tol-instructions","","","","","","","","","","","","","","","","","","","","","","","","",""
"","","","","","html-button-response","188","535101","0.0-3.0-1.0-1.0-0.0","5edfb0770fb0722aa3839b6d","B2","batch2","","998.8999999910593","<p class=block-text> Let's answer a few questions <br>","0","tol_enter_quiz","","","","","","","","","","","","","","","","","","","","","","","","",""
"","","","","","html-button-response","189","542671","0.0-3.0-1.0-1.0-1.0","5edfb0770fb0722aa3839b6d","B2","batch2","","7568.5","<p class = block-text>True or False: You can only move the ball on top of a peg. <br></p>","0","tol_quiz","true","","","","","","","","","","","","","","","","","","","","","","","",""
"","","","","","html-button-response","190","543608","0.0-3.0-1.0-1.0-2.0","5edfb0770fb0722aa3839b6d","B2","batch2","","935.5999999940395","<p class = block-text>Correct! You can only move the ball on top of a peg.</p>","0","tol_quiz_feedback","","","","","","","","","","","","","","","","","","","","","","","","",""
"","","","","","html-button-response","191","545433","0.0-3.0-1.0-1.0-3.0","5edfb0770fb0722aa3839b6d","B2","batch2","","1824.6000000089407","<p class = block-text>True or False: You should try to match your board with the target board with fewest moves possible. <br></p>","0","tol_quiz","true","","","","","","","","","","","","","","","","","","","","","","","",""
"","","","","","html-button-response","192","545954","0.0-3.0-1.0-1.0-4.0","5edfb0770fb0722aa3839b6d","B2","batch2","","520.0999999940395","<p class = block-text>Correct! </p>","0","tol_quiz_feedback","","","","","","","","","","","","","","","","","","","","","","","","",""
"","","","","","html-button-response","193","548940","0.0-3.0-2.0","5edfb0770fb0722aa3839b6d","B2","batch2","","2985","<p class=block-text> Now that you've understood the game, let's practice a few easier examples before we start!<br> <br>","0","","","","","","","","","","","","","","","","","","","","","","","","","",""
"","","","","","single-stim-button","194","550638","0.0-3.0-3.0-0.0","5edfb0770fb0722aa3839b6d","B2","batch2","","1696","","","tol_practice","","","","","","","","","tol_peg_2","1696","1696","0","[[1,2,0],[0,0],[0]]","1","[[1,2,0],[0,0],[3]]","practice","1696","","","","","","","",""
"","","","","","single-stim-button","195","551801","0.0-3.0-3.0-1.0","5edfb0770fb0722aa3839b6d","B2","batch2","","1162","","","tol_practice","","","","","","","","","tol_peg_3","1162","1162","0","[[1,2,0],[0,0],[3]]","1","[[1,2,0],[0,0],[3]]","practice","1162","","","","","","","",""
"","","","","","poldrack-single-stim","196","552803","0.0-3.0-4.0","5edfb0770fb0722aa3839b6d","B2","batch2","","-1","","","tol_feedback","true","","","","","","","","","1000","1000","500","","","","","","-1","none","true","","0","","",""
"","","","","","single-stim-button","197","555423","0.0-3.0-5.0-0.0","5edfb0770fb0722aa3839b6d","B2","batch2","","2619","","","tol_practice","","","","","","","","","tol_peg_1","2619","2619","0","[[1,0,0],[3,0],[0]]","2","[[0,0,0],[3,1],[2]]","practice","2619","","","","","","","",""
"","","","","","single-stim-button","198","556324","0.0-3.0-5.0-1.0","5edfb0770fb0722aa3839b6d","B2","batch2","","901","","","tol_practice","","","","","","","","","tol_peg_3","901","901","0","[[1,0,0],[3,0],[2]]","2","[[0,0,0],[3,1],[2]]","practice","901","","","","","","","",""
"","","","","","single-stim-button","199","557260","0.0-3.0-5.1-0.1","5edfb0770fb0722aa3839b6d","B2","batch2","","935","","","tol_practice","","","","","","","","","tol_peg_1","935","935","0","[[0,0,0],[3,0],[2]]","3","[[0,0,0],[3,1],[2]]","practice","935","","","","","","","",""
"","","","","","single-stim-button","200","558269","0.0-3.0-5.1-1.1","5edfb0770fb0722aa3839b6d","B2","batch2","","1008","","","tol_practice","","","","","","","","","tol_peg_2","1008","1008","0","[[0,0,0],[3,1],[2]]","3","[[0,0,0],[3,1],[2]]","practice","1008","","","","","","","",""
"","","","","","poldrack-single-stim","201","559271","0.0-3.0-6.0","5edfb0770fb0722aa3839b6d","B2","batch2","","-1","","","tol_feedback","true","","","","","","","","","1000","1000","500","","","","","","-1","none","true","","0","","",""
"","","","","","single-stim-button","202","561911","0.0-3.0-7.0-0.0","5edfb0770fb0722aa3839b6d","B2","batch2","","2640","","","tol_practice","","","","","","","","","tol_peg_2","2640","2640","0","[[1,2,0],[0,0],[0]]","4","[[1,0,0],[2,0],[3]]","practice","2640","","","","","","","",""
"","","","","","single-stim-button","203","562774","0.0-3.0-7.0-1.0","5edfb0770fb0722aa3839b6d","B2","batch2","","862","","","tol_practice","","","","","","","","","tol_peg_3","862","862","0","[[1,2,0],[0,0],[3]]","4","[[1,0,0],[2,0],[3]]","practice","862","","","","","","","",""
"","","","","","single-stim-button","204","563582","0.0-3.0-7.1-0.1","5edfb0770fb0722aa3839b6d","B2","batch2","","808","","","tol_practice","","","","","","","","","tol_peg_1","808","808","0","[[1,0,0],[0,0],[3]]","5","[[1,0,0],[2,0],[3]]","practice","808","","","","","","","",""
"","","","","","single-stim-button","205","564286","0.0-3.0-7.1-1.1","5edfb0770fb0722aa3839b6d","B2","batch2","","704","","","tol_practice","","","","","","","","","tol_peg_2","704","704","0","[[1,0,0],[2,0],[3]]","5","[[1,0,0],[2,0],[3]]","practice","704","","","","","","","",""
"","","","","","poldrack-single-stim","206","565297","0.0-3.0-8.0","5edfb0770fb0722aa3839b6d","B2","batch2","","-1","","","tol_feedback","true","","","","","","","","","1000","1000","500","","","","","","-1","none","true","","0","","",""
"","","","","","html-button-response","207","567014","0.0-3.0-9.0","5edfb0770fb0722aa3839b6d","B2","batch2","","1716.199999988079","<div class = centerbox><p class = center-block-text>Great job! You are done with practice trials<br>You are about to start official trials.<br> <br> Problem <strong>1</strong> out of 25 problems</p></div>","0","tol_instruction","","","","","","","","","","","","","","","","","","","","","","","","",""
"","","","","","single-stim-button","208","583629","0.0-3.0-10.0-0.0","5edfb0770fb0722aa3839b6d","B2","batch2","","15612","","","tol_tohand","","","","","","","","","tol_peg_2","15612","15612","0","[[1,2,0],[0,0],[0]]","1","[[1,3,0],[2,0],[0]]","0","0","","","","","","3","",""
"","","","","","single-stim-button","209","584672","0.0-3.0-10.0-1.0","5edfb0770fb0722aa3839b6d","B2","batch2","","1043","","","tol_toboard","","","","","","","","","tol_peg_3","1043","1043","0","[[1,2,0],[0,0],[3]]","1","[[1,3,0],[2,0],[0]]","0","0","","","","","","3","",""
"","","","","","single-stim-button","210","585681","0.0-3.0-10.1-0.1","5edfb0770fb0722aa3839b6d","B2","batch2","","1008","","","tol_tohand","","","","","","","","","tol_peg_1","1008","1008","0","[[1,0,0],[0,0],[3]]","2","[[1,3,0],[2,0],[0]]","0","0","","","","","","3","",""
"","","","","","single-stim-button","211","586896","0.0-3.0-10.1-1.1","5edfb0770fb0722aa3839b6d","B2","batch2","","1213","","","tol_toboard","","","","","","","","","tol_peg_2","1213","1213","0","[[1,0,0],[2,0],[3]]","2","[[1,3,0],[2,0],[0]]","0","0","","","","","","3","",""
"","","","","","single-stim-button","212","587393","0.0-3.0-10.2-0.2","5edfb0770fb0722aa3839b6d","B2","batch2","","496","","","tol_tohand","","","","","","","","","tol_peg_3","496","496","0","[[1,0,0],[2,0],[0]]","3","[[1,3,0],[2,0],[0]]","0","0","","","","","","3","",""
"","","","","","single-stim-button","213","588096","0.0-3.0-10.2-1.2","5edfb0770fb0722aa3839b6d","B2","batch2","","702","","","tol_toboard","","","","","","","","","tol_peg_1","702","702","0","[[1,3,0],[2,0],[0]]","3","[[1,3,0],[2,0],[0]]","0","0","","","","","","3","",""
"","","","","","poldrack-single-stim","214","589097","0.0-3.0-11.0","5edfb0770fb0722aa3839b6d","B2","batch2","","-1","","","tol_feedback","true","","","","","","","","","1000","1000","500","","","","","","-1","none","true","15612","17116","","",""
"","","","","","html-button-response","215","589923","0.0-3.0-12.0","5edfb0770fb0722aa3839b6d","B2","batch2","","825.2000000029802","<div class = centerbox><p class = center-block-text>problem <strong>2</strong> out of 25 problems</p></div>","0","tol_trial_num","","","","","","","","","","","","","","","","","","","","","","","","",""
"","","","","","single-stim-button","216","601324","0.0-3.0-13.0-0.0","5edfb0770fb0722aa3839b6d","B2","batch2","","11401","","","tol_tohand","","","","","","","","","tol_peg_1","11401","11401","0","[[1,0,0],[3,0],[0]]","1","[[2,1,3],[0,0],[0]]","1","0","","","","","","5","",""
"","","","","","single-stim-button","217","602457","0.0-3.0-13.0-1.0","5edfb0770fb0722aa3839b6d","B2","batch2","","1132","","","tol_toboard","","","","","","","","","tol_peg_3","1132","1132","0","[[1,0,0],[3,0],[2]]","1","[[2,1,3],[0,0],[0]]","1","0","","","","","","5","",""
"","","","","","single-stim-button","218","603308","0.0-3.0-13.1-0.1","5edfb0770fb0722aa3839b6d","B2","batch2","","850","","","tol_tohand","","","","","","","","","tol_peg_1","850","850","0","[[0,0,0],[3,0],[2]]","2","[[2,1,3],[0,0],[0]]","1","0","","","","","","5","",""
"","","","","","single-stim-button","219","604104","0.0-3.0-13.1-1.1","5edfb0770fb0722aa3839b6d","B2","batch2","","794","","","tol_toboard","","","","","","","","","tol_peg_2","794","794","0","[[0,0,0],[3,1],[2]]","2","[[2,1,3],[0,0],[0]]","1","0","","","","","","5","",""
"","","","","","single-stim-button","220","604673","0.0-3.0-13.2-0.2","5edfb0770fb0722aa3839b6d","B2","batch2","","568","","","tol_tohand","","","","","","","","","tol_peg_3","568","568","0","[[0,0,0],[3,1],[0]]","3","[[2,1,3],[0,0],[0]]","1","0","","","","","","5","",""
"","","","","","single-stim-button","221","605412","0.0-3.0-13.2-1.2","5edfb0770fb0722aa3839b6d","B2","batch2","","739","","","tol_toboard","","","","","","","","","tol_peg_1","739","739","0","[[2,0,0],[3,1],[0]]","3","[[2,1,3],[0,0],[0]]","1","0","","","","","","5","",""
"","","","","","single-stim-button","222","605916","0.0-3.0-13.3-0.3","5edfb0770fb0722aa3839b6d","B2","batch2","","502","","","tol_tohand","","","","","","","","","tol_peg_2","502","502","0","[[2,0,0],[3,0],[0]]","4","[[2,1,3],[0,0],[0]]","1","0","","","","","","5","",""
"","","","","","single-stim-button","223","606476","0.0-3.0-13.3-1.3","5edfb0770fb0722aa3839b6d","B2","batch2","","560","","","tol_toboard","","","","","","","","","tol_peg_1","560","560","0","[[2,1,0],[3,0],[0]]","4","[[2,1,3],[0,0],[0]]","1","0","","","","","","5","",""
"","","","","","single-stim-button","224","606947","0.0-3.0-13.4-0.4","5edfb0770fb0722aa3839b6d","B2","batch2","","470","","","tol_tohand","","","","","","","","","tol_peg_2","470","470","0","[[2,1,0],[0,0],[0]]","5","[[2,1,3],[0,0],[0]]","1","0","","","","","","5","",""
"","","","","","single-stim-button","225","607575","0.0-3.0-13.4-1.4","5edfb0770fb0722aa3839b6d","B2","batch2","","628","","","tol_toboard","","","","","","","","","tol_peg_1","628","628","0","[[2,1,3],[0,0],[0]]","5","[[2,1,3],[0,0],[0]]","1","0","","","","","","5","",""
"","","","","","poldrack-single-stim","226","608577","0.0-3.0-14.0","5edfb0770fb0722aa3839b6d","B2","batch2","","-1","","","tol_feedback","true","","","","","","","","","1000","1000","500","","","","","","-1","none","true","11401","13791","","",""
"","","","","","html-button-response","227","609077","0.0-3.0-15.0","5edfb0770fb0722aa3839b6d","B2","batch2","","499.09999999403954","<div class = centerbox><p class = center-block-text>problem <strong>3</strong> out of 25 problems</p></div>","0","tol_trial_num","","","","","","","","","","","","","","","","","","","","","","","","",""
"","","","","","single-stim-button","228","612480","0.0-3.0-16.0-0.0","5edfb0770fb0722aa3839b6d","B2","batch2","","3401","","","tol_tohand","","","","","","","","","tol_peg_1","3401","3401","0","[[2,0,0],[0,0],[1]]","1","[[1,2,0],[3,0],[0]]","2","0","","","","","","4","",""
"","","","","","single-stim-button","229","613336","0.0-3.0-16.0-1.0","5edfb0770fb0722aa3839b6d","B2","batch2","","856","","","tol_toboard","","","","","","","","","tol_peg_2","856","856","0","[[2,0,0],[3,0],[1]]","1","[[1,2,0],[3,0],[0]]","2","0","","","","","","4","",""
"","","","","","single-stim-button","230","618516","0.0-3.0-16.1-0.1","5edfb0770fb0722aa3839b6d","B2","batch2","","5179","","","tol_tohand","","","","","","","","","tol_peg_1","5179","5179","0","[[0,0,0],[3,0],[1]]","2","[[1,2,0],[3,0],[0]]","2","0","","","","","","4","",""
"","","","","","single-stim-button","231","619332","0.0-3.0-16.1-1.1","5edfb0770fb0722aa3839b6d","B2","batch2","","816","","","tol_toboard","","","","","","","","","tol_peg_2","816","816","0","[[0,0,0],[3,2],[1]]","2","[[1,2,0],[3,0],[0]]","2","0","","","","","","4","",""
"","","","","","single-stim-button","232","619892","0.0-3.0-16.2-0.2","5edfb0770fb0722aa3839b6d","B2","batch2","","559","","","tol_tohand","","","","","","","","","tol_peg_3","559","559","0","[[0,0,0],[3,2],[0]]","3","[[1,2,0],[3,0],[0]]","2","0","","","","","","4","",""
"","","","","","single-stim-button","233","621005","0.0-3.0-16.2-1.2","5edfb0770fb0722aa3839b6d","B2","batch2","","1111","","","tol_toboard","","","","","","","","","tol_peg_1","1111","1111","0","[[1,0,0],[3,2],[0]]","3","[[1,2,0],[3,0],[0]]","2","0","","","","","","4","",""
"","","","","","single-stim-button","234","621653","0.0-3.0-16.3-0.3","5edfb0770fb0722aa3839b6d","B2","batch2","","648","","","tol_tohand","","","","","","","","","tol_peg_2","648","648","0","[[1,0,0],[3,0],[0]]","4","[[1,2,0],[3,0],[0]]","2","0","","","","","","4","",""
"","","","","","single-stim-button","235","622180","0.0-3.0-16.3-1.3","5edfb0770fb0722aa3839b6d","B2","batch2","","527","","","tol_toboard","","","","","","","","","tol_peg_1","527","527","0","[[1,2,0],[3,0],[0]]","4","[[1,2,0],[3,0],[0]]","2","0","","","","","","4","",""
"","","","","","poldrack-single-stim","236","623182","0.0-3.0-17.0","5edfb0770fb0722aa3839b6d","B2","batch2","","-1","","","tol_feedback","true","","","","","","","","","1000","1000","500","","","","","","-1","none","true","3401","9787","","",""
"","","","","","html-button-response","237","623972","0.0-3.0-18.0","5edfb0770fb0722aa3839b6d","B2","batch2","","789.7999999970198","<div class = centerbox><p class = center-block-text>problem <strong>4</strong> out of 25 problems</p></div>","0","tol_trial_num","","","","","","","","","","","","","","","","","","","","","","","","",""
"","","","","","single-stim-button","238","631022","0.0-3.0-19.0-0.0","5edfb0770fb0722aa3839b6d","B2","batch2","","7048","","","tol_tohand","","","","","","","","","tol_peg_2","7048","7048","0","[[3,0,0],[2,0],[0]]","1","[[3,0,0],[1,0],[2]]","3","0","","","","","","3","",""
"","","","","","single-stim-button","239","631862","0.0-3.0-19.0-1.0","5edfb0770fb0722aa3839b6d","B2","batch2","","840","","","tol_toboard","","","","","","","","","tol_peg_1","840","840","0","[[3,1,0],[2,0],[0]]","1","[[3,0,0],[1,0],[2]]","3","0","","","","","","3","",""
"","","","","","single-stim-button","240","632406","0.0-3.0-19.1-0.1","5edfb0770fb0722aa3839b6d","B2","batch2","","542","","","tol_tohand","","","","","","","","","tol_peg_2","542","542","0","[[3,1,0],[0,0],[0]]","2","[[3,0,0],[1,0],[2]]","3","0","","","","","","3","",""
"","","","","","single-stim-button","241","633124","0.0-3.0-19.1-1.1","5edfb0770fb0722aa3839b6d","B2","batch2","","718","","","tol_toboard","","","","","","","","","tol_peg_3","718","718","0","[[3,1,0],[0,0],[2]]","2","[[3,0,0],[1,0],[2]]","3","0","","","","","","3","",""
"","","","","","single-stim-button","242","633686","0.0-3.0-19.2-0.2","5edfb0770fb0722aa3839b6d","B2","batch2","","561","","","tol_tohand","","","","","","","","","tol_peg_1","561","561","0","[[3,0,0],[0,0],[2]]","3","[[3,0,0],[1,0],[2]]","3","0","","","","","","3","",""
"","","","","","single-stim-button","243","634471","0.0-3.0-19.2-1.2","5edfb0770fb0722aa3839b6d","B2","batch2","","784","","","tol_toboard","","","","","","","","","tol_peg_2","784","784","0","[[3,0,0],[1,0],[2]]","3","[[3,0,0],[1,0],[2]]","3","0","","","","","","3","",""
"","","","","","poldrack-single-stim","244","635473","0.0-3.0-20.0","5edfb0770fb0722aa3839b6d","B2","batch2","","-1","","","tol_feedback","true","","","","","","","","","1000","1000","500","","","","","","-1","none","true","7048","8151","","",""
"","","","","","html-button-response","245","636166","0.0-3.0-21.0","5edfb0770fb0722aa3839b6d","B2","batch2","","691.7000000029802","<div class = centerbox><p class = center-block-text>problem <strong>5</strong> out of 25 problems</p></div>","0","tol_trial_num","","","","","","","","","","","","","","","","","","","","","","","","",""
"","","","","","single-stim-button","246","663970","0.0-3.0-22.0-0.0","5edfb0770fb0722aa3839b6d","B2","batch2","","27804","","","tol_tohand","","","","","","","","","tol_peg_3","27804","27804","0","[[1,0,0],[2,0],[0]]","1","[[0,0,0],[1,2],[3]]","4","0","","","","","","7","",""
"","","","","","single-stim-button","247","665193","0.0-3.0-22.0-1.0","5edfb0770fb0722aa3839b6d","B2","batch2","","1222","","","tol_toboard","","","","","","","","","tol_peg_1","1222","1222","0","[[1,3,0],[2,0],[0]]","1","[[0,0,0],[1,2],[3]]","4","0","","","","","","7","",""
"","","","","","single-stim-button","248","665849","0.0-3.0-22.1-0.1","5edfb0770fb0722aa3839b6d","B2","batch2","","654","","","tol_tohand","","","","","","","","","tol_peg_2","654","654","0","[[1,3,0],[0,0],[0]]","2","[[0,0,0],[1,2],[3]]","4","0","","","","","","7","",""
"","","","","","single-stim-button","249","667122","0.0-3.0-22.1-1.1","5edfb0770fb0722aa3839b6d","B2","batch2","","1273","","","tol_toboard","","","","","","","","","tol_peg_3","1273","1273","0","[[1,3,0],[0,0],[2]]","2","[[0,0,0],[1,2],[3]]","4","0","","","","","","7","",""
"","","","","","single-stim-button","250","672826","0.0-3.0-22.2-0.2","5edfb0770fb0722aa3839b6d","B2","batch2","","5704","","","tol_tohand","","","","","","","","","tol_peg_1","5704","5704","0","[[1,0,0],[0,0],[2]]","3","[[0,0,0],[1,2],[3]]","4","0","","","","","","7","",""
"","","","","","single-stim-button","251","674865","0.0-3.0-22.2-1.2","5edfb0770fb0722aa3839b6d","B2","batch2","","2038","","","tol_toboard","","","","","","","","","tol_peg_2","2038","2038","0","[[1,0,0],[3,0],[2]]","3","[[0,0,0],[1,2],[3]]","4","0","","","","","","7","",""
"","","","","","single-stim-button","252","675841","0.0-3.0-22.3-0.3","5edfb0770fb0722aa3839b6d","B2","batch2","","975","","","tol_tohand","","","","","","","","","tol_peg_1","975","975","0","[[0,0,0],[3,0],[2]]","4","[[0,0,0],[1,2],[3]]","4","0","","","","","","7","",""
"","","","","","single-stim-button","253","676550","0.0-3.0-22.3-1.3","5edfb0770fb0722aa3839b6d","B2","batch2","","707","","","tol_toboard","","","","","","","","","tol_peg_2","707","707","0","[[0,0,0],[3,1],[2]]","4","[[0,0,0],[1,2],[3]]","4","0","","","","","","7","",""
"","","","","","single-stim-button","254","677366","0.0-3.0-22.4-0.4","5edfb0770fb0722aa3839b6d","B2","batch2","","816","","","tol_tohand","","","","","","","","","tol_peg_3","816","816","0","[[0,0,0],[3,1],[0]]","5","[[0,0,0],[1,2],[3]]","4","0","","","","","","7","",""
"","","","","","single-stim-button","255","678188","0.0-3.0-22.4-1.4","5edfb0770fb0722aa3839b6d","B2","batch2","","821","","","tol_toboard","","","","","","","","","tol_peg_1","821","821","0","[[2,0,0],[3,1],[0]]","5","[[0,0,0],[1,2],[3]]","4","0","","","","","","7","",""
"","","","","","single-stim-button","256","679708","0.0-3.0-22.5-0.5","5edfb0770fb0722aa3839b6d","B2","batch2","","1518","","","tol_tohand","","","","","","","","","tol_peg_2","1518","1518","0","[[2,0,0],[3,0],[0]]","6","[[0,0,0],[1,2],[3]]","4","0","","","","","","7","",""
"","","","","","single-stim-button","257","680484","0.0-3.0-22.5-1.5","5edfb0770fb0722aa3839b6d","B2","batch2","","776","","","tol_toboard","","","","","","","","","tol_peg_1","776","776","0","[[2,1,0],[3,0],[0]]","6","[[0,0,0],[1,2],[3]]","4","0","","","","","","7","",""
"","","","","","single-stim-button","258","680980","0.0-3.0-22.6-0.6","5edfb0770fb0722aa3839b6d","B2","batch2","","496","","","tol_tohand","","","","","","","","","tol_peg_2","496","496","0","[[2,1,0],[0,0],[0]]","7","[[0,0,0],[1,2],[3]]","4","0","","","","","","7","",""
"","","","","","single-stim-button","259","681635","0.0-3.0-22.6-1.6","5edfb0770fb0722aa3839b6d","B2","batch2","","655","","","tol_toboard","","","","","","","","","tol_peg_3","655","655","0","[[2,1,0],[0,0],[3]]","7","[[0,0,0],[1,2],[3]]","4","0","","","","","","7","",""
"","","","","","single-stim-button","260","682276","0.0-3.0-22.7-0.7","5edfb0770fb0722aa3839b6d","B2","batch2","","640","","","tol_tohand","","","","","","","","","tol_peg_1","640","640","0","[[2,0,0],[0,0],[3]]","8","[[0,0,0],[1,2],[3]]","4","0","","","","","","7","",""
"","","","","","single-stim-button","261","682996","0.0-3.0-22.7-1.7","5edfb0770fb0722aa3839b6d","B2","batch2","","719","","","tol_toboard","","","","","","","","","tol_peg_2","719","719","0","[[2,0,0],[1,0],[3]]","8","[[0,0,0],[1,2],[3]]","4","0","","","","","","7","",""
"","","","","","single-stim-button","262","683411","0.0-3.0-22.8-0.8","5edfb0770fb0722aa3839b6d","B2","batch2","","414","","","tol_tohand","","","","","","","","","tol_peg_1","414","414","0","[[0,0,0],[1,0],[3]]","9","[[0,0,0],[1,2],[3]]","4","0","","","","","","7","",""
"","","","","","single-stim-button","263","683971","0.0-3.0-22.8-1.8","5edfb0770fb0722aa3839b6d","B2","batch2","","559","","","tol_toboard","","","","","","","","","tol_peg_2","559","559","0","[[0,0,0],[1,2],[3]]","9","[[0,0,0],[1,2],[3]]","4","0","","","","","","7","",""
"","","","","","poldrack-single-stim","264","684976","0.0-3.0-23.0","5edfb0770fb0722aa3839b6d","B2","batch2","","-1","","","tol_feedback","true","","","","","","","","","1000","1000","500","","","","","","-1","none","true","27804","39021","","",""
"","","","","","html-button-response","265","685676","0.0-3.0-24.0","5edfb0770fb0722aa3839b6d","B2","batch2","","698.5","<div class = centerbox><p class = center-block-text>problem <strong>6</strong> out of 25 problems</p></div>","0","tol_trial_num","","","","","","","","","","","","","","","","","","","","","","","","",""
"","","","","","single-stim-button","266","694694","0.0-3.0-25.0-0.0","5edfb0770fb0722aa3839b6d","B2","batch2","","9018","","","tol_tohand","","","","","","","","","tol_peg_3","9018","9018","0","[[0,0,0],[1,2],[0]]","1","[[1,0,0],[2,3],[0]]","5","0","","","","","","6","",""
"","","","","","single-stim-button","267","700301","0.0-3.0-25.0-1.0","5edfb0770fb0722aa3839b6d","B2","batch2","","5606","","","tol_toboard","","","","","","","","","tol_peg_1","5606","5606","0","[[3,0,0],[1,2],[0]]","1","[[1,0,0],[2,3],[0]]","5","0","","","","","","6","",""
"","","","","","single-stim-button","268","709856","0.0-3.0-25.1-0.1","5edfb0770fb0722aa3839b6d","B2","batch2","","9554","","","tol_tohand","","","","","","","","","tol_peg_2","9554","9554","0","[[3,0,0],[1,0],[0]]","2","[[1,0,0],[2,3],[0]]","5","0","","","","","","6","",""
"","","","","","single-stim-button","269","710655","0.0-3.0-25.1-1.1","5edfb0770fb0722aa3839b6d","B2","batch2","","797","","","tol_toboard","","","","","","","","","tol_peg_1","797","797","0","[[3,2,0],[1,0],[0]]","2","[[1,0,0],[2,3],[0]]","5","0","","","","","","6","",""
"","","","","","single-stim-button","270","711263","0.0-3.0-25.2-0.2","5edfb0770fb0722aa3839b6d","B2","batch2","","608","","","tol_tohand","","","","","","","","","tol_peg_2","608","608","0","[[3,2,0],[0,0],[0]]","3","[[1,0,0],[2,3],[0]]","5","0","","","","","","6","",""
"","","","","","single-stim-button","271","712017","0.0-3.0-25.2-1.2","5edfb0770fb0722aa3839b6d","B2","batch2","","753","","","tol_toboard","","","","","","","","","tol_peg_3","753","753","0","[[3,2,0],[0,0],[1]]","3","[[1,0,0],[2,3],[0]]","5","0","","","","","","6","",""
"","","","","","single-stim-button","272","712576","0.0-3.0-25.3-0.3","5edfb0770fb0722aa3839b6d","B2","batch2","","559","","","tol_tohand","","","","","","","","","tol_peg_1","559","559","0","[[3,0,0],[0,0],[1]]","4","[[1,0,0],[2,3],[0]]","5","0","","","","","","6","",""
"","","","","","single-stim-button","273","713278","0.0-3.0-25.3-1.3","5edfb0770fb0722aa3839b6d","B2","batch2","","700","","","tol_toboard","","","","","","","","","tol_peg_2","700","700","0","[[3,0,0],[2,0],[1]]","4","[[1,0,0],[2,3],[0]]","5","0","","","","","","6","",""
"","","","","","single-stim-button","274","715063","0.0-3.0-25.4-0.4","5edfb0770fb0722aa3839b6d","B2","batch2","","1785","","","tol_tohand","","","","","","","","","tol_peg_1","1785","1785","0","[[0,0,0],[2,0],[1]]","5","[[1,0,0],[2,3],[0]]","5","0","","","","","","6","",""
"","","","","","single-stim-button","275","715752","0.0-3.0-25.4-1.4","5edfb0770fb0722aa3839b6d","B2","batch2","","689","","","tol_toboard","","","","","","","","","tol_peg_2","689","689","0","[[0,0,0],[2,3],[1]]","5","[[1,0,0],[2,3],[0]]","5","0","","","","","","6","",""
"","","","","","single-stim-button","276","716257","0.0-3.0-25.5-0.5","5edfb0770fb0722aa3839b6d","B2","batch2","","504","","","tol_tohand","","","","","","","","","tol_peg_3","504","504","0","[[0,0,0],[2,3],[0]]","6","[[1,0,0],[2,3],[0]]","5","0","","","","","","6","",""
"","","","","","single-stim-button","277","717049","0.0-3.0-25.5-1.5","5edfb0770fb0722aa3839b6d","B2","batch2","","791","","","tol_toboard","","","","","","","","","tol_peg_1","791","791","0","[[1,0,0],[2,3],[0]]","6","[[1,0,0],[2,3],[0]]","5","0","","","","","","6","",""
"","","","","","poldrack-single-stim","278","718051","0.0-3.0-26.0","5edfb0770fb0722aa3839b6d","B2","batch2","","-1","","","tol_feedback","true","","","","","","","","","1000","1000","500","","","","","","-1","none","true","9018","22028","","",""
"","","","","","html-button-response","279","718521","0.0-3.0-27.0","5edfb0770fb0722aa3839b6d","B2","batch2","","469.59999999403954","<div class = centerbox><p class = center-block-text>problem <strong>7</strong> out of 25 problems</p></div>","0","tol_trial_num","","","","","","","","","","","","","","","","","","","","","","","","",""
"","","","","","single-stim-button","280","727025","0.0-3.0-28.0-0.0","5edfb0770fb0722aa3839b6d","B2","batch2","","8504","","","tol_tohand","","","","","","","","","tol_peg_3","8504","8504","0","[[2,1,0],[0,0],[0]]","1","[[1,2,0],[3,0],[0]]","6","0","","","","","","5","",""
"","","","","","single-stim-button","281","727681","0.0-3.0-28.0-1.0","5edfb0770fb0722aa3839b6d","B2","batch2","","655","","","tol_toboard","","","","","","","","","tol_peg_2","655","655","0","[[2,1,0],[3,0],[0]]","1","[[1,2,0],[3,0],[0]]","6","0","","","","","","5","",""
"","","","","","single-stim-button","282","729410","0.0-3.0-28.1-0.1","5edfb0770fb0722aa3839b6d","B2","batch2","","1728","","","tol_tohand","","","","","","","","","tol_peg_1","1728","1728","0","[[2,0,0],[3,0],[0]]","2","[[1,2,0],[3,0],[0]]","6","0","","","","","","5","",""
"","","","","","single-stim-button","283","730618","0.0-3.0-28.1-1.1","5edfb0770fb0722aa3839b6d","B2","batch2","","1207","","","tol_toboard","","","","","","","","","tol_peg_3","1207","1207","0","[[2,0,0],[3,0],[1]]","2","[[1,2,0],[3,0],[0]]","6","0","","","","","","5","",""
"","","","","","single-stim-button","284","731698","0.0-3.0-28.2-0.2","5edfb0770fb0722aa3839b6d","B2","batch2","","1079","","","tol_tohand","","","","","","","","","tol_peg_1","1079","1079","0","[[0,0,0],[3,0],[1]]","3","[[1,2,0],[3,0],[0]]","6","0","","","","","","5","",""
"","","","","","single-stim-button","285","732362","0.0-3.0-28.2-1.2","5edfb0770fb0722aa3839b6d","B2","batch2","","664","","","tol_toboard","","","","","","","","","tol_peg_2","664","664","0","[[0,0,0],[3,2],[1]]","3","[[1,2,0],[3,0],[0]]","6","0","","","","","","5","",""
"","","","","","single-stim-button","286","732882","0.0-3.0-28.3-0.3","5edfb0770fb0722aa3839b6d","B2","batch2","","519","","","tol_tohand","","","","","","","","","tol_peg_3","519","519","0","[[0,0,0],[3,2],[0]]","4","[[1,2,0],[3,0],[0]]","6","0","","","","","","5","",""
"","","","","","single-stim-button","287","733674","0.0-3.0-28.3-1.3","5edfb0770fb0722aa3839b6d","B2","batch2","","791","","","tol_toboard","","","","","","","","","tol_peg_1","791","791","0","[[1,0,0],[3,2],[0]]","4","[[1,2,0],[3,0],[0]]","6","0","","","","","","5","",""
"","","","","","single-stim-button","288","734149","0.0-3.0-28.4-0.4","5edfb0770fb0722aa3839b6d","B2","batch2","","474","","","tol_tohand","","","","","","","","","tol_peg_2","474","474","0","[[1,0,0],[3,0],[0]]","5","[[1,2,0],[3,0],[0]]","6","0","","","","","","5","",""
"","","","","","single-stim-button","289","734772","0.0-3.0-28.4-1.4","5edfb0770fb0722aa3839b6d","B2","batch2","","623","","","tol_toboard","","","","","","","","","tol_peg_1","623","623","0","[[1,2,0],[3,0],[0]]","5","[[1,2,0],[3,0],[0]]","6","0","","","","","","5","",""
"","","","","","poldrack-single-stim","290","735778","0.0-3.0-29.0","5edfb0770fb0722aa3839b6d","B2","batch2","","-1","","","tol_feedback","true","","","","","","","","","1000","1000","500","","","","","","-1","none","true","8504","12304","","",""
"","","","","","html-button-response","291","736459","0.0-3.0-30.0","5edfb0770fb0722aa3839b6d","B2","batch2","","679.6000000089407","<div class = centerbox><p class = center-block-text>problem <strong>8</strong> out of 25 problems</p></div>","0","tol_trial_num","","","","","","","","","","","","","","","","","","","","","","","","",""
"","","","","","single-stim-button","292","746484","0.0-3.0-31.0-0.0","5edfb0770fb0722aa3839b6d","B2","batch2","","10024","","","tol_tohand","","","","","","","","","tol_peg_3","10024","10024","0","[[0,0,0],[2,3],[0]]","1","[[1,2,0],[3,0],[0]]","7","0","","","","","","4","",""
"","","","","","single-stim-button","293","747204","0.0-3.0-31.0-1.0","5edfb0770fb0722aa3839b6d","B2","batch2","","719","","","tol_toboard","","","","","","","","","tol_peg_1","719","719","0","[[1,0,0],[2,3],[0]]","1","[[1,2,0],[3,0],[0]]","7","0","","","","","","4","",""
"","","","","","single-stim-button","294","747628","0.0-3.0-31.1-0.1","5edfb0770fb0722aa3839b6d","B2","batch2","","423","","","tol_tohand","","","","","","","","","tol_peg_2","423","423","0","[[1,0,0],[2,0],[0]]","2","[[1,2,0],[3,0],[0]]","7","0","","","","","","4","",""
"","","","","","single-stim-button","295","748372","0.0-3.0-31.1-1.1","5edfb0770fb0722aa3839b6d","B2","batch2","","744","","","tol_toboard","","","","","","","","","tol_peg_3","744","744","0","[[1,0,0],[2,0],[3]]","2","[[1,2,0],[3,0],[0]]","7","0","","","","","","4","",""
"","","","","","single-stim-button","296","748788","0.0-3.0-31.2-0.2","5edfb0770fb0722aa3839b6d","B2","batch2","","416","","","tol_tohand","","","","","","","","","tol_peg_2","416","416","0","[[1,0,0],[0,0],[3]]","3","[[1,2,0],[3,0],[0]]","7","0","","","","","","4","",""
"","","","","","single-stim-button","297","749365","0.0-3.0-31.2-1.2","5edfb0770fb0722aa3839b6d","B2","batch2","","575","","","tol_toboard","","","","","","","","","tol_peg_1","575","575","0","[[1,2,0],[0,0],[3]]","3","[[1,2,0],[3,0],[0]]","7","0","","","","","","4","",""
"","","","","","single-stim-button","298","753182","0.0-3.0-31.3-0.3","5edfb0770fb0722aa3839b6d","B2","batch2","","3817","","","tol_tohand","","","","","","","","","tol_peg_3","3817","3817","0","[[1,2,0],[0,0],[0]]","4","[[1,2,0],[3,0],[0]]","7","0","","","","","","4","",""
"","","","","","single-stim-button","299","754094","0.0-3.0-31.3-1.3","5edfb0770fb0722aa3839b6d","B2","batch2","","911","","","tol_toboard","","","","","","","","","tol_peg_2","911","911","0","[[1,2,0],[3,0],[0]]","4","[[1,2,0],[3,0],[0]]","7","0","","","","","","4","",""
"","","","","","poldrack-single-stim","300","755104","0.0-3.0-32.0","5edfb0770fb0722aa3839b6d","B2","batch2","","-1","","","tol_feedback","true","","","","","","","","","1000","1000","500","","","","","","-1","none","true","10024","14680","","",""
"","","","","","html-button-response","301","755738","0.0-3.0-33.0","5edfb0770fb0722aa3839b6d","B2","batch2","","632.5","<div class = centerbox><p class = center-block-text>problem <strong>9</strong> out of 25 problems</p></div>","0","tol_trial_num","","","","","","","","","","","","","","","","","","","","","","","","",""
"","","","","","single-stim-button","302","789649","0.0-3.0-34.0-0.0","5edfb0770fb0722aa3839b6d","B2","batch2","","33910","","","tol_tohand","","","","","","","","","tol_peg_1","33910","33910","0","[[3,0,0],[0,0],[1]]","1","[[2,1,0],[3,0],[0]]","8","0","","","","","","6","",""
"","","","","","single-stim-button","303","790616","0.0-3.0-34.0-1.0","5edfb0770fb0722aa3839b6d","B2","batch2","","967","","","tol_toboard","","","","","","","","","tol_peg_2","967","967","0","[[3,0,0],[2,0],[1]]","1","[[2,1,0],[3,0],[0]]","8","0","","","","","","6","",""
"","","","","","single-stim-button","304","791608","0.0-3.0-34.1-0.1","5edfb0770fb0722aa3839b6d","B2","batch2","","991","","","tol_tohand","","","","","","","","","tol_peg_3","991","991","0","[[3,0,0],[2,0],[0]]","2","[[2,1,0],[3,0],[0]]","8","0","","","","","","6","",""
"","","","","","single-stim-button","305","792826","0.0-3.0-34.1-1.1","5edfb0770fb0722aa3839b6d","B2","batch2","","1217","","","tol_toboard","","","","","","","","","tol_peg_2","1217","1217","0","[[3,0,0],[2,1],[0]]","2","[[2,1,0],[3,0],[0]]","8","0","","","","","","6","",""
"","","","","","single-stim-button","306","794362","0.0-3.0-34.2-0.2","5edfb0770fb0722aa3839b6d","B2","batch2","","1535","","","tol_tohand","","","","","","","","","tol_peg_1","1535","1535","0","[[0,0,0],[2,1],[0]]","3","[[2,1,0],[3,0],[0]]","8","0","","","","","","6","",""
"","","","","","single-stim-button","307","795537","0.0-3.0-34.2-1.2","5edfb0770fb0722aa3839b6d","B2","batch2","","1174","","","tol_toboard","","","","","","","","","tol_peg_3","1174","1174","0","[[0,0,0],[2,1],[3]]","3","[[2,1,0],[3,0],[0]]","8","0","","","","","","6","",""
"","","","","","single-stim-button","308","797170","0.0-3.0-34.3-0.3","5edfb0770fb0722aa3839b6d","B2","batch2","","1632","","","tol_tohand","","","","","","","","","tol_peg_2","1632","1632","0","[[0,0,0],[2,0],[3]]","4","[[2,1,0],[3,0],[0]]","8","0","","","","","","6","",""
"","","","","","single-stim-button","309","798738","0.0-3.0-34.3-1.3","5edfb0770fb0722aa3839b6d","B2","batch2","","1567","","","tol_toboard","","","","","","","","","tol_peg_1","1567","1567","0","[[1,0,0],[2,0],[3]]","4","[[2,1,0],[3,0],[0]]","8","0","","","","","","6","",""
"","","","","","single-stim-button","310","800650","0.0-3.0-34.4-0.4","5edfb0770fb0722aa3839b6d","B2","batch2","","1911","","","tol_tohand","","","","","","","","","tol_peg_2","1911","1911","0","[[1,0,0],[0,0],[3]]","5","[[2,1,0],[3,0],[0]]","8","0","","","","","","6","",""
"","","","","","single-stim-button","311","802027","0.0-3.0-34.4-1.4","5edfb0770fb0722aa3839b6d","B2","batch2","","1377","","","tol_toboard","","","","","","","","","tol_peg_1","1377","1377","0","[[1,2,0],[0,0],[3]]","5","[[2,1,0],[3,0],[0]]","8","0","","","","","","6","",""
"","","","","","single-stim-button","312","802683","0.0-3.0-34.5-0.5","5edfb0770fb0722aa3839b6d","B2","batch2","","655","","","tol_tohand","","","","","","","","","tol_peg_3","655","655","0","[[1,2,0],[0,0],[0]]","6","[[2,1,0],[3,0],[0]]","8","0","","","","","","6","",""
"","","","","","single-stim-button","313","803506","0.0-3.0-34.5-1.5","5edfb0770fb0722aa3839b6d","B2","batch2","","823","","","tol_toboard","","","","","","","","","tol_peg_2","823","823","0","[[1,2,0],[3,0],[0]]","6","[[2,1,0],[3,0],[0]]","8","0","","","","","","6","",""
"","","","","","single-stim-button","314","804499","0.0-3.0-34.6-0.6","5edfb0770fb0722aa3839b6d","B2","batch2","","993","","","tol_tohand","","","","","","","","","tol_peg_1","993","993","0","[[1,0,0],[3,0],[0]]","7","[[2,1,0],[3,0],[0]]","8","0","","","","","","6","",""
"","","","","","single-stim-button","315","808362","0.0-3.0-34.6-1.6","5edfb0770fb0722aa3839b6d","B2","batch2","","3863","","","tol_toboard","","","","","","","","","tol_peg_2","3863","3863","0","[[1,0,0],[3,2],[0]]","7","[[2,1,0],[3,0],[0]]","8","0","","","","","","6","",""
"","","","","","single-stim-button","316","809107","0.0-3.0-34.7-0.7","5edfb0770fb0722aa3839b6d","B2","batch2","","745","","","tol_tohand","","","","","","","","","tol_peg_1","745","745","0","[[0,0,0],[3,2],[0]]","8","[[2,1,0],[3,0],[0]]","8","0","","","","","","6","",""
"","","","","","single-stim-button","317","810452","0.0-3.0-34.7-1.7","5edfb0770fb0722aa3839b6d","B2","batch2","","1345","","","tol_toboard","","","","","","","","","tol_peg_3","1345","1345","0","[[0,0,0],[3,2],[1]]","8","[[2,1,0],[3,0],[0]]","8","0","","","","","","6","",""
"","","","","","single-stim-button","318","810995","0.0-3.0-34.8-0.8","5edfb0770fb0722aa3839b6d","B2","batch2","","543","","","tol_tohand","","","","","","","","","tol_peg_2","543","543","0","[[0,0,0],[3,0],[1]]","9","[[2,1,0],[3,0],[0]]","8","0","","","","","","6","",""
"","","","","","single-stim-button","319","811644","0.0-3.0-34.8-1.8","5edfb0770fb0722aa3839b6d","B2","batch2","","648","","","tol_toboard","","","","","","","","","tol_peg_1","648","648","0","[[2,0,0],[3,0],[1]]","9","[[2,1,0],[3,0],[0]]","8","0","","","","","","6","",""
"","","","","","single-stim-button","320","812171","0.0-3.0-34.9-0.9","5edfb0770fb0722aa3839b6d","B2","batch2","","526","","","tol_tohand","","","","","","","","","tol_peg_3","526","526","0","[[2,0,0],[3,0],[0]]","10","[[2,1,0],[3,0],[0]]","8","0","","","","","","6","",""
"","","","","","single-stim-button","321","812755","0.0-3.0-34.9-1.9","5edfb0770fb0722aa3839b6d","B2","batch2","","583","","","tol_toboard","","","","","","","","","tol_peg_1","583","583","0","[[2,1,0],[3,0],[0]]","10","[[2,1,0],[3,0],[0]]","8","0","","","","","","6","",""
"","","","","","poldrack-single-stim","322","813757","0.0-3.0-35.0","5edfb0770fb0722aa3839b6d","B2","batch2","","-1","","","tol_feedback","true","","","","","","","","","1000","1000","500","","","","","","-1","none","true","33910","43441","","",""
"","","","","","html-button-response","323","814395","0.0-3.0-36.0","5edfb0770fb0722aa3839b6d","B2","batch2","","638.1000000089407","<div class = centerbox><p class = center-block-text>problem <strong>10</strong> out of 25 problems</p></div>","0","tol_trial_num","","","","","","","","","","","","","","","","","","","","","","","","",""
"","","","","","single-stim-button","324","818254","0.0-3.0-37.0-0.0","5edfb0770fb0722aa3839b6d","B2","batch2","","3858","","","tol_tohand","","","","","","","","","tol_peg_2","3858","3858","0","[[3,0,0],[0,0],[2]]","1","[[3,0,0],[2,1],[0]]","9","0","","","","","","3","",""
"","","","","","single-stim-button","325","819133","0.0-3.0-37.0-1.0","5edfb0770fb0722aa3839b6d","B2","batch2","","877","","","tol_toboard","","","","","","","","","tol_peg_1","877","877","0","[[3,1,0],[0,0],[2]]","1","[[3,0,0],[2,1],[0]]","9","0","","","","","","3","",""
"","","","","","single-stim-button","326","819836","0.0-3.0-37.1-0.1","5edfb0770fb0722aa3839b6d","B2","batch2","","703","","","tol_tohand","","","","","","","","","tol_peg_3","703","703","0","[[3,1,0],[0,0],[0]]","2","[[3,0,0],[2,1],[0]]","9","0","","","","","","3","",""
"","","","","","single-stim-button","327","820573","0.0-3.0-37.1-1.1","5edfb0770fb0722aa3839b6d","B2","batch2","","736","","","tol_toboard","","","","","","","","","tol_peg_2","736","736","0","[[3,1,0],[2,0],[0]]","2","[[3,0,0],[2,1],[0]]","9","0","","","","","","3","",""
"","","","","","single-stim-button","328","821070","0.0-3.0-37.2-0.2","5edfb0770fb0722aa3839b6d","B2","batch2","","496","","","tol_tohand","","","","","","","","","tol_peg_1","496","496","0","[[3,0,0],[2,0],[0]]","3","[[3,0,0],[2,1],[0]]","9","0","","","","","","3","",""
"","","","","","single-stim-button","329","821578","0.0-3.0-37.2-1.2","5edfb0770fb0722aa3839b6d","B2","batch2","","507","","","tol_toboard","","","","","","","","","tol_peg_2","507","507","0","[[3,0,0],[2,1],[0]]","3","[[3,0,0],[2,1],[0]]","9","0","","","","","","3","",""
"","","","","","poldrack-single-stim","330","822579","0.0-3.0-38.0","5edfb0770fb0722aa3839b6d","B2","batch2","","-1","","","tol_feedback","true","","","","","","","","","1000","1000","500","","","","","","-1","none","true","3858","5057","","",""
"","","","","","html-button-response","331","823188","0.0-3.0-39.0","5edfb0770fb0722aa3839b6d","B2","batch2","","608.2000000029802","<div class = centerbox><p class = center-block-text>problem <strong>11</strong> out of 25 problems</p></div>","0","tol_trial_num","","","","","","","","","","","","","","","","","","","","","","","","",""
"","","","","","single-stim-button","332","831950","0.0-3.0-40.0-0.0","5edfb0770fb0722aa3839b6d","B2","batch2","","8760","","","tol_tohand","","","","","","","","","tol_peg_1","8760","8760","0","[[1,0,0],[3,0],[0]]","1","[[2,0,0],[1,3],[0]]","10","0","","","","","","6","",""
"","","","","","single-stim-button","333","832552","0.0-3.0-40.0-1.0","5edfb0770fb0722aa3839b6d","B2","batch2","","602","","","tol_toboard","","","","","","","","","tol_peg_3","602","602","0","[[1,0,0],[3,0],[2]]","1","[[2,0,0],[1,3],[0]]","10","0","","","","","","6","",""
"","","","","","single-stim-button","334","833614","0.0-3.0-40.1-0.1","5edfb0770fb0722aa3839b6d","B2","batch2","","1060","","","tol_tohand","","","","","","","","","tol_peg_1","1060","1060","0","[[0,0,0],[3,0],[2]]","2","[[2,0,0],[1,3],[0]]","10","0","","","","","","6","",""
"","","","","","single-stim-button","335","834143","0.0-3.0-40.1-1.1","5edfb0770fb0722aa3839b6d","B2","batch2","","528","","","tol_toboard","","","","","","","","","tol_peg_2","528","528","0","[[0,0,0],[3,1],[2]]","2","[[2,0,0],[1,3],[0]]","10","0","","","","","","6","",""
"","","","","","single-stim-button","336","834559","0.0-3.0-40.2-0.2","5edfb0770fb0722aa3839b6d","B2","batch2","","416","","","tol_tohand","","","","","","","","","tol_peg_3","416","416","0","[[0,0,0],[3,1],[0]]","3","[[2,0,0],[1,3],[0]]","10","0","","","","","","6","",""
"","","","","","single-stim-button","337","835360","0.0-3.0-40.2-1.2","5edfb0770fb0722aa3839b6d","B2","batch2","","799","","","tol_toboard","","","","","","","","","tol_peg_1","799","799","0","[[2,0,0],[3,1],[0]]","3","[[2,0,0],[1,3],[0]]","10","0","","","","","","6","",""
"","","","","","single-stim-button","338","837495","0.0-3.0-40.3-0.3","5edfb0770fb0722aa3839b6d","B2","batch2","","2135","","","tol_tohand","","","","","","","","","tol_peg_2","2135","2135","0","[[2,0,0],[3,0],[0]]","4","[[2,0,0],[1,3],[0]]","10","0","","","","","","6","",""
"","","","","","single-stim-button","339","838215","0.0-3.0-40.3-1.3","5edfb0770fb0722aa3839b6d","B2","batch2","","718","","","tol_toboard","","","","","","","","","tol_peg_1","718","718","0","[[2,1,0],[3,0],[0]]","4","[[2,0,0],[1,3],[0]]","10","0","","","","","","6","",""
"","","","","","single-stim-button","340","838775","0.0-3.0-40.4-0.4","5edfb0770fb0722aa3839b6d","B2","batch2","","560","","","tol_tohand","","","","","","","","","tol_peg_2","560","560","0","[[2,1,0],[0,0],[0]]","5","[[2,0,0],[1,3],[0]]","10","0","","","","","","6","",""
"","","","","","single-stim-button","341","839519","0.0-3.0-40.4-1.4","5edfb0770fb0722aa3839b6d","B2","batch2","","743","","","tol_toboard","","","","","","","","","tol_peg_3","743","743","0","[[2,1,0],[0,0],[3]]","5","[[2,0,0],[1,3],[0]]","10","0","","","","","","6","",""
"","","","","","single-stim-button","342","840058","0.0-3.0-40.5-0.5","5edfb0770fb0722aa3839b6d","B2","batch2","","539","","","tol_tohand","","","","","","","","","tol_peg_1","539","539","0","[[2,0,0],[0,0],[3]]","6","[[2,0,0],[1,3],[0]]","10","0","","","","","","6","",""
"","","","","","single-stim-button","343","840506","0.0-3.0-40.5-1.5","5edfb0770fb0722aa3839b6d","B2","batch2","","446","","","tol_toboard","","","","","","","","","tol_peg_2","446","446","0","[[2,0,0],[1,0],[3]]","6","[[2,0,0],[1,3],[0]]","10","0","","","","","","6","",""
"","","","","","single-stim-button","344","841209","0.0-3.0-40.6-0.6","5edfb0770fb0722aa3839b6d","B2","batch2","","703","","","tol_tohand","","","","","","","","","tol_peg_3","703","703","0","[[2,0,0],[1,0],[0]]","7","[[2,0,0],[1,3],[0]]","10","0","","","","","","6","",""
"","","","","","single-stim-button","345","841866","0.0-3.0-40.6-1.6","5edfb0770fb0722aa3839b6d","B2","batch2","","656","","","tol_toboard","","","","","","","","","tol_peg_2","656","656","0","[[2,0,0],[1,3],[0]]","7","[[2,0,0],[1,3],[0]]","10","0","","","","","","6","",""
"","","","","","poldrack-single-stim","346","842874","0.0-3.0-41.0","5edfb0770fb0722aa3839b6d","B2","batch2","","-1","","","tol_feedback","true","","","","","","","","","1000","1000","500","","","","","","-1","none","true","8760","14173","","",""
"","","","","","html-button-response","347","843376","0.0-3.0-42.0","5edfb0770fb0722aa3839b6d","B2","batch2","","500.8999999910593","<div class = centerbox><p class = center-block-text>problem <strong>12</strong> out of 25 problems</p></div>","0","tol_trial_num","","","","","","","","","","","","","","","","","","","","","","","","",""
