"success","timeout","failed_images","failed_audio","failed_video","trial_type","trial_index","time_elapsed","internal_node_id","subject_id","study_id","session_id","view_history","rt","task","stimulus","response","correct","mouse_click","stim_duration","block_duration","timing_post_trial","current_position","tol_num_moves_made","tol_target","tol_problem_id","tol_rt","key_press","possible_responses","tol_correct","preplanning","tol_rt_per_trial","tol_min_moves","item","answer","spm_correct","spm_rt","fiar_detect_rt","fiar_detect_correct","total_correct_fiar_detect","post_trial_gap","choices"
"true","false","[]","[]","[]","preload","0","4318","0.0-0.0","5ee04c3aa397863948b8b1c9","C3","batch3","","","","","","","","","","","","","","","","","","","","","","","","","","","","","",""
"true","","","","","fullscreen","1","20892","0.0-1.0-0.0","5ee04c3aa397863948b8b1c9","C3","batch3","","","","","","","","","","","","","","","","","","","","","","","","","","","","","",""
"true","","","","","fullscreen","2","24070","0.0-2.0-0.0","5ee04c3aa397863948b8b1c9","C3","batch3","","","","","","","","","","","","","","","","","","","","","","","","","","","","","",""
"","","","","","instructions","3","82364","0.0-2.0-1.0-0.0-0.0","5ee04c3aa397863948b8b1c9","C3","batch3","[{""page_index"":0,""viewing_time"":9747.899999999907},{""page_index"":1,""viewing_time"":5896.5},{""page_index"":2,""viewing_time"":3105.7000000001863},{""page_index"":3,""viewing_time"":13342.399999999907},{""page_index"":4,""viewing_time"":6313.300000000279},{""page_index"":5,""viewing_time"":15970},{""page_index"":6,""viewing_time"":3917.7999999998137}]","58293.80000000028","tol-instructions","","","","","","","","","","","","","","","","","","","","","","","","","","",""
"","","","","","html-button-response","4","83220","0.0-2.0-1.0-1.0-0.0","5ee04c3aa397863948b8b1c9","C3","batch3","","855.7999999998137","tol_enter_quiz","<p class=block-text> Let's answer a few questions <br>","0","","","","","","","","","","","","","","","","","","","","","","","","",""
"","","","","","html-button-response","5","85465","0.0-2.0-1.0-1.0-1.0","5ee04c3aa397863948b8b1c9","C3","batch3","","2243.5999999996275","tol_quiz","<p class = block-text>True or False: You can only move the ball on top of a peg. <br></p>","0","true","","","","","","","","","","","","","","","","","","","","","","","",""
"","","","","","html-button-response","6","86595","0.0-2.0-1.0-1.0-2.0","5ee04c3aa397863948b8b1c9","C3","batch3","","1129.8999999999069","tol_quiz_feedback","<p class = block-text>Correct! You can only move the ball on top of a peg.</p>","0","","","","","","","","","","","","","","","","","","","","","","","","",""
"","","","","","html-button-response","7","90851","0.0-2.0-1.0-1.0-3.0","5ee04c3aa397863948b8b1c9","C3","batch3","","4254.899999999907","tol_quiz","<p class = block-text>True or False: You should try to match your board with the target board with fewest moves possible. <br></p>","0","true","","","","","","","","","","","","","","","","","","","","","","","",""
"","","","","","html-button-response","8","91350","0.0-2.0-1.0-1.0-4.0","5ee04c3aa397863948b8b1c9","C3","batch3","","498.5","tol_quiz_feedback","<p class = block-text>Correct! </p>","0","","","","","","","","","","","","","","","","","","","","","","","","",""
"","","","","","html-button-response","9","93037","0.0-2.0-2.0","5ee04c3aa397863948b8b1c9","C3","batch3","","1686.5","","<p class=block-text> Now that you've understood the game, let's practice a few easier examples before we start!<br> <br>","0","","","","","","","","","","","","","","","","","","","","","","","","",""
"","","","","","single-stim-button","10","95884","0.0-2.0-3.0-0.0","5ee04c3aa397863948b8b1c9","C3","batch3","","2846","tol_practice","","","","tol_peg_2","2846","2846","0","[[1,2,0],[0,0],[0]]","1","[[1,2,0],[0,0],[3]]","practice","2846","","","","","","","","","","","","","","",""
"","","","","","single-stim-button","11","96968","0.0-2.0-3.0-1.0","5ee04c3aa397863948b8b1c9","C3","batch3","","1084","tol_practice","","","","tol_peg_3","1084","1084","0","[[1,2,0],[0,0],[3]]","1","[[1,2,0],[0,0],[3]]","practice","1084","","","","","","","","","","","","","","",""
"","","","","","poldrack-single-stim","12","97976","0.0-2.0-4.0","5ee04c3aa397863948b8b1c9","C3","batch3","","-1","tol_feedback","","","true","","1000","1000","500","","","","","","-1","none","true","","0","","","","","","","","","",""
"","","","","","single-stim-button","13","101365","0.0-2.0-5.0-0.0","5ee04c3aa397863948b8b1c9","C3","batch3","","3388","tol_practice","","","","tol_peg_1","3388","3388","0","[[1,0,0],[3,0],[0]]","2","[[0,0,0],[3,1],[2]]","practice","3388","","","","","","","","","","","","","","",""
"","","","","","single-stim-button","14","102513","0.0-2.0-5.0-1.0","5ee04c3aa397863948b8b1c9","C3","batch3","","1148","tol_practice","","","","tol_peg_3","1148","1148","0","[[1,0,0],[3,0],[2]]","2","[[0,0,0],[3,1],[2]]","practice","1148","","","","","","","","","","","","","","",""
"","","","","","single-stim-button","15","105031","0.0-2.0-5.1-0.1","5ee04c3aa397863948b8b1c9","C3","batch3","","2517","tol_practice","","","","tol_peg_1","2517","2517","0","[[0,0,0],[3,0],[2]]","3","[[0,0,0],[3,1],[2]]","practice","2517","","","","","","","","","","","","","","",""
"","","","","","single-stim-button","16","105621","0.0-2.0-5.1-1.1","5ee04c3aa397863948b8b1c9","C3","batch3","","590","tol_practice","","","","tol_peg_2","590","590","0","[[0,0,0],[3,1],[2]]","3","[[0,0,0],[3,1],[2]]","practice","590","","","","","","","","","","","","","","",""
"","","","","","poldrack-single-stim","17","106624","0.0-2.0-6.0","5ee04c3aa397863948b8b1c9","C3","batch3","","-1","tol_feedback","","","true","","1000","1000","500","","","","","","-1","none","true","","0","","","","","","","","","",""
"","","","","","single-stim-button","18","109594","0.0-2.0-7.0-0.0","5ee04c3aa397863948b8b1c9","C3","batch3","","2970","tol_practice","","","","tol_peg_2","2970","2970","0","[[1,2,0],[0,0],[0]]","4","[[1,0,0],[2,0],[3]]","practice","2970","","","","","","","","","","","","","","",""
"","","","","","single-stim-button","19","110272","0.0-2.0-7.0-1.0","5ee04c3aa397863948b8b1c9","C3","batch3","","678","tol_practice","","","","tol_peg_3","678","678","0","[[1,2,0],[0,0],[3]]","4","[[1,0,0],[2,0],[3]]","practice","678","","","","","","","","","","","","","","",""
"","","","","","single-stim-button","20","110936","0.0-2.0-7.1-0.1","5ee04c3aa397863948b8b1c9","C3","batch3","","664","tol_practice","","","","tol_peg_1","664","664","0","[[1,0,0],[0,0],[3]]","5","[[1,0,0],[2,0],[3]]","practice","664","","","","","","","","","","","","","","",""
"","","","","","single-stim-button","21","111487","0.0-2.0-7.1-1.1","5ee04c3aa397863948b8b1c9","C3","batch3","","551","tol_practice","","","","tol_peg_2","551","551","0","[[1,0,0],[2,0],[3]]","5","[[1,0,0],[2,0],[3]]","practice","551","","","","","","","","","","","","","","",""
"","","","","","poldrack-single-stim","22","112488","0.0-2.0-8.0","5ee04c3aa397863948b8b1c9","C3","batch3","","-1","tol_feedback","","","true","","1000","1000","500","","","","","","-1","none","true","","0","","","","","","","","","",""
"","","","","","html-button-response","23","115558","0.0-2.0-9.0","5ee04c3aa397863948b8b1c9","C3","batch3","","3069.3000000002794","tol_instruction","<div class = centerbox><p class = center-block-text>Great job! You are done with practice trials<br>You are about to start official trials.<br> <br> Problem <strong>1</strong> out of 25 problems</p></div>","0","","","","","","","","","","","","","","","","","","","","","","","","",""
"","","","","","single-stim-button","24","121965","0.0-2.0-10.0-0.0","5ee04c3aa397863948b8b1c9","C3","batch3","","5395","tol_tohand","","","","tol_peg_2","5395","5395","0","[[1,2,0],[0,0],[0]]","1","[[1,3,0],[2,0],[0]]","0","0","","","","","","3","","","","","","","","",""
"","","","","","single-stim-button","25","122734","0.0-2.0-10.0-1.0","5ee04c3aa397863948b8b1c9","C3","batch3","","769","tol_toboard","","","","tol_peg_3","769","769","0","[[1,2,0],[0,0],[3]]","1","[[1,3,0],[2,0],[0]]","0","0","","","","","","3","","","","","","","","",""
"","","","","","single-stim-button","26","123444","0.0-2.0-10.1-0.1","5ee04c3aa397863948b8b1c9","C3","batch3","","710","tol_tohand","","","","tol_peg_1","710","710","0","[[1,0,0],[0,0],[3]]","2","[[1,3,0],[2,0],[0]]","0","0","","","","","","3","","","","","","","","",""
"","","","","","single-stim-button","27","124277","0.0-2.0-10.1-1.1","5ee04c3aa397863948b8b1c9","C3","batch3","","833","tol_toboard","","","","tol_peg_2","833","833","0","[[1,0,0],[2,0],[3]]","2","[[1,3,0],[2,0],[0]]","0","0","","","","","","3","","","","","","","","",""
"","","","","","single-stim-button","28","124907","0.0-2.0-10.2-0.2","5ee04c3aa397863948b8b1c9","C3","batch3","","630","tol_tohand","","","","tol_peg_3","630","630","0","[[1,0,0],[2,0],[0]]","3","[[1,3,0],[2,0],[0]]","0","0","","","","","","3","","","","","","","","",""
"","","","","","single-stim-button","29","125474","0.0-2.0-10.2-1.2","5ee04c3aa397863948b8b1c9","C3","batch3","","567","tol_toboard","","","","tol_peg_1","567","567","0","[[1,3,0],[2,0],[0]]","3","[[1,3,0],[2,0],[0]]","0","0","","","","","","3","","","","","","","","",""
"","","","","","poldrack-single-stim","30","126474","0.0-2.0-11.0","5ee04c3aa397863948b8b1c9","C3","batch3","","-1","tol_feedback","","","true","","1000","1000","500","","","","","","-1","none","true","5395","6735","","","","","","","","","",""
"","","","","","html-button-response","31","127541","0.0-2.0-12.0","5ee04c3aa397863948b8b1c9","C3","batch3","","1066","tol_trial_num","<div class = centerbox><p class = center-block-text>problem <strong>2</strong> out of 25 problems</p></div>","0","","","","","","","","","","","","","","","","","","","","","","","","",""
"","","","","","single-stim-button","32","130658","0.0-2.0-13.0-0.0","5ee04c3aa397863948b8b1c9","C3","batch3","","3117","tol_tohand","","","","tol_peg_1","3117","3117","0","[[1,0,0],[3,0],[0]]","1","[[2,1,3],[0,0],[0]]","1","0","","","","","","5","","","","","","","","",""
"","","","","","single-stim-button","33","134874","0.0-2.0-13.0-1.0","5ee04c3aa397863948b8b1c9","C3","batch3","","4216","tol_toboard","","","","tol_peg_3","4216","4216","0","[[1,0,0],[3,0],[2]]","1","[[2,1,3],[0,0],[0]]","1","0","","","","","","5","","","","","","","","",""
"","","","","","single-stim-button","34","135444","0.0-2.0-13.1-0.1","5ee04c3aa397863948b8b1c9","C3","batch3","","570","tol_tohand","","","","tol_peg_1","570","570","0","[[0,0,0],[3,0],[2]]","2","[[2,1,3],[0,0],[0]]","1","0","","","","","","5","","","","","","","","",""
"","","","","","single-stim-button","35","137529","0.0-2.0-13.1-1.1","5ee04c3aa397863948b8b1c9","C3","batch3","","2085","tol_toboard","","","","tol_peg_2","2085","2085","0","[[0,0,0],[3,1],[2]]","2","[[2,1,3],[0,0],[0]]","1","0","","","","","","5","","","","","","","","",""
"","","","","","single-stim-button","36","138107","0.0-2.0-13.2-0.2","5ee04c3aa397863948b8b1c9","C3","batch3","","578","tol_tohand","","","","tol_peg_3","578","578","0","[[0,0,0],[3,1],[0]]","3","[[2,1,3],[0,0],[0]]","1","0","","","","","","5","","","","","","","","",""
"","","","","","single-stim-button","37","139211","0.0-2.0-13.2-1.2","5ee04c3aa397863948b8b1c9","C3","batch3","","1104","tol_toboard","","","","tol_peg_1","1104","1104","0","[[2,0,0],[3,1],[0]]","3","[[2,1,3],[0,0],[0]]","1","0","","","","","","5","","","","","","","","",""
"","","","","","single-stim-button","38","139940","0.0-2.0-13.3-0.3","5ee04c3aa397863948b8b1c9","C3","batch3","","729","tol_tohand","","","","tol_peg_2","729","729","0","[[2,0,0],[3,0],[0]]","4","[[2,1,3],[0,0],[0]]","1","0","","","","","","5","","","","","","","","",""
"","","","","","single-stim-button","39","140662","0.0-2.0-13.3-1.3","5ee04c3aa397863948b8b1c9","C3","batch3","","722","tol_toboard","","","","tol_peg_1","722","722","0","[[2,1,0],[3,0],[0]]","4","[[2,1,3],[0,0],[0]]","1","0","","","","","","5","","","","","","","","",""
"","","","","","single-stim-button","40","141210","0.0-2.0-13.4-0.4","5ee04c3aa397863948b8b1c9","C3","batch3","","548","tol_tohand","","","","tol_peg_2","548","548","0","[[2,1,0],[0,0],[0]]","5","[[2,1,3],[0,0],[0]]","1","0","","","","","","5","","","","","","","","",""
"","","","","","single-stim-button","41","142085","0.0-2.0-13.4-1.4","5ee04c3aa397863948b8b1c9","C3","batch3","","875","tol_toboard","","","","tol_peg_1","875","875","0","[[2,1,3],[0,0],[0]]","5","[[2,1,3],[0,0],[0]]","1","0","","","","","","5","","","","","","","","",""
"","","","","","poldrack-single-stim","42","143089","0.0-2.0-14.0","5ee04c3aa397863948b8b1c9","C3","batch3","","-1","tol_feedback","","","true","","1000","1000","500","","","","","","-1","none","true","3117","5542","","","","","","","","","",""
"","","","","","html-button-response","43","144067","0.0-2.0-15.0","5ee04c3aa397863948b8b1c9","C3","batch3","","977","tol_trial_num","<div class = centerbox><p class = center-block-text>problem <strong>3</strong> out of 25 problems</p></div>","0","","","","","","","","","","","","","","","","","","","","","","","","",""
"","","","","","single-stim-button","44","147534","0.0-2.0-16.0-0.0","5ee04c3aa397863948b8b1c9","C3","batch3","","3467","tol_tohand","","","","tol_peg_1","3467","3467","0","[[2,0,0],[0,0],[1]]","1","[[1,2,0],[3,0],[0]]","2","0","","","","","","4","","","","","","","","",""
"","","","","","single-stim-button","45","148385","0.0-2.0-16.0-1.0","5ee04c3aa397863948b8b1c9","C3","batch3","","851","tol_toboard","","","","tol_peg_2","851","851","0","[[2,0,0],[3,0],[1]]","1","[[1,2,0],[3,0],[0]]","2","0","","","","","","4","","","","","","","","",""
"","","","","","single-stim-button","46","150503","0.0-2.0-16.1-0.1","5ee04c3aa397863948b8b1c9","C3","batch3","","2117","tol_tohand","","","","tol_peg_3","2117","2117","0","[[2,0,0],[3,0],[0]]","2","[[1,2,0],[3,0],[0]]","2","0","","","","","","4","","","","","","","","",""
"","","","","","single-stim-button","47","151216","0.0-2.0-16.1-1.1","5ee04c3aa397863948b8b1c9","C3","batch3","","712","tol_toboard","","","","tol_peg_2","712","712","0","[[2,0,0],[3,1],[0]]","2","[[1,2,0],[3,0],[0]]","2","0","","","","","","4","","","","","","","","",""
"","","","","","single-stim-button","48","151942","0.0-2.0-16.2-0.2","5ee04c3aa397863948b8b1c9","C3","batch3","","726","tol_tohand","","","","tol_peg_1","726","726","0","[[0,0,0],[3,1],[0]]","3","[[1,2,0],[3,0],[0]]","2","0","","","","","","4","","","","","","","","",""
"","","","","","single-stim-button","49","152608","0.0-2.0-16.2-1.2","5ee04c3aa397863948b8b1c9","C3","batch3","","665","tol_toboard","","","","tol_peg_3","665","665","0","[[0,0,0],[3,1],[2]]","3","[[1,2,0],[3,0],[0]]","2","0","","","","","","4","","","","","","","","",""
"","","","","","single-stim-button","50","153053","0.0-2.0-16.3-0.3","5ee04c3aa397863948b8b1c9","C3","batch3","","445","tol_tohand","","","","tol_peg_2","445","445","0","[[0,0,0],[3,0],[2]]","4","[[1,2,0],[3,0],[0]]","2","0","","","","","","4","","","","","","","","",""
"","","","","","single-stim-button","51","153829","0.0-2.0-16.3-1.3","5ee04c3aa397863948b8b1c9","C3","batch3","","775","tol_toboard","","","","tol_peg_1","775","775","0","[[1,0,0],[3,0],[2]]","4","[[1,2,0],[3,0],[0]]","2","0","","","","","","4","","","","","","","","",""
"","","","","","single-stim-button","52","154552","0.0-2.0-16.4-0.4","5ee04c3aa397863948b8b1c9","C3","batch3","","723","tol_tohand","","","","tol_peg_3","723","723","0","[[1,0,0],[3,0],[0]]","5","[[1,2,0],[3,0],[0]]","2","0","","","","","","4","","","","","","","","",""
"","","","","","single-stim-button","53","155079","0.0-2.0-16.4-1.4","5ee04c3aa397863948b8b1c9","C3","batch3","","527","tol_toboard","","","","tol_peg_1","527","527","0","[[1,2,0],[3,0],[0]]","5","[[1,2,0],[3,0],[0]]","2","0","","","","","","4","","","","","","","","",""
"","","","","","poldrack-single-stim","54","156080","0.0-2.0-17.0","5ee04c3aa397863948b8b1c9","C3","batch3","","-1","tol_feedback","","","true","","1000","1000","500","","","","","","-1","none","true","3467","7478","","","","","","","","","",""
"","","","","","html-button-response","55","157036","0.0-2.0-18.0","5ee04c3aa397863948b8b1c9","C3","batch3","","955.3999999999069","tol_trial_num","<div class = centerbox><p class = center-block-text>problem <strong>4</strong> out of 25 problems</p></div>","0","","","","","","","","","","","","","","","","","","","","","","","","",""
"","","","","","single-stim-button","56","160955","0.0-2.0-19.0-0.0","5ee04c3aa397863948b8b1c9","C3","batch3","","3919","tol_tohand","","","","tol_peg_2","3919","3919","0","[[3,0,0],[2,0],[0]]","1","[[3,0,0],[1,0],[2]]","3","0","","","","","","3","","","","","","","","",""
"","","","","","single-stim-button","57","161609","0.0-2.0-19.0-1.0","5ee04c3aa397863948b8b1c9","C3","batch3","","652","tol_toboard","","","","tol_peg_1","652","652","0","[[3,1,0],[2,0],[0]]","1","[[3,0,0],[1,0],[2]]","3","0","","","","","","3","","","","","","","","",""
"","","","","","single-stim-button","58","162281","0.0-2.0-19.1-0.1","5ee04c3aa397863948b8b1c9","C3","batch3","","671","tol_tohand","","","","tol_peg_2","671","671","0","[[3,1,0],[0,0],[0]]","2","[[3,0,0],[1,0],[2]]","3","0","","","","","","3","","","","","","","","",""
"","","","","","single-stim-button","59","163127","0.0-2.0-19.1-1.1","5ee04c3aa397863948b8b1c9","C3","batch3","","846","tol_toboard","","","","tol_peg_3","846","846","0","[[3,1,0],[0,0],[2]]","2","[[3,0,0],[1,0],[2]]","3","0","","","","","","3","","","","","","","","",""
"","","","","","single-stim-button","60","163640","0.0-2.0-19.2-0.2","5ee04c3aa397863948b8b1c9","C3","batch3","","513","tol_tohand","","","","tol_peg_1","513","513","0","[[3,0,0],[0,0],[2]]","3","[[3,0,0],[1,0],[2]]","3","0","","","","","","3","","","","","","","","",""
"","","","","","single-stim-button","61","164160","0.0-2.0-19.2-1.2","5ee04c3aa397863948b8b1c9","C3","batch3","","518","tol_toboard","","","","tol_peg_2","518","518","0","[[3,0,0],[1,0],[2]]","3","[[3,0,0],[1,0],[2]]","3","0","","","","","","3","","","","","","","","",""
"","","","","","poldrack-single-stim","62","165173","0.0-2.0-20.0","5ee04c3aa397863948b8b1c9","C3","batch3","","-1","tol_feedback","","","true","","1000","1000","500","","","","","","-1","none","true","3919","5103","","","","","","","","","",""
"","","","","","html-button-response","63","166282","0.0-2.0-21.0","5ee04c3aa397863948b8b1c9","C3","batch3","","1108.2999999998137","tol_trial_num","<div class = centerbox><p class = center-block-text>problem <strong>5</strong> out of 25 problems</p></div>","0","","","","","","","","","","","","","","","","","","","","","","","","",""
"","","","","","single-stim-button","64","170492","0.0-2.0-22.0-0.0","5ee04c3aa397863948b8b1c9","C3","batch3","","4210","tol_tohand","","","","tol_peg_2","4210","4210","0","[[1,0,0],[0,0],[3]]","1","[[0,0,0],[1,2],[3]]","4","0","","","","","","7","","","","","","","","",""
"","","","","","single-stim-button","65","176900","0.0-2.0-22.0-1.0","5ee04c3aa397863948b8b1c9","C3","batch3","","6408","tol_toboard","","","","tol_peg_1","6408","6408","0","[[1,2,0],[0,0],[3]]","1","[[0,0,0],[1,2],[3]]","4","0","","","","","","7","","","","","","","","",""
"","","","","","single-stim-button","66","177764","0.0-2.0-22.1-0.1","5ee04c3aa397863948b8b1c9","C3","batch3","","864","tol_tohand","","","","tol_peg_1","864","864","0","[[1,0,0],[0,0],[3]]","2","[[0,0,0],[1,2],[3]]","4","0","","","","","","7","","","","","","","","",""
"","","","","","single-stim-button","67","179231","0.0-2.0-22.1-1.1","5ee04c3aa397863948b8b1c9","C3","batch3","","1467","tol_toboard","","","","tol_peg_2","1467","1467","0","[[1,0,0],[2,0],[3]]","2","[[0,0,0],[1,2],[3]]","4","0","","","","","","7","","","","","","","","",""
"","","","","","single-stim-button","68","179731","0.0-2.0-22.2-0.2","5ee04c3aa397863948b8b1c9","C3","batch3","","500","tol_tohand","","","","tol_peg_1","500","500","0","[[0,0,0],[2,0],[3]]","3","[[0,0,0],[1,2],[3]]","4","0","","","","","","7","","","","","","","","",""
"","","","","","single-stim-button","69","183620","0.0-2.0-22.2-1.2","5ee04c3aa397863948b8b1c9","C3","batch3","","3889","tol_toboard","","","","tol_peg_2","3889","3889","0","[[0,0,0],[2,1],[3]]","3","[[0,0,0],[1,2],[3]]","4","0","","","","","","7","","","","","","","","",""
"","","","","","single-stim-button","70","192494","0.0-2.0-22.3-0.3","5ee04c3aa397863948b8b1c9","C3","batch3","","8874","tol_tohand","","","","tol_peg_2","8874","8874","0","[[0,0,0],[2,0],[3]]","4","[[0,0,0],[1,2],[3]]","4","0","","","","","","7","","","","","","","","",""
"","","","","","single-stim-button","71","193633","0.0-2.0-22.3-1.3","5ee04c3aa397863948b8b1c9","C3","batch3","","1139","tol_toboard","","","","tol_peg_2","1139","1139","0","[[0,0,0],[2,1],[3]]","4","[[0,0,0],[1,2],[3]]","4","0","","","","","","7","","","","","","","","",""
"","","","","","single-stim-button","72","194672","0.0-2.0-22.4-0.4","5ee04c3aa397863948b8b1c9","C3","batch3","","1039","tol_tohand","","","","tol_peg_2","1039","1039","0","[[0,0,0],[2,0],[3]]","5","[[0,0,0],[1,2],[3]]","4","0","","","","","","7","","","","","","","","",""
"","","","","","single-stim-button","73","195254","0.0-2.0-22.4-1.4","5ee04c3aa397863948b8b1c9","C3","batch3","","582","tol_toboard","","","","tol_peg_1","582","582","0","[[1,0,0],[2,0],[3]]","5","[[0,0,0],[1,2],[3]]","4","0","","","","","","7","","","","","","","","",""
"","","","","","single-stim-button","74","195696","0.0-2.0-22.5-0.5","5ee04c3aa397863948b8b1c9","C3","batch3","","442","tol_tohand","","","","tol_peg_2","442","442","0","[[1,0,0],[0,0],[3]]","6","[[0,0,0],[1,2],[3]]","4","0","","","","","","7","","","","","","","","",""
"","","","","","single-stim-button","75","198843","0.0-2.0-22.5-1.5","5ee04c3aa397863948b8b1c9","C3","batch3","","3147","tol_toboard","","","","tol_peg_1","3147","3147","0","[[1,2,0],[0,0],[3]]","6","[[0,0,0],[1,2],[3]]","4","0","","","","","","7","","","","","","","","",""
"","","","","","single-stim-button","76","202898","0.0-2.0-22.6-0.6","5ee04c3aa397863948b8b1c9","C3","batch3","","4054","tol_tohand","","","","tol_peg_1","4054","4054","0","[[1,0,0],[0,0],[3]]","7","[[0,0,0],[1,2],[3]]","4","0","","","","","","7","","","","","","","","",""
"","","","","","single-stim-button","77","204248","0.0-2.0-22.6-1.6","5ee04c3aa397863948b8b1c9","C3","batch3","","1349","tol_toboard","","","","tol_peg_1","1349","1349","0","[[1,2,0],[0,0],[3]]","7","[[0,0,0],[1,2],[3]]","4","0","","","","","","7","","","","","","","","",""
"","","","","","single-stim-button","78","205309","0.0-2.0-22.7-0.7","5ee04c3aa397863948b8b1c9","C3","batch3","","1060","tol_tohand","","","","tol_peg_1","1060","1060","0","[[1,0,0],[0,0],[3]]","8","[[0,0,0],[1,2],[3]]","4","0","","","","","","7","","","","","","","","",""
"","","","","","single-stim-button","79","208566","0.0-2.0-22.7-1.7","5ee04c3aa397863948b8b1c9","C3","batch3","","3257","tol_toboard","","","","tol_peg_2","3257","3257","0","[[1,0,0],[2,0],[3]]","8","[[0,0,0],[1,2],[3]]","4","0","","","","","","7","","","","","","","","",""
"","","","","","single-stim-button","80","219781","0.0-2.0-22.8-0.8","5ee04c3aa397863948b8b1c9","C3","batch3","","11215","tol_tohand","","","","tol_peg_3","11215","11215","0","[[1,0,0],[2,0],[0]]","9","[[0,0,0],[1,2],[3]]","4","0","","","","","","7","","","","","","","","",""
"","","","","","single-stim-button","81","220433","0.0-2.0-22.8-1.8","5ee04c3aa397863948b8b1c9","C3","batch3","","651","tol_toboard","","","","tol_peg_2","651","651","0","[[1,0,0],[2,3],[0]]","9","[[0,0,0],[1,2],[3]]","4","0","","","","","","7","","","","","","","","",""
"","","","","","single-stim-button","82","221154","0.0-2.0-22.9-0.9","5ee04c3aa397863948b8b1c9","C3","batch3","","720","tol_tohand","","","","tol_peg_1","720","720","0","[[0,0,0],[2,3],[0]]","10","[[0,0,0],[1,2],[3]]","4","0","","","","","","7","","","","","","","","",""
"","","","","","single-stim-button","83","221833","0.0-2.0-22.9-1.9","5ee04c3aa397863948b8b1c9","C3","batch3","","678","tol_toboard","","","","tol_peg_3","678","678","0","[[0,0,0],[2,3],[1]]","10","[[0,0,0],[1,2],[3]]","4","0","","","","","","7","","","","","","","","",""
"","","","","","single-stim-button","84","226674","0.0-2.0-22.10-0.10","5ee04c3aa397863948b8b1c9","C3","batch3","","4840","tol_tohand","","","","tol_peg_2","4840","4840","0","[[0,0,0],[2,0],[1]]","11","[[0,0,0],[1,2],[3]]","4","0","","","","","","7","","","","","","","","",""
"","","","","","single-stim-button","85","229680","0.0-2.0-22.10-1.10","5ee04c3aa397863948b8b1c9","C3","batch3","","3005","tol_toboard","","","","tol_peg_1","3005","3005","0","[[3,0,0],[2,0],[1]]","11","[[0,0,0],[1,2],[3]]","4","0","","","","","","7","","","","","","","","",""
"","","","","","single-stim-button","86","232114","0.0-2.0-22.11-0.11","5ee04c3aa397863948b8b1c9","C3","batch3","","2433","tol_tohand","","","","tol_peg_2","2433","2433","0","[[3,0,0],[0,0],[1]]","12","[[0,0,0],[1,2],[3]]","4","0","","","","","","7","","","","","","","","",""
"","","","","","single-stim-button","87","232673","0.0-2.0-22.11-1.11","5ee04c3aa397863948b8b1c9","C3","batch3","","558","tol_toboard","","","","tol_peg_1","558","558","0","[[3,2,0],[0,0],[1]]","12","[[0,0,0],[1,2],[3]]","4","0","","","","","","7","","","","","","","","",""
"","","","","","single-stim-button","88","233325","0.0-2.0-22.12-0.12","5ee04c3aa397863948b8b1c9","C3","batch3","","651","tol_tohand","","","","tol_peg_3","651","651","0","[[3,2,0],[0,0],[0]]","13","[[0,0,0],[1,2],[3]]","4","0","","","","","","7","","","","","","","","",""
"","","","","","single-stim-button","89","233789","0.0-2.0-22.12-1.12","5ee04c3aa397863948b8b1c9","C3","batch3","","464","tol_toboard","","","","tol_peg_2","464","464","0","[[3,2,0],[1,0],[0]]","13","[[0,0,0],[1,2],[3]]","4","0","","","","","","7","","","","","","","","",""
"","","","","","single-stim-button","90","234269","0.0-2.0-22.13-0.13","5ee04c3aa397863948b8b1c9","C3","batch3","","478","tol_tohand","","","","tol_peg_1","478","478","0","[[3,0,0],[1,0],[0]]","14","[[0,0,0],[1,2],[3]]","4","0","","","","","","7","","","","","","","","",""
"","","","","","single-stim-button","91","235135","0.0-2.0-22.13-1.13","5ee04c3aa397863948b8b1c9","C3","batch3","","866","tol_toboard","","","","tol_peg_2","866","866","0","[[3,0,0],[1,2],[0]]","14","[[0,0,0],[1,2],[3]]","4","0","","","","","","7","","","","","","","","",""
"","","","","","single-stim-button","92","235586","0.0-2.0-22.14-0.14","5ee04c3aa397863948b8b1c9","C3","batch3","","449","tol_tohand","","","","tol_peg_1","449","449","0","[[0,0,0],[1,2],[0]]","15","[[0,0,0],[1,2],[3]]","4","0","","","","","","7","","","","","","","","",""
"","","","","","single-stim-button","93","236271","0.0-2.0-22.14-1.14","5ee04c3aa397863948b8b1c9","C3","batch3","","685","tol_toboard","","","","tol_peg_3","685","685","0","[[0,0,0],[1,2],[3]]","15","[[0,0,0],[1,2],[3]]","4","0","","","","","","7","","","","","","","","",""
"","","","","","poldrack-single-stim","94","237274","0.0-2.0-23.0","5ee04c3aa397863948b8b1c9","C3","batch3","","-1","tol_feedback","","","true","","1000","1000","500","","","","","","-1","none","true","4210","41829","","","","","","","","","",""
"","","","","","html-button-response","95","237995","0.0-2.0-24.0","5ee04c3aa397863948b8b1c9","C3","batch3","","721.3000000002794","tol_trial_num","<div class = centerbox><p class = center-block-text>problem <strong>6</strong> out of 25 problems</p></div>","0","","","","","","","","","","","","","","","","","","","","","","","","",""
"","","","","","single-stim-button","96","256399","0.0-2.0-25.0-0.0","5ee04c3aa397863948b8b1c9","C3","batch3","","18403","tol_tohand","","","","tol_peg_3","18403","18403","0","[[0,0,0],[1,2],[0]]","1","[[1,0,0],[2,3],[0]]","5","0","","","","","","6","","","","","","","","",""
"","","","","","single-stim-button","97","257507","0.0-2.0-25.0-1.0","5ee04c3aa397863948b8b1c9","C3","batch3","","1108","tol_toboard","","","","tol_peg_1","1108","1108","0","[[3,0,0],[1,2],[0]]","1","[[1,0,0],[2,3],[0]]","5","0","","","","","","6","","","","","","","","",""
"","","","","","single-stim-button","98","260451","0.0-2.0-25.1-0.1","5ee04c3aa397863948b8b1c9","C3","batch3","","2943","tol_tohand","","","","tol_peg_1","2943","2943","0","[[0,0,0],[1,2],[0]]","2","[[1,0,0],[2,3],[0]]","5","0","","","","","","6","","","","","","","","",""
"","","","","","single-stim-button","99","261317","0.0-2.0-25.1-1.1","5ee04c3aa397863948b8b1c9","C3","batch3","","865","tol_toboard","","","","tol_peg_3","865","865","0","[[0,0,0],[1,2],[3]]","2","[[1,0,0],[2,3],[0]]","5","0","","","","","","6","","","","","","","","",""
"","","","","","single-stim-button","100","261850","0.0-2.0-25.2-0.2","5ee04c3aa397863948b8b1c9","C3","batch3","","533","tol_tohand","","","","tol_peg_2","533","533","0","[[0,0,0],[1,0],[3]]","3","[[1,0,0],[2,3],[0]]","5","0","","","","","","6","","","","","","","","",""
"","","","","","single-stim-button","101","262480","0.0-2.0-25.2-1.2","5ee04c3aa397863948b8b1c9","C3","batch3","","630","tol_toboard","","","","tol_peg_1","630","630","0","[[2,0,0],[1,0],[3]]","3","[[1,0,0],[2,3],[0]]","5","0","","","","","","6","","","","","","","","",""
"","","","","","single-stim-button","102","271029","0.0-2.0-25.3-0.3","5ee04c3aa397863948b8b1c9","C3","batch3","","8549","tol_tohand","","","","tol_peg_3","8549","8549","0","[[2,0,0],[1,0],[0]]","4","[[1,0,0],[2,3],[0]]","5","0","","","","","","6","","","","","","","","",""
"","","","","","single-stim-button","103","271809","0.0-2.0-25.3-1.3","5ee04c3aa397863948b8b1c9","C3","batch3","","780","tol_toboard","","","","tol_peg_1","780","780","0","[[2,3,0],[1,0],[0]]","4","[[1,0,0],[2,3],[0]]","5","0","","","","","","6","","","","","","","","",""
"","","","","","single-stim-button","104","272224","0.0-2.0-25.4-0.4","5ee04c3aa397863948b8b1c9","C3","batch3","","415","tol_tohand","","","","tol_peg_2","415","415","0","[[2,3,0],[0,0],[0]]","5","[[1,0,0],[2,3],[0]]","5","0","","","","","","6","","","","","","","","",""
"","","","","","single-stim-button","105","272604","0.0-2.0-25.4-1.4","5ee04c3aa397863948b8b1c9","C3","batch3","","380","tol_toboard","","","","tol_peg_3","380","380","0","[[2,3,0],[0,0],[1]]","5","[[1,0,0],[2,3],[0]]","5","0","","","","","","6","","","","","","","","",""
"","","","","","single-stim-button","106","275859","0.0-2.0-25.5-0.5","5ee04c3aa397863948b8b1c9","C3","batch3","","3255","tol_tohand","","","","tol_peg_1","3255","3255","0","[[2,0,0],[0,0],[1]]","6","[[1,0,0],[2,3],[0]]","5","0","","","","","","6","","","","","","","","",""
"","","","","","single-stim-button","107","276435","0.0-2.0-25.5-1.5","5ee04c3aa397863948b8b1c9","C3","batch3","","576","tol_toboard","","","","tol_peg_2","576","576","0","[[2,0,0],[3,0],[1]]","6","[[1,0,0],[2,3],[0]]","5","0","","","","","","6","","","","","","","","",""
"","","","","","single-stim-button","108","276932","0.0-2.0-25.6-0.6","5ee04c3aa397863948b8b1c9","C3","batch3","","497","tol_tohand","","","","tol_peg_1","497","497","0","[[0,0,0],[3,0],[1]]","7","[[1,0,0],[2,3],[0]]","5","0","","","","","","6","","","","","","","","",""
"","","","","","single-stim-button","109","278615","0.0-2.0-25.6-1.6","5ee04c3aa397863948b8b1c9","C3","batch3","","1683","tol_toboard","","","","tol_peg_2","1683","1683","0","[[0,0,0],[3,2],[1]]","7","[[1,0,0],[2,3],[0]]","5","0","","","","","","6","","","","","","","","",""
"","","","","","single-stim-button","110","279367","0.0-2.0-25.7-0.7","5ee04c3aa397863948b8b1c9","C3","batch3","","752","tol_tohand","","","","tol_peg_3","752","752","0","[[0,0,0],[3,2],[0]]","8","[[1,0,0],[2,3],[0]]","5","0","","","","","","6","","","","","","","","",""
"","","","","","single-stim-button","111","280085","0.0-2.0-25.7-1.7","5ee04c3aa397863948b8b1c9","C3","batch3","","718","tol_toboard","","","","tol_peg_1","718","718","0","[[1,0,0],[3,2],[0]]","8","[[1,0,0],[2,3],[0]]","5","0","","","","","","6","","","","","","","","",""
"","","","","","single-stim-button","112","280885","0.0-2.0-25.8-0.8","5ee04c3aa397863948b8b1c9","C3","batch3","","800","tol_tohand","","","","tol_peg_2","800","800","0","[[1,0,0],[3,0],[0]]","9","[[1,0,0],[2,3],[0]]","5","0","","","","","","6","","","","","","","","",""
"","","","","","single-stim-button","113","281921","0.0-2.0-25.8-1.8","5ee04c3aa397863948b8b1c9","C3","batch3","","1036","tol_toboard","","","","tol_peg_3","1036","1036","0","[[1,0,0],[3,0],[2]]","9","[[1,0,0],[2,3],[0]]","5","0","","","","","","6","","","","","","","","",""
"","","","","","single-stim-button","114","282706","0.0-2.0-25.9-0.9","5ee04c3aa397863948b8b1c9","C3","batch3","","785","tol_tohand","","","","tol_peg_2","785","785","0","[[1,0,0],[0,0],[2]]","10","[[1,0,0],[2,3],[0]]","5","0","","","","","","6","","","","","","","","",""
"","","","","","single-stim-button","115","283234","0.0-2.0-25.9-1.9","5ee04c3aa397863948b8b1c9","C3","batch3","","528","tol_toboard","","","","tol_peg_1","528","528","0","[[1,3,0],[0,0],[2]]","10","[[1,0,0],[2,3],[0]]","5","0","","","","","","6","","","","","","","","",""
"","","","","","single-stim-button","116","283989","0.0-2.0-25.10-0.10","5ee04c3aa397863948b8b1c9","C3","batch3","","755","tol_tohand","","","","tol_peg_3","755","755","0","[[1,3,0],[0,0],[0]]","11","[[1,0,0],[2,3],[0]]","5","0","","","","","","6","","","","","","","","",""
"","","","","","single-stim-button","117","284446","0.0-2.0-25.10-1.10","5ee04c3aa397863948b8b1c9","C3","batch3","","457","tol_toboard","","","","tol_peg_2","457","457","0","[[1,3,0],[2,0],[0]]","11","[[1,0,0],[2,3],[0]]","5","0","","","","","","6","","","","","","","","",""
"","","","","","single-stim-button","118","284900","0.0-2.0-25.11-0.11","5ee04c3aa397863948b8b1c9","C3","batch3","","454","tol_tohand","","","","tol_peg_1","454","454","0","[[1,0,0],[2,0],[0]]","12","[[1,0,0],[2,3],[0]]","5","0","","","","","","6","","","","","","","","",""
"","","","","","single-stim-button","119","285515","0.0-2.0-25.11-1.11","5ee04c3aa397863948b8b1c9","C3","batch3","","615","tol_toboard","","","","tol_peg_2","615","615","0","[[1,0,0],[2,3],[0]]","12","[[1,0,0],[2,3],[0]]","5","0","","","","","","6","","","","","","","","",""
"","","","","","poldrack-single-stim","120","286523","0.0-2.0-26.0","5ee04c3aa397863948b8b1c9","C3","batch3","","-1","tol_feedback","","","true","","1000","1000","500","","","","","","-1","none","true","18403","38141","","","","","","","","","",""
"","","","","","html-button-response","121","287350","0.0-2.0-27.0","5ee04c3aa397863948b8b1c9","C3","batch3","","826","tol_trial_num","<div class = centerbox><p class = center-block-text>problem <strong>7</strong> out of 25 problems</p></div>","0","","","","","","","","","","","","","","","","","","","","","","","","",""
"","","","","","single-stim-button","122","299996","0.0-2.0-28.0-0.0","5ee04c3aa397863948b8b1c9","C3","batch3","","12645","tol_tohand","","","","tol_peg_1","12645","12645","0","[[2,0,0],[0,0],[3]]","1","[[1,2,0],[3,0],[0]]","6","0","","","","","","5","","","","","","","","",""
"","","","","","single-stim-button","123","304169","0.0-2.0-28.0-1.0","5ee04c3aa397863948b8b1c9","C3","batch3","","4172","tol_toboard","","","","tol_peg_2","4172","4172","0","[[2,0,0],[1,0],[3]]","1","[[1,2,0],[3,0],[0]]","6","0","","","","","","5","","","","","","","","",""
"","","","","","single-stim-button","124","311140","0.0-2.0-28.1-0.1","5ee04c3aa397863948b8b1c9","C3","batch3","","6971","tol_tohand","","","","tol_peg_1","6971","6971","0","[[0,0,0],[1,0],[3]]","2","[[1,2,0],[3,0],[0]]","6","0","","","","","","5","","","","","","","","",""
"","","","","","single-stim-button","125","311954","0.0-2.0-28.1-1.1","5ee04c3aa397863948b8b1c9","C3","batch3","","813","tol_toboard","","","","tol_peg_2","813","813","0","[[0,0,0],[1,2],[3]]","2","[[1,2,0],[3,0],[0]]","6","0","","","","","","5","","","","","","","","",""
"","","","","","single-stim-button","126","315778","0.0-2.0-28.2-0.2","5ee04c3aa397863948b8b1c9","C3","batch3","","3823","tol_tohand","","","","tol_peg_3","3823","3823","0","[[0,0,0],[1,2],[0]]","3","[[1,2,0],[3,0],[0]]","6","0","","","","","","5","","","","","","","","",""
"","","","","","single-stim-button","127","317277","0.0-2.0-28.2-1.2","5ee04c3aa397863948b8b1c9","C3","batch3","","1498","tol_toboard","","","","tol_peg_1","1498","1498","0","[[3,0,0],[1,2],[0]]","3","[[1,2,0],[3,0],[0]]","6","0","","","","","","5","","","","","","","","",""
"","","","","","single-stim-button","128","317796","0.0-2.0-28.3-0.3","5ee04c3aa397863948b8b1c9","C3","batch3","","518","tol_tohand","","","","tol_peg_2","518","518","0","[[3,0,0],[1,0],[0]]","4","[[1,2,0],[3,0],[0]]","6","0","","","","","","5","","","","","","","","",""
"","","","","","single-stim-button","129","318971","0.0-2.0-28.3-1.3","5ee04c3aa397863948b8b1c9","C3","batch3","","1174","tol_toboard","","","","tol_peg_3","1174","1174","0","[[3,0,0],[1,0],[2]]","4","[[1,2,0],[3,0],[0]]","6","0","","","","","","5","","","","","","","","",""
"","","","","","single-stim-button","130","320450","0.0-2.0-28.4-0.4","5ee04c3aa397863948b8b1c9","C3","batch3","","1478","tol_tohand","","","","tol_peg_3","1478","1478","0","[[3,0,0],[1,0],[0]]","5","[[1,2,0],[3,0],[0]]","6","0","","","","","","5","","","","","","","","",""
"","","","","","single-stim-button","131","321611","0.0-2.0-28.4-1.4","5ee04c3aa397863948b8b1c9","C3","batch3","","1161","tol_toboard","","","","tol_peg_2","1161","1161","0","[[3,0,0],[1,2],[0]]","5","[[1,2,0],[3,0],[0]]","6","0","","","","","","5","","","","","","","","",""
"","","","","","single-stim-button","132","322499","0.0-2.0-28.5-0.5","5ee04c3aa397863948b8b1c9","C3","batch3","","886","tol_tohand","","","","tol_peg_2","886","886","0","[[3,0,0],[1,0],[0]]","6","[[1,2,0],[3,0],[0]]","6","0","","","","","","5","","","","","","","","",""
"","","","","","single-stim-button","133","322899","0.0-2.0-28.5-1.5","5ee04c3aa397863948b8b1c9","C3","batch3","","400","tol_toboard","","","","tol_peg_1","400","400","0","[[3,2,0],[1,0],[0]]","6","[[1,2,0],[3,0],[0]]","6","0","","","","","","5","","","","","","","","",""
"","","","","","single-stim-button","134","323525","0.0-2.0-28.6-0.6","5ee04c3aa397863948b8b1c9","C3","batch3","","624","tol_tohand","","","","tol_peg_2","624","624","0","[[3,2,0],[0,0],[0]]","7","[[1,2,0],[3,0],[0]]","6","0","","","","","","5","","","","","","","","",""
"","","","","","single-stim-button","135","323986","0.0-2.0-28.6-1.6","5ee04c3aa397863948b8b1c9","C3","batch3","","461","tol_toboard","","","","tol_peg_3","461","461","0","[[3,2,0],[0,0],[1]]","7","[[1,2,0],[3,0],[0]]","6","0","","","","","","5","","","","","","","","",""
"","","","","","single-stim-button","136","325363","0.0-2.0-28.7-0.7","5ee04c3aa397863948b8b1c9","C3","batch3","","1377","tol_tohand","","","","tol_peg_1","1377","1377","0","[[3,0,0],[0,0],[1]]","8","[[1,2,0],[3,0],[0]]","6","0","","","","","","5","","","","","","","","",""
"","","","","","single-stim-button","137","326446","0.0-2.0-28.7-1.7","5ee04c3aa397863948b8b1c9","C3","batch3","","1082","tol_toboard","","","","tol_peg_2","1082","1082","0","[[3,0,0],[2,0],[1]]","8","[[1,2,0],[3,0],[0]]","6","0","","","","","","5","","","","","","","","",""
"","","","","","single-stim-button","138","327031","0.0-2.0-28.8-0.8","5ee04c3aa397863948b8b1c9","C3","batch3","","584","tol_tohand","","","","tol_peg_1","584","584","0","[[0,0,0],[2,0],[1]]","9","[[1,2,0],[3,0],[0]]","6","0","","","","","","5","","","","","","","","",""
"","","","","","single-stim-button","139","327562","0.0-2.0-28.8-1.8","5ee04c3aa397863948b8b1c9","C3","batch3","","530","tol_toboard","","","","tol_peg_2","530","530","0","[[0,0,0],[2,3],[1]]","9","[[1,2,0],[3,0],[0]]","6","0","","","","","","5","","","","","","","","",""
"","","","","","single-stim-button","140","328428","0.0-2.0-28.9-0.9","5ee04c3aa397863948b8b1c9","C3","batch3","","865","tol_tohand","","","","tol_peg_3","865","865","0","[[0,0,0],[2,3],[0]]","10","[[1,2,0],[3,0],[0]]","6","0","","","","","","5","","","","","","","","",""
"","","","","","single-stim-button","141","329516","0.0-2.0-28.9-1.9","5ee04c3aa397863948b8b1c9","C3","batch3","","1088","tol_toboard","","","","tol_peg_1","1088","1088","0","[[1,0,0],[2,3],[0]]","10","[[1,2,0],[3,0],[0]]","6","0","","","","","","5","","","","","","","","",""
"","","","","","single-stim-button","142","330247","0.0-2.0-28.10-0.10","5ee04c3aa397863948b8b1c9","C3","batch3","","730","tol_tohand","","","","tol_peg_2","730","730","0","[[1,0,0],[2,0],[0]]","11","[[1,2,0],[3,0],[0]]","6","0","","","","","","5","","","","","","","","",""
"","","","","","single-stim-button","143","330838","0.0-2.0-28.10-1.10","5ee04c3aa397863948b8b1c9","C3","batch3","","591","tol_toboard","","","","tol_peg_3","591","591","0","[[1,0,0],[2,0],[3]]","11","[[1,2,0],[3,0],[0]]","6","0","","","","","","5","","","","","","","","",""
"","","","","","single-stim-button","144","331362","0.0-2.0-28.11-0.11","5ee04c3aa397863948b8b1c9","C3","batch3","","523","tol_tohand","","","","tol_peg_2","523","523","0","[[1,0,0],[0,0],[3]]","12","[[1,2,0],[3,0],[0]]","6","0","","","","","","5","","","","","","","","",""
"","","","","","single-stim-button","145","331980","0.0-2.0-28.11-1.11","5ee04c3aa397863948b8b1c9","C3","batch3","","617","tol_toboard","","","","tol_peg_1","617","617","0","[[1,2,0],[0,0],[3]]","12","[[1,2,0],[3,0],[0]]","6","0","","","","","","5","","","","","","","","",""
"","","","","","single-stim-button","146","332663","0.0-2.0-28.12-0.12","5ee04c3aa397863948b8b1c9","C3","batch3","","683","tol_tohand","","","","tol_peg_3","683","683","0","[[1,2,0],[0,0],[0]]","13","[[1,2,0],[3,0],[0]]","6","0","","","","","","5","","","","","","","","",""
"","","","","","single-stim-button","147","333462","0.0-2.0-28.12-1.12","5ee04c3aa397863948b8b1c9","C3","batch3","","799","tol_toboard","","","","tol_peg_2","799","799","0","[[1,2,0],[3,0],[0]]","13","[[1,2,0],[3,0],[0]]","6","0","","","","","","5","","","","","","","","",""
"","","","","","poldrack-single-stim","148","334477","0.0-2.0-29.0","5ee04c3aa397863948b8b1c9","C3","batch3","","-1","tol_feedback","","","true","","1000","1000","500","","","","","","-1","none","true","12645","31707","","","","","","","","","",""
"","","","","","html-button-response","149","335464","0.0-2.0-30.0","5ee04c3aa397863948b8b1c9","C3","batch3","","987","tol_trial_num","<div class = centerbox><p class = center-block-text>problem <strong>8</strong> out of 25 problems</p></div>","0","","","","","","","","","","","","","","","","","","","","","","","","",""
"","","","","","single-stim-button","150","342103","0.0-2.0-31.0-0.0","5ee04c3aa397863948b8b1c9","C3","batch3","","6639","tol_tohand","","","","tol_peg_2","6639","6639","0","[[0,0,0],[2,0],[1]]","1","[[1,2,0],[3,0],[0]]","7","0","","","","","","4","","","","","","","","",""
"","","","","","single-stim-button","151","342645","0.0-2.0-31.0-1.0","5ee04c3aa397863948b8b1c9","C3","batch3","","541","tol_toboard","","","","tol_peg_1","541","541","0","[[3,0,0],[2,0],[1]]","1","[[1,2,0],[3,0],[0]]","7","0","","","","","","4","","","","","","","","",""
"","","","","","single-stim-button","152","346078","0.0-2.0-31.1-0.1","5ee04c3aa397863948b8b1c9","C3","batch3","","3433","tol_tohand","","","","tol_peg_2","3433","3433","0","[[3,0,0],[0,0],[1]]","2","[[1,2,0],[3,0],[0]]","7","0","","","","","","4","","","","","","","","",""
"","","","","","single-stim-button","153","353311","0.0-2.0-31.1-1.1","5ee04c3aa397863948b8b1c9","C3","batch3","","7233","tol_toboard","","","","tol_peg_1","7233","7233","0","[[3,2,0],[0,0],[1]]","2","[[1,2,0],[3,0],[0]]","7","0","","","","","","4","","","","","","","","",""
"","","","","","single-stim-button","154","354024","0.0-2.0-31.2-0.2","5ee04c3aa397863948b8b1c9","C3","batch3","","713","tol_tohand","","","","tol_peg_3","713","713","0","[[3,2,0],[0,0],[0]]","3","[[1,2,0],[3,0],[0]]","7","0","","","","","","4","","","","","","","","",""
"","","","","","single-stim-button","155","354368","0.0-2.0-31.2-1.2","5ee04c3aa397863948b8b1c9","C3","batch3","","344","tol_toboard","","","","tol_peg_2","344","344","0","[[3,2,0],[1,0],[0]]","3","[[1,2,0],[3,0],[0]]","7","0","","","","","","4","","","","","","","","",""
"","","","","","single-stim-button","156","355437","0.0-2.0-31.3-0.3","5ee04c3aa397863948b8b1c9","C3","batch3","","1069","tol_tohand","","","","tol_peg_1","1069","1069","0","[[3,0,0],[1,0],[0]]","4","[[1,2,0],[3,0],[0]]","7","0","","","","","","4","","","","","","","","",""
"","","","","","single-stim-button","157","357334","0.0-2.0-31.3-1.3","5ee04c3aa397863948b8b1c9","C3","batch3","","1897","tol_toboard","","","","tol_peg_3","1897","1897","0","[[3,0,0],[1,0],[2]]","4","[[1,2,0],[3,0],[0]]","7","0","","","","","","4","","","","","","","","",""
"","","","","","single-stim-button","158","359476","0.0-2.0-31.4-0.4","5ee04c3aa397863948b8b1c9","C3","batch3","","2142","tol_tohand","","","","tol_peg_3","2142","2142","0","[[3,0,0],[1,0],[0]]","5","[[1,2,0],[3,0],[0]]","7","0","","","","","","4","","","","","","","","",""
"","","","","","single-stim-button","159","360819","0.0-2.0-31.4-1.4","5ee04c3aa397863948b8b1c9","C3","batch3","","1343","tol_toboard","","","","tol_peg_2","1343","1343","0","[[3,0,0],[1,2],[0]]","5","[[1,2,0],[3,0],[0]]","7","0","","","","","","4","","","","","","","","",""
"","","","","","single-stim-button","160","361368","0.0-2.0-31.5-0.5","5ee04c3aa397863948b8b1c9","C3","batch3","","549","tol_tohand","","","","tol_peg_1","549","549","0","[[0,0,0],[1,2],[0]]","6","[[1,2,0],[3,0],[0]]","7","0","","","","","","4","","","","","","","","",""
"","","","","","single-stim-button","161","361924","0.0-2.0-31.5-1.5","5ee04c3aa397863948b8b1c9","C3","batch3","","556","tol_toboard","","","","tol_peg_3","556","556","0","[[0,0,0],[1,2],[3]]","6","[[1,2,0],[3,0],[0]]","7","0","","","","","","4","","","","","","","","",""
"","","","","","single-stim-button","162","362905","0.0-2.0-31.6-0.6","5ee04c3aa397863948b8b1c9","C3","batch3","","981","tol_tohand","","","","tol_peg_2","981","981","0","[[0,0,0],[1,0],[3]]","7","[[1,2,0],[3,0],[0]]","7","0","","","","","","4","","","","","","","","",""
"","","","","","single-stim-button","163","364328","0.0-2.0-31.6-1.6","5ee04c3aa397863948b8b1c9","C3","batch3","","1423","tol_toboard","","","","tol_peg_2","1423","1423","0","[[0,0,0],[1,2],[3]]","7","[[1,2,0],[3,0],[0]]","7","0","","","","","","4","","","","","","","","",""
"","","","","","single-stim-button","164","370032","0.0-2.0-31.7-0.7","5ee04c3aa397863948b8b1c9","C3","batch3","","5704","tol_tohand","","","","tol_peg_2","5704","5704","0","[[0,0,0],[1,0],[3]]","8","[[1,2,0],[3,0],[0]]","7","0","","","","","","4","","","","","","","","",""
"","","","","","single-stim-button","165","371676","0.0-2.0-31.7-1.7","5ee04c3aa397863948b8b1c9","C3","batch3","","1644","tol_toboard","","","","tol_peg_1","1644","1644","0","[[2,0,0],[1,0],[3]]","8","[[1,2,0],[3,0],[0]]","7","0","","","","","","4","","","","","","","","",""
"","","","","","single-stim-button","166","372357","0.0-2.0-31.8-0.8","5ee04c3aa397863948b8b1c9","C3","batch3","","681","tol_tohand","","","","tol_peg_3","681","681","0","[[2,0,0],[1,0],[0]]","9","[[1,2,0],[3,0],[0]]","7","0","","","","","","4","","","","","","","","",""
"","","","","","single-stim-button","167","373010","0.0-2.0-31.8-1.8","5ee04c3aa397863948b8b1c9","C3","batch3","","653","tol_toboard","","","","tol_peg_1","653","653","0","[[2,3,0],[1,0],[0]]","9","[[1,2,0],[3,0],[0]]","7","0","","","","","","4","","","","","","","","",""
"","","","","","single-stim-button","168","373573","0.0-2.0-31.9-0.9","5ee04c3aa397863948b8b1c9","C3","batch3","","563","tol_tohand","","","","tol_peg_2","563","563","0","[[2,3,0],[0,0],[0]]","10","[[1,2,0],[3,0],[0]]","7","0","","","","","","4","","","","","","","","",""
"","","","","","single-stim-button","169","374180","0.0-2.0-31.9-1.9","5ee04c3aa397863948b8b1c9","C3","batch3","","607","tol_toboard","","","","tol_peg_3","607","607","0","[[2,3,0],[0,0],[1]]","10","[[1,2,0],[3,0],[0]]","7","0","","","","","","4","","","","","","","","",""
"","","","","","single-stim-button","170","374983","0.0-2.0-31.10-0.10","5ee04c3aa397863948b8b1c9","C3","batch3","","803","tol_tohand","","","","tol_peg_1","803","803","0","[[2,0,0],[0,0],[1]]","11","[[1,2,0],[3,0],[0]]","7","0","","","","","","4","","","","","","","","",""
"","","","","","single-stim-button","171","375967","0.0-2.0-31.10-1.10","5ee04c3aa397863948b8b1c9","C3","batch3","","984","tol_toboard","","","","tol_peg_2","984","984","0","[[2,0,0],[3,0],[1]]","11","[[1,2,0],[3,0],[0]]","7","0","","","","","","4","","","","","","","","",""
"","","","","","single-stim-button","172","376500","0.0-2.0-31.11-0.11","5ee04c3aa397863948b8b1c9","C3","batch3","","532","tol_tohand","","","","tol_peg_1","532","532","0","[[0,0,0],[3,0],[1]]","12","[[1,2,0],[3,0],[0]]","7","0","","","","","","4","","","","","","","","",""
"","","","","","single-stim-button","173","376954","0.0-2.0-31.11-1.11","5ee04c3aa397863948b8b1c9","C3","batch3","","454","tol_toboard","","","","tol_peg_2","454","454","0","[[0,0,0],[3,2],[1]]","12","[[1,2,0],[3,0],[0]]","7","0","","","","","","4","","","","","","","","",""
"","","","","","single-stim-button","174","377470","0.0-2.0-31.12-0.12","5ee04c3aa397863948b8b1c9","C3","batch3","","516","tol_tohand","","","","tol_peg_3","516","516","0","[[0,0,0],[3,2],[0]]","13","[[1,2,0],[3,0],[0]]","7","0","","","","","","4","","","","","","","","",""
"","","","","","single-stim-button","175","378254","0.0-2.0-31.12-1.12","5ee04c3aa397863948b8b1c9","C3","batch3","","784","tol_toboard","","","","tol_peg_1","784","784","0","[[1,0,0],[3,2],[0]]","13","[[1,2,0],[3,0],[0]]","7","0","","","","","","4","","","","","","","","",""
"","","","","","single-stim-button","176","379170","0.0-2.0-31.13-0.13","5ee04c3aa397863948b8b1c9","C3","batch3","","916","tol_tohand","","","","tol_peg_2","916","916","0","[[1,0,0],[3,0],[0]]","14","[[1,2,0],[3,0],[0]]","7","0","","","","","","4","","","","","","","","",""
"","","","","","single-stim-button","177","379664","0.0-2.0-31.13-1.13","5ee04c3aa397863948b8b1c9","C3","batch3","","493","tol_toboard","","","","tol_peg_1","493","493","0","[[1,2,0],[3,0],[0]]","14","[[1,2,0],[3,0],[0]]","7","0","","","","","","4","","","","","","","","",""
"","","","","","poldrack-single-stim","178","380665","0.0-2.0-32.0","5ee04c3aa397863948b8b1c9","C3","batch3","","-1","tol_feedback","","","true","","1000","1000","500","","","","","","-1","none","true","6639","25241","","","","","","","","","",""
"","","","","","html-button-response","179","385180","0.0-2.0-33.0","5ee04c3aa397863948b8b1c9","C3","batch3","","4514.799999999814","tol_trial_num","<div class = centerbox><p class = center-block-text>problem <strong>9</strong> out of 25 problems</p></div>","0","","","","","","","","","","","","","","","","","","","","","","","","",""
"","","","","","single-stim-button","180","393969","0.0-2.0-34.0-0.0","5ee04c3aa397863948b8b1c9","C3","batch3","","8789","tol_tohand","","","","tol_peg_3","8789","8789","0","[[3,2,0],[0,0],[0]]","1","[[2,1,0],[3,0],[0]]","8","0","","","","","","6","","","","","","","","",""
"","","","","","single-stim-button","181","394695","0.0-2.0-34.0-1.0","5ee04c3aa397863948b8b1c9","C3","batch3","","726","tol_toboard","","","","tol_peg_2","726","726","0","[[3,2,0],[1,0],[0]]","1","[[2,1,0],[3,0],[0]]","8","0","","","","","","6","","","","","","","","",""
"","","","","","single-stim-button","182","395921","0.0-2.0-34.1-0.1","5ee04c3aa397863948b8b1c9","C3","batch3","","1224","tol_tohand","","","","tol_peg_1","1224","1224","0","[[3,0,0],[1,0],[0]]","2","[[2,1,0],[3,0],[0]]","8","0","","","","","","6","","","","","","","","",""
"","","","","","single-stim-button","183","396836","0.0-2.0-34.1-1.1","5ee04c3aa397863948b8b1c9","C3","batch3","","914","tol_toboard","","","","tol_peg_3","914","914","0","[[3,0,0],[1,0],[2]]","2","[[2,1,0],[3,0],[0]]","8","0","","","","","","6","","","","","","","","",""
"","","","","","single-stim-button","184","397641","0.0-2.0-34.2-0.2","5ee04c3aa397863948b8b1c9","C3","batch3","","805","tol_tohand","","","","tol_peg_1","805","805","0","[[0,0,0],[1,0],[2]]","3","[[2,1,0],[3,0],[0]]","8","0","","","","","","6","","","","","","","","",""
"","","","","","single-stim-button","185","398634","0.0-2.0-34.2-1.2","5ee04c3aa397863948b8b1c9","C3","batch3","","992","tol_toboard","","","","tol_peg_2","992","992","0","[[0,0,0],[1,3],[2]]","3","[[2,1,0],[3,0],[0]]","8","0","","","","","","6","","","","","","","","",""
"","","","","","single-stim-button","186","399133","0.0-2.0-34.3-0.3","5ee04c3aa397863948b8b1c9","C3","batch3","","498","tol_tohand","","","","tol_peg_3","498","498","0","[[0,0,0],[1,3],[0]]","4","[[2,1,0],[3,0],[0]]","8","0","","","","","","6","","","","","","","","",""
"","","","","","single-stim-button","187","399810","0.0-2.0-34.3-1.3","5ee04c3aa397863948b8b1c9","C3","batch3","","677","tol_toboard","","","","tol_peg_1","677","677","0","[[2,0,0],[1,3],[0]]","4","[[2,1,0],[3,0],[0]]","8","0","","","","","","6","","","","","","","","",""
"","","","","","single-stim-button","188","402546","0.0-2.0-34.4-0.4","5ee04c3aa397863948b8b1c9","C3","batch3","","2735","tol_tohand","","","","tol_peg_2","2735","2735","0","[[2,0,0],[1,0],[0]]","5","[[2,1,0],[3,0],[0]]","8","0","","","","","","6","","","","","","","","",""
"","","","","","single-stim-button","189","403162","0.0-2.0-34.4-1.4","5ee04c3aa397863948b8b1c9","C3","batch3","","614","tol_toboard","","","","tol_peg_3","614","614","0","[[2,0,0],[1,0],[3]]","5","[[2,1,0],[3,0],[0]]","8","0","","","","","","6","","","","","","","","",""
"","","","","","single-stim-button","190","403832","0.0-2.0-34.5-0.5","5ee04c3aa397863948b8b1c9","C3","batch3","","670","tol_tohand","","","","tol_peg_2","670","670","0","[[2,0,0],[0,0],[3]]","6","[[2,1,0],[3,0],[0]]","8","0","","","","","","6","","","","","","","","",""
"","","","","","single-stim-button","191","404371","0.0-2.0-34.5-1.5","5ee04c3aa397863948b8b1c9","C3","batch3","","539","tol_toboard","","","","tol_peg_1","539","539","0","[[2,1,0],[0,0],[3]]","6","[[2,1,0],[3,0],[0]]","8","0","","","","","","6","","","","","","","","",""
"","","","","","single-stim-button","192","405956","0.0-2.0-34.6-0.6","5ee04c3aa397863948b8b1c9","C3","batch3","","1585","tol_tohand","","","","tol_peg_3","1585","1585","0","[[2,1,0],[0,0],[0]]","7","[[2,1,0],[3,0],[0]]","8","0","","","","","","6","","","","","","","","",""
"","","","","","single-stim-button","193","406288","0.0-2.0-34.6-1.6","5ee04c3aa397863948b8b1c9","C3","batch3","","331","tol_toboard","","","","tol_peg_2","331","331","0","[[2,1,0],[3,0],[0]]","7","[[2,1,0],[3,0],[0]]","8","0","","","","","","6","","","","","","","","",""
"","","","","","poldrack-single-stim","194","407290","0.0-2.0-35.0","5ee04c3aa397863948b8b1c9","C3","batch3","","-1","tol_feedback","","","true","","1000","1000","500","","","","","","-1","none","true","8789","16306","","","","","","","","","",""
"","","","","","html-button-response","195","408328","0.0-2.0-36.0","5ee04c3aa397863948b8b1c9","C3","batch3","","1037.8999999999069","tol_trial_num","<div class = centerbox><p class = center-block-text>problem <strong>10</strong> out of 25 problems</p></div>","0","","","","","","","","","","","","","","","","","","","","","","","","",""
"","","","","","single-stim-button","196","414902","0.0-2.0-37.0-0.0","5ee04c3aa397863948b8b1c9","C3","batch3","","6572","tol_tohand","","","","tol_peg_2","6572","6572","0","[[3,0,0],[0,0],[2]]","1","[[3,0,0],[2,1],[0]]","9","0","","","","","","3","","","","","","","","",""
"","","","","","single-stim-button","197","415751","0.0-2.0-37.0-1.0","5ee04c3aa397863948b8b1c9","C3","batch3","","848","tol_toboard","","","","tol_peg_1","848","848","0","[[3,1,0],[0,0],[2]]","1","[[3,0,0],[2,1],[0]]","9","0","","","","","","3","","","","","","","","",""
"","","","","","single-stim-button","198","416327","0.0-2.0-37.1-0.1","5ee04c3aa397863948b8b1c9","C3","batch3","","576","tol_tohand","","","","tol_peg_3","576","576","0","[[3,1,0],[0,0],[0]]","2","[[3,0,0],[2,1],[0]]","9","0","","","","","","3","","","","","","","","",""
"","","","","","single-stim-button","199","416779","0.0-2.0-37.1-1.1","5ee04c3aa397863948b8b1c9","C3","batch3","","451","tol_toboard","","","","tol_peg_2","451","451","0","[[3,1,0],[2,0],[0]]","2","[[3,0,0],[2,1],[0]]","9","0","","","","","","3","","","","","","","","",""
"","","","","","single-stim-button","200","417263","0.0-2.0-37.2-0.2","5ee04c3aa397863948b8b1c9","C3","batch3","","482","tol_tohand","","","","tol_peg_1","482","482","0","[[3,0,0],[2,0],[0]]","3","[[3,0,0],[2,1],[0]]","9","0","","","","","","3","","","","","","","","",""
"","","","","","single-stim-button","201","417793","0.0-2.0-37.2-1.2","5ee04c3aa397863948b8b1c9","C3","batch3","","530","tol_toboard","","","","tol_peg_2","530","530","0","[[3,0,0],[2,1],[0]]","3","[[3,0,0],[2,1],[0]]","9","0","","","","","","3","","","","","","","","",""
"","","","","","poldrack-single-stim","202","418808","0.0-2.0-38.0","5ee04c3aa397863948b8b1c9","C3","batch3","","-1","tol_feedback","","","true","","1000","1000","500","","","","","","-1","none","true","6572","7630","","","","","","","","","",""
"","","","","","html-button-response","203","420254","0.0-2.0-39.0","5ee04c3aa397863948b8b1c9","C3","batch3","","1445.6999999997206","tol_trial_num","<div class = centerbox><p class = center-block-text>problem <strong>11</strong> out of 25 problems</p></div>","0","","","","","","","","","","","","","","","","","","","","","","","","",""
"","","","","","single-stim-button","204","427509","0.0-2.0-40.0-0.0","5ee04c3aa397863948b8b1c9","C3","batch3","","7254","tol_tohand","","","","tol_peg_2","7254","7254","0","[[1,2,0],[0,0],[0]]","1","[[2,0,0],[1,3],[0]]","10","0","","","","","","6","","","","","","","","",""
"","","","","","single-stim-button","205","428297","0.0-2.0-40.0-1.0","5ee04c3aa397863948b8b1c9","C3","batch3","","787","tol_toboard","","","","tol_peg_3","787","787","0","[[1,2,0],[0,0],[3]]","1","[[2,0,0],[1,3],[0]]","10","0","","","","","","6","","","","","","","","",""
"","","","","","single-stim-button","206","429067","0.0-2.0-40.1-0.1","5ee04c3aa397863948b8b1c9","C3","batch3","","769","tol_tohand","","","","tol_peg_1","769","769","0","[[1,0,0],[0,0],[3]]","2","[[2,0,0],[1,3],[0]]","10","0","","","","","","6","","","","","","","","",""
"","","","","","single-stim-button","207","429617","0.0-2.0-40.1-1.1","5ee04c3aa397863948b8b1c9","C3","batch3","","550","tol_toboard","","","","tol_peg_2","550","550","0","[[1,0,0],[2,0],[3]]","2","[[2,0,0],[1,3],[0]]","10","0","","","","","","6","","","","","","","","",""
"","","","","","single-stim-button","208","430900","0.0-2.0-40.2-0.2","5ee04c3aa397863948b8b1c9","C3","batch3","","1282","tol_tohand","","","","tol_peg_1","1282","1282","0","[[0,0,0],[2,0],[3]]","3","[[2,0,0],[1,3],[0]]","10","0","","","","","","6","","","","","","","","",""
"","","","","","single-stim-button","209","432634","0.0-2.0-40.2-1.2","5ee04c3aa397863948b8b1c9","C3","batch3","","1733","tol_toboard","","","","tol_peg_2","1733","1733","0","[[0,0,0],[2,1],[3]]","3","[[2,0,0],[1,3],[0]]","10","0","","","","","","6","","","","","","","","",""
"","","","","","single-stim-button","210","434771","0.0-2.0-40.3-0.3","5ee04c3aa397863948b8b1c9","C3","batch3","","2136","tol_tohand","","","","tol_peg_2","2136","2136","0","[[0,0,0],[2,0],[3]]","4","[[2,0,0],[1,3],[0]]","10","0","","","","","","6","","","","","","","","",""
"","","","","","single-stim-button","211","435180","0.0-2.0-40.3-1.3","5ee04c3aa397863948b8b1c9","C3","batch3","","409","tol_toboard","","","","tol_peg_1","409","409","0","[[1,0,0],[2,0],[3]]","4","[[2,0,0],[1,3],[0]]","10","0","","","","","","6","","","","","","","","",""
"","","","","","single-stim-button","212","438291","0.0-2.0-40.4-0.4","5ee04c3aa397863948b8b1c9","C3","batch3","","3111","tol_tohand","","","","tol_peg_3","3111","3111","0","[[1,0,0],[2,0],[0]]","5","[[2,0,0],[1,3],[0]]","10","0","","","","","","6","","","","","","","","",""
"","","","","","single-stim-button","213","439387","0.0-2.0-40.4-1.4","5ee04c3aa397863948b8b1c9","C3","batch3","","1096","tol_toboard","","","","tol_peg_1","1096","1096","0","[[1,3,0],[2,0],[0]]","5","[[2,0,0],[1,3],[0]]","10","0","","","","","","6","","","","","","","","",""
"","","","","","single-stim-button","214","439843","0.0-2.0-40.5-0.5","5ee04c3aa397863948b8b1c9","C3","batch3","","456","tol_tohand","","","","tol_peg_2","456","456","0","[[1,3,0],[0,0],[0]]","6","[[2,0,0],[1,3],[0]]","10","0","","","","","","6","","","","","","","","",""
"","","","","","single-stim-button","215","440411","0.0-2.0-40.5-1.5","5ee04c3aa397863948b8b1c9","C3","batch3","","568","tol_toboard","","","","tol_peg_3","568","568","0","[[1,3,0],[0,0],[2]]","6","[[2,0,0],[1,3],[0]]","10","0","","","","","","6","","","","","","","","",""
"","","","","","single-stim-button","216","442613","0.0-2.0-40.6-0.6","5ee04c3aa397863948b8b1c9","C3","batch3","","2202","tol_tohand","","","","tol_peg_1","2202","2202","0","[[1,0,0],[0,0],[2]]","7","[[2,0,0],[1,3],[0]]","10","0","","","","","","6","","","","","","","","",""
"","","","","","single-stim-button","217","443150","0.0-2.0-40.6-1.6","5ee04c3aa397863948b8b1c9","C3","batch3","","537","tol_toboard","","","","tol_peg_2","537","537","0","[[1,0,0],[3,0],[2]]","7","[[2,0,0],[1,3],[0]]","10","0","","","","","","6","","","","","","","","",""
"","","","","","single-stim-button","218","443652","0.0-2.0-40.7-0.7","5ee04c3aa397863948b8b1c9","C3","batch3","","502","tol_tohand","","","","tol_peg_1","502","502","0","[[0,0,0],[3,0],[2]]","8","[[2,0,0],[1,3],[0]]","10","0","","","","","","6","","","","","","","","",""
"","","","","","single-stim-button","219","444238","0.0-2.0-40.7-1.7","5ee04c3aa397863948b8b1c9","C3","batch3","","586","tol_toboard","","","","tol_peg_2","586","586","0","[[0,0,0],[3,1],[2]]","8","[[2,0,0],[1,3],[0]]","10","0","","","","","","6","","","","","","","","",""
"","","","","","single-stim-button","220","444715","0.0-2.0-40.8-0.8","5ee04c3aa397863948b8b1c9","C3","batch3","","477","tol_tohand","","","","tol_peg_3","477","477","0","[[0,0,0],[3,1],[0]]","9","[[2,0,0],[1,3],[0]]","10","0","","","","","","6","","","","","","","","",""
"","","","","","single-stim-button","221","445391","0.0-2.0-40.8-1.8","5ee04c3aa397863948b8b1c9","C3","batch3","","676","tol_toboard","","","","tol_peg_1","676","676","0","[[2,0,0],[3,1],[0]]","9","[[2,0,0],[1,3],[0]]","10","0","","","","","","6","","","","","","","","",""
"","","","","","single-stim-button","222","446101","0.0-2.0-40.9-0.9","5ee04c3aa397863948b8b1c9","C3","batch3","","710","tol_tohand","","","","tol_peg_2","710","710","0","[[2,0,0],[3,0],[0]]","10","[[2,0,0],[1,3],[0]]","10","0","","","","","","6","","","","","","","","",""
"","","","","","single-stim-button","223","447536","0.0-2.0-40.9-1.9","5ee04c3aa397863948b8b1c9","C3","batch3","","1435","tol_toboard","","","","tol_peg_3","1435","1435","0","[[2,0,0],[3,0],[1]]","10","[[2,0,0],[1,3],[0]]","10","0","","","","","","6","","","","","","","","",""
"","","","","","single-stim-button","224","448447","0.0-2.0-40.10-0.10","5ee04c3aa397863948b8b1c9","C3","batch3","","911","tol_tohand","","","","tol_peg_2","911","911","0","[[2,0,0],[0,0],[1]]","11","[[2,0,0],[1,3],[0]]","10","0","","","","","","6","","","","","","","","",""
"","","","","","single-stim-button","225","449438","0.0-2.0-40.10-1.10","5ee04c3aa397863948b8b1c9","C3","batch3","","991","tol_toboard","","","","tol_peg_1","991","991","0","[[2,3,0],[0,0],[1]]","11","[[2,0,0],[1,3],[0]]","10","0","","","","","","6","","","","","","","","",""
"","","","","","single-stim-button","226","450001","0.0-2.0-40.11-0.11","5ee04c3aa397863948b8b1c9","C3","batch3","","563","tol_tohand","","","","tol_peg_3","563","563","0","[[2,3,0],[0,0],[0]]","12","[[2,0,0],[1,3],[0]]","10","0","","","","","","6","","","","","","","","",""
"","","","","","single-stim-button","227","450339","0.0-2.0-40.11-1.11","5ee04c3aa397863948b8b1c9","C3","batch3","","338","tol_toboard","","","","tol_peg_2","338","338","0","[[2,3,0],[1,0],[0]]","12","[[2,0,0],[1,3],[0]]","10","0","","","","","","6","","","","","","","","",""
"","","","","","single-stim-button","228","450992","0.0-2.0-40.12-0.12","5ee04c3aa397863948b8b1c9","C3","batch3","","653","tol_tohand","","","","tol_peg_1","653","653","0","[[2,0,0],[1,0],[0]]","13","[[2,0,0],[1,3],[0]]","10","0","","","","","","6","","","","","","","","",""
"","","","","","single-stim-button","229","451464","0.0-2.0-40.12-1.12","5ee04c3aa397863948b8b1c9","C3","batch3","","471","tol_toboard","","","","tol_peg_2","471","471","0","[[2,0,0],[1,3],[0]]","13","[[2,0,0],[1,3],[0]]","10","0","","","","","","6","","","","","","","","",""
"","","","","","poldrack-single-stim","230","452464","0.0-2.0-41.0","5ee04c3aa397863948b8b1c9","C3","batch3","","-1","tol_feedback","","","true","","1000","1000","500","","","","","","-1","none","true","7254","21026","","","","","","","","","",""
"","","","","","html-button-response","231","454346","0.0-2.0-42.0","5ee04c3aa397863948b8b1c9","C3","batch3","","1881.5","tol_trial_num","<div class = centerbox><p class = center-block-text>problem <strong>12</strong> out of 25 problems</p></div>","0","","","","","","","","","","","","","","","","","","","","","","","","",""
"","","","","","single-stim-button","232","471839","0.0-2.0-43.0-0.0","5ee04c3aa397863948b8b1c9","C3","batch3","","17493","tol_tohand","","","","tol_peg_1","17493","17493","0","[[1,0,0],[3,0],[0]]","1","[[2,3,0],[0,0],[1]]","11","0","","","","","","4","","","","","","","","",""
"","","","","","single-stim-button","233","472999","0.0-2.0-43.0-1.0","5ee04c3aa397863948b8b1c9","C3","batch3","","1160","tol_toboard","","","","tol_peg_3","1160","1160","0","[[1,0,0],[3,0],[2]]","1","[[2,3,0],[0,0],[1]]","11","0","","","","","","4","","","","","","","","",""
"","","","","","single-stim-button","234","473828","0.0-2.0-43.1-0.1","5ee04c3aa397863948b8b1c9","C3","batch3","","829","tol_tohand","","","","tol_peg_1","829","829","0","[[0,0,0],[3,0],[2]]","2","[[2,3,0],[0,0],[1]]","11","0","","","","","","4","","","","","","","","",""
"","","","","","single-stim-button","235","474824","0.0-2.0-43.1-1.1","5ee04c3aa397863948b8b1c9","C3","batch3","","996","tol_toboard","","","","tol_peg_2","996","996","0","[[0,0,0],[3,1],[2]]","2","[[2,3,0],[0,0],[1]]","11","0","","","","","","4","","","","","","","","",""
"","","","","","single-stim-button","236","475503","0.0-2.0-43.2-0.2","5ee04c3aa397863948b8b1c9","C3","batch3","","679","tol_tohand","","","","tol_peg_3","679","679","0","[[0,0,0],[3,1],[0]]","3","[[2,3,0],[0,0],[1]]","11","0","","","","","","4","","","","","","","","",""
"","","","","","single-stim-button","237","476256","0.0-2.0-43.2-1.2","5ee04c3aa397863948b8b1c9","C3","batch3","","753","tol_toboard","","","","tol_peg_1","753","753","0","[[2,0,0],[3,1],[0]]","3","[[2,3,0],[0,0],[1]]","11","0","","","","","","4","","","","","","","","",""
"","","","","","single-stim-button","238","476884","0.0-2.0-43.3-0.3","5ee04c3aa397863948b8b1c9","C3","batch3","","628","tol_tohand","","","","tol_peg_2","628","628","0","[[2,0,0],[3,0],[0]]","4","[[2,3,0],[0,0],[1]]","11","0","","","","","","4","","","","","","","","",""
"","","","","","single-stim-button","239","477456","0.0-2.0-43.3-1.3","5ee04c3aa397863948b8b1c9","C3","batch3","","572","tol_toboard","","","","tol_peg_3","572","572","0","[[2,0,0],[3,0],[1]]","4","[[2,3,0],[0,0],[1]]","11","0","","","","","","4","","","","","","","","",""
"","","","","","single-stim-button","240","478546","0.0-2.0-43.4-0.4","5ee04c3aa397863948b8b1c9","C3","batch3","","1090","tol_tohand","","","","tol_peg_2","1090","1090","0","[[2,0,0],[0,0],[1]]","5","[[2,3,0],[0,0],[1]]","11","0","","","","","","4","","","","","","","","",""
"","","","","","single-stim-button","241","479175","0.0-2.0-43.4-1.4","5ee04c3aa397863948b8b1c9","C3","batch3","","629","tol_toboard","","","","tol_peg_1","629","629","0","[[2,3,0],[0,0],[1]]","5","[[2,3,0],[0,0],[1]]","11","0","","","","","","4","","","","","","","","",""
"","","","","","poldrack-single-stim","242","480177","0.0-2.0-44.0","5ee04c3aa397863948b8b1c9","C3","batch3","","-1","tol_feedback","","","true","","1000","1000","500","","","","","","-1","none","true","17493","20719","","","","","","","","","",""
"","","","","","html-button-response","243","481170","0.0-2.0-45.0","5ee04c3aa397863948b8b1c9","C3","batch3","","992.3999999999069","tol_trial_num","<div class = centerbox><p class = center-block-text>problem <strong>13</strong> out of 25 problems</p></div>","0","","","","","","","","","","","","","","","","","","","","","","","","",""
"","","","","","single-stim-button","244","484569","0.0-2.0-46.0-0.0","5ee04c3aa397863948b8b1c9","C3","batch3","","3399","tol_tohand","","","","tol_peg_1","3399","3399","0","[[1,0,0],[3,0],[0]]","1","[[0,0,0],[2,3],[1]]","12","0","","","","","","4","","","","","","","","",""
"","","","","","single-stim-button","245","488616","0.0-2.0-46.0-1.0","5ee04c3aa397863948b8b1c9","C3","batch3","","4047","tol_toboard","","","","tol_peg_2","4047","4047","0","[[1,0,0],[3,2],[0]]","1","[[0,0,0],[2,3],[1]]","12","0","","","","","","4","","","","","","","","",""
"","","","","","single-stim-button","246","489204","0.0-2.0-46.1-0.1","5ee04c3aa397863948b8b1c9","C3","batch3","","588","tol_tohand","","","","tol_peg_1","588","588","0","[[0,0,0],[3,2],[0]]","2","[[0,0,0],[2,3],[1]]","12","0","","","","","","4","","","","","","","","",""
"","","","","","single-stim-button","247","489949","0.0-2.0-46.1-1.1","5ee04c3aa397863948b8b1c9","C3","batch3","","745","tol_toboard","","","","tol_peg_3","745","745","0","[[0,0,0],[3,2],[1]]","2","[[0,0,0],[2,3],[1]]","12","0","","","","","","4","","","","","","","","",""
"","","","","","single-stim-button","248","494912","0.0-2.0-46.2-0.2","5ee04c3aa397863948b8b1c9","C3","batch3","","4963","tol_tohand","","","","tol_peg_2","4963","4963","0","[[0,0,0],[3,0],[1]]","3","[[0,0,0],[2,3],[1]]","12","0","","","","","","4","","","","","","","","",""
"","","","","","single-stim-button","249","495679","0.0-2.0-46.2-1.2","5ee04c3aa397863948b8b1c9","C3","batch3","","767","tol_toboard","","","","tol_peg_1","767","767","0","[[2,0,0],[3,0],[1]]","3","[[0,0,0],[2,3],[1]]","12","0","","","","","","4","","","","","","","","",""
"","","","","","single-stim-button","250","496361","0.0-2.0-46.3-0.3","5ee04c3aa397863948b8b1c9","C3","batch3","","681","tol_tohand","","","","tol_peg_2","681","681","0","[[2,0,0],[0,0],[1]]","4","[[0,0,0],[2,3],[1]]","12","0","","","","","","4","","","","","","","","",""
"","","","","","single-stim-button","251","498037","0.0-2.0-46.3-1.3","5ee04c3aa397863948b8b1c9","C3","batch3","","1676","tol_toboard","","","","tol_peg_2","1676","1676","0","[[2,0,0],[3,0],[1]]","4","[[0,0,0],[2,3],[1]]","12","0","","","","","","4","","","","","","","","",""
"","","","","","single-stim-button","252","499473","0.0-2.0-46.4-0.4","5ee04c3aa397863948b8b1c9","C3","batch3","","1435","tol_tohand","","","","tol_peg_3","1435","1435","0","[[2,0,0],[3,0],[0]]","5","[[0,0,0],[2,3],[1]]","12","0","","","","","","4","","","","","","","","",""
"","","","","","single-stim-button","253","501077","0.0-2.0-46.4-1.4","5ee04c3aa397863948b8b1c9","C3","batch3","","1604","tol_toboard","","","","tol_peg_2","1604","1604","0","[[2,0,0],[3,1],[0]]","5","[[0,0,0],[2,3],[1]]","12","0","","","","","","4","","","","","","","","",""
"","","","","","single-stim-button","254","501656","0.0-2.0-46.5-0.5","5ee04c3aa397863948b8b1c9","C3","batch3","","578","tol_tohand","","","","tol_peg_1","578","578","0","[[0,0,0],[3,1],[0]]","6","[[0,0,0],[2,3],[1]]","12","0","","","","","","4","","","","","","","","",""
"","","","","","single-stim-button","255","503198","0.0-2.0-46.5-1.5","5ee04c3aa397863948b8b1c9","C3","batch3","","1541","tol_toboard","","","","tol_peg_3","1541","1541","0","[[0,0,0],[3,1],[2]]","6","[[0,0,0],[2,3],[1]]","12","0","","","","","","4","","","","","","","","",""
"","","","","","single-stim-button","256","504432","0.0-2.0-46.6-0.6","5ee04c3aa397863948b8b1c9","C3","batch3","","1233","tol_tohand","","","","tol_peg_2","1233","1233","0","[[0,0,0],[3,0],[2]]","7","[[0,0,0],[2,3],[1]]","12","0","","","","","","4","","","","","","","","",""
"","","","","","single-stim-button","257","505099","0.0-2.0-46.6-1.6","5ee04c3aa397863948b8b1c9","C3","batch3","","666","tol_toboard","","","","tol_peg_1","666","666","0","[[1,0,0],[3,0],[2]]","7","[[0,0,0],[2,3],[1]]","12","0","","","","","","4","","","","","","","","",""
"","","","","","single-stim-button","258","505622","0.0-2.0-46.7-0.7","5ee04c3aa397863948b8b1c9","C3","batch3","","523","tol_tohand","","","","tol_peg_2","523","523","0","[[1,0,0],[0,0],[2]]","8","[[0,0,0],[2,3],[1]]","12","0","","","","","","4","","","","","","","","",""
"","","","","","single-stim-button","259","506434","0.0-2.0-46.7-1.7","5ee04c3aa397863948b8b1c9","C3","batch3","","811","tol_toboard","","","","tol_peg_1","811","811","0","[[1,3,0],[0,0],[2]]","8","[[0,0,0],[2,3],[1]]","12","0","","","","","","4","","","","","","","","",""
"","","","","","single-stim-button","260","506987","0.0-2.0-46.8-0.8","5ee04c3aa397863948b8b1c9","C3","batch3","","552","tol_tohand","","","","tol_peg_3","552","552","0","[[1,3,0],[0,0],[0]]","9","[[0,0,0],[2,3],[1]]","12","0","","","","","","4","","","","","","","","",""
"","","","","","single-stim-button","261","507666","0.0-2.0-46.8-1.8","5ee04c3aa397863948b8b1c9","C3","batch3","","678","tol_toboard","","","","tol_peg_2","678","678","0","[[1,3,0],[2,0],[0]]","9","[[0,0,0],[2,3],[1]]","12","0","","","","","","4","","","","","","","","",""
"","","","","","single-stim-button","262","508173","0.0-2.0-46.9-0.9","5ee04c3aa397863948b8b1c9","C3","batch3","","506","tol_tohand","","","","tol_peg_1","506","506","0","[[1,0,0],[2,0],[0]]","10","[[0,0,0],[2,3],[1]]","12","0","","","","","","4","","","","","","","","",""
"","","","","","single-stim-button","263","508895","0.0-2.0-46.9-1.9","5ee04c3aa397863948b8b1c9","C3","batch3","","721","tol_toboard","","","","tol_peg_2","721","721","0","[[1,0,0],[2,3],[0]]","10","[[0,0,0],[2,3],[1]]","12","0","","","","","","4","","","","","","","","",""
"","","","","","single-stim-button","264","509395","0.0-2.0-46.10-0.10","5ee04c3aa397863948b8b1c9","C3","batch3","","499","tol_tohand","","","","tol_peg_1","499","499","0","[[0,0,0],[2,3],[0]]","11","[[0,0,0],[2,3],[1]]","12","0","","","","","","4","","","","","","","","",""
"","","","","","single-stim-button","265","509929","0.0-2.0-46.10-1.10","5ee04c3aa397863948b8b1c9","C3","batch3","","534","tol_toboard","","","","tol_peg_3","534","534","0","[[0,0,0],[2,3],[1]]","11","[[0,0,0],[2,3],[1]]","12","0","","","","","","4","","","","","","","","",""
"","","","","","poldrack-single-stim","266","510932","0.0-2.0-47.0","5ee04c3aa397863948b8b1c9","C3","batch3","","-1","tol_feedback","","","true","","1000","1000","500","","","","","","-1","none","true","3399","14957","","","","","","","","","",""
"","","","","","html-button-response","267","515166","0.0-2.0-48.0","5ee04c3aa397863948b8b1c9","C3","batch3","","4233.5","attention_check","<p class = block-text>How many balls are in your board<br></p>","1","true","","","","","","","","","","","","","","","","","","","","","","","",""
"","","","","","html-button-response","268","516028","0.0-2.0-49.0","5ee04c3aa397863948b8b1c9","C3","batch3","","861.8999999999069","tol_trial_num","<div class = centerbox><p class = center-block-text>problem <strong>14</strong> out of 25 problems</p></div>","0","","","","","","","","","","","","","","","","","","","","","","","","",""
"","","","","","single-stim-button","269","537630","0.0-2.0-50.0-0.0","5ee04c3aa397863948b8b1c9","C3","batch3","","21602","tol_tohand","","","","tol_peg_1","21602","21602","0","[[2,0,0],[3,0],[0]]","1","[[1,2,0],[3,0],[0]]","13","0","","","","","","4","","","","","","","","",""
"","","","","","single-stim-button","270","540084","0.0-2.0-50.0-1.0","5ee04c3aa397863948b8b1c9","C3","batch3","","2453","tol_toboard","","","","tol_peg_3","2453","2453","0","[[2,0,0],[3,0],[1]]","1","[[1,2,0],[3,0],[0]]","13","0","","","","","","4","","","","","","","","",""
"","","","","","single-stim-button","271","540650","0.0-2.0-50.1-0.1","5ee04c3aa397863948b8b1c9","C3","batch3","","566","tol_tohand","","","","tol_peg_1","566","566","0","[[0,0,0],[3,0],[1]]","2","[[1,2,0],[3,0],[0]]","13","0","","","","","","4","","","","","","","","",""
"","","","","","single-stim-button","272","541078","0.0-2.0-50.1-1.1","5ee04c3aa397863948b8b1c9","C3","batch3","","428","tol_toboard","","","","tol_peg_2","428","428","0","[[0,0,0],[3,2],[1]]","2","[[1,2,0],[3,0],[0]]","13","0","","","","","","4","","","","","","","","",""
"","","","","","single-stim-button","273","541749","0.0-2.0-50.2-0.2","5ee04c3aa397863948b8b1c9","C3","batch3","","670","tol_tohand","","","","tol_peg_3","670","670","0","[[0,0,0],[3,2],[0]]","3","[[1,2,0],[3,0],[0]]","13","0","","","","","","4","","","","","","","","",""
"","","","","","single-stim-button","274","542295","0.0-2.0-50.2-1.2","5ee04c3aa397863948b8b1c9","C3","batch3","","546","tol_toboard","","","","tol_peg_1","546","546","0","[[1,0,0],[3,2],[0]]","3","[[1,2,0],[3,0],[0]]","13","0","","","","","","4","","","","","","","","",""
"","","","","","single-stim-button","275","542742","0.0-2.0-50.3-0.3","5ee04c3aa397863948b8b1c9","C3","batch3","","447","tol_tohand","","","","tol_peg_2","447","447","0","[[1,0,0],[3,0],[0]]","4","[[1,2,0],[3,0],[0]]","13","0","","","","","","4","","","","","","","","",""
"","","","","","single-stim-button","276","543227","0.0-2.0-50.3-1.3","5ee04c3aa397863948b8b1c9","C3","batch3","","484","tol_toboard","","","","tol_peg_1","484","484","0","[[1,2,0],[3,0],[0]]","4","[[1,2,0],[3,0],[0]]","13","0","","","","","","4","","","","","","","","",""
"","","","","","poldrack-single-stim","277","544230","0.0-2.0-51.0","5ee04c3aa397863948b8b1c9","C3","batch3","","-1","tol_feedback","","","true","","1000","1000","500","","","","","","-1","none","true","21602","23285","","","","","","","","","",""
"","","","","","html-button-response","278","545143","0.0-2.0-52.0","5ee04c3aa397863948b8b1c9","C3","batch3","","912.5","tol_trial_num","<div class = centerbox><p class = center-block-text>problem <strong>15</strong> out of 25 problems</p></div>","0","","","","","","","","","","","","","","","","","","","","","","","","",""
"","","","","","single-stim-button","279","548964","0.0-2.0-53.0-0.0","5ee04c3aa397863948b8b1c9","C3","batch3","","3821","tol_tohand","","","","tol_peg_1","3821","3821","0","[[1,0,0],[3,0],[0]]","1","[[2,0,0],[3,0],[1]]","14","0","","","","","","3","","","","","","","","",""
"","","","","","single-stim-button","280","549466","0.0-2.0-53.0-1.0","5ee04c3aa397863948b8b1c9","C3","batch3","","502","tol_toboard","","","","tol_peg_2","502","502","0","[[1,0,0],[3,2],[0]]","1","[[2,0,0],[3,0],[1]]","14","0","","","","","","3","","","","","","","","",""
"","","","","","single-stim-button","281","550095","0.0-2.0-53.1-0.1","5ee04c3aa397863948b8b1c9","C3","batch3","","629","tol_tohand","","","","tol_peg_1","629","629","0","[[0,0,0],[3,2],[0]]","2","[[2,0,0],[3,0],[1]]","14","0","","","","","","3","","","","","","","","",""
"","","","","","single-stim-button","282","550775","0.0-2.0-53.1-1.1","5ee04c3aa397863948b8b1c9","C3","batch3","","680","tol_toboard","","","","tol_peg_3","680","680","0","[[0,0,0],[3,2],[1]]","2","[[2,0,0],[3,0],[1]]","14","0","","","","","","3","","","","","","","","",""
"","","","","","single-stim-button","283","551213","0.0-2.0-53.2-0.2","5ee04c3aa397863948b8b1c9","C3","batch3","","438","tol_tohand","","","","tol_peg_2","438","438","0","[[0,0,0],[3,0],[1]]","3","[[2,0,0],[3,0],[1]]","14","0","","","","","","3","","","","","","","","",""
"","","","","","single-stim-button","284","551939","0.0-2.0-53.2-1.2","5ee04c3aa397863948b8b1c9","C3","batch3","","726","tol_toboard","","","","tol_peg_1","726","726","0","[[2,0,0],[3,0],[1]]","3","[[2,0,0],[3,0],[1]]","14","0","","","","","","3","","","","","","","","",""
"","","","","","poldrack-single-stim","285","552942","0.0-2.0-54.0","5ee04c3aa397863948b8b1c9","C3","batch3","","-1","tol_feedback","","","true","","1000","1000","500","","","","","","-1","none","true","3821","4888","","","","","","","","","",""
"","","","","","html-button-response","286","553831","0.0-2.0-55.0","5ee04c3aa397863948b8b1c9","C3","batch3","","888.6000000000931","tol_trial_num","<div class = centerbox><p class = center-block-text>problem <strong>16</strong> out of 25 problems</p></div>","0","","","","","","","","","","","","","","","","","","","","","","","","",""
"","","","","","single-stim-button","287","563503","0.0-2.0-56.0-0.0","5ee04c3aa397863948b8b1c9","C3","batch3","","9671","tol_tohand","","","","tol_peg_3","9671","9671","0","[[0,0,0],[2,3],[0]]","1","[[2,3,0],[1,0],[0]]","15","0","","","","","","7","","","","","","","","",""
"","","","","","single-stim-button","288","564460","0.0-2.0-56.0-1.0","5ee04c3aa397863948b8b1c9","C3","batch3","","957","tol_toboard","","","","tol_peg_1","957","957","0","[[1,0,0],[2,3],[0]]","1","[[2,3,0],[1,0],[0]]","15","0","","","","","","7","","","","","","","","",""
"","","","","","single-stim-button","289","564906","0.0-2.0-56.1-0.1","5ee04c3aa397863948b8b1c9","C3","batch3","","446","tol_tohand","","","","tol_peg_2","446","446","0","[[1,0,0],[2,0],[0]]","2","[[2,3,0],[1,0],[0]]","15","0","","","","","","7","","","","","","","","",""
"","","","","","single-stim-button","290","565581","0.0-2.0-56.1-1.1","5ee04c3aa397863948b8b1c9","C3","batch3","","675","tol_toboard","","","","tol_peg_3","675","675","0","[[1,0,0],[2,0],[3]]","2","[[2,3,0],[1,0],[0]]","15","0","","","","","","7","","","","","","","","",""
"","","","","","single-stim-button","291","570470","0.0-2.0-56.2-0.2","5ee04c3aa397863948b8b1c9","C3","batch3","","4889","tol_tohand","","","","tol_peg_2","4889","4889","0","[[1,0,0],[0,0],[3]]","3","[[2,3,0],[1,0],[0]]","15","0","","","","","","7","","","","","","","","",""
"","","","","","single-stim-button","292","571094","0.0-2.0-56.2-1.2","5ee04c3aa397863948b8b1c9","C3","batch3","","624","tol_toboard","","","","tol_peg_1","624","624","0","[[1,2,0],[0,0],[3]]","3","[[2,3,0],[1,0],[0]]","15","0","","","","","","7","","","","","","","","",""
"","","","","","single-stim-button","293","571513","0.0-2.0-56.3-0.3","5ee04c3aa397863948b8b1c9","C3","batch3","","419","tol_tohand","","","","tol_peg_1","419","419","0","[[1,0,0],[0,0],[3]]","4","[[2,3,0],[1,0],[0]]","15","0","","","","","","7","","","","","","","","",""
"","","","","","single-stim-button","294","572578","0.0-2.0-56.3-1.3","5ee04c3aa397863948b8b1c9","C3","batch3","","1065","tol_toboard","","","","tol_peg_1","1065","1065","0","[[1,2,0],[0,0],[3]]","4","[[2,3,0],[1,0],[0]]","15","0","","","","","","7","","","","","","","","",""
"","","","","","single-stim-button","295","573241","0.0-2.0-56.4-0.4","5ee04c3aa397863948b8b1c9","C3","batch3","","663","tol_tohand","","","","tol_peg_1","663","663","0","[[1,0,0],[0,0],[3]]","5","[[2,3,0],[1,0],[0]]","15","0","","","","","","7","","","","","","","","",""
"","","","","","single-stim-button","296","573655","0.0-2.0-56.4-1.4","5ee04c3aa397863948b8b1c9","C3","batch3","","414","tol_toboard","","","","tol_peg_2","414","414","0","[[1,0,0],[2,0],[3]]","5","[[2,3,0],[1,0],[0]]","15","0","","","","","","7","","","","","","","","",""
"","","","","","single-stim-button","297","574178","0.0-2.0-56.5-0.5","5ee04c3aa397863948b8b1c9","C3","batch3","","523","tol_tohand","","","","tol_peg_1","523","523","0","[[0,0,0],[2,0],[3]]","6","[[2,3,0],[1,0],[0]]","15","0","","","","","","7","","","","","","","","",""
"","","","","","single-stim-button","298","574724","0.0-2.0-56.5-1.5","5ee04c3aa397863948b8b1c9","C3","batch3","","546","tol_toboard","","","","tol_peg_2","546","546","0","[[0,0,0],[2,1],[3]]","6","[[2,3,0],[1,0],[0]]","15","0","","","","","","7","","","","","","","","",""
"","","","","","single-stim-button","299","575771","0.0-2.0-56.6-0.6","5ee04c3aa397863948b8b1c9","C3","batch3","","1047","tol_tohand","","","","tol_peg_3","1047","1047","0","[[0,0,0],[2,1],[0]]","7","[[2,3,0],[1,0],[0]]","15","0","","","","","","7","","","","","","","","",""
"","","","","","single-stim-button","300","578556","0.0-2.0-56.6-1.6","5ee04c3aa397863948b8b1c9","C3","batch3","","2785","tol_toboard","","","","tol_peg_1","2785","2785","0","[[3,0,0],[2,1],[0]]","7","[[2,3,0],[1,0],[0]]","15","0","","","","","","7","","","","","","","","",""
"","","","","","single-stim-button","301","579123","0.0-2.0-56.7-0.7","5ee04c3aa397863948b8b1c9","C3","batch3","","567","tol_tohand","","","","tol_peg_2","567","567","0","[[3,0,0],[2,0],[0]]","8","[[2,3,0],[1,0],[0]]","15","0","","","","","","7","","","","","","","","",""
"","","","","","single-stim-button","302","579728","0.0-2.0-56.7-1.7","5ee04c3aa397863948b8b1c9","C3","batch3","","605","tol_toboard","","","","tol_peg_3","605","605","0","[[3,0,0],[2,0],[1]]","8","[[2,3,0],[1,0],[0]]","15","0","","","","","","7","","","","","","","","",""
"","","","","","single-stim-button","303","581913","0.0-2.0-56.8-0.8","5ee04c3aa397863948b8b1c9","C3","batch3","","2185","tol_tohand","","","","tol_peg_2","2185","2185","0","[[3,0,0],[0,0],[1]]","9","[[2,3,0],[1,0],[0]]","15","0","","","","","","7","","","","","","","","",""
"","","","","","single-stim-button","304","582358","0.0-2.0-56.8-1.8","5ee04c3aa397863948b8b1c9","C3","batch3","","445","tol_toboard","","","","tol_peg_1","445","445","0","[[3,2,0],[0,0],[1]]","9","[[2,3,0],[1,0],[0]]","15","0","","","","","","7","","","","","","","","",""
"","","","","","single-stim-button","305","584175","0.0-2.0-56.9-0.9","5ee04c3aa397863948b8b1c9","C3","batch3","","1817","tol_tohand","","","","tol_peg_3","1817","1817","0","[[3,2,0],[0,0],[0]]","10","[[2,3,0],[1,0],[0]]","15","0","","","","","","7","","","","","","","","",""
"","","","","","single-stim-button","306","584668","0.0-2.0-56.9-1.9","5ee04c3aa397863948b8b1c9","C3","batch3","","493","tol_toboard","","","","tol_peg_2","493","493","0","[[3,2,0],[1,0],[0]]","10","[[2,3,0],[1,0],[0]]","15","0","","","","","","7","","","","","","","","",""
"","","","","","single-stim-button","307","585316","0.0-2.0-56.10-0.10","5ee04c3aa397863948b8b1c9","C3","batch3","","646","tol_tohand","","","","tol_peg_1","646","646","0","[[3,0,0],[1,0],[0]]","11","[[2,3,0],[1,0],[0]]","15","0","","","","","","7","","","","","","","","",""
"","","","","","single-stim-button","308","586115","0.0-2.0-56.10-1.10","5ee04c3aa397863948b8b1c9","C3","batch3","","799","tol_toboard","","","","tol_peg_3","799","799","0","[[3,0,0],[1,0],[2]]","11","[[2,3,0],[1,0],[0]]","15","0","","","","","","7","","","","","","","","",""
"","","","","","single-stim-button","309","596430","0.0-2.0-56.11-0.11","5ee04c3aa397863948b8b1c9","C3","batch3","","10314","tol_tohand","","","","tol_peg_1","10314","10314","0","[[0,0,0],[1,0],[2]]","12","[[2,3,0],[1,0],[0]]","15","0","","","","","","7","","","","","","","","",""
"","","","","","single-stim-button","310","597147","0.0-2.0-56.11-1.11","5ee04c3aa397863948b8b1c9","C3","batch3","","716","tol_toboard","","","","tol_peg_2","716","716","0","[[0,0,0],[1,3],[2]]","12","[[2,3,0],[1,0],[0]]","15","0","","","","","","7","","","","","","","","",""
"","","","","","single-stim-button","311","598030","0.0-2.0-56.12-0.12","5ee04c3aa397863948b8b1c9","C3","batch3","","883","tol_tohand","","","","tol_peg_3","883","883","0","[[0,0,0],[1,3],[0]]","13","[[2,3,0],[1,0],[0]]","15","0","","","","","","7","","","","","","","","",""
"","","","","","single-stim-button","312","599059","0.0-2.0-56.12-1.12","5ee04c3aa397863948b8b1c9","C3","batch3","","1027","tol_toboard","","","","tol_peg_1","1027","1027","0","[[2,0,0],[1,3],[0]]","13","[[2,3,0],[1,0],[0]]","15","0","","","","","","7","","","","","","","","",""
"","","","","","single-stim-button","313","599617","0.0-2.0-56.13-0.13","5ee04c3aa397863948b8b1c9","C3","batch3","","558","tol_tohand","","","","tol_peg_2","558","558","0","[[2,0,0],[1,0],[0]]","14","[[2,3,0],[1,0],[0]]","15","0","","","","","","7","","","","","","","","",""
"","","","","","single-stim-button","314","600300","0.0-2.0-56.13-1.13","5ee04c3aa397863948b8b1c9","C3","batch3","","682","tol_toboard","","","","tol_peg_1","682","682","0","[[2,3,0],[1,0],[0]]","14","[[2,3,0],[1,0],[0]]","15","0","","","","","","7","","","","","","","","",""
"","","","","","poldrack-single-stim","315","601313","0.0-2.0-57.0","5ee04c3aa397863948b8b1c9","C3","batch3","","-1","tol_feedback","","","true","","1000","1000","500","","","","","","-1","none","true","9671","34628","","","","","","","","","",""
"","","","","","html-button-response","316","602615","0.0-2.0-58.0","5ee04c3aa397863948b8b1c9","C3","batch3","","1302","tol_trial_num","<div class = centerbox><p class = center-block-text>problem <strong>17</strong> out of 25 problems</p></div>","0","","","","","","","","","","","","","","","","","","","","","","","","",""
"","","","","","single-stim-button","317","607344","0.0-2.0-59.0-0.0","5ee04c3aa397863948b8b1c9","C3","batch3","","4728","tol_tohand","","","","tol_peg_2","4728","4728","0","[[1,2,0],[0,0],[0]]","1","[[3,1,0],[2,0],[0]]","16","0","","","","","","5","","","","","","","","",""
"","","","","","single-stim-button","318","607966","0.0-2.0-59.0-1.0","5ee04c3aa397863948b8b1c9","C3","batch3","","621","tol_toboard","","","","tol_peg_3","621","621","0","[[1,2,0],[0,0],[3]]","1","[[3,1,0],[2,0],[0]]","16","0","","","","","","5","","","","","","","","",""
"","","","","","single-stim-button","319","608841","0.0-2.0-59.1-0.1","5ee04c3aa397863948b8b1c9","C3","batch3","","874","tol_tohand","","","","tol_peg_1","874","874","0","[[1,0,0],[0,0],[3]]","2","[[3,1,0],[2,0],[0]]","16","0","","","","","","5","","","","","","","","",""
"","","","","","single-stim-button","320","609390","0.0-2.0-59.1-1.1","5ee04c3aa397863948b8b1c9","C3","batch3","","548","tol_toboard","","","","tol_peg_2","548","548","0","[[1,0,0],[2,0],[3]]","2","[[3,1,0],[2,0],[0]]","16","0","","","","","","5","","","","","","","","",""
"","","","","","single-stim-button","321","609948","0.0-2.0-59.2-0.2","5ee04c3aa397863948b8b1c9","C3","batch3","","557","tol_tohand","","","","tol_peg_1","557","557","0","[[0,0,0],[2,0],[3]]","3","[[3,1,0],[2,0],[0]]","16","0","","","","","","5","","","","","","","","",""
"","","","","","single-stim-button","322","610566","0.0-2.0-59.2-1.2","5ee04c3aa397863948b8b1c9","C3","batch3","","617","tol_toboard","","","","tol_peg_2","617","617","0","[[0,0,0],[2,1],[3]]","3","[[3,1,0],[2,0],[0]]","16","0","","","","","","5","","","","","","","","",""
"","","","","","single-stim-button","323","611374","0.0-2.0-59.3-0.3","5ee04c3aa397863948b8b1c9","C3","batch3","","807","tol_tohand","","","","tol_peg_3","807","807","0","[[0,0,0],[2,1],[0]]","4","[[3,1,0],[2,0],[0]]","16","0","","","","","","5","","","","","","","","",""
"","","","","","single-stim-button","324","612186","0.0-2.0-59.3-1.3","5ee04c3aa397863948b8b1c9","C3","batch3","","811","tol_toboard","","","","tol_peg_1","811","811","0","[[3,0,0],[2,1],[0]]","4","[[3,1,0],[2,0],[0]]","16","0","","","","","","5","","","","","","","","",""
"","","","","","single-stim-button","325","612768","0.0-2.0-59.4-0.4","5ee04c3aa397863948b8b1c9","C3","batch3","","581","tol_tohand","","","","tol_peg_2","581","581","0","[[3,0,0],[2,0],[0]]","5","[[3,1,0],[2,0],[0]]","16","0","","","","","","5","","","","","","","","",""
"","","","","","single-stim-button","326","615206","0.0-2.0-59.4-1.4","5ee04c3aa397863948b8b1c9","C3","batch3","","2438","tol_toboard","","","","tol_peg_1","2438","2438","0","[[3,1,0],[2,0],[0]]","5","[[3,1,0],[2,0],[0]]","16","0","","","","","","5","","","","","","","","",""
"","","","","","poldrack-single-stim","327","616213","0.0-2.0-60.0","5ee04c3aa397863948b8b1c9","C3","batch3","","-1","tol_feedback","","","true","","1000","1000","500","","","","","","-1","none","true","4728","7547","","","","","","","","","",""
"","","","","","html-button-response","328","635503","0.0-2.0-61.0","5ee04c3aa397863948b8b1c9","C3","batch3","","19290.100000000093","tol_trial_num","<div class = centerbox><p class = center-block-text>problem <strong>18</strong> out of 25 problems</p></div>","0","","","","","","","","","","","","","","","","","","","","","","","","",""
"","","","","","single-stim-button","329","645029","0.0-2.0-62.0-0.0","5ee04c3aa397863948b8b1c9","C3","batch3","","9526","tol_tohand","","","","tol_peg_2","9526","9526","0","[[1,2,0],[0,0],[0]]","1","[[3,0,0],[2,0],[1]]","17","0","","","","","","5","","","","","","","","",""
"","","","","","single-stim-button","330","645603","0.0-2.0-62.0-1.0","5ee04c3aa397863948b8b1c9","C3","batch3","","574","tol_toboard","","","","tol_peg_3","574","574","0","[[1,2,0],[0,0],[3]]","1","[[3,0,0],[2,0],[1]]","17","0","","","","","","5","","","","","","","","",""
"","","","","","single-stim-button","331","646117","0.0-2.0-62.1-0.1","5ee04c3aa397863948b8b1c9","C3","batch3","","514","tol_tohand","","","","tol_peg_1","514","514","0","[[1,0,0],[0,0],[3]]","2","[[3,0,0],[2,0],[1]]","17","0","","","","","","5","","","","","","","","",""
"","","","","","single-stim-button","332","646631","0.0-2.0-62.1-1.1","5ee04c3aa397863948b8b1c9","C3","batch3","","514","tol_toboard","","","","tol_peg_2","514","514","0","[[1,0,0],[2,0],[3]]","2","[[3,0,0],[2,0],[1]]","17","0","","","","","","5","","","","","","","","",""
"","","","","","single-stim-button","333","648135","0.0-2.0-62.2-0.2","5ee04c3aa397863948b8b1c9","C3","batch3","","1504","tol_tohand","","","","tol_peg_1","1504","1504","0","[[0,0,0],[2,0],[3]]","3","[[3,0,0],[2,0],[1]]","17","0","","","","","","5","","","","","","","","",""
"","","","","","single-stim-button","334","649181","0.0-2.0-62.2-1.2","5ee04c3aa397863948b8b1c9","C3","batch3","","1046","tol_toboard","","","","tol_peg_2","1046","1046","0","[[0,0,0],[2,1],[3]]","3","[[3,0,0],[2,0],[1]]","17","0","","","","","","5","","","","","","","","",""
"","","","","","single-stim-button","335","650142","0.0-2.0-62.3-0.3","5ee04c3aa397863948b8b1c9","C3","batch3","","961","tol_tohand","","","","tol_peg_3","961","961","0","[[0,0,0],[2,1],[0]]","4","[[3,0,0],[2,0],[1]]","17","0","","","","","","5","","","","","","","","",""
"","","","","","single-stim-button","336","650884","0.0-2.0-62.3-1.3","5ee04c3aa397863948b8b1c9","C3","batch3","","742","tol_toboard","","","","tol_peg_1","742","742","0","[[3,0,0],[2,1],[0]]","4","[[3,0,0],[2,0],[1]]","17","0","","","","","","5","","","","","","","","",""
"","","","","","single-stim-button","337","651420","0.0-2.0-62.4-0.4","5ee04c3aa397863948b8b1c9","C3","batch3","","536","tol_tohand","","","","tol_peg_2","536","536","0","[[3,0,0],[2,0],[0]]","5","[[3,0,0],[2,0],[1]]","17","0","","","","","","5","","","","","","","","",""
"","","","","","single-stim-button","338","652012","0.0-2.0-62.4-1.4","5ee04c3aa397863948b8b1c9","C3","batch3","","592","tol_toboard","","","","tol_peg_3","592","592","0","[[3,0,0],[2,0],[1]]","5","[[3,0,0],[2,0],[1]]","17","0","","","","","","5","","","","","","","","",""
"","","","","","poldrack-single-stim","339","653013","0.0-2.0-63.0","5ee04c3aa397863948b8b1c9","C3","batch3","","-1","tol_feedback","","","true","","1000","1000","500","","","","","","-1","none","true","9526","13041","","","","","","","","","",""
"","","","","","html-button-response","340","654051","0.0-2.0-64.0","5ee04c3aa397863948b8b1c9","C3","batch3","","1037.3000000002794","tol_trial_num","<div class = centerbox><p class = center-block-text>problem <strong>19</strong> out of 25 problems</p></div>","0","","","","","","","","","","","","","","","","","","","","","","","","",""
"","","","","","single-stim-button","341","663523","0.0-2.0-65.0-0.0","5ee04c3aa397863948b8b1c9","C3","batch3","","9472","tol_tohand","","","","tol_peg_1","9472","9472","0","[[1,0,0],[3,0],[0]]","1","[[0,0,0],[1,2],[3]]","18","0","","","","","","7","","","","","","","","",""
"","","","","","single-stim-button","342","664043","0.0-2.0-65.0-1.0","5ee04c3aa397863948b8b1c9","C3","batch3","","520","tol_toboard","","","","tol_peg_2","520","520","0","[[1,0,0],[3,2],[0]]","1","[[0,0,0],[1,2],[3]]","18","0","","","","","","7","","","","","","","","",""
"","","","","","single-stim-button","343","664584","0.0-2.0-65.1-0.1","5ee04c3aa397863948b8b1c9","C3","batch3","","541","tol_tohand","","","","tol_peg_1","541","541","0","[[0,0,0],[3,2],[0]]","2","[[0,0,0],[1,2],[3]]","18","0","","","","","","7","","","","","","","","",""
"","","","","","single-stim-button","344","665155","0.0-2.0-65.1-1.1","5ee04c3aa397863948b8b1c9","C3","batch3","","571","tol_toboard","","","","tol_peg_3","571","571","0","[[0,0,0],[3,2],[1]]","2","[[0,0,0],[1,2],[3]]","18","0","","","","","","7","","","","","","","","",""
"","","","","","single-stim-button","345","665794","0.0-2.0-65.2-0.2","5ee04c3aa397863948b8b1c9","C3","batch3","","639","tol_tohand","","","","tol_peg_2","639","639","0","[[0,0,0],[3,0],[1]]","3","[[0,0,0],[1,2],[3]]","18","0","","","","","","7","","","","","","","","",""
"","","","","","single-stim-button","346","666382","0.0-2.0-65.2-1.2","5ee04c3aa397863948b8b1c9","C3","batch3","","588","tol_toboard","","","","tol_peg_1","588","588","0","[[2,0,0],[3,0],[1]]","3","[[0,0,0],[1,2],[3]]","18","0","","","","","","7","","","","","","","","",""
"","","","","","single-stim-button","347","669379","0.0-2.0-65.3-0.3","5ee04c3aa397863948b8b1c9","C3","batch3","","2997","tol_tohand","","","","tol_peg_3","2997","2997","0","[[2,0,0],[3,0],[0]]","4","[[0,0,0],[1,2],[3]]","18","0","","","","","","7","","","","","","","","",""
"","","","","","single-stim-button","348","671380","0.0-2.0-65.3-1.3","5ee04c3aa397863948b8b1c9","C3","batch3","","2001","tol_toboard","","","","tol_peg_1","2001","2001","0","[[2,1,0],[3,0],[0]]","4","[[0,0,0],[1,2],[3]]","18","0","","","","","","7","","","","","","","","",""
"","","","","","single-stim-button","349","671951","0.0-2.0-65.4-0.4","5ee04c3aa397863948b8b1c9","C3","batch3","","571","tol_tohand","","","","tol_peg_2","571","571","0","[[2,1,0],[0,0],[0]]","5","[[0,0,0],[1,2],[3]]","18","0","","","","","","7","","","","","","","","",""
"","","","","","single-stim-button","350","672552","0.0-2.0-65.4-1.4","5ee04c3aa397863948b8b1c9","C3","batch3","","601","tol_toboard","","","","tol_peg_3","601","601","0","[[2,1,0],[0,0],[3]]","5","[[0,0,0],[1,2],[3]]","18","0","","","","","","7","","","","","","","","",""
"","","","","","single-stim-button","351","673153","0.0-2.0-65.5-0.5","5ee04c3aa397863948b8b1c9","C3","batch3","","601","tol_tohand","","","","tol_peg_1","601","601","0","[[2,0,0],[0,0],[3]]","6","[[0,0,0],[1,2],[3]]","18","0","","","","","","7","","","","","","","","",""
"","","","","","single-stim-button","352","673650","0.0-2.0-65.5-1.5","5ee04c3aa397863948b8b1c9","C3","batch3","","496","tol_toboard","","","","tol_peg_2","496","496","0","[[2,0,0],[1,0],[3]]","6","[[0,0,0],[1,2],[3]]","18","0","","","","","","7","","","","","","","","",""
"","","","","","single-stim-button","353","674086","0.0-2.0-65.6-0.6","5ee04c3aa397863948b8b1c9","C3","batch3","","436","tol_tohand","","","","tol_peg_1","436","436","0","[[0,0,0],[1,0],[3]]","7","[[0,0,0],[1,2],[3]]","18","0","","","","","","7","","","","","","","","",""
"","","","","","single-stim-button","354","674839","0.0-2.0-65.6-1.6","5ee04c3aa397863948b8b1c9","C3","batch3","","753","tol_toboard","","","","tol_peg_2","753","753","0","[[0,0,0],[1,2],[3]]","7","[[0,0,0],[1,2],[3]]","18","0","","","","","","7","","","","","","","","",""
"","","","","","poldrack-single-stim","355","675849","0.0-2.0-66.0","5ee04c3aa397863948b8b1c9","C3","batch3","","-1","tol_feedback","","","true","","1000","1000","500","","","","","","-1","none","true","9472","15257","","","","","","","","","",""
"","","","","","html-button-response","356","676762","0.0-2.0-67.0","5ee04c3aa397863948b8b1c9","C3","batch3","","911.8000000002794","tol_trial_num","<div class = centerbox><p class = center-block-text>problem <strong>20</strong> out of 25 problems</p></div>","0","","","","","","","","","","","","","","","","","","","","","","","","",""
