"success","timeout","failed_images","failed_audio","failed_video","trial_type","trial_index","time_elapsed","internal_node_id","subject_id","study_id","session_id","task","rt","stimulus","response","item","answer","correct","spm_correct","spm_rt","view_history","fiar_detect_rt","fiar_detect_correct","total_correct_fiar_detect","post_trial_gap","choices","mouse_click","stim_duration","block_duration","timing_post_trial","current_position","tol_num_moves_made","tol_target","tol_problem_id","tol_rt","key_press","possible_responses","tol_correct","preplanning","tol_rt_per_trial","tol_min_moves"
"true","false","[]","[]","[]","preload","0","2521","0.0-0.0","5ee11eb5636ea94d3ad43e3b","C3","batch3","","","","","","","","","","","","","","","","","","","","","","","","","","","","","",""
"true","","","","","fullscreen","1","5806","0.0-1.0-0.0","5ee11eb5636ea94d3ad43e3b","C3","batch3","","","","","","","","","","","","","","","","","","","","","","","","","","","","","",""
"true","","","","","fullscreen","2","11337","0.0-2.0-0.0","5ee11eb5636ea94d3ad43e3b","C3","batch3","spm_fullscreen","","","","","","","","","","","","","","","","","","","","","","","","","","","","",""
"","","","","","html-button-response","3","27186","0.0-2.0-1.0","5ee11eb5636ea94d3ad43e3b","C3","batch3","","15846.700000047684","<p class = block-text><b>Instructions</b> <br>This is a widely used intelligence test in research. <br>In this test, a figure with a missing piece will be presented.<br>Below the figure are alternative pieces to complete the figure, only one of which is correct.<br> Different figures might involve different principles for obtaining the missing piece<br>Your job is to select the most logical piece to complete the figure.</p>","0","","","","","","","","","","","","","","","","","","","","","","","","","",""
"","","","","","html-keyboard-response","4","27993","0.0-2.0-2.0-0.0","5ee11eb5636ea94d3ad43e3b","C3","batch3","spm_show_trial_num","null","<p class=block-text>Trial 1 out of 60</p>","null","","","","","","","","","","","","","","","","","","","","","","","","","",""
"","","","","","image-button-response","5","67294","0.0-2.0-2.0-1.0","5ee11eb5636ea94d3ad43e3b","C3","batch3","spm_respsonse","39293.10000002384","img/question_1_1.jpeg","5","mat_01","4","0","0","39293.10000002384","","","","","","","","","","","","","","","","","","","","",""
"","","","","","html-keyboard-response","6","68347","0.0-2.0-2.0-0.1","5ee11eb5636ea94d3ad43e3b","C3","batch3","spm_show_trial_num","null","<p class=block-text>Trial 2 out of 60</p>","null","","","","","","","","","","","","","","","","","","","","","","","","","",""
"","","","","","image-button-response","7","73065","0.0-2.0-2.0-1.1","5ee11eb5636ea94d3ad43e3b","C3","batch3","spm_respsonse","4715.399999976158","img/question_1_2.jpeg","4","mat_02","5","1","1","4715.399999976158","","","","","","","","","","","","","","","","","","","","",""
"","","","","","html-keyboard-response","8","74150","0.0-2.0-2.0-0.2","5ee11eb5636ea94d3ad43e3b","C3","batch3","spm_show_trial_num","null","<p class=block-text>Trial 3 out of 60</p>","null","","","","","","","","","","","","","","","","","","","","","","","","","",""
"","","","","","image-button-response","9","80825","0.0-2.0-2.0-1.2","5ee11eb5636ea94d3ad43e3b","C3","batch3","spm_respsonse","6672.399999976158","img/question_1_3.jpeg","0","mat_03","1","1","1","6672.399999976158","","","","","","","","","","","","","","","","","","","","",""
"","","","","","html-keyboard-response","10","81900","0.0-2.0-2.0-0.3","5ee11eb5636ea94d3ad43e3b","C3","batch3","spm_show_trial_num","null","<p class=block-text>Trial 4 out of 60</p>","null","","","","","","","","","","","","","","","","","","","","","","","","","",""
"","","","","","image-button-response","11","96994","0.0-2.0-2.0-1.3","5ee11eb5636ea94d3ad43e3b","C3","batch3","spm_respsonse","15090.5","img/question_1_4.jpeg","1","mat_04","2","1","1","15090.5","","","","","","","","","","","","","","","","","","","","",""
"","","","","","html-keyboard-response","12","98056","0.0-2.0-2.0-0.4","5ee11eb5636ea94d3ad43e3b","C3","batch3","spm_show_trial_num","null","<p class=block-text>Trial 5 out of 60</p>","null","","","","","","","","","","","","","","","","","","","","","","","","","",""
"","","","","","image-button-response","13","106888","0.0-2.0-2.0-1.4","5ee11eb5636ea94d3ad43e3b","C3","batch3","spm_respsonse","8828.399999976158","img/question_1_5.jpeg","5","mat_05","6","1","1","8828.399999976158","","","","","","","","","","","","","","","","","","","","",""
"","","","","","html-keyboard-response","14","107947","0.0-2.0-2.0-0.5","5ee11eb5636ea94d3ad43e3b","C3","batch3","spm_show_trial_num","null","<p class=block-text>Trial 6 out of 60</p>","null","","","","","","","","","","","","","","","","","","","","","","","","","",""
"","","","","","image-button-response","15","114984","0.0-2.0-2.0-1.5","5ee11eb5636ea94d3ad43e3b","C3","batch3","spm_respsonse","7034.5","img/question_1_6.jpeg","2","mat_06","3","1","1","7034.5","","","","","","","","","","","","","","","","","","","","",""
"","","","","","html-keyboard-response","16","116056","0.0-2.0-2.0-0.6","5ee11eb5636ea94d3ad43e3b","C3","batch3","spm_show_trial_num","null","<p class=block-text>Trial 7 out of 60</p>","null","","","","","","","","","","","","","","","","","","","","","","","","","",""
"","","","","","image-button-response","17","121321","0.0-2.0-2.0-1.6","5ee11eb5636ea94d3ad43e3b","C3","batch3","spm_respsonse","5261.399999976158","img/question_1_7.jpeg","5","mat_07","6","1","1","5261.399999976158","","","","","","","","","","","","","","","","","","","","",""
"","","","","","html-keyboard-response","18","122385","0.0-2.0-2.0-0.7","5ee11eb5636ea94d3ad43e3b","C3","batch3","spm_show_trial_num","null","<p class=block-text>Trial 8 out of 60</p>","null","","","","","","","","","","","","","","","","","","","","","","","","","",""
"","","","","","image-button-response","19","129682","0.0-2.0-2.0-1.7","5ee11eb5636ea94d3ad43e3b","C3","batch3","spm_respsonse","7295.100000023842","img/question_1_8.jpeg","1","mat_08","2","1","1","7295.100000023842","","","","","","","","","","","","","","","","","","","","",""
"","","","","","html-keyboard-response","20","130744","0.0-2.0-2.0-0.8","5ee11eb5636ea94d3ad43e3b","C3","batch3","spm_show_trial_num","null","<p class=block-text>Trial 9 out of 60</p>","null","","","","","","","","","","","","","","","","","","","","","","","","","",""
"","","","","","image-button-response","21","153865","0.0-2.0-2.0-1.8","5ee11eb5636ea94d3ad43e3b","C3","batch3","spm_respsonse","23118.200000047684","img/question_1_9.jpeg","0","mat_09","1","1","1","23118.200000047684","","","","","","","","","","","","","","","","","","","","",""
"","","","","","html-keyboard-response","22","154931","0.0-2.0-2.0-0.9","5ee11eb5636ea94d3ad43e3b","C3","batch3","spm_show_trial_num","null","<p class=block-text>Trial 10 out of 60</p>","null","","","","","","","","","","","","","","","","","","","","","","","","","",""
"","","","","","image-button-response","23","168466","0.0-2.0-2.0-1.9","5ee11eb5636ea94d3ad43e3b","C3","batch3","spm_respsonse","13531.399999976158","img/question_1_10.jpeg","2","mat_10","3","1","1","13531.399999976158","","","","","","","","","","","","","","","","","","","","",""
"","","","","","html-keyboard-response","24","169525","0.0-2.0-2.0-0.10","5ee11eb5636ea94d3ad43e3b","C3","batch3","spm_show_trial_num","null","<p class=block-text>Trial 11 out of 60</p>","null","","","","","","","","","","","","","","","","","","","","","","","","","",""
"","","","","","image-button-response","25","192520","0.0-2.0-2.0-1.10","5ee11eb5636ea94d3ad43e3b","C3","batch3","spm_respsonse","22992.400000095367","img/question_1_11.jpeg","3","mat_11","4","1","1","22992.400000095367","","","","","","","","","","","","","","","","","","","","",""
"","","","","","html-keyboard-response","26","193572","0.0-2.0-2.0-0.11","5ee11eb5636ea94d3ad43e3b","C3","batch3","spm_show_trial_num","null","<p class=block-text>Trial 12 out of 60</p>","null","","","","","","","","","","","","","","","","","","","","","","","","","",""
"","","","","","image-button-response","27","212537","0.0-2.0-2.0-1.11","5ee11eb5636ea94d3ad43e3b","C3","batch3","spm_respsonse","18962.299999952316","img/question_1_12.jpeg","4","mat_12","5","1","1","18962.299999952316","","","","","","","","","","","","","","","","","","","","",""
"","","","","","html-keyboard-response","28","213590","0.0-2.0-2.0-0.12","5ee11eb5636ea94d3ad43e3b","C3","batch3","spm_show_trial_num","null","<p class=block-text>Trial 13 out of 60</p>","null","","","","","","","","","","","","","","","","","","","","","","","","","",""
"","","","","","image-button-response","29","219554","0.0-2.0-2.0-1.12","5ee11eb5636ea94d3ad43e3b","C3","batch3","spm_respsonse","5961.699999928474","img/question_2_1.jpeg","1","mat_13","2","1","1","5961.699999928474","","","","","","","","","","","","","","","","","","","","",""
"","","","","","html-keyboard-response","30","220619","0.0-2.0-2.0-0.13","5ee11eb5636ea94d3ad43e3b","C3","batch3","spm_show_trial_num","null","<p class=block-text>Trial 14 out of 60</p>","null","","","","","","","","","","","","","","","","","","","","","","","","","",""
"","","","","","image-button-response","31","230696","0.0-2.0-2.0-1.13","5ee11eb5636ea94d3ad43e3b","C3","batch3","spm_respsonse","10074.5","img/question_2_2.jpeg","4","mat_14","6","0","0","10074.5","","","","","","","","","","","","","","","","","","","","",""
"","","","","","html-keyboard-response","32","231764","0.0-2.0-2.0-0.14","5ee11eb5636ea94d3ad43e3b","C3","batch3","spm_show_trial_num","null","<p class=block-text>Trial 15 out of 60</p>","null","","","","","","","","","","","","","","","","","","","","","","","","","",""
"","","","","","image-button-response","33","235976","0.0-2.0-2.0-1.14","5ee11eb5636ea94d3ad43e3b","C3","batch3","spm_respsonse","4209.600000023842","img/question_2_3.jpeg","0","mat_15","1","1","1","4209.600000023842","","","","","","","","","","","","","","","","","","","","",""
"","","","","","html-keyboard-response","34","237041","0.0-2.0-2.0-0.15","5ee11eb5636ea94d3ad43e3b","C3","batch3","spm_show_trial_num","null","<p class=block-text>Trial 16 out of 60</p>","null","","","","","","","","","","","","","","","","","","","","","","","","","",""
"","","","","","image-button-response","35","242688","0.0-2.0-2.0-1.15","5ee11eb5636ea94d3ad43e3b","C3","batch3","spm_respsonse","5644.900000095367","img/question_2_4.jpeg","1","mat_16","2","1","1","5644.900000095367","","","","","","","","","","","","","","","","","","","","",""
"","","","","","html-keyboard-response","36","243744","0.0-2.0-2.0-0.16","5ee11eb5636ea94d3ad43e3b","C3","batch3","spm_show_trial_num","null","<p class=block-text>Trial 17 out of 60</p>","null","","","","","","","","","","","","","","","","","","","","","","","","","",""
"","","","","","image-button-response","37","249800","0.0-2.0-2.0-1.16","5ee11eb5636ea94d3ad43e3b","C3","batch3","spm_respsonse","6053.800000071526","img/question_2_5.jpeg","0","mat_17","1","1","1","6053.800000071526","","","","","","","","","","","","","","","","","","","","",""
"","","","","","html-keyboard-response","38","250855","0.0-2.0-2.0-0.17","5ee11eb5636ea94d3ad43e3b","C3","batch3","spm_show_trial_num","null","<p class=block-text>Trial 18 out of 60</p>","null","","","","","","","","","","","","","","","","","","","","","","","","","",""
"","","","","","image-button-response","39","259152","0.0-2.0-2.0-1.17","5ee11eb5636ea94d3ad43e3b","C3","batch3","spm_respsonse","8294.799999952316","img/question_2_6.jpeg","2","mat_18","3","1","1","8294.799999952316","","","","","","","","","","","","","","","","","","","","",""
"","","","","","html-keyboard-response","40","260213","0.0-2.0-2.0-0.18","5ee11eb5636ea94d3ad43e3b","C3","batch3","spm_show_trial_num","null","<p class=block-text>Trial 19 out of 60</p>","null","","","","","","","","","","","","","","","","","","","","","","","","","",""
"","","","","","image-button-response","41","274133","0.0-2.0-2.0-1.18","5ee11eb5636ea94d3ad43e3b","C3","batch3","spm_respsonse","13918","img/question_2_7.jpeg","4","mat_19","5","1","1","13918","","","","","","","","","","","","","","","","","","","","",""
"","","","","","html-keyboard-response","42","275197","0.0-2.0-2.0-0.19","5ee11eb5636ea94d3ad43e3b","C3","batch3","spm_show_trial_num","null","<p class=block-text>Trial 20 out of 60</p>","null","","","","","","","","","","","","","","","","","","","","","","","","","",""
"","","","","","image-button-response","43","284415","0.0-2.0-2.0-1.19","5ee11eb5636ea94d3ad43e3b","C3","batch3","spm_respsonse","9215.399999976158","img/question_2_8.jpeg","5","mat_20","6","1","1","9215.399999976158","","","","","","","","","","","","","","","","","","","","",""
"","","","","","html-keyboard-response","44","285478","0.0-2.0-2.0-0.20","5ee11eb5636ea94d3ad43e3b","C3","batch3","spm_show_trial_num","null","<p class=block-text>Trial 21 out of 60</p>","null","","","","","","","","","","","","","","","","","","","","","","","","","",""
"","","","","","image-button-response","45","294248","0.0-2.0-2.0-1.20","5ee11eb5636ea94d3ad43e3b","C3","batch3","spm_respsonse","8767.200000047684","img/question_2_9.jpeg","3","mat_21","4","1","1","8767.200000047684","","","","","","","","","","","","","","","","","","","","",""
"","","","","","html-keyboard-response","46","295301","0.0-2.0-2.0-0.21","5ee11eb5636ea94d3ad43e3b","C3","batch3","spm_show_trial_num","null","<p class=block-text>Trial 22 out of 60</p>","null","","","","","","","","","","","","","","","","","","","","","","","","","",""
"","","","","","image-button-response","47","304407","0.0-2.0-2.0-1.21","5ee11eb5636ea94d3ad43e3b","C3","batch3","spm_respsonse","9104.100000023842","img/question_2_10.jpeg","2","mat_22","3","1","1","9104.100000023842","","","","","","","","","","","","","","","","","","","","",""
"","","","","","html-keyboard-response","48","305463","0.0-2.0-2.0-0.22","5ee11eb5636ea94d3ad43e3b","C3","batch3","spm_show_trial_num","null","<p class=block-text>Trial 23 out of 60</p>","null","","","","","","","","","","","","","","","","","","","","","","","","","",""
"","","","","","image-button-response","49","318415","0.0-2.0-2.0-1.22","5ee11eb5636ea94d3ad43e3b","C3","batch3","spm_respsonse","12949.299999952316","img/question_2_11.jpeg","3","mat_23","4","1","1","12949.299999952316","","","","","","","","","","","","","","","","","","","","",""
"","","","","","html-keyboard-response","50","319478","0.0-2.0-2.0-0.23","5ee11eb5636ea94d3ad43e3b","C3","batch3","spm_show_trial_num","null","<p class=block-text>Trial 24 out of 60</p>","null","","","","","","","","","","","","","","","","","","","","","","","","","",""
"","","","","","image-button-response","51","326256","0.0-2.0-2.0-1.23","5ee11eb5636ea94d3ad43e3b","C3","batch3","spm_respsonse","6774.899999976158","img/question_2_12.jpeg","4","mat_24","5","1","1","6774.899999976158","","","","","","","","","","","","","","","","","","","","",""
"","","","","","html-button-response","52","330184","0.0-2.0-3.0","5ee11eb5636ea94d3ad43e3b","C3","batch3","attention_check","3676.399999976158","<p class = block-text>Attention check: Please choose 1<br></p>","0","","","true","","","","","","","","","","","","","","","","","","","","","","",""
"","","","","","html-keyboard-response","53","330986","0.0-2.0-4.0-0.0","5ee11eb5636ea94d3ad43e3b","C3","batch3","spm_show_trial_num","null","<p class=block-text>Trial 25 out of 60</p>","null","","","","","","","","","","","","","","","","","","","","","","","","","",""
"","","","","","image-button-response","54","342991","0.0-2.0-4.0-1.0","5ee11eb5636ea94d3ad43e3b","C3","batch3","spm_respsonse","12001.899999976158","img/question_3_1.jpeg","7","mat_25","8","1","1","12001.899999976158","","","","","","","","","","","","","","","","","","","","",""
"","","","","","html-keyboard-response","55","344056","0.0-2.0-4.0-0.1","5ee11eb5636ea94d3ad43e3b","C3","batch3","spm_show_trial_num","null","<p class=block-text>Trial 26 out of 60</p>","null","","","","","","","","","","","","","","","","","","","","","","","","","",""
"","","","","","image-button-response","56","357176","0.0-2.0-4.0-1.1","5ee11eb5636ea94d3ad43e3b","C3","batch3","spm_respsonse","13116.199999928474","img/question_3_2.jpeg","1","mat_26","2","1","1","13116.199999928474","","","","","","","","","","","","","","","","","","","","",""
"","","","","","html-keyboard-response","57","358228","0.0-2.0-4.0-0.2","5ee11eb5636ea94d3ad43e3b","C3","batch3","spm_show_trial_num","null","<p class=block-text>Trial 27 out of 60</p>","null","","","","","","","","","","","","","","","","","","","","","","","","","",""
"","","","","","image-button-response","58","365328","0.0-2.0-4.0-1.2","5ee11eb5636ea94d3ad43e3b","C3","batch3","spm_respsonse","7097.199999928474","img/question_3_3.jpeg","2","mat_27","3","1","1","7097.199999928474","","","","","","","","","","","","","","","","","","","","",""
"","","","","","html-keyboard-response","59","366380","0.0-2.0-4.0-0.3","5ee11eb5636ea94d3ad43e3b","C3","batch3","spm_show_trial_num","null","<p class=block-text>Trial 28 out of 60</p>","null","","","","","","","","","","","","","","","","","","","","","","","","","",""
"","","","","","image-button-response","60","392623","0.0-2.0-4.0-1.3","5ee11eb5636ea94d3ad43e3b","C3","batch3","spm_respsonse","26239.600000023842","img/question_3_4.jpeg","7","mat_28","8","1","1","26239.600000023842","","","","","","","","","","","","","","","","","","","","",""
"","","","","","html-keyboard-response","61","393697","0.0-2.0-4.0-0.4","5ee11eb5636ea94d3ad43e3b","C3","batch3","spm_show_trial_num","null","<p class=block-text>Trial 29 out of 60</p>","null","","","","","","","","","","","","","","","","","","","","","","","","","",""
"","","","","","image-button-response","62","410967","0.0-2.0-4.0-1.4","5ee11eb5636ea94d3ad43e3b","C3","batch3","spm_respsonse","17266.899999976158","img/question_3_5.jpeg","6","mat_29","7","1","1","17266.899999976158","","","","","","","","","","","","","","","","","","","","",""
"","","","","","html-keyboard-response","63","412020","0.0-2.0-4.0-0.5","5ee11eb5636ea94d3ad43e3b","C3","batch3","spm_show_trial_num","null","<p class=block-text>Trial 30 out of 60</p>","null","","","","","","","","","","","","","","","","","","","","","","","","","",""
"","","","","","image-button-response","64","426560","0.0-2.0-4.0-1.5","5ee11eb5636ea94d3ad43e3b","C3","batch3","spm_respsonse","14537.899999976158","img/question_3_6.jpeg","3","mat_30","4","1","1","14537.899999976158","","","","","","","","","","","","","","","","","","","","",""
"","","","","","html-keyboard-response","65","427619","0.0-2.0-4.0-0.6","5ee11eb5636ea94d3ad43e3b","C3","batch3","spm_show_trial_num","null","<p class=block-text>Trial 31 out of 60</p>","null","","","","","","","","","","","","","","","","","","","","","","","","","",""
"","","","","","image-button-response","66","439694","0.0-2.0-4.0-1.6","5ee11eb5636ea94d3ad43e3b","C3","batch3","spm_respsonse","12072.799999952316","img/question_3_7.jpeg","4","mat_31","5","1","1","12072.799999952316","","","","","","","","","","","","","","","","","","","","",""
"","","","","","html-keyboard-response","67","440759","0.0-2.0-4.0-0.7","5ee11eb5636ea94d3ad43e3b","C3","batch3","spm_show_trial_num","null","<p class=block-text>Trial 32 out of 60</p>","null","","","","","","","","","","","","","","","","","","","","","","","","","",""
"","","","","","image-button-response","68","469912","0.0-2.0-4.0-1.7","5ee11eb5636ea94d3ad43e3b","C3","batch3","spm_respsonse","29149.799999952316","img/question_3_8.jpeg","0","mat_32","1","1","1","29149.799999952316","","","","","","","","","","","","","","","","","","","","",""
"","","","","","html-keyboard-response","69","470978","0.0-2.0-4.0-0.8","5ee11eb5636ea94d3ad43e3b","C3","batch3","spm_show_trial_num","null","<p class=block-text>Trial 33 out of 60</p>","null","","","","","","","","","","","","","","","","","","","","","","","","","",""
"","","","","","image-button-response","70","481679","0.0-2.0-4.0-1.8","5ee11eb5636ea94d3ad43e3b","C3","batch3","spm_respsonse","10698.300000071526","img/question_3_9.jpeg","6","mat_33","7","1","1","10698.300000071526","","","","","","","","","","","","","","","","","","","","",""
"","","","","","html-keyboard-response","71","482744","0.0-2.0-4.0-0.9","5ee11eb5636ea94d3ad43e3b","C3","batch3","spm_show_trial_num","null","<p class=block-text>Trial 34 out of 60</p>","null","","","","","","","","","","","","","","","","","","","","","","","","","",""
"","","","","","image-button-response","72","513198","0.0-2.0-4.0-1.9","5ee11eb5636ea94d3ad43e3b","C3","batch3","spm_respsonse","30451.100000023842","img/question_3_10.jpeg","5","mat_34","6","1","1","30451.100000023842","","","","","","","","","","","","","","","","","","","","",""
"","","","","","html-keyboard-response","73","514250","0.0-2.0-4.0-0.10","5ee11eb5636ea94d3ad43e3b","C3","batch3","spm_show_trial_num","null","<p class=block-text>Trial 35 out of 60</p>","null","","","","","","","","","","","","","","","","","","","","","","","","","",""
"","","","","","image-button-response","74","555085","0.0-2.0-4.0-1.10","5ee11eb5636ea94d3ad43e3b","C3","batch3","spm_respsonse","40832.40000009537","img/question_3_11.jpeg","0","mat_35","1","1","1","40832.40000009537","","","","","","","","","","","","","","","","","","","","",""
"","","","","","html-keyboard-response","75","556150","0.0-2.0-4.0-0.11","5ee11eb5636ea94d3ad43e3b","C3","batch3","spm_show_trial_num","null","<p class=block-text>Trial 36 out of 60</p>","null","","","","","","","","","","","","","","","","","","","","","","","","","",""
"","","","","","image-button-response","76","570030","0.0-2.0-4.0-1.11","5ee11eb5636ea94d3ad43e3b","C3","batch3","spm_respsonse","13876.800000071526","img/question_3_12.jpeg","2","mat_36","2","0","0","13876.800000071526","","","","","","","","","","","","","","","","","","","","",""
"","","","","","html-keyboard-response","77","571083","0.0-2.0-4.0-0.12","5ee11eb5636ea94d3ad43e3b","C3","batch3","spm_show_trial_num","null","<p class=block-text>Trial 37 out of 60</p>","null","","","","","","","","","","","","","","","","","","","","","","","","","",""
"","","","","","image-button-response","78","576734","0.0-2.0-4.0-1.12","5ee11eb5636ea94d3ad43e3b","C3","batch3","spm_respsonse","5648.099999904633","img/question_4_1.jpeg","2","mat_37","3","1","1","5648.099999904633","","","","","","","","","","","","","","","","","","","","",""
"","","","","","html-keyboard-response","79","577790","0.0-2.0-4.0-0.13","5ee11eb5636ea94d3ad43e3b","C3","batch3","spm_show_trial_num","null","<p class=block-text>Trial 38 out of 60</p>","null","","","","","","","","","","","","","","","","","","","","","","","","","",""
"","","","","","image-button-response","80","584613","0.0-2.0-4.0-1.13","5ee11eb5636ea94d3ad43e3b","C3","batch3","spm_respsonse","6820.800000071526","img/question_4_2.jpeg","3","mat_38","4","1","1","6820.800000071526","","","","","","","","","","","","","","","","","","","","",""
"","","","","","html-keyboard-response","81","585666","0.0-2.0-4.0-0.14","5ee11eb5636ea94d3ad43e3b","C3","batch3","spm_show_trial_num","null","<p class=block-text>Trial 39 out of 60</p>","null","","","","","","","","","","","","","","","","","","","","","","","","","",""
"","","","","","image-button-response","82","593190","0.0-2.0-4.0-1.14","5ee11eb5636ea94d3ad43e3b","C3","batch3","spm_respsonse","7520.899999976158","img/question_4_3.jpeg","2","mat_39","3","1","1","7520.899999976158","","","","","","","","","","","","","","","","","","","","",""
"","","","","","html-keyboard-response","83","594244","0.0-2.0-4.0-0.15","5ee11eb5636ea94d3ad43e3b","C3","batch3","spm_show_trial_num","null","<p class=block-text>Trial 40 out of 60</p>","null","","","","","","","","","","","","","","","","","","","","","","","","","",""
"","","","","","image-button-response","84","611821","0.0-2.0-4.0-1.15","5ee11eb5636ea94d3ad43e3b","C3","batch3","spm_respsonse","17574.300000071526","img/question_4_4.jpeg","6","mat_40","7","1","1","17574.300000071526","","","","","","","","","","","","","","","","","","","","",""
"","","","","","html-keyboard-response","85","612884","0.0-2.0-4.0-0.16","5ee11eb5636ea94d3ad43e3b","C3","batch3","spm_show_trial_num","null","<p class=block-text>Trial 41 out of 60</p>","null","","","","","","","","","","","","","","","","","","","","","","","","","",""
"","","","","","image-button-response","86","631165","0.0-2.0-4.0-1.16","5ee11eb5636ea94d3ad43e3b","C3","batch3","spm_respsonse","18278.100000023842","img/question_4_5.jpeg","7","mat_41","8","1","1","18278.100000023842","","","","","","","","","","","","","","","","","","","","",""
"","","","","","html-keyboard-response","87","632228","0.0-2.0-4.0-0.17","5ee11eb5636ea94d3ad43e3b","C3","batch3","spm_show_trial_num","null","<p class=block-text>Trial 42 out of 60</p>","null","","","","","","","","","","","","","","","","","","","","","","","","","",""
"","","","","","image-button-response","88","660405","0.0-2.0-4.0-1.17","5ee11eb5636ea94d3ad43e3b","C3","batch3","spm_respsonse","28173.899999976158","img/question_4_6.jpeg","5","mat_42","6","1","1","28173.899999976158","","","","","","","","","","","","","","","","","","","","",""
"","","","","","html-keyboard-response","89","661473","0.0-2.0-4.0-0.18","5ee11eb5636ea94d3ad43e3b","C3","batch3","spm_show_trial_num","null","<p class=block-text>Trial 43 out of 60</p>","null","","","","","","","","","","","","","","","","","","","","","","","","","",""
"","","","","","image-button-response","90","702309","0.0-2.0-4.0-1.18","5ee11eb5636ea94d3ad43e3b","C3","batch3","spm_respsonse","40833.40000009537","img/question_4_7.jpeg","4","mat_43","5","1","1","40833.40000009537","","","","","","","","","","","","","","","","","","","","",""
"","","","","","html-keyboard-response","91","703369","0.0-2.0-4.0-0.19","5ee11eb5636ea94d3ad43e3b","C3","batch3","spm_show_trial_num","null","<p class=block-text>Trial 44 out of 60</p>","null","","","","","","","","","","","","","","","","","","","","","","","","","",""
"","","","","","image-button-response","92","725916","0.0-2.0-4.0-1.19","5ee11eb5636ea94d3ad43e3b","C3","batch3","spm_respsonse","22544.299999952316","img/question_4_8.jpeg","3","mat_44","4","1","1","22544.299999952316","","","","","","","","","","","","","","","","","","","","",""
"","","","","","html-keyboard-response","93","726968","0.0-2.0-4.0-0.20","5ee11eb5636ea94d3ad43e3b","C3","batch3","spm_show_trial_num","null","<p class=block-text>Trial 45 out of 60</p>","null","","","","","","","","","","","","","","","","","","","","","","","","","",""
"","","","","","image-button-response","94","773332","0.0-2.0-4.0-1.20","5ee11eb5636ea94d3ad43e3b","C3","batch3","spm_respsonse","46360.800000071526","img/question_4_9.jpeg","0","mat_45","1","1","1","46360.800000071526","","","","","","","","","","","","","","","","","","","","",""
"","","","","","html-keyboard-response","95","774391","0.0-2.0-4.0-0.21","5ee11eb5636ea94d3ad43e3b","C3","batch3","spm_show_trial_num","null","<p class=block-text>Trial 46 out of 60</p>","null","","","","","","","","","","","","","","","","","","","","","","","","","",""
"","","","","","image-button-response","96","813964","0.0-2.0-4.0-1.21","5ee11eb5636ea94d3ad43e3b","C3","batch3","spm_respsonse","39571","img/question_4_10.jpeg","4","mat_46","2","0","0","39571","","","","","","","","","","","","","","","","","","","","",""
"","","","","","html-keyboard-response","97","815031","0.0-2.0-4.0-0.22","5ee11eb5636ea94d3ad43e3b","C3","batch3","spm_show_trial_num","null","<p class=block-text>Trial 47 out of 60</p>","null","","","","","","","","","","","","","","","","","","","","","","","","","",""
"","","","","","image-button-response","98","832403","0.0-2.0-4.0-1.22","5ee11eb5636ea94d3ad43e3b","C3","batch3","spm_respsonse","17368.399999976158","img/question_4_11.jpeg","3","mat_47","5","0","0","17368.399999976158","","","","","","","","","","","","","","","","","","","","",""
"","","","","","html-keyboard-response","99","833470","0.0-2.0-4.0-0.23","5ee11eb5636ea94d3ad43e3b","C3","batch3","spm_show_trial_num","null","<p class=block-text>Trial 48 out of 60</p>","null","","","","","","","","","","","","","","","","","","","","","","","","","",""
"","","","","","image-button-response","100","888435","0.0-2.0-4.0-1.23","5ee11eb5636ea94d3ad43e3b","C3","batch3","spm_respsonse","54962.89999997616","img/question_4_12.jpeg","4","mat_48","6","0","0","54962.89999997616","","","","","","","","","","","","","","","","","","","","",""
"","","","","","html-keyboard-response","101","889494","0.0-2.0-4.0-0.24","5ee11eb5636ea94d3ad43e3b","C3","batch3","spm_show_trial_num","null","<p class=block-text>Trial 49 out of 60</p>","null","","","","","","","","","","","","","","","","","","","","","","","","","",""
"","","","","","image-button-response","102","895979","0.0-2.0-4.0-1.24","5ee11eb5636ea94d3ad43e3b","C3","batch3","spm_respsonse","6482.199999928474","img/question_5_1.jpeg","6","mat_49","7","1","1","6482.199999928474","","","","","","","","","","","","","","","","","","","","",""
"","","","","","html-keyboard-response","103","897057","0.0-2.0-4.0-0.25","5ee11eb5636ea94d3ad43e3b","C3","batch3","spm_show_trial_num","null","<p class=block-text>Trial 50 out of 60</p>","null","","","","","","","","","","","","","","","","","","","","","","","","","",""
"","","","","","image-button-response","104","912651","0.0-2.0-4.0-1.25","5ee11eb5636ea94d3ad43e3b","C3","batch3","spm_respsonse","15591.200000047684","img/question_5_2.jpeg","5","mat_50","6","1","1","15591.200000047684","","","","","","","","","","","","","","","","","","","","",""
"","","","","","html-keyboard-response","105","913703","0.0-2.0-4.0-0.26","5ee11eb5636ea94d3ad43e3b","C3","batch3","spm_show_trial_num","null","<p class=block-text>Trial 51 out of 60</p>","null","","","","","","","","","","","","","","","","","","","","","","","","","",""
"","","","","","image-button-response","106","929763","0.0-2.0-4.0-1.26","5ee11eb5636ea94d3ad43e3b","C3","batch3","spm_respsonse","16057.399999976158","img/question_5_3.jpeg","7","mat_51","8","1","1","16057.399999976158","","","","","","","","","","","","","","","","","","","","",""
"","","","","","html-keyboard-response","107","930822","0.0-2.0-4.0-0.27","5ee11eb5636ea94d3ad43e3b","C3","batch3","spm_show_trial_num","null","<p class=block-text>Trial 52 out of 60</p>","null","","","","","","","","","","","","","","","","","","","","","","","","","",""
"","","","","","image-button-response","108","939179","0.0-2.0-4.0-1.27","5ee11eb5636ea94d3ad43e3b","C3","batch3","spm_respsonse","8354","img/question_5_4.jpeg","1","mat_52","2","1","1","8354","","","","","","","","","","","","","","","","","","","","",""
"","","","","","html-keyboard-response","109","940244","0.0-2.0-4.0-0.28","5ee11eb5636ea94d3ad43e3b","C3","batch3","spm_show_trial_num","null","<p class=block-text>Trial 53 out of 60</p>","null","","","","","","","","","","","","","","","","","","","","","","","","","",""
"","","","","","image-button-response","110","978363","0.0-2.0-4.0-1.28","5ee11eb5636ea94d3ad43e3b","C3","batch3","spm_respsonse","38115.799999952316","img/question_5_5.jpeg","0","mat_53","1","1","1","38115.799999952316","","","","","","","","","","","","","","","","","","","","",""
"","","","","","html-keyboard-response","111","979416","0.0-2.0-4.0-0.29","5ee11eb5636ea94d3ad43e3b","C3","batch3","spm_show_trial_num","null","<p class=block-text>Trial 54 out of 60</p>","null","","","","","","","","","","","","","","","","","","","","","","","","","",""
"","","","","","image-button-response","112","1012515","0.0-2.0-4.0-1.29","5ee11eb5636ea94d3ad43e3b","C3","batch3","spm_respsonse","33096.10000002384","img/question_5_6.jpeg","4","mat_54","5","1","1","33096.10000002384","","","","","","","","","","","","","","","","","","","","",""
"","","","","","html-keyboard-response","113","1013567","0.0-2.0-4.0-0.30","5ee11eb5636ea94d3ad43e3b","C3","batch3","spm_show_trial_num","null","<p class=block-text>Trial 55 out of 60</p>","null","","","","","","","","","","","","","","","","","","","","","","","","","",""
"","","","","","image-button-response","114","1036538","0.0-2.0-4.0-1.30","5ee11eb5636ea94d3ad43e3b","C3","batch3","spm_respsonse","22968","img/question_5_7.jpeg","5","mat_55","1","0","0","22968","","","","","","","","","","","","","","","","","","","","",""
"","","","","","html-keyboard-response","115","1037603","0.0-2.0-4.0-0.31","5ee11eb5636ea94d3ad43e3b","C3","batch3","spm_show_trial_num","null","<p class=block-text>Trial 56 out of 60</p>","null","","","","","","","","","","","","","","","","","","","","","","","","","",""
"","","","","","image-button-response","116","1056705","0.0-2.0-4.0-1.31","5ee11eb5636ea94d3ad43e3b","C3","batch3","spm_respsonse","19099.200000047684","img/question_5_8.jpeg","1","mat_56","6","0","0","19099.200000047684","","","","","","","","","","","","","","","","","","","","",""
"","","","","","html-keyboard-response","117","1057759","0.0-2.0-4.0-0.32","5ee11eb5636ea94d3ad43e3b","C3","batch3","spm_show_trial_num","null","<p class=block-text>Trial 57 out of 60</p>","null","","","","","","","","","","","","","","","","","","","","","","","","","",""
"","","","","","image-button-response","118","1065234","0.0-2.0-4.0-1.32","5ee11eb5636ea94d3ad43e3b","C3","batch3","spm_respsonse","7471.600000023842","img/question_5_9.jpeg","3","mat_57","3","0","0","7471.600000023842","","","","","","","","","","","","","","","","","","","","",""
"","","","","","html-keyboard-response","119","1066294","0.0-2.0-4.0-0.33","5ee11eb5636ea94d3ad43e3b","C3","batch3","spm_show_trial_num","null","<p class=block-text>Trial 58 out of 60</p>","null","","","","","","","","","","","","","","","","","","","","","","","","","",""
"","","","","","image-button-response","120","1105505","0.0-2.0-4.0-1.33","5ee11eb5636ea94d3ad43e3b","C3","batch3","spm_respsonse","39208.199999928474","img/question_5_10.jpeg","1","mat_58","2","1","1","39208.199999928474","","","","","","","","","","","","","","","","","","","","",""
"","","","","","html-keyboard-response","121","1106572","0.0-2.0-4.0-0.34","5ee11eb5636ea94d3ad43e3b","C3","batch3","spm_show_trial_num","null","<p class=block-text>Trial 59 out of 60</p>","null","","","","","","","","","","","","","","","","","","","","","","","","","",""
"","","","","","image-button-response","122","1134273","0.0-2.0-4.0-1.34","5ee11eb5636ea94d3ad43e3b","C3","batch3","spm_respsonse","27697.900000095367","img/question_5_11.jpeg","0","mat_59","4","0","0","27697.900000095367","","","","","","","","","","","","","","","","","","","","",""
"","","","","","html-keyboard-response","123","1135339","0.0-2.0-4.0-0.35","5ee11eb5636ea94d3ad43e3b","C3","batch3","spm_show_trial_num","null","<p class=block-text>Trial 60 out of 60</p>","null","","","","","","","","","","","","","","","","","","","","","","","","","",""
"","","","","","image-button-response","124","1157953","0.0-2.0-4.0-1.35","5ee11eb5636ea94d3ad43e3b","C3","batch3","spm_respsonse","22611.900000095367","img/question_5_12.jpeg","2","mat_60","5","0","0","22611.900000095367","","","","","","","","","","","","","","","","","","","","",""
"","","","","","html-button-response","125","1161914","0.0-2.0-5.0","5ee11eb5636ea94d3ad43e3b","C3","batch3","spm_goodbye","3708","<p class= block-text>This concludes the Standard Progressive Matrix game. Thank you for your responses!<br> When you are ready, click the button continue</p>","0","","","","","","","","","","","","","","","","","","","","","","","","","",""
"true","","","","","fullscreen","126","1168371","0.0-3.0-0.0","5ee11eb5636ea94d3ad43e3b","C3","batch3","","","","","","","","","","","","","","","","","","","","","","","","","","","","","",""
"","","","","","instructions","127","1197769","0.0-3.0-1.0-0.0","5ee11eb5636ea94d3ad43e3b","C3","batch3","","29397","","","","","","","","[{""page_index"":0,""viewing_time"":21996.399999976158},{""page_index"":1,""viewing_time"":7400.200000047684}]","","","","","","","","","","","","","","","","","","","",""
"","","","","","html-button-response","128","1200384","0.0-3.0-1.0-1.0-0.0","5ee11eb5636ea94d3ad43e3b","C3","batch3","pattern_enter_quiz","2614.100000023842","<p class=block-text> Let's answer a few questions <br>","0","","","","","","","","","","","","","","","","","","","","","","","","","",""
"","","","","","html-button-response","129","1204081","0.0-3.0-1.0-1.0-1.0","5ee11eb5636ea94d3ad43e3b","C3","batch3","pattern_quiz","3695.399999976158","<p class = block-text>True or False: You will have as much time as you want to make each choice. <br></p>","1","","","true","","","","","","","","","","","","","","","","","","","","","","",""
"","","","","","html-button-response","130","1205376","0.0-3.0-1.0-1.0-2.0","5ee11eb5636ea94d3ad43e3b","C3","batch3","pattern_quiz_feedback","1293.1000000238419","<p class = block-text>Correct! You should make your choice <strong> as fast as you can</strong>.</p>","0","","","","","","","","","","","","","","","","","","","","","","","","","",""
"","","","","","html-button-response","131","1210449","0.0-3.0-1.0-1.0-3.0","5ee11eb5636ea94d3ad43e3b","C3","batch3","pattern_quiz","5071.100000023842","<p class = block-text>True or False: You will look for 4 pieces in black or white color connected in a row either horizontally, vertically or diagonally. <br></p>","0","","","true","","","","","","","","","","","","","","","","","","","","","","",""
"","","","","","html-button-response","132","1211469","0.0-3.0-1.0-1.0-4.0","5ee11eb5636ea94d3ad43e3b","C3","batch3","pattern_quiz_feedback","1018.3000000715256","<p class = block-text>Correct! </p>","0","","","","","","","","","","","","","","","","","","","","","","","","","",""
"","","","","","html-button-response","133","1212929","0.0-3.0-2.0","5ee11eb5636ea94d3ad43e3b","C3","batch3","pattern_enter_practice","1457.5","<p class=block-text> Now that you've understood the game, let's do a few practice trials before we start!<br> <br>","0","","","","","","","","","","","","","","","","","","","","","","","","","",""
"","","","","","image-keyboard-response","134","1214472","0.0-3.0-3.0-0.0","5ee11eb5636ea94d3ad43e3b","C3","batch3","pattern_practice","1540.7000000476837","stim/prac_no_18_1.png","j","","j","true","","","","","","","","","","","","","","","","","","","","","","",""
"","","","","","html-keyboard-response","135","1215494","0.0-3.0-3.0-1.0","5ee11eb5636ea94d3ad43e3b","C3","batch3","pattern_feedback","null","<p style=""font-size:30px;color:green;"">Correct!</p>","null","","","","","","","","","","","","","","","","","","","","","","","","","",""
"","","","","","image-keyboard-response","136","1217081","0.0-3.0-3.0-0.1","5ee11eb5636ea94d3ad43e3b","C3","batch3","pattern_practice","1585","stim/prac_no_16_1.png","j","","j","true","","","","","","","","","","","","","","","","","","","","","","",""
"","","","","","html-keyboard-response","137","1218103","0.0-3.0-3.0-1.1","5ee11eb5636ea94d3ad43e3b","C3","batch3","pattern_feedback","null","<p style=""font-size:30px;color:green;"">Correct!</p>","null","","","","","","","","","","","","","","","","","","","","","","","","","",""
"","","","","","image-keyboard-response","138","1219597","0.0-3.0-3.0-0.2","5ee11eb5636ea94d3ad43e3b","C3","batch3","pattern_practice","1491.5","stim/prac_yes_18_hor_w1.png","f","","f","true","","","","","","","","","","","","","","","","","","","","","","",""
"","","","","","html-keyboard-response","139","1220605","0.0-3.0-3.0-1.2","5ee11eb5636ea94d3ad43e3b","C3","batch3","pattern_feedback","null","<p style=""font-size:30px;color:green;"">Correct!</p>","null","","","","","","","","","","","","","","","","","","","","","","","","","",""
"","","","","","image-keyboard-response","140","1222464","0.0-3.0-3.0-0.3","5ee11eb5636ea94d3ad43e3b","C3","batch3","pattern_practice","1857.2999999523163","stim/prac_yes_20_dia_b1.png","f","","f","true","","","","","","","","","","","","","","","","","","","","","","",""
"","","","","","html-keyboard-response","141","1223494","0.0-3.0-3.0-1.3","5ee11eb5636ea94d3ad43e3b","C3","batch3","pattern_feedback","null","<p style=""font-size:30px;color:green;"">Correct!</p>","null","","","","","","","","","","","","","","","","","","","","","","","","","",""
"","","","","","image-keyboard-response","142","1224780","0.0-3.0-3.0-0.4","5ee11eb5636ea94d3ad43e3b","C3","batch3","pattern_practice","1284.1000000238419","stim/prac_yes_16_ver_w1.png","f","","f","true","","","","","","","","","","","","","","","","","","","","","","",""
"","","","","","html-keyboard-response","143","1225806","0.0-3.0-3.0-1.4","5ee11eb5636ea94d3ad43e3b","C3","batch3","pattern_feedback","null","<p style=""font-size:30px;color:green;"">Correct!</p>","null","","","","","","","","","","","","","","","","","","","","","","","","","",""
"","","","","","html-button-response","144","1228345","0.0-3.0-4.0","5ee11eb5636ea94d3ad43e3b","C3","batch3","pattern_enter_official_trials","2536.7000000476837","<p class=block-text> Good job! You are done with practice trials!<br>
        You responded correctly on 100% of the trials.<br>
        Press the button below to start official trials. Now you won't see any feedback about your response</p>","0","","","","","","","","","","","","","","","","","","","","","","","","","",""
"","","","","","html-keyboard-response","145","1229153","0.0-3.0-5.0-0.0","5ee11eb5636ea94d3ad43e3b","C3","batch3","pattern_show_trial_num","null","<p class=block-text>Trial 1 out of 78</p>","null","","","","","","","","","","","","","","","","","","","","","","","","","",""
"","","","","","image-keyboard-response","146","1230944","0.0-3.0-5.0-1.0","5ee11eb5636ea94d3ad43e3b","C3","batch3","pattern_response","1788.3000000715256","stim/no_37_2_w.png","j","pattern_19","j","true","","","","1788.3000000715256","true","1","","","","","","","","","","","","","","","","",""
"","","","","","html-keyboard-response","147","1232260","0.0-3.0-5.0-0.1","5ee11eb5636ea94d3ad43e3b","C3","batch3","pattern_show_trial_num","null","<p class=block-text>Trial 2 out of 78</p>","null","","","","","","","","","","","","","","","","","","","","","","","","","",""
"","","","","","image-keyboard-response","148","1235464","0.0-3.0-5.0-1.1","5ee11eb5636ea94d3ad43e3b","C3","batch3","pattern_response","3202.5","stim/no_58_1_w.png","j","pattern_35","j","true","","","","3202.5","true","2","","","","","","","","","","","","","","","","",""
"","","","","","html-keyboard-response","149","1236793","0.0-3.0-5.0-0.2","5ee11eb5636ea94d3ad43e3b","C3","batch3","pattern_show_trial_num","null","<p class=block-text>Trial 3 out of 78</p>","null","","","","","","","","","","","","","","","","","","","","","","","","","",""
"","","","","","image-keyboard-response","150","1240242","0.0-3.0-5.0-1.2","5ee11eb5636ea94d3ad43e3b","C3","batch3","pattern_response","3447.2999999523163","stim/no_36_1_b.png","j","pattern_17","j","true","","","","3447.2999999523163","true","3","","","","","","","","","","","","","","","","",""
"","","","","","html-keyboard-response","151","1241547","0.0-3.0-5.0-0.3","5ee11eb5636ea94d3ad43e3b","C3","batch3","pattern_show_trial_num","null","<p class=block-text>Trial 4 out of 78</p>","null","","","","","","","","","","","","","","","","","","","","","","","","","",""
"","","","","","image-keyboard-response","152","1247705","0.0-3.0-5.0-1.3","5ee11eb5636ea94d3ad43e3b","C3","batch3","pattern_response","6155.900000095367","stim/no_67_1.png","j","pattern_39","j","true","","","","6155.900000095367","true","4","","","","","","","","","","","","","","","","",""
"","","","","","html-keyboard-response","153","1249028","0.0-3.0-5.0-0.4","5ee11eb5636ea94d3ad43e3b","C3","batch3","pattern_show_trial_num","null","<p class=block-text>Trial 5 out of 78</p>","null","","","","","","","","","","","","","","","","","","","","","","","","","",""
"","","","","","image-keyboard-response","154","1254185","0.0-3.0-5.0-1.4","5ee11eb5636ea94d3ad43e3b","C3","batch3","pattern_response","5154.700000047684","stim/yes_51_dia_b1.png","f","pattern_72","f","true","","","","5154.700000047684","true","5","","","","","","","","","","","","","","","","",""
"","","","","","html-keyboard-response","155","1255510","0.0-3.0-5.0-0.5","5ee11eb5636ea94d3ad43e3b","C3","batch3","pattern_show_trial_num","null","<p class=block-text>Trial 6 out of 78</p>","null","","","","","","","","","","","","","","","","","","","","","","","","","",""
"","","","","","image-keyboard-response","156","1256856","0.0-3.0-5.0-1.5","5ee11eb5636ea94d3ad43e3b","C3","batch3","pattern_response","1343.3999999761581","stim/yes_12_hor_w1_w.png","f","pattern_42","f","true","","","","1343.3999999761581","true","6","","","","","","","","","","","","","","","","",""
"","","","","","html-keyboard-response","157","1258181","0.0-3.0-5.0-0.6","5ee11eb5636ea94d3ad43e3b","C3","batch3","pattern_show_trial_num","null","<p class=block-text>Trial 7 out of 78</p>","null","","","","","","","","","","","","","","","","","","","","","","","","","",""
"","","","","","image-keyboard-response","158","1259505","0.0-3.0-5.0-1.6","5ee11eb5636ea94d3ad43e3b","C3","batch3","pattern_response","1321.5","stim/yes_26_dia_w2_w.png","f","pattern_50","f","true","","","","1321.5","true","7","","","","","","","","","","","","","","","","",""
"","","","","","html-keyboard-response","159","1260810","0.0-3.0-5.0-0.7","5ee11eb5636ea94d3ad43e3b","C3","batch3","pattern_show_trial_num","null","<p class=block-text>Trial 8 out of 78</p>","null","","","","","","","","","","","","","","","","","","","","","","","","","",""
"","","","","","image-keyboard-response","160","1262295","0.0-3.0-5.0-1.7","5ee11eb5636ea94d3ad43e3b","C3","batch3","pattern_response","1482.8000000715256","stim/yes_36_ver_w1_w.png","f","pattern_58","f","true","","","","1482.8000000715256","true","8","","","","","","","","","","","","","","","","",""
"","","","","","html-keyboard-response","161","1263608","0.0-3.0-5.0-0.8","5ee11eb5636ea94d3ad43e3b","C3","batch3","pattern_show_trial_num","null","<p class=block-text>Trial 9 out of 78</p>","null","","","","","","","","","","","","","","","","","","","","","","","","","",""
"","","","","","image-keyboard-response","162","1264965","0.0-3.0-5.0-1.8","5ee11eb5636ea94d3ad43e3b","C3","batch3","pattern_response","1354.7000000476837","stim/yes_37_hor_w1_w.png","f","pattern_60","f","true","","","","1354.7000000476837","true","9","","","","","","","","","","","","","","","","",""
"","","","","","html-keyboard-response","163","1266294","0.0-3.0-5.0-0.9","5ee11eb5636ea94d3ad43e3b","C3","batch3","pattern_show_trial_num","null","<p class=block-text>Trial 10 out of 78</p>","null","","","","","","","","","","","","","","","","","","","","","","","","","",""
"","","","","","image-keyboard-response","164","1269677","0.0-3.0-5.0-1.9","5ee11eb5636ea94d3ad43e3b","C3","batch3","pattern_response","3387.100000023842","stim/no_43_2_b.png","j","pattern_23","j","true","","","","3387.100000023842","true","10","","","","","","","","","","","","","","","","",""
"","","","","","html-keyboard-response","165","1270988","0.0-3.0-5.0-0.10","5ee11eb5636ea94d3ad43e3b","C3","batch3","pattern_show_trial_num","null","<p class=block-text>Trial 11 out of 78</p>","null","","","","","","","","","","","","","","","","","","","","","","","","","",""
"","","","","","image-keyboard-response","166","1275405","0.0-3.0-5.0-1.10","5ee11eb5636ea94d3ad43e3b","C3","batch3","pattern_response","4414.200000047684","stim/yes_58_dia_w1_w.png","j","pattern_76","f","false","","","","4414.200000047684","false","10","","","","","","","","","","","","","","","","",""
"","","","","","html-keyboard-response","167","1276718","0.0-3.0-5.0-0.11","5ee11eb5636ea94d3ad43e3b","C3","batch3","pattern_show_trial_num","null","<p class=block-text>Trial 12 out of 78</p>","null","","","","","","","","","","","","","","","","","","","","","","","","","",""
"","","","","","image-keyboard-response","168","1277879","0.0-3.0-5.0-1.11","5ee11eb5636ea94d3ad43e3b","C3","batch3","pattern_response","1157.8000000715256","stim/yes_17_ver_b1_b.png","f","pattern_46","f","true","","","","1157.8000000715256","true","11","","","","","","","","","","","","","","","","",""
"","","","","","html-keyboard-response","169","1279208","0.0-3.0-5.0-0.12","5ee11eb5636ea94d3ad43e3b","C3","batch3","pattern_show_trial_num","null","<p class=block-text>Trial 13 out of 78</p>","null","","","","","","","","","","","","","","","","","","","","","","","","","",""
"","","","","","image-keyboard-response","170","1281179","0.0-3.0-5.0-1.12","5ee11eb5636ea94d3ad43e3b","C3","batch3","pattern_response","1969.6000000238419","stim/no_28_2.png","j","pattern_11","j","true","","","","1969.6000000238419","true","12","","","","","","","","","","","","","","","","",""
"","","","","","html-keyboard-response","171","1282504","0.0-3.0-5.0-0.13","5ee11eb5636ea94d3ad43e3b","C3","batch3","pattern_show_trial_num","null","<p class=block-text>Trial 14 out of 78</p>","null","","","","","","","","","","","","","","","","","","","","","","","","","",""
"","","","","","image-keyboard-response","172","1284013","0.0-3.0-5.0-1.13","5ee11eb5636ea94d3ad43e3b","C3","batch3","pattern_response","1507.3999999761581","stim/yes_15_dia_b1u_b.png","f","pattern_44","f","true","","","","1507.3999999761581","true","13","","","","","","","","","","","","","","","","",""
"","","","","","html-keyboard-response","173","1285332","0.0-3.0-5.0-0.14","5ee11eb5636ea94d3ad43e3b","C3","batch3","pattern_show_trial_num","null","<p class=block-text>Trial 15 out of 78</p>","null","","","","","","","","","","","","","","","","","","","","","","","","","",""
"","","","","","image-keyboard-response","174","1286794","0.0-3.0-5.0-1.14","5ee11eb5636ea94d3ad43e3b","C3","batch3","pattern_response","1459.2999999523163","stim/yes_23_ver_b1.png","f","pattern_48","f","true","","","","1459.2999999523163","true","14","","","","","","","","","","","","","","","","",""
"","","","","","html-keyboard-response","175","1288108","0.0-3.0-5.0-0.15","5ee11eb5636ea94d3ad43e3b","C3","batch3","pattern_show_trial_num","null","<p class=block-text>Trial 16 out of 78</p>","null","","","","","","","","","","","","","","","","","","","","","","","","","",""
"","","","","","image-keyboard-response","176","1290188","0.0-3.0-5.0-1.15","5ee11eb5636ea94d3ad43e3b","C3","batch3","pattern_response","2078.5","stim/yes_33_dia_w1_w.png","f","pattern_56","f","true","","","","2078.5","true","15","","","","","","","","","","","","","","","","",""
"","","","","","html-keyboard-response","177","1291503","0.0-3.0-5.0-0.16","5ee11eb5636ea94d3ad43e3b","C3","batch3","pattern_show_trial_num","null","<p class=block-text>Trial 17 out of 78</p>","null","","","","","","","","","","","","","","","","","","","","","","","","","",""
"","","","","","image-keyboard-response","178","1292932","0.0-3.0-5.0-1.16","5ee11eb5636ea94d3ad43e3b","C3","batch3","pattern_response","1427.0999999046326","stim/yes_44_ver_w1_w.png","f","pattern_66","f","true","","","","1427.0999999046326","true","16","","","","","","","","","","","","","","","","",""
"","","","","","html-keyboard-response","179","1294257","0.0-3.0-5.0-0.17","5ee11eb5636ea94d3ad43e3b","C3","batch3","pattern_show_trial_num","null","<p class=block-text>Trial 18 out of 78</p>","null","","","","","","","","","","","","","","","","","","","","","","","","","",""
"","","","","","image-keyboard-response","180","1296411","0.0-3.0-5.0-1.17","5ee11eb5636ea94d3ad43e3b","C3","batch3","pattern_response","2152.5","stim/no_25_1_b.png","j","pattern_09","j","true","","","","2152.5","true","17","","","","","","","","","","","","","","","","",""
"","","","","","html-keyboard-response","181","1297738","0.0-3.0-5.0-0.18","5ee11eb5636ea94d3ad43e3b","C3","batch3","pattern_show_trial_num","null","<p class=block-text>Trial 19 out of 78</p>","null","","","","","","","","","","","","","","","","","","","","","","","","","",""
"","","","","","image-keyboard-response","182","1299398","0.0-3.0-5.0-1.18","5ee11eb5636ea94d3ad43e3b","C3","batch3","pattern_response","1657.8999999761581","stim/no_22_1_b.png","j","pattern_07","j","true","","","","1657.8999999761581","true","18","","","","","","","","","","","","","","","","",""
"","","","","","html-keyboard-response","183","1300721","0.0-3.0-5.0-0.19","5ee11eb5636ea94d3ad43e3b","C3","batch3","pattern_show_trial_num","null","<p class=block-text>Trial 20 out of 78</p>","null","","","","","","","","","","","","","","","","","","","","","","","","","",""
"","","","","","image-keyboard-response","184","1303324","0.0-3.0-5.0-1.19","5ee11eb5636ea94d3ad43e3b","C3","batch3","pattern_response","2600.6999999284744","stim/no_30_1_b.png","j","pattern_13","j","true","","","","2600.6999999284744","true","19","","","","","","","","","","","","","","","","",""
"","","","","","html-keyboard-response","185","1304647","0.0-3.0-5.0-0.20","5ee11eb5636ea94d3ad43e3b","C3","batch3","pattern_show_trial_num","null","<p class=block-text>Trial 21 out of 78</p>","null","","","","","","","","","","","","","","","","","","","","","","","","","",""
"","","","","","image-keyboard-response","186","1306191","0.0-3.0-5.0-1.20","5ee11eb5636ea94d3ad43e3b","C3","batch3","pattern_response","1540.7999999523163","stim/yes_70_ver_b1.png","f","pattern_80","f","true","","","","1540.7999999523163","true","20","","","","","","","","","","","","","","","","",""
"","","","","","html-keyboard-response","187","1307504","0.0-3.0-5.0-0.21","5ee11eb5636ea94d3ad43e3b","C3","batch3","pattern_show_trial_num","null","<p class=block-text>Trial 22 out of 78</p>","null","","","","","","","","","","","","","","","","","","","","","","","","","",""
"","","","","","image-keyboard-response","188","1312557","0.0-3.0-5.0-1.21","5ee11eb5636ea94d3ad43e3b","C3","batch3","pattern_response","5051.399999976158","stim/no_51_1.png","j","pattern_31","j","true","","","","5051.399999976158","true","21","","","","","","","","","","","","","","","","",""
"","","","","","html-keyboard-response","189","1313879","0.0-3.0-5.0-0.22","5ee11eb5636ea94d3ad43e3b","C3","batch3","pattern_show_trial_num","null","<p class=block-text>Trial 23 out of 78</p>","null","","","","","","","","","","","","","","","","","","","","","","","","","",""
"","","","","","image-keyboard-response","190","1315882","0.0-3.0-5.0-1.22","5ee11eb5636ea94d3ad43e3b","C3","batch3","pattern_response","2001","stim/yes_53_ver_b1_b.png","f","pattern_74","f","true","","","","2001","true","22","","","","","","","","","","","","","","","","",""
"","","","","","html-keyboard-response","191","1317204","0.0-3.0-5.0-0.23","5ee11eb5636ea94d3ad43e3b","C3","batch3","pattern_show_trial_num","null","<p class=block-text>Trial 24 out of 78</p>","null","","","","","","","","","","","","","","","","","","","","","","","","","",""
"","","","","","image-keyboard-response","192","1318756","0.0-3.0-5.0-1.23","5ee11eb5636ea94d3ad43e3b","C3","batch3","pattern_response","1550.2999999523163","stim/no_15_1_w.png","j","pattern_03","j","true","","","","1550.2999999523163","true","23","","","","","","","","","","","","","","","","",""
"","","","","","html-keyboard-response","193","1320082","0.0-3.0-5.0-0.24","5ee11eb5636ea94d3ad43e3b","C3","batch3","pattern_show_trial_num","null","<p class=block-text>Trial 25 out of 78</p>","null","","","","","","","","","","","","","","","","","","","","","","","","","",""
"","","","","","image-keyboard-response","194","1325738","0.0-3.0-5.0-1.24","5ee11eb5636ea94d3ad43e3b","C3","batch3","pattern_response","5654.5","stim/no_47_1_b.png","j","pattern_27","j","true","","","","5654.5","true","24","","","","","","","","","","","","","","","","",""
"","","","","","html-keyboard-response","195","1327066","0.0-3.0-5.0-0.25","5ee11eb5636ea94d3ad43e3b","C3","batch3","pattern_show_trial_num","null","<p class=block-text>Trial 26 out of 78</p>","null","","","","","","","","","","","","","","","","","","","","","","","","","",""
"","","","","","image-keyboard-response","196","1328332","0.0-3.0-5.0-1.25","5ee11eb5636ea94d3ad43e3b","C3","batch3","pattern_response","1263.7999999523163","stim/no_18_1_b.png","j","pattern_05","j","true","","","","1263.7999999523163","true","25","","","","","","","","","","","","","","","","",""
"","","","","","html-keyboard-response","197","1329660","0.0-3.0-5.0-0.26","5ee11eb5636ea94d3ad43e3b","C3","batch3","pattern_show_trial_num","null","<p class=block-text>Trial 27 out of 78</p>","null","","","","","","","","","","","","","","","","","","","","","","","","","",""
"","","","","","image-keyboard-response","198","1334408","0.0-3.0-5.0-1.26","5ee11eb5636ea94d3ad43e3b","C3","batch3","pattern_response","4739.700000047684","stim/no_49_2_b.png","j","pattern_29","j","true","","","","4739.700000047684","true","26","","","","","","","","","","","","","","","","",""
"","","","","","html-keyboard-response","199","1335732","0.0-3.0-5.0-0.27","5ee11eb5636ea94d3ad43e3b","C3","batch3","pattern_show_trial_num","null","<p class=block-text>Trial 28 out of 78</p>","null","","","","","","","","","","","","","","","","","","","","","","","","","",""
"","","","","","image-keyboard-response","200","1336809","0.0-3.0-5.0-1.27","5ee11eb5636ea94d3ad43e3b","C3","batch3","pattern_response","1074.6000000238419","stim/yes_39_hor_w1_w.png","f","pattern_62","f","true","","","","1074.6000000238419","true","27","","","","","","","","","","","","","","","","",""
"","","","","","html-keyboard-response","201","1338123","0.0-3.0-5.0-0.28","5ee11eb5636ea94d3ad43e3b","C3","batch3","pattern_show_trial_num","null","<p class=block-text>Trial 29 out of 78</p>","null","","","","","","","","","","","","","","","","","","","","","","","","","",""
"","","","","","image-keyboard-response","202","1340559","0.0-3.0-5.0-1.28","5ee11eb5636ea94d3ad43e3b","C3","batch3","pattern_response","2434.100000023842","stim/yes_49_hor_w1_b.png","f","pattern_70","f","true","","","","2434.100000023842","true","28","","","","","","","","","","","","","","","","",""
"","","","","","html-keyboard-response","203","1341882","0.0-3.0-5.0-0.29","5ee11eb5636ea94d3ad43e3b","C3","batch3","pattern_show_trial_num","null","<p class=block-text>Trial 30 out of 78</p>","null","","","","","","","","","","","","","","","","","","","","","","","","","",""
"","","","","","image-keyboard-response","204","1343133","0.0-3.0-5.0-1.29","5ee11eb5636ea94d3ad43e3b","C3","batch3","pattern_response","1248.6000000238419","stim/yes_29_hor_b1_b.png","f","pattern_52","f","true","","","","1248.6000000238419","true","29","","","","","","","","","","","","","","","","",""
"","","","","","html-keyboard-response","205","1344450","0.0-3.0-5.0-0.30","5ee11eb5636ea94d3ad43e3b","C3","batch3","pattern_show_trial_num","null","<p class=block-text>Trial 31 out of 78</p>","null","","","","","","","","","","","","","","","","","","","","","","","","","",""
"","","","","","image-keyboard-response","206","1349231","0.0-3.0-5.0-1.30","5ee11eb5636ea94d3ad43e3b","C3","batch3","pattern_response","4779.400000095367","stim/no_39_1_w.png","j","pattern_21","j","true","","","","4779.400000095367","true","30","","","","","","","","","","","","","","","","",""
"","","","","","html-keyboard-response","207","1350557","0.0-3.0-5.0-0.31","5ee11eb5636ea94d3ad43e3b","C3","batch3","pattern_show_trial_num","null","<p class=block-text>Trial 32 out of 78</p>","null","","","","","","","","","","","","","","","","","","","","","","","","","",""
"","","","","","image-keyboard-response","208","1358600","0.0-3.0-5.0-1.31","5ee11eb5636ea94d3ad43e3b","C3","batch3","pattern_response","8041.300000071526","stim/yes_63_dia_b1.png","j","pattern_78","f","false","","","","8041.300000071526","false","30","","","","","","","","","","","","","","","","",""
"","","","","","html-keyboard-response","209","1359907","0.0-3.0-5.0-0.32","5ee11eb5636ea94d3ad43e3b","C3","batch3","pattern_show_trial_num","null","<p class=block-text>Trial 33 out of 78</p>","null","","","","","","","","","","","","","","","","","","","","","","","","","",""
"","","","","","image-keyboard-response","210","1364577","0.0-3.0-5.0-1.32","5ee11eb5636ea94d3ad43e3b","C3","batch3","pattern_response","4667.700000047684","stim/yes_42_dia_w1_w.png","j","pattern_64","f","false","","","","4667.700000047684","false","30","","","","","","","","","","","","","","","","",""
"","","","","","html-keyboard-response","211","1365900","0.0-3.0-5.0-0.33","5ee11eb5636ea94d3ad43e3b","C3","batch3","pattern_show_trial_num","null","<p class=block-text>Trial 34 out of 78</p>","null","","","","","","","","","","","","","","","","","","","","","","","","","",""
"","","","","","image-keyboard-response","212","1371842","0.0-3.0-5.0-1.33","5ee11eb5636ea94d3ad43e3b","C3","batch3","pattern_response","5939.5","stim/no_53_1_b.png","j","pattern_33","j","true","","","","5939.5","true","31","","","","","","","","","","","","","","","","",""
"","","","","","html-keyboard-response","213","1373157","0.0-3.0-5.0-0.34","5ee11eb5636ea94d3ad43e3b","C3","batch3","pattern_show_trial_num","null","<p class=block-text>Trial 35 out of 78</p>","null","","","","","","","","","","","","","","","","","","","","","","","","","",""
"","","","","","image-keyboard-response","214","1374616","0.0-3.0-5.0-1.34","5ee11eb5636ea94d3ad43e3b","C3","batch3","pattern_response","1456.7000000476837","stim/no_12_1.png","j","pattern_01","j","true","","","","1456.7000000476837","true","32","","","","","","","","","","","","","","","","",""
"","","","","","html-keyboard-response","215","1375921","0.0-3.0-5.0-0.35","5ee11eb5636ea94d3ad43e3b","C3","batch3","pattern_show_trial_num","null","<p class=block-text>Trial 36 out of 78</p>","null","","","","","","","","","","","","","","","","","","","","","","","","","",""
"","","","","","image-keyboard-response","216","1382073","0.0-3.0-5.0-1.35","5ee11eb5636ea94d3ad43e3b","C3","batch3","pattern_response","6149.700000047684","stim/no_45_1_w.png","j","pattern_25","j","true","","","","6149.700000047684","true","33","","","","","","","","","","","","","","","","",""
"","","","","","html-keyboard-response","217","1383401","0.0-3.0-5.0-0.36","5ee11eb5636ea94d3ad43e3b","C3","batch3","pattern_show_trial_num","null","<p class=block-text>Trial 37 out of 78</p>","null","","","","","","","","","","","","","","","","","","","","","","","","","",""
"","","","","","image-keyboard-response","218","1384720","0.0-3.0-5.0-1.36","5ee11eb5636ea94d3ad43e3b","C3","batch3","pattern_response","1317.2000000476837","stim/yes_46_ver_b1_b.png","f","pattern_68","f","true","","","","1317.2000000476837","true","34","","","","","","","","","","","","","","","","",""
"","","","","","html-keyboard-response","219","1386041","0.0-3.0-5.0-0.37","5ee11eb5636ea94d3ad43e3b","C3","batch3","pattern_show_trial_num","null","<p class=block-text>Trial 38 out of 78</p>","null","","","","","","","","","","","","","","","","","","","","","","","","","",""
"","","","","","image-keyboard-response","220","1387314","0.0-3.0-5.0-1.37","5ee11eb5636ea94d3ad43e3b","C3","batch3","pattern_response","1271","stim/yes_30_ver_b1_b.png","f","pattern_54","f","true","","","","1271","true","35","","","","","","","","","","","","","","","","",""
"","","","","","html-keyboard-response","221","1388623","0.0-3.0-5.0-0.38","5ee11eb5636ea94d3ad43e3b","C3","batch3","pattern_show_trial_num","null","<p class=block-text>Trial 39 out of 78</p>","null","","","","","","","","","","","","","","","","","","","","","","","","","",""
"","","","","","image-keyboard-response","222","1391055","0.0-3.0-5.0-1.38","5ee11eb5636ea94d3ad43e3b","C3","batch3","pattern_response","2429.399999976158","stim/no_33_1_b.png","j","pattern_15","j","true","","","","2429.399999976158","true","36","","","","","","","","","","","","","","","","",""
"","","","","","image-keyboard-response","223","1394280","0.0-3.0-6.0","5ee11eb5636ea94d3ad43e3b","C3","batch3","attention_check","2721.5","stim/empty_board.png","j","","j","true","","","","","","","500","[""f"",""j""]","","","","","","","","","","","","","","",""
"","","","","","html-keyboard-response","224","1395091","0.0-3.0-7.0-0.0","5ee11eb5636ea94d3ad43e3b","C3","batch3","pattern_show_trial_num","null","<p class=block-text>Trial 40 out of 78</p>","null","","","","","","","","","","","","","","","","","","","","","","","","","",""
"","","","","","image-keyboard-response","225","1396481","0.0-3.0-7.0-1.0","5ee11eb5636ea94d3ad43e3b","C3","batch3","pattern_response","1387.4000000953674","stim/yes_22_ver_w1.png","f","pattern_47","f","true","","","","1387.4000000953674","true","37","","","","","","","","","","","","","","","","",""
"","","","","","html-keyboard-response","226","1397806","0.0-3.0-7.0-0.1","5ee11eb5636ea94d3ad43e3b","C3","batch3","pattern_show_trial_num","null","<p class=block-text>Trial 41 out of 78</p>","null","","","","","","","","","","","","","","","","","","","","","","","","","",""
"","","","","","image-keyboard-response","227","1400287","0.0-3.0-7.0-1.1","5ee11eb5636ea94d3ad43e3b","C3","batch3","pattern_response","2477.7999999523163","stim/yes_40_dia_b1_b.png","f","pattern_63","f","true","","","","2477.7999999523163","true","38","","","","","","","","","","","","","","","","",""
"","","","","","html-keyboard-response","228","1401597","0.0-3.0-7.0-0.2","5ee11eb5636ea94d3ad43e3b","C3","batch3","pattern_show_trial_num","null","<p class=block-text>Trial 42 out of 78</p>","null","","","","","","","","","","","","","","","","","","","","","","","","","",""
"","","","","","image-keyboard-response","229","1402945","0.0-3.0-7.0-1.2","5ee11eb5636ea94d3ad43e3b","C3","batch3","pattern_response","1345.6000000238419","stim/yes_60_ver_b1_b.png","f","pattern_77","f","true","","","","1345.6000000238419","true","39","","","","","","","","","","","","","","","","",""
"","","","","","html-keyboard-response","230","1404260","0.0-3.0-7.0-0.3","5ee11eb5636ea94d3ad43e3b","C3","batch3","pattern_show_trial_num","null","<p class=block-text>Trial 43 out of 78</p>","null","","","","","","","","","","","","","","","","","","","","","","","","","",""
"","","","","","image-keyboard-response","231","1405792","0.0-3.0-7.0-1.3","5ee11eb5636ea94d3ad43e3b","C3","batch3","pattern_response","1531","stim/no_17_1_w.png","j","pattern_04","j","true","","","","1531","true","40","","","","","","","","","","","","","","","","",""
"","","","","","html-keyboard-response","232","1407107","0.0-3.0-7.0-0.4","5ee11eb5636ea94d3ad43e3b","C3","batch3","pattern_show_trial_num","null","<p class=block-text>Trial 44 out of 78</p>","null","","","","","","","","","","","","","","","","","","","","","","","","","",""
"","","","","","image-keyboard-response","233","1409740","0.0-3.0-7.0-1.4","5ee11eb5636ea94d3ad43e3b","C3","batch3","pattern_response","2631.399999976158","stim/no_32_1_w.png","j","pattern_14","j","true","","","","2631.399999976158","true","41","","","","","","","","","","","","","","","","",""
"","","","","","html-keyboard-response","234","1411047","0.0-3.0-7.0-0.5","5ee11eb5636ea94d3ad43e3b","C3","batch3","pattern_show_trial_num","null","<p class=block-text>Trial 45 out of 78</p>","null","","","","","","","","","","","","","","","","","","","","","","","","","",""
"","","","","","image-keyboard-response","235","1412360","0.0-3.0-7.0-1.5","5ee11eb5636ea94d3ad43e3b","C3","batch3","pattern_response","1310.3000000715256","stim/no_13_2_b.png","j","pattern_02","j","true","","","","1310.3000000715256","true","42","","","","","","","","","","","","","","","","",""
"","","","","","html-keyboard-response","236","1413669","0.0-3.0-7.0-0.6","5ee11eb5636ea94d3ad43e3b","C3","batch3","pattern_show_trial_num","null","<p class=block-text>Trial 46 out of 78</p>","null","","","","","","","","","","","","","","","","","","","","","","","","","",""
"","","","","","image-keyboard-response","237","1419009","0.0-3.0-7.0-1.6","5ee11eb5636ea94d3ad43e3b","C3","batch3","pattern_response","5337.399999976158","stim/no_38_1_b.png","j","pattern_20","j","true","","","","5337.399999976158","true","43","","","","","","","","","","","","","","","","",""
"","","","","","html-keyboard-response","238","1420318","0.0-3.0-7.0-0.7","5ee11eb5636ea94d3ad43e3b","C3","batch3","pattern_show_trial_num","null","<p class=block-text>Trial 47 out of 78</p>","null","","","","","","","","","","","","","","","","","","","","","","","","","",""
"","","","","","image-keyboard-response","239","1422065","0.0-3.0-7.0-1.7","5ee11eb5636ea94d3ad43e3b","C3","batch3","pattern_response","1744.7999999523163","stim/no_20_1_w.png","j","pattern_06","j","true","","","","1744.7999999523163","true","44","","","","","","","","","","","","","","","","",""
"","","","","","html-keyboard-response","240","1423388","0.0-3.0-7.0-0.8","5ee11eb5636ea94d3ad43e3b","C3","batch3","pattern_show_trial_num","null","<p class=block-text>Trial 48 out of 78</p>","null","","","","","","","","","","","","","","","","","","","","","","","","","",""
"","","","","","image-keyboard-response","241","1426899","0.0-3.0-7.0-1.8","5ee11eb5636ea94d3ad43e3b","C3","batch3","pattern_response","3509.399999976158","stim/no_34_1_b.png","j","pattern_16","j","true","","","","3509.399999976158","true","45","","","","","","","","","","","","","","","","",""
"","","","","","html-keyboard-response","242","1428214","0.0-3.0-7.0-0.9","5ee11eb5636ea94d3ad43e3b","C3","batch3","pattern_show_trial_num","null","<p class=block-text>Trial 49 out of 78</p>","null","","","","","","","","","","","","","","","","","","","","","","","","","",""
"","","","","","image-keyboard-response","243","1429982","0.0-3.0-7.0-1.9","5ee11eb5636ea94d3ad43e3b","C3","batch3","pattern_response","1766.6000000238419","stim/yes_45_hor_b2_b.png","f","pattern_67","f","true","","","","1766.6000000238419","true","46","","","","","","","","","","","","","","","","",""
"","","","","","html-keyboard-response","244","1431307","0.0-3.0-7.0-0.10","5ee11eb5636ea94d3ad43e3b","C3","batch3","pattern_show_trial_num","null","<p class=block-text>Trial 50 out of 78</p>","null","","","","","","","","","","","","","","","","","","","","","","","","","",""
"","","","","","image-keyboard-response","245","1435983","0.0-3.0-7.0-1.10","5ee11eb5636ea94d3ad43e3b","C3","batch3","pattern_response","4674.600000023842","stim/yes_37_dia_w1.png","j","pattern_59","f","false","","","","4674.600000023842","false","46","","","","","","","","","","","","","","","","",""
"","","","","","html-keyboard-response","246","1437300","0.0-3.0-7.0-0.11","5ee11eb5636ea94d3ad43e3b","C3","batch3","pattern_show_trial_num","null","<p class=block-text>Trial 51 out of 78</p>","null","","","","","","","","","","","","","","","","","","","","","","","","","",""
"","","","","","image-keyboard-response","247","1439089","0.0-3.0-7.0-1.11","5ee11eb5636ea94d3ad43e3b","C3","batch3","pattern_response","1787","stim/no_26_1_w.png","j","pattern_10","j","true","","","","1787","true","47","","","","","","","","","","","","","","","","",""
"","","","","","html-keyboard-response","248","1440403","0.0-3.0-7.0-0.12","5ee11eb5636ea94d3ad43e3b","C3","batch3","pattern_show_trial_num","null","<p class=block-text>Trial 52 out of 78</p>","null","","","","","","","","","","","","","","","","","","","","","","","","","",""
"","","","","","image-keyboard-response","249","1446740","0.0-3.0-7.0-1.12","5ee11eb5636ea94d3ad43e3b","C3","batch3","pattern_response","6334.5","stim/no_70_2.png","j","pattern_40","j","true","","","","6334.5","true","48","","","","","","","","","","","","","","","","",""
"","","","","","html-keyboard-response","250","1448052","0.0-3.0-7.0-0.13","5ee11eb5636ea94d3ad43e3b","C3","batch3","pattern_show_trial_num","null","<p class=block-text>Trial 53 out of 78</p>","null","","","","","","","","","","","","","","","","","","","","","","","","","",""
"","","","","","image-keyboard-response","251","1449312","0.0-3.0-7.0-1.13","5ee11eb5636ea94d3ad43e3b","C3","batch3","pattern_response","1257.5","stim/yes_17_dia_w1.png","j","pattern_45","f","false","","","","1257.5","false","48","","","","","","","","","","","","","","","","",""
"","","","","","html-keyboard-response","252","1450619","0.0-3.0-7.0-0.14","5ee11eb5636ea94d3ad43e3b","C3","batch3","pattern_show_trial_num","null","<p class=block-text>Trial 54 out of 78</p>","null","","","","","","","","","","","","","","","","","","","","","","","","","",""
"","","","","","image-keyboard-response","253","1456251","0.0-3.0-7.0-1.14","5ee11eb5636ea94d3ad43e3b","C3","batch3","pattern_response","5643.600000023842","stim/no_55_1_w.png","j","pattern_34","j","true","","","","5643.600000023842","true","49","","","","","","","","","","","","","","","","",""
"","","","","","html-keyboard-response","254","1457577","0.0-3.0-7.0-0.15","5ee11eb5636ea94d3ad43e3b","C3","batch3","pattern_show_trial_num","null","<p class=block-text>Trial 55 out of 78</p>","null","","","","","","","","","","","","","","","","","","","","","","","","","",""
"","","","","","image-keyboard-response","255","1458764","0.0-3.0-7.0-1.15","5ee11eb5636ea94d3ad43e3b","C3","batch3","pattern_response","1184","stim/yes_14_hor_b1_w.png","f","pattern_43","f","true","","","","1184","true","50","","","","","","","","","","","","","","","","",""
"","","","","","html-keyboard-response","256","1460093","0.0-3.0-7.0-0.16","5ee11eb5636ea94d3ad43e3b","C3","batch3","pattern_show_trial_num","null","<p class=block-text>Trial 56 out of 78</p>","null","","","","","","","","","","","","","","","","","","","","","","","","","",""
"","","","","","image-keyboard-response","257","1466750","0.0-3.0-7.0-1.16","5ee11eb5636ea94d3ad43e3b","C3","batch3","pattern_response","6655","stim/no_65_1_b.png","j","pattern_38","j","true","","","","6655","true","51","","","","","","","","","","","","","","","","",""
"","","","","","html-keyboard-response","258","1468071","0.0-3.0-7.0-0.17","5ee11eb5636ea94d3ad43e3b","C3","batch3","pattern_show_trial_num","null","<p class=block-text>Trial 57 out of 78</p>","null","","","","","","","","","","","","","","","","","","","","","","","","","",""
"","","","","","image-keyboard-response","259","1470050","0.0-3.0-7.0-1.17","5ee11eb5636ea94d3ad43e3b","C3","batch3","pattern_response","1976.6999999284744","stim/yes_29_ver_w1.png","f","pattern_53","f","true","","","","1976.6999999284744","true","52","","","","","","","","","","","","","","","","",""
"","","","","","html-keyboard-response","260","1471359","0.0-3.0-7.0-0.18","5ee11eb5636ea94d3ad43e3b","C3","batch3","pattern_show_trial_num","null","<p class=block-text>Trial 58 out of 78</p>","null","","","","","","","","","","","","","","","","","","","","","","","","","",""
"","","","","","image-keyboard-response","261","1473290","0.0-3.0-7.0-1.18","5ee11eb5636ea94d3ad43e3b","C3","batch3","pattern_response","1928.7999999523163","stim/yes_35_dia_b1.png","f","pattern_57","f","true","","","","1928.7999999523163","true","53","","","","","","","","","","","","","","","","",""
"","","","","","html-keyboard-response","262","1474609","0.0-3.0-7.0-0.19","5ee11eb5636ea94d3ad43e3b","C3","batch3","pattern_show_trial_num","null","<p class=block-text>Trial 59 out of 78</p>","null","","","","","","","","","","","","","","","","","","","","","","","","","",""
"","","","","","image-keyboard-response","263","1476179","0.0-3.0-7.0-1.19","5ee11eb5636ea94d3ad43e3b","C3","batch3","pattern_response","1566.8999999761581","stim/yes_28_ver_b1.png","f","pattern_51","f","true","","","","1566.8999999761581","true","54","","","","","","","","","","","","","","","","",""
"","","","","","html-keyboard-response","264","1477496","0.0-3.0-7.0-0.20","5ee11eb5636ea94d3ad43e3b","C3","batch3","pattern_show_trial_num","null","<p class=block-text>Trial 60 out of 78</p>","null","","","","","","","","","","","","","","","","","","","","","","","","","",""
"","","","","","image-keyboard-response","265","1482309","0.0-3.0-7.0-1.20","5ee11eb5636ea94d3ad43e3b","C3","batch3","pattern_response","4811.100000023842","stim/yes_48_dia_w1_w.png","f","pattern_69","f","true","","","","4811.100000023842","true","55","","","","","","","","","","","","","","","","",""
"","","","","","html-keyboard-response","266","1483637","0.0-3.0-7.0-0.21","5ee11eb5636ea94d3ad43e3b","C3","batch3","pattern_show_trial_num","null","<p class=block-text>Trial 61 out of 78</p>","null","","","","","","","","","","","","","","","","","","","","","","","","","",""
"","","","","","image-keyboard-response","267","1487218","0.0-3.0-7.0-1.21","5ee11eb5636ea94d3ad43e3b","C3","batch3","pattern_response","3579.6999999284744","stim/no_50_1.png","j","pattern_30","j","true","","","","3579.6999999284744","true","56","","","","","","","","","","","","","","","","",""
"","","","","","html-keyboard-response","268","1488534","0.0-3.0-7.0-0.22","5ee11eb5636ea94d3ad43e3b","C3","batch3","pattern_show_trial_num","null","<p class=block-text>Trial 62 out of 78</p>","null","","","","","","","","","","","","","","","","","","","","","","","","","",""
"","","","","","image-keyboard-response","269","1493114","0.0-3.0-7.0-1.22","5ee11eb5636ea94d3ad43e3b","C3","batch3","pattern_response","4577.899999976158","stim/yes_43_ver_w1_w.png","j","pattern_65","f","false","","","","4577.899999976158","false","56","","","","","","","","","","","","","","","","",""
"","","","","","html-keyboard-response","270","1494433","0.0-3.0-7.0-0.23","5ee11eb5636ea94d3ad43e3b","C3","batch3","pattern_show_trial_num","null","<p class=block-text>Trial 63 out of 78</p>","null","","","","","","","","","","","","","","","","","","","","","","","","","",""
"","","","","","image-keyboard-response","271","1499619","0.0-3.0-7.0-1.23","5ee11eb5636ea94d3ad43e3b","C3","batch3","pattern_response","5183.399999976158","stim/yes_50_dia_w1.png","j","pattern_71","f","false","","","","5183.399999976158","false","56","","","","","","","","","","","","","","","","",""
"","","","","","html-keyboard-response","272","1500933","0.0-3.0-7.0-0.24","5ee11eb5636ea94d3ad43e3b","C3","batch3","pattern_show_trial_num","null","<p class=block-text>Trial 64 out of 78</p>","null","","","","","","","","","","","","","","","","","","","","","","","","","",""
"","","","","","image-keyboard-response","273","1503181","0.0-3.0-7.0-1.24","5ee11eb5636ea94d3ad43e3b","C3","batch3","pattern_response","2245.2999999523163","stim/yes_38_hor_b1_b.png","f","pattern_61","f","true","","","","2245.2999999523163","true","57","","","","","","","","","","","","","","","","",""
"","","","","","html-keyboard-response","274","1504493","0.0-3.0-7.0-0.25","5ee11eb5636ea94d3ad43e3b","C3","batch3","pattern_show_trial_num","null","<p class=block-text>Trial 65 out of 78</p>","null","","","","","","","","","","","","","","","","","","","","","","","","","",""
"","","","","","image-keyboard-response","275","1509177","0.0-3.0-7.0-1.25","5ee11eb5636ea94d3ad43e3b","C3","batch3","pattern_response","4681.5","stim/no_36_2_w.png","f","pattern_18","j","false","","","","4681.5","false","57","","","","","","","","","","","","","","","","",""
"","","","","","html-keyboard-response","276","1510502","0.0-3.0-7.0-0.26","5ee11eb5636ea94d3ad43e3b","C3","batch3","pattern_show_trial_num","null","<p class=block-text>Trial 66 out of 78</p>","null","","","","","","","","","","","","","","","","","","","","","","","","","",""
"","","","","","image-keyboard-response","277","1512635","0.0-3.0-7.0-1.26","5ee11eb5636ea94d3ad43e3b","C3","batch3","pattern_response","2130.4000000953674","stim/no_23_1.png","j","pattern_08","j","true","","","","2130.4000000953674","true","58","","","","","","","","","","","","","","","","",""
"","","","","","html-keyboard-response","278","1513938","0.0-3.0-7.0-0.27","5ee11eb5636ea94d3ad43e3b","C3","batch3","pattern_show_trial_num","null","<p class=block-text>Trial 67 out of 78</p>","null","","","","","","","","","","","","","","","","","","","","","","","","","",""
"","","","","","image-keyboard-response","279","1518065","0.0-3.0-7.0-1.27","5ee11eb5636ea94d3ad43e3b","C3","batch3","pattern_response","4112.600000023842","stim/yes_31_hor_b1.png","j","pattern_55","f","false","","","","4112.600000023842","false","58","","","","","","","","","","","","","","","","",""
"","","","","","html-keyboard-response","280","1519383","0.0-3.0-7.0-0.28","5ee11eb5636ea94d3ad43e3b","C3","batch3","pattern_show_trial_num","null","<p class=block-text>Trial 68 out of 78</p>","null","","","","","","","","","","","","","","","","","","","","","","","","","",""
"","","","","","image-keyboard-response","281","1525390","0.0-3.0-7.0-1.28","5ee11eb5636ea94d3ad43e3b","C3","batch3","pattern_response","6004.100000023842","stim/no_42_1_w.png","j","pattern_22","j","true","","","","6004.100000023842","true","59","","","","","","","","","","","","","","","","",""
"","","","","","html-keyboard-response","282","1526702","0.0-3.0-7.0-0.29","5ee11eb5636ea94d3ad43e3b","C3","batch3","pattern_show_trial_num","null","<p class=block-text>Trial 69 out of 78</p>","null","","","","","","","","","","","","","","","","","","","","","","","","","",""
"","","","","","image-keyboard-response","283","1535439","0.0-3.0-7.0-1.29","5ee11eb5636ea94d3ad43e3b","C3","batch3","pattern_response","8734.900000095367","stim/no_52_1.png","j","pattern_32","j","true","","","","8734.900000095367","true","60","","","","","","","","","","","","","","","","",""
"","","","","","html-keyboard-response","284","1536748","0.0-3.0-7.0-0.30","5ee11eb5636ea94d3ad43e3b","C3","batch3","pattern_show_trial_num","null","<p class=block-text>Trial 70 out of 78</p>","null","","","","","","","","","","","","","","","","","","","","","","","","","",""
"","","","","","image-keyboard-response","285","1543886","0.0-3.0-7.0-1.30","5ee11eb5636ea94d3ad43e3b","C3","batch3","pattern_response","7135.5","stim/no_62_1_w.png","j","pattern_36","j","true","","","","7135.5","true","61","","","","","","","","","","","","","","","","",""
"","","","","","html-keyboard-response","286","1545205","0.0-3.0-7.0-0.31","5ee11eb5636ea94d3ad43e3b","C3","batch3","pattern_show_trial_num","null","<p class=block-text>Trial 71 out of 78</p>","null","","","","","","","","","","","","","","","","","","","","","","","","","",""
"","","","","","image-keyboard-response","287","1549047","0.0-3.0-7.0-1.31","5ee11eb5636ea94d3ad43e3b","C3","batch3","pattern_response","3838.9000000953674","stim/yes_55_hor_w1_w.png","f","pattern_75","f","true","","","","3838.9000000953674","true","62","","","","","","","","","","","","","","","","",""
"","","","","","html-keyboard-response","288","1550371","0.0-3.0-7.0-0.32","5ee11eb5636ea94d3ad43e3b","C3","batch3","pattern_show_trial_num","null","<p class=block-text>Trial 72 out of 78</p>","null","","","","","","","","","","","","","","","","","","","","","","","","","",""
"","","","","","image-keyboard-response","289","1555359","0.0-3.0-7.0-1.32","5ee11eb5636ea94d3ad43e3b","C3","batch3","pattern_response","4985.199999928474","stim/no_48_1_w.png","j","pattern_28","j","true","","","","4985.199999928474","true","63","","","","","","","","","","","","","","","","",""
"","","","","","html-keyboard-response","290","1556670","0.0-3.0-7.0-0.33","5ee11eb5636ea94d3ad43e3b","C3","batch3","pattern_show_trial_num","null","<p class=block-text>Trial 73 out of 78</p>","null","","","","","","","","","","","","","","","","","","","","","","","","","",""
"","","","","","image-keyboard-response","291","1558278","0.0-3.0-7.0-1.33","5ee11eb5636ea94d3ad43e3b","C3","batch3","pattern_response","1604.7999999523163","stim/no_29_1_b.png","j","pattern_12","j","true","","","","1604.7999999523163","true","64","","","","","","","","","","","","","","","","",""
"","","","","","html-keyboard-response","292","1559605","0.0-3.0-7.0-0.34","5ee11eb5636ea94d3ad43e3b","C3","batch3","pattern_show_trial_num","null","<p class=block-text>Trial 74 out of 78</p>","null","","","","","","","","","","","","","","","","","","","","","","","","","",""
"","","","","","image-keyboard-response","293","1560741","0.0-3.0-7.0-1.34","5ee11eb5636ea94d3ad43e3b","C3","batch3","pattern_response","1134.5","stim/yes_25_hor_b1_b.png","f","pattern_49","f","true","","","","1134.5","true","65","","","","","","","","","","","","","","","","",""
"","","","","","html-keyboard-response","294","1562055","0.0-3.0-7.0-0.35","5ee11eb5636ea94d3ad43e3b","C3","batch3","pattern_show_trial_num","null","<p class=block-text>Trial 75 out of 78</p>","null","","","","","","","","","","","","","","","","","","","","","","","","","",""
"","","","","","image-keyboard-response","295","1567983","0.0-3.0-7.0-1.35","5ee11eb5636ea94d3ad43e3b","C3","batch3","pattern_response","5925.600000023842","stim/no_46_1_b.png","j","pattern_26","j","true","","","","5925.600000023842","true","66","","","","","","","","","","","","","","","","",""
"","","","","","html-keyboard-response","296","1569305","0.0-3.0-7.0-0.36","5ee11eb5636ea94d3ad43e3b","C3","batch3","pattern_show_trial_num","null","<p class=block-text>Trial 76 out of 78</p>","null","","","","","","","","","","","","","","","","","","","","","","","","","",""
"","","","","","image-keyboard-response","297","1572909","0.0-3.0-7.0-1.36","5ee11eb5636ea94d3ad43e3b","C3","batch3","pattern_response","3601.600000023842","stim/yes_67_hor_b1.png","f","pattern_79","f","true","","","","3601.600000023842","true","67","","","","","","","","","","","","","","","","",""
"","","","","","html-keyboard-response","298","1574227","0.0-3.0-7.0-0.37","5ee11eb5636ea94d3ad43e3b","C3","batch3","pattern_show_trial_num","null","<p class=block-text>Trial 77 out of 78</p>","null","","","","","","","","","","","","","","","","","","","","","","","","","",""
"","","","","","image-keyboard-response","299","1581697","0.0-3.0-7.0-1.37","5ee11eb5636ea94d3ad43e3b","C3","batch3","pattern_response","7475","stim/no_44_1.png","j","pattern_24","j","true","","","","7475","true","68","","","","","","","","","","","","","","","","",""
"","","","","","html-keyboard-response","300","1583017","0.0-3.0-7.0-0.38","5ee11eb5636ea94d3ad43e3b","C3","batch3","pattern_show_trial_num","null","<p class=block-text>Trial 78 out of 78</p>","null","","","","","","","","","","","","","","","","","","","","","","","","","",""
"","","","","","image-keyboard-response","301","1584605","0.0-3.0-7.0-1.38","5ee11eb5636ea94d3ad43e3b","C3","batch3","pattern_response","1586.1000000238419","stim/yes_52_ver_w1.png","f","pattern_73","f","true","","","","1586.1000000238419","true","69","","","","","","","","","","","","","","","","",""
"","","","","","html-button-response","302","1591109","0.0-3.0-8.0","5ee11eb5636ea94d3ad43e3b","C3","batch3","","5997.200000047684","<p class = block-text>This concludes the 4-in-a-row detection game.Thank you for your responses!<br>
            You responded correctly on 88% of the trials.<br>
            When you are ready, press ""Continue"" button to continue </p>","0","","","","","","","","","","","","","","","","","","","","","","","","","",""
"true","","","","","fullscreen","303","1595907","0.0-4.0-0.0","5ee11eb5636ea94d3ad43e3b","C3","batch3","","","","","","","","","","","","","","","","","","","","","","","","","","","","","",""
"","","","","","instructions","304","1650773","0.0-4.0-1.0-0.0-0.0","5ee11eb5636ea94d3ad43e3b","C3","batch3","tol-instructions","54856.89999997616","","","","","","","","[{""page_index"":0,""viewing_time"":18368.600000023842},{""page_index"":1,""viewing_time"":6864.299999952316},{""page_index"":2,""viewing_time"":5344.100000023842},{""page_index"":3,""viewing_time"":9271.399999976158},{""page_index"":4,""viewing_time"":2568.399999976158},{""page_index"":5,""viewing_time"":9463.100000023842},{""page_index"":6,""viewing_time"":2976.5}]","","","","","","","","","","","","","","","","","","","",""
"","","","","","html-button-response","305","1652406","0.0-4.0-1.0-1.0-0.0","5ee11eb5636ea94d3ad43e3b","C3","batch3","tol_enter_quiz","1631.3000000715256","<p class=block-text> Let's answer a few questions <br>","0","","","","","","","","","","","","","","","","","","","","","","","","","",""
"","","","","","html-button-response","306","1662053","0.0-4.0-1.0-1.0-1.0","5ee11eb5636ea94d3ad43e3b","C3","batch3","tol_quiz","9646.100000023842","<p class = block-text>True or False: You can only move the ball on top of a peg. <br></p>","0","","","true","","","","","","","","","","","","","","","","","","","","","","",""
"","","","","","html-button-response","307","1663573","0.0-4.0-1.0-1.0-2.0","5ee11eb5636ea94d3ad43e3b","C3","batch3","tol_quiz_feedback","1518.6999999284744","<p class = block-text>Correct! You can only move the ball on top of a peg.</p>","0","","","","","","","","","","","","","","","","","","","","","","","","","",""
"","","","","","html-button-response","308","1667973","0.0-4.0-1.0-1.0-3.0","5ee11eb5636ea94d3ad43e3b","C3","batch3","tol_quiz","4398.299999952316","<p class = block-text>True or False: You should try to match your board with the target board with fewest moves possible. <br></p>","0","","","true","","","","","","","","","","","","","","","","","","","","","","",""
"","","","","","html-button-response","309","1667996","0.0-4.0-1.0-1.0-4.0","5ee11eb5636ea94d3ad43e3b","C3","batch3","tol_quiz_feedback","21.700000047683716","<p class = block-text>Correct! </p>","0","","","","","","","","","","","","","","","","","","","","","","","","","",""
"","","","","","html-button-response","310","1670429","0.0-4.0-2.0","5ee11eb5636ea94d3ad43e3b","C3","batch3","","2431.2999999523163","<p class=block-text> Now that you've understood the game, let's practice a few easier examples before we start!<br> <br>","0","","","","","","","","","","","","","","","","","","","","","","","","","",""
"","","","","","single-stim-button","311","1676815","0.0-4.0-3.0-0.0","5ee11eb5636ea94d3ad43e3b","C3","batch3","tol_practice","6384","","","","","","","","","","","","","","tol_peg_2","6384","6384","0","[[1,2,0],[0,0],[0]]","1","[[1,2,0],[0,0],[3]]","practice","6384","","","","","",""
"","","","","","single-stim-button","312","1678341","0.0-4.0-3.0-1.0","5ee11eb5636ea94d3ad43e3b","C3","batch3","tol_practice","1525","","","","","","","","","","","","","","tol_peg_3","1525","1525","0","[[1,2,0],[0,0],[3]]","1","[[1,2,0],[0,0],[3]]","practice","1525","","","","","",""
"","","","","","poldrack-single-stim","313","1679354","0.0-4.0-4.0","5ee11eb5636ea94d3ad43e3b","C3","batch3","tol_feedback","-1","","","","","true","","","","","","","","","","1000","1000","500","","","","","","-1","none","true","","0",""
"","","","","","single-stim-button","314","1682492","0.0-4.0-5.0-0.0","5ee11eb5636ea94d3ad43e3b","C3","batch3","tol_practice","3137","","","","","","","","","","","","","","tol_peg_1","3137","3137","0","[[1,0,0],[3,0],[0]]","2","[[0,0,0],[3,1],[2]]","practice","3137","","","","","",""
"","","","","","single-stim-button","315","1683541","0.0-4.0-5.0-1.0","5ee11eb5636ea94d3ad43e3b","C3","batch3","tol_practice","1048","","","","","","","","","","","","","","tol_peg_3","1048","1048","0","[[1,0,0],[3,0],[2]]","2","[[0,0,0],[3,1],[2]]","practice","1048","","","","","",""
"","","","","","single-stim-button","316","1685597","0.0-4.0-5.1-0.1","5ee11eb5636ea94d3ad43e3b","C3","batch3","tol_practice","2054","","","","","","","","","","","","","","tol_peg_2","2054","2054","0","[[1,0,0],[0,0],[2]]","3","[[0,0,0],[3,1],[2]]","practice","2054","","","","","",""
"","","","","","single-stim-button","317","1687526","0.0-4.0-5.1-1.1","5ee11eb5636ea94d3ad43e3b","C3","batch3","tol_practice","1928","","","","","","","","","","","","","","tol_peg_2","1928","1928","0","[[1,0,0],[3,0],[2]]","3","[[0,0,0],[3,1],[2]]","practice","1928","","","","","",""
"","","","","","single-stim-button","318","1689564","0.0-4.0-5.2-0.2","5ee11eb5636ea94d3ad43e3b","C3","batch3","tol_practice","2038","","","","","","","","","","","","","","tol_peg_1","2038","2038","0","[[0,0,0],[3,0],[2]]","4","[[0,0,0],[3,1],[2]]","practice","2038","","","","","",""
"","","","","","single-stim-button","319","1690582","0.0-4.0-5.2-1.2","5ee11eb5636ea94d3ad43e3b","C3","batch3","tol_practice","1016","","","","","","","","","","","","","","tol_peg_2","1016","1016","0","[[0,0,0],[3,1],[2]]","4","[[0,0,0],[3,1],[2]]","practice","1016","","","","","",""
"","","","","","poldrack-single-stim","320","1691583","0.0-4.0-6.0","5ee11eb5636ea94d3ad43e3b","C3","batch3","tol_feedback","-1","","","","","true","","","","","","","","","","1000","1000","500","","","","","","-1","none","true","","0",""
"","","","","","single-stim-button","321","1695388","0.0-4.0-7.0-0.0","5ee11eb5636ea94d3ad43e3b","C3","batch3","tol_practice","3804","","","","","","","","","","","","","","tol_peg_2","3804","3804","0","[[1,2,0],[0,0],[0]]","5","[[1,0,0],[2,0],[3]]","practice","3804","","","","","",""
"","","","","","single-stim-button","322","1696277","0.0-4.0-7.0-1.0","5ee11eb5636ea94d3ad43e3b","C3","batch3","tol_practice","887","","","","","","","","","","","","","","tol_peg_3","887","887","0","[[1,2,0],[0,0],[3]]","5","[[1,0,0],[2,0],[3]]","practice","887","","","","","",""
"","","","","","single-stim-button","323","1697189","0.0-4.0-7.1-0.1","5ee11eb5636ea94d3ad43e3b","C3","batch3","tol_practice","912","","","","","","","","","","","","","","tol_peg_1","912","912","0","[[1,0,0],[0,0],[3]]","6","[[1,0,0],[2,0],[3]]","practice","912","","","","","",""
"","","","","","single-stim-button","324","1697956","0.0-4.0-7.1-1.1","5ee11eb5636ea94d3ad43e3b","C3","batch3","tol_practice","766","","","","","","","","","","","","","","tol_peg_2","766","766","0","[[1,0,0],[2,0],[3]]","6","[[1,0,0],[2,0],[3]]","practice","766","","","","","",""
"","","","","","poldrack-single-stim","325","1698964","0.0-4.0-8.0","5ee11eb5636ea94d3ad43e3b","C3","batch3","tol_feedback","-1","","","","","true","","","","","","","","","","1000","1000","500","","","","","","-1","none","true","","0",""
"","","","","","html-button-response","326","1700772","0.0-4.0-9.0","5ee11eb5636ea94d3ad43e3b","C3","batch3","tol_instruction","1807.6999999284744","<div class = centerbox><p class = center-block-text>Great job! You are done with practice trials<br>You are about to start official trials.<br> <br> Problem <strong>1</strong> out of 25 problems</p></div>","0","","","","","","","","","","","","","","","","","","","","","","","","","",""
"","","","","","single-stim-button","327","1706653","0.0-4.0-10.0-0.0","5ee11eb5636ea94d3ad43e3b","C3","batch3","tol_tohand","4876","","","","","","","","","","","","","","tol_peg_2","4876","4876","0","[[1,2,0],[0,0],[0]]","1","[[1,3,0],[2,0],[0]]","0","0","","","","","","3"
"","","","","","single-stim-button","328","1707413","0.0-4.0-10.0-1.0","5ee11eb5636ea94d3ad43e3b","C3","batch3","tol_toboard","760","","","","","","","","","","","","","","tol_peg_3","760","760","0","[[1,2,0],[0,0],[3]]","1","[[1,3,0],[2,0],[0]]","0","0","","","","","","3"
"","","","","","single-stim-button","329","1710129","0.0-4.0-10.1-0.1","5ee11eb5636ea94d3ad43e3b","C3","batch3","tol_tohand","2715","","","","","","","","","","","","","","tol_peg_1","2715","2715","0","[[1,0,0],[0,0],[3]]","2","[[1,3,0],[2,0],[0]]","0","0","","","","","","3"
"","","","","","single-stim-button","330","1710749","0.0-4.0-10.1-1.1","5ee11eb5636ea94d3ad43e3b","C3","batch3","tol_toboard","619","","","","","","","","","","","","","","tol_peg_2","619","619","0","[[1,0,0],[2,0],[3]]","2","[[1,3,0],[2,0],[0]]","0","0","","","","","","3"
"","","","","","single-stim-button","331","1712693","0.0-4.0-10.2-0.2","5ee11eb5636ea94d3ad43e3b","C3","batch3","tol_tohand","1943","","","","","","","","","","","","","","tol_peg_3","1943","1943","0","[[1,0,0],[2,0],[0]]","3","[[1,3,0],[2,0],[0]]","0","0","","","","","","3"
"","","","","","single-stim-button","332","1713949","0.0-4.0-10.2-1.2","5ee11eb5636ea94d3ad43e3b","C3","batch3","tol_toboard","1255","","","","","","","","","","","","","","tol_peg_1","1255","1255","0","[[1,3,0],[2,0],[0]]","3","[[1,3,0],[2,0],[0]]","0","0","","","","","","3"
"","","","","","poldrack-single-stim","333","1714956","0.0-4.0-11.0","5ee11eb5636ea94d3ad43e3b","C3","batch3","tol_feedback","-1","","","","","true","","","","","","","","","","1000","1000","500","","","","","","-1","none","true","4876","9534",""
"","","","","","html-button-response","334","1716813","0.0-4.0-12.0","5ee11eb5636ea94d3ad43e3b","C3","batch3","tol_trial_num","1855.6000000238419","<div class = centerbox><p class = center-block-text>problem <strong>2</strong> out of 25 problems</p></div>","0","","","","","","","","","","","","","","","","","","","","","","","","","",""
"","","","","","single-stim-button","335","1721741","0.0-4.0-13.0-0.0","5ee11eb5636ea94d3ad43e3b","C3","batch3","tol_tohand","4927","","","","","","","","","","","","","","tol_peg_2","4927","4927","0","[[1,2,0],[0,0],[0]]","1","[[2,1,3],[0,0],[0]]","1","0","","","","","","5"
"","","","","","single-stim-button","336","1722788","0.0-4.0-13.0-1.0","5ee11eb5636ea94d3ad43e3b","C3","batch3","tol_toboard","1046","","","","","","","","","","","","","","tol_peg_3","1046","1046","0","[[1,2,0],[0,0],[3]]","1","[[2,1,3],[0,0],[0]]","1","0","","","","","","5"
"","","","","","single-stim-button","337","1734684","0.0-4.0-13.1-0.1","5ee11eb5636ea94d3ad43e3b","C3","batch3","tol_tohand","11895","","","","","","","","","","","","","","tol_peg_3","11895","11895","0","[[1,2,0],[0,0],[0]]","2","[[2,1,3],[0,0],[0]]","1","0","","","","","","5"
"","","","","","single-stim-button","338","1735917","0.0-4.0-13.1-1.1","5ee11eb5636ea94d3ad43e3b","C3","batch3","tol_toboard","1232","","","","","","","","","","","","","","tol_peg_2","1232","1232","0","[[1,2,0],[3,0],[0]]","2","[[2,1,3],[0,0],[0]]","1","0","","","","","","5"
"","","","","","single-stim-button","339","1737309","0.0-4.0-13.2-0.2","5ee11eb5636ea94d3ad43e3b","C3","batch3","tol_tohand","1391","","","","","","","","","","","","","","tol_peg_1","1391","1391","0","[[1,0,0],[3,0],[0]]","3","[[2,1,3],[0,0],[0]]","1","0","","","","","","5"
"","","","","","single-stim-button","340","1738357","0.0-4.0-13.2-1.2","5ee11eb5636ea94d3ad43e3b","C3","batch3","tol_toboard","1047","","","","","","","","","","","","","","tol_peg_3","1047","1047","0","[[1,0,0],[3,0],[2]]","3","[[2,1,3],[0,0],[0]]","1","0","","","","","","5"
"","","","","","single-stim-button","341","1739301","0.0-4.0-13.3-0.3","5ee11eb5636ea94d3ad43e3b","C3","batch3","tol_tohand","942","","","","","","","","","","","","","","tol_peg_1","942","942","0","[[0,0,0],[3,0],[2]]","4","[[2,1,3],[0,0],[0]]","1","0","","","","","","5"
"","","","","","single-stim-button","342","1740564","0.0-4.0-13.3-1.3","5ee11eb5636ea94d3ad43e3b","C3","batch3","tol_toboard","1263","","","","","","","","","","","","","","tol_peg_2","1263","1263","0","[[0,0,0],[3,1],[2]]","4","[[2,1,3],[0,0],[0]]","1","0","","","","","","5"
"","","","","","single-stim-button","343","1741332","0.0-4.0-13.4-0.4","5ee11eb5636ea94d3ad43e3b","C3","batch3","tol_tohand","767","","","","","","","","","","","","","","tol_peg_3","767","767","0","[[0,0,0],[3,1],[0]]","5","[[2,1,3],[0,0],[0]]","1","0","","","","","","5"
"","","","","","single-stim-button","344","1742812","0.0-4.0-13.4-1.4","5ee11eb5636ea94d3ad43e3b","C3","batch3","tol_toboard","1479","","","","","","","","","","","","","","tol_peg_1","1479","1479","0","[[2,0,0],[3,1],[0]]","5","[[2,1,3],[0,0],[0]]","1","0","","","","","","5"
"","","","","","single-stim-button","345","1743766","0.0-4.0-13.5-0.5","5ee11eb5636ea94d3ad43e3b","C3","batch3","tol_tohand","952","","","","","","","","","","","","","","tol_peg_2","952","952","0","[[2,0,0],[3,0],[0]]","6","[[2,1,3],[0,0],[0]]","1","0","","","","","","5"
"","","","","","single-stim-button","346","1744596","0.0-4.0-13.5-1.5","5ee11eb5636ea94d3ad43e3b","C3","batch3","tol_toboard","830","","","","","","","","","","","","","","tol_peg_1","830","830","0","[[2,1,0],[3,0],[0]]","6","[[2,1,3],[0,0],[0]]","1","0","","","","","","5"
