"success","timeout","failed_images","failed_audio","failed_video","trial_type","trial_index","time_elapsed","internal_node_id","subject_id","study_id","session_id","task","rt","stimulus","response","item","answer","correct","spm_correct","spm_rt","view_history","mouse_click","stim_duration","block_duration","timing_post_trial","current_position","tol_num_moves_made","tol_target","tol_problem_id","tol_rt","key_press","possible_responses","tol_correct","preplanning","tol_rt_per_trial","tol_min_moves","fiar_detect_rt","fiar_detect_correct","total_correct_fiar_detect","post_trial_gap","choices"
"true","false","[]","[]","[]","preload","0","3202","0.0-0.0","5eea591930ca5f0ddaa75a7f","C3","batch3","","","","","","","","","","","","","","","","","","","","","","","","","","","","","",""
"true","","","","","fullscreen","1","15558","0.0-1.0-0.0","5eea591930ca5f0ddaa75a7f","C3","batch3","","","","","","","","","","","","","","","","","","","","","","","","","","","","","",""
"true","","","","","fullscreen","2","18435","0.0-2.0-0.0","5eea591930ca5f0ddaa75a7f","C3","batch3","spm_fullscreen","","","","","","","","","","","","","","","","","","","","","","","","","","","","",""
"","","","","","html-button-response","3","24611","0.0-2.0-1.0","5eea591930ca5f0ddaa75a7f","C3","batch3","","6173","<p class = block-text><b>Instructions</b> <br>This is a widely used intelligence test in research. <br>In this test, a figure with a missing piece will be presented.<br>Below the figure are alternative pieces to complete the figure, only one of which is correct.<br> Different figures might involve different principles for obtaining the missing piece<br>Your job is to select the most logical piece to complete the figure.</p>","0","","","","","","","","","","","","","","","","","","","","","","","","","",""
"","","","","","html-keyboard-response","4","25412","0.0-2.0-2.0-0.0","5eea591930ca5f0ddaa75a7f","C3","batch3","spm_show_trial_num","null","<p class=block-text>Trial 1 out of 60</p>","null","","","","","","","","","","","","","","","","","","","","","","","","","",""
"","","","","","image-button-response","5","29619","0.0-2.0-2.0-1.0","5eea591930ca5f0ddaa75a7f","C3","batch3","spm_respsonse","4188","img/question_1_1.jpeg","4","mat_01","4","0","0","4188","","","","","","","","","","","","","","","","","","","","",""
"","","","","","html-keyboard-response","6","30693","0.0-2.0-2.0-0.1","5eea591930ca5f0ddaa75a7f","C3","batch3","spm_show_trial_num","null","<p class=block-text>Trial 2 out of 60</p>","null","","","","","","","","","","","","","","","","","","","","","","","","","",""
"","","","","","image-button-response","7","33163","0.0-2.0-2.0-1.1","5eea591930ca5f0ddaa75a7f","C3","batch3","spm_respsonse","2467","img/question_1_2.jpeg","4","mat_02","5","1","1","2467","","","","","","","","","","","","","","","","","","","","",""
"","","","","","html-keyboard-response","8","34220","0.0-2.0-2.0-0.2","5eea591930ca5f0ddaa75a7f","C3","batch3","spm_show_trial_num","null","<p class=block-text>Trial 3 out of 60</p>","null","","","","","","","","","","","","","","","","","","","","","","","","","",""
"","","","","","image-button-response","9","37346","0.0-2.0-2.0-1.2","5eea591930ca5f0ddaa75a7f","C3","batch3","spm_respsonse","3125","img/question_1_3.jpeg","0","mat_03","1","1","1","3125","","","","","","","","","","","","","","","","","","","","",""
"","","","","","html-keyboard-response","10","38399","0.0-2.0-2.0-0.3","5eea591930ca5f0ddaa75a7f","C3","batch3","spm_show_trial_num","null","<p class=block-text>Trial 4 out of 60</p>","null","","","","","","","","","","","","","","","","","","","","","","","","","",""
"","","","","","image-button-response","11","42666","0.0-2.0-2.0-1.3","5eea591930ca5f0ddaa75a7f","C3","batch3","spm_respsonse","4266","img/question_1_4.jpeg","1","mat_04","2","1","1","4266","","","","","","","","","","","","","","","","","","","","",""
"","","","","","html-keyboard-response","12","43722","0.0-2.0-2.0-0.4","5eea591930ca5f0ddaa75a7f","C3","batch3","spm_show_trial_num","null","<p class=block-text>Trial 5 out of 60</p>","null","","","","","","","","","","","","","","","","","","","","","","","","","",""
"","","","","","image-button-response","13","47643","0.0-2.0-2.0-1.4","5eea591930ca5f0ddaa75a7f","C3","batch3","spm_respsonse","3919","img/question_1_5.jpeg","5","mat_05","6","1","1","3919","","","","","","","","","","","","","","","","","","","","",""
"","","","","","html-keyboard-response","14","48696","0.0-2.0-2.0-0.5","5eea591930ca5f0ddaa75a7f","C3","batch3","spm_show_trial_num","null","<p class=block-text>Trial 6 out of 60</p>","null","","","","","","","","","","","","","","","","","","","","","","","","","",""
"","","","","","image-button-response","15","52314","0.0-2.0-2.0-1.5","5eea591930ca5f0ddaa75a7f","C3","batch3","spm_respsonse","3617","img/question_1_6.jpeg","2","mat_06","3","1","1","3617","","","","","","","","","","","","","","","","","","","","",""
"","","","","","html-keyboard-response","16","53366","0.0-2.0-2.0-0.6","5eea591930ca5f0ddaa75a7f","C3","batch3","spm_show_trial_num","null","<p class=block-text>Trial 7 out of 60</p>","null","","","","","","","","","","","","","","","","","","","","","","","","","",""
"","","","","","image-button-response","17","56691","0.0-2.0-2.0-1.6","5eea591930ca5f0ddaa75a7f","C3","batch3","spm_respsonse","3322","img/question_1_7.jpeg","5","mat_07","6","1","1","3322","","","","","","","","","","","","","","","","","","","","",""
"","","","","","html-keyboard-response","18","57742","0.0-2.0-2.0-0.7","5eea591930ca5f0ddaa75a7f","C3","batch3","spm_show_trial_num","null","<p class=block-text>Trial 8 out of 60</p>","null","","","","","","","","","","","","","","","","","","","","","","","","","",""
"","","","","","image-button-response","19","60818","0.0-2.0-2.0-1.7","5eea591930ca5f0ddaa75a7f","C3","batch3","spm_respsonse","3074","img/question_1_8.jpeg","1","mat_08","2","1","1","3074","","","","","","","","","","","","","","","","","","","","",""
"","","","","","html-keyboard-response","20","61870","0.0-2.0-2.0-0.8","5eea591930ca5f0ddaa75a7f","C3","batch3","spm_show_trial_num","null","<p class=block-text>Trial 9 out of 60</p>","null","","","","","","","","","","","","","","","","","","","","","","","","","",""
"","","","","","image-button-response","21","65434","0.0-2.0-2.0-1.8","5eea591930ca5f0ddaa75a7f","C3","batch3","spm_respsonse","3561","img/question_1_9.jpeg","0","mat_09","1","1","1","3561","","","","","","","","","","","","","","","","","","","","",""
"","","","","","html-keyboard-response","22","66508","0.0-2.0-2.0-0.9","5eea591930ca5f0ddaa75a7f","C3","batch3","spm_show_trial_num","null","<p class=block-text>Trial 10 out of 60</p>","null","","","","","","","","","","","","","","","","","","","","","","","","","",""
"","","","","","image-button-response","23","68771","0.0-2.0-2.0-1.9","5eea591930ca5f0ddaa75a7f","C3","batch3","spm_respsonse","2260","img/question_1_10.jpeg","2","mat_10","3","1","1","2260","","","","","","","","","","","","","","","","","","","","",""
"","","","","","html-keyboard-response","24","69823","0.0-2.0-2.0-0.10","5eea591930ca5f0ddaa75a7f","C3","batch3","spm_show_trial_num","null","<p class=block-text>Trial 11 out of 60</p>","null","","","","","","","","","","","","","","","","","","","","","","","","","",""
"","","","","","image-button-response","25","75379","0.0-2.0-2.0-1.10","5eea591930ca5f0ddaa75a7f","C3","batch3","spm_respsonse","5554","img/question_1_11.jpeg","3","mat_11","4","1","1","5554","","","","","","","","","","","","","","","","","","","","",""
"","","","","","html-keyboard-response","26","76431","0.0-2.0-2.0-0.11","5eea591930ca5f0ddaa75a7f","C3","batch3","spm_show_trial_num","null","<p class=block-text>Trial 12 out of 60</p>","null","","","","","","","","","","","","","","","","","","","","","","","","","",""
"","","","","","image-button-response","27","82426","0.0-2.0-2.0-1.11","5eea591930ca5f0ddaa75a7f","C3","batch3","spm_respsonse","5994","img/question_1_12.jpeg","0","mat_12","5","0","0","5994","","","","","","","","","","","","","","","","","","","","",""
"","","","","","html-keyboard-response","28","83478","0.0-2.0-2.0-0.12","5eea591930ca5f0ddaa75a7f","C3","batch3","spm_show_trial_num","null","<p class=block-text>Trial 13 out of 60</p>","null","","","","","","","","","","","","","","","","","","","","","","","","","",""
"","","","","","image-button-response","29","85314","0.0-2.0-2.0-1.12","5eea591930ca5f0ddaa75a7f","C3","batch3","spm_respsonse","1834","img/question_2_1.jpeg","1","mat_13","2","1","1","1834","","","","","","","","","","","","","","","","","","","","",""
"","","","","","html-keyboard-response","30","86367","0.0-2.0-2.0-0.13","5eea591930ca5f0ddaa75a7f","C3","batch3","spm_show_trial_num","null","<p class=block-text>Trial 14 out of 60</p>","null","","","","","","","","","","","","","","","","","","","","","","","","","",""
"","","","","","image-button-response","31","89802","0.0-2.0-2.0-1.13","5eea591930ca5f0ddaa75a7f","C3","batch3","spm_respsonse","3433","img/question_2_2.jpeg","5","mat_14","6","1","1","3433","","","","","","","","","","","","","","","","","","","","",""
"","","","","","html-keyboard-response","32","90854","0.0-2.0-2.0-0.14","5eea591930ca5f0ddaa75a7f","C3","batch3","spm_show_trial_num","null","<p class=block-text>Trial 15 out of 60</p>","null","","","","","","","","","","","","","","","","","","","","","","","","","",""
"","","","","","image-button-response","33","93186","0.0-2.0-2.0-1.14","5eea591930ca5f0ddaa75a7f","C3","batch3","spm_respsonse","2330","img/question_2_3.jpeg","0","mat_15","1","1","1","2330","","","","","","","","","","","","","","","","","","","","",""
"","","","","","html-keyboard-response","34","94240","0.0-2.0-2.0-0.15","5eea591930ca5f0ddaa75a7f","C3","batch3","spm_show_trial_num","null","<p class=block-text>Trial 16 out of 60</p>","null","","","","","","","","","","","","","","","","","","","","","","","","","",""
"","","","","","image-button-response","35","97378","0.0-2.0-2.0-1.15","5eea591930ca5f0ddaa75a7f","C3","batch3","spm_respsonse","3136","img/question_2_4.jpeg","1","mat_16","2","1","1","3136","","","","","","","","","","","","","","","","","","","","",""
"","","","","","html-keyboard-response","36","98432","0.0-2.0-2.0-0.16","5eea591930ca5f0ddaa75a7f","C3","batch3","spm_show_trial_num","null","<p class=block-text>Trial 17 out of 60</p>","null","","","","","","","","","","","","","","","","","","","","","","","","","",""
"","","","","","image-button-response","37","102186","0.0-2.0-2.0-1.16","5eea591930ca5f0ddaa75a7f","C3","batch3","spm_respsonse","3751","img/question_2_5.jpeg","0","mat_17","1","1","1","3751","","","","","","","","","","","","","","","","","","","","",""
"","","","","","html-keyboard-response","38","103238","0.0-2.0-2.0-0.17","5eea591930ca5f0ddaa75a7f","C3","batch3","spm_show_trial_num","null","<p class=block-text>Trial 18 out of 60</p>","null","","","","","","","","","","","","","","","","","","","","","","","","","",""
"","","","","","image-button-response","39","105771","0.0-2.0-2.0-1.17","5eea591930ca5f0ddaa75a7f","C3","batch3","spm_respsonse","2529","img/question_2_6.jpeg","1","mat_18","3","0","0","2529","","","","","","","","","","","","","","","","","","","","",""
"","","","","","html-keyboard-response","40","106823","0.0-2.0-2.0-0.18","5eea591930ca5f0ddaa75a7f","C3","batch3","spm_show_trial_num","null","<p class=block-text>Trial 19 out of 60</p>","null","","","","","","","","","","","","","","","","","","","","","","","","","",""
"","","","","","image-button-response","41","114210","0.0-2.0-2.0-1.18","5eea591930ca5f0ddaa75a7f","C3","batch3","spm_respsonse","7384","img/question_2_7.jpeg","4","mat_19","5","1","1","7384","","","","","","","","","","","","","","","","","","","","",""
"","","","","","html-keyboard-response","42","115264","0.0-2.0-2.0-0.19","5eea591930ca5f0ddaa75a7f","C3","batch3","spm_show_trial_num","null","<p class=block-text>Trial 20 out of 60</p>","null","","","","","","","","","","","","","","","","","","","","","","","","","",""
"","","","","","image-button-response","43","120035","0.0-2.0-2.0-1.19","5eea591930ca5f0ddaa75a7f","C3","batch3","spm_respsonse","4769","img/question_2_8.jpeg","5","mat_20","6","1","1","4769","","","","","","","","","","","","","","","","","","","","",""
"","","","","","html-keyboard-response","44","121098","0.0-2.0-2.0-0.20","5eea591930ca5f0ddaa75a7f","C3","batch3","spm_show_trial_num","null","<p class=block-text>Trial 21 out of 60</p>","null","","","","","","","","","","","","","","","","","","","","","","","","","",""
"","","","","","image-button-response","45","127483","0.0-2.0-2.0-1.20","5eea591930ca5f0ddaa75a7f","C3","batch3","spm_respsonse","6382","img/question_2_9.jpeg","3","mat_21","4","1","1","6382","","","","","","","","","","","","","","","","","","","","",""
"","","","","","html-keyboard-response","46","128535","0.0-2.0-2.0-0.21","5eea591930ca5f0ddaa75a7f","C3","batch3","spm_show_trial_num","null","<p class=block-text>Trial 22 out of 60</p>","null","","","","","","","","","","","","","","","","","","","","","","","","","",""
"","","","","","image-button-response","47","132195","0.0-2.0-2.0-1.21","5eea591930ca5f0ddaa75a7f","C3","batch3","spm_respsonse","3658","img/question_2_10.jpeg","2","mat_22","3","1","1","3658","","","","","","","","","","","","","","","","","","","","",""
"","","","","","html-keyboard-response","48","133247","0.0-2.0-2.0-0.22","5eea591930ca5f0ddaa75a7f","C3","batch3","spm_show_trial_num","null","<p class=block-text>Trial 23 out of 60</p>","null","","","","","","","","","","","","","","","","","","","","","","","","","",""
"","","","","","image-button-response","49","136267","0.0-2.0-2.0-1.22","5eea591930ca5f0ddaa75a7f","C3","batch3","spm_respsonse","3019","img/question_2_11.jpeg","5","mat_23","4","0","0","3019","","","","","","","","","","","","","","","","","","","","",""
"","","","","","html-keyboard-response","50","137321","0.0-2.0-2.0-0.23","5eea591930ca5f0ddaa75a7f","C3","batch3","spm_show_trial_num","null","<p class=block-text>Trial 24 out of 60</p>","null","","","","","","","","","","","","","","","","","","","","","","","","","",""
"","","","","","image-button-response","51","143699","0.0-2.0-2.0-1.23","5eea591930ca5f0ddaa75a7f","C3","batch3","spm_respsonse","6376","img/question_2_12.jpeg","4","mat_24","5","1","1","6376","","","","","","","","","","","","","","","","","","","","",""
"","","","","","html-button-response","52","145771","0.0-2.0-3.0","5eea591930ca5f0ddaa75a7f","C3","batch3","attention_check","1820","<p class = block-text>Attention check: Please choose 1<br></p>","0","","","true","","","","","","","","","","","","","","","","","","","","","","",""
"","","","","","html-keyboard-response","53","146573","0.0-2.0-4.0-0.0","5eea591930ca5f0ddaa75a7f","C3","batch3","spm_show_trial_num","null","<p class=block-text>Trial 25 out of 60</p>","null","","","","","","","","","","","","","","","","","","","","","","","","","",""
"","","","","","image-button-response","54","150459","0.0-2.0-4.0-1.0","5eea591930ca5f0ddaa75a7f","C3","batch3","spm_respsonse","3884","img/question_3_1.jpeg","1","mat_25","8","0","0","3884","","","","","","","","","","","","","","","","","","","","",""
"","","","","","html-keyboard-response","55","151517","0.0-2.0-4.0-0.1","5eea591930ca5f0ddaa75a7f","C3","batch3","spm_show_trial_num","null","<p class=block-text>Trial 26 out of 60</p>","null","","","","","","","","","","","","","","","","","","","","","","","","","",""
"","","","","","image-button-response","56","158699","0.0-2.0-4.0-1.1","5eea591930ca5f0ddaa75a7f","C3","batch3","spm_respsonse","7179","img/question_3_2.jpeg","1","mat_26","2","1","1","7179","","","","","","","","","","","","","","","","","","","","",""
"","","","","","html-keyboard-response","57","159757","0.0-2.0-4.0-0.2","5eea591930ca5f0ddaa75a7f","C3","batch3","spm_show_trial_num","null","<p class=block-text>Trial 27 out of 60</p>","null","","","","","","","","","","","","","","","","","","","","","","","","","",""
"","","","","","image-button-response","58","166451","0.0-2.0-4.0-1.2","5eea591930ca5f0ddaa75a7f","C3","batch3","spm_respsonse","6692","img/question_3_3.jpeg","0","mat_27","3","0","0","6692","","","","","","","","","","","","","","","","","","","","",""
"","","","","","html-keyboard-response","59","167510","0.0-2.0-4.0-0.3","5eea591930ca5f0ddaa75a7f","C3","batch3","spm_show_trial_num","null","<p class=block-text>Trial 28 out of 60</p>","null","","","","","","","","","","","","","","","","","","","","","","","","","",""
"","","","","","image-button-response","60","170379","0.0-2.0-4.0-1.3","5eea591930ca5f0ddaa75a7f","C3","batch3","spm_respsonse","2867","img/question_3_4.jpeg","7","mat_28","8","1","1","2867","","","","","","","","","","","","","","","","","","","","",""
"","","","","","html-keyboard-response","61","171439","0.0-2.0-4.0-0.4","5eea591930ca5f0ddaa75a7f","C3","batch3","spm_show_trial_num","null","<p class=block-text>Trial 29 out of 60</p>","null","","","","","","","","","","","","","","","","","","","","","","","","","",""
"","","","","","image-button-response","62","181531","0.0-2.0-4.0-1.4","5eea591930ca5f0ddaa75a7f","C3","batch3","spm_respsonse","10090","img/question_3_5.jpeg","7","mat_29","7","0","0","10090","","","","","","","","","","","","","","","","","","","","",""
"","","","","","html-keyboard-response","63","182584","0.0-2.0-4.0-0.5","5eea591930ca5f0ddaa75a7f","C3","batch3","spm_show_trial_num","null","<p class=block-text>Trial 30 out of 60</p>","null","","","","","","","","","","","","","","","","","","","","","","","","","",""
"","","","","","image-button-response","64","187635","0.0-2.0-4.0-1.5","5eea591930ca5f0ddaa75a7f","C3","batch3","spm_respsonse","5049","img/question_3_6.jpeg","3","mat_30","4","1","1","5049","","","","","","","","","","","","","","","","","","","","",""
"","","","","","html-keyboard-response","65","188687","0.0-2.0-4.0-0.6","5eea591930ca5f0ddaa75a7f","C3","batch3","spm_show_trial_num","null","<p class=block-text>Trial 31 out of 60</p>","null","","","","","","","","","","","","","","","","","","","","","","","","","",""
"","","","","","image-button-response","66","195066","0.0-2.0-4.0-1.6","5eea591930ca5f0ddaa75a7f","C3","batch3","spm_respsonse","6377","img/question_3_7.jpeg","4","mat_31","5","1","1","6377","","","","","","","","","","","","","","","","","","","","",""
"","","","","","html-keyboard-response","67","196120","0.0-2.0-4.0-0.7","5eea591930ca5f0ddaa75a7f","C3","batch3","spm_show_trial_num","null","<p class=block-text>Trial 32 out of 60</p>","null","","","","","","","","","","","","","","","","","","","","","","","","","",""
"","","","","","image-button-response","68","203834","0.0-2.0-4.0-1.7","5eea591930ca5f0ddaa75a7f","C3","batch3","spm_respsonse","7712","img/question_3_8.jpeg","0","mat_32","1","1","1","7712","","","","","","","","","","","","","","","","","","","","",""
"","","","","","html-keyboard-response","69","204888","0.0-2.0-4.0-0.8","5eea591930ca5f0ddaa75a7f","C3","batch3","spm_show_trial_num","null","<p class=block-text>Trial 33 out of 60</p>","null","","","","","","","","","","","","","","","","","","","","","","","","","",""
"","","","","","image-button-response","70","213426","0.0-2.0-4.0-1.8","5eea591930ca5f0ddaa75a7f","C3","batch3","spm_respsonse","8534","img/question_3_9.jpeg","6","mat_33","7","1","1","8534","","","","","","","","","","","","","","","","","","","","",""
"","","","","","html-keyboard-response","71","214480","0.0-2.0-4.0-0.9","5eea591930ca5f0ddaa75a7f","C3","batch3","spm_show_trial_num","null","<p class=block-text>Trial 34 out of 60</p>","null","","","","","","","","","","","","","","","","","","","","","","","","","",""
"","","","","","image-button-response","72","217674","0.0-2.0-4.0-1.9","5eea591930ca5f0ddaa75a7f","C3","batch3","spm_respsonse","3191","img/question_3_10.jpeg","3","mat_34","6","0","0","3191","","","","","","","","","","","","","","","","","","","","",""
"","","","","","html-keyboard-response","73","218727","0.0-2.0-4.0-0.10","5eea591930ca5f0ddaa75a7f","C3","batch3","spm_show_trial_num","null","<p class=block-text>Trial 35 out of 60</p>","null","","","","","","","","","","","","","","","","","","","","","","","","","",""
"","","","","","image-button-response","74","227987","0.0-2.0-4.0-1.10","5eea591930ca5f0ddaa75a7f","C3","batch3","spm_respsonse","9258","img/question_3_11.jpeg","4","mat_35","1","0","0","9258","","","","","","","","","","","","","","","","","","","","",""
"","","","","","html-keyboard-response","75","229040","0.0-2.0-4.0-0.11","5eea591930ca5f0ddaa75a7f","C3","batch3","spm_show_trial_num","null","<p class=block-text>Trial 36 out of 60</p>","null","","","","","","","","","","","","","","","","","","","","","","","","","",""
"","","","","","image-button-response","76","232242","0.0-2.0-4.0-1.11","5eea591930ca5f0ddaa75a7f","C3","batch3","spm_respsonse","3200","img/question_3_12.jpeg","3","mat_36","2","0","0","3200","","","","","","","","","","","","","","","","","","","","",""
"","","","","","html-keyboard-response","77","233295","0.0-2.0-4.0-0.12","5eea591930ca5f0ddaa75a7f","C3","batch3","spm_show_trial_num","null","<p class=block-text>Trial 37 out of 60</p>","null","","","","","","","","","","","","","","","","","","","","","","","","","",""
"","","","","","image-button-response","78","237827","0.0-2.0-4.0-1.12","5eea591930ca5f0ddaa75a7f","C3","batch3","spm_respsonse","4529","img/question_4_1.jpeg","2","mat_37","3","1","1","4529","","","","","","","","","","","","","","","","","","","","",""
"","","","","","html-keyboard-response","79","238880","0.0-2.0-4.0-0.13","5eea591930ca5f0ddaa75a7f","C3","batch3","spm_show_trial_num","null","<p class=block-text>Trial 38 out of 60</p>","null","","","","","","","","","","","","","","","","","","","","","","","","","",""
"","","","","","image-button-response","80","245003","0.0-2.0-4.0-1.13","5eea591930ca5f0ddaa75a7f","C3","batch3","spm_respsonse","6120","img/question_4_2.jpeg","1","mat_38","4","0","0","6120","","","","","","","","","","","","","","","","","","","","",""
"","","","","","html-keyboard-response","81","246054","0.0-2.0-4.0-0.14","5eea591930ca5f0ddaa75a7f","C3","batch3","spm_show_trial_num","null","<p class=block-text>Trial 39 out of 60</p>","null","","","","","","","","","","","","","","","","","","","","","","","","","",""
"","","","","","image-button-response","82","256923","0.0-2.0-4.0-1.14","5eea591930ca5f0ddaa75a7f","C3","batch3","spm_respsonse","10866","img/question_4_3.jpeg","2","mat_39","3","1","1","10866","","","","","","","","","","","","","","","","","","","","",""
"","","","","","html-keyboard-response","83","257976","0.0-2.0-4.0-0.15","5eea591930ca5f0ddaa75a7f","C3","batch3","spm_show_trial_num","null","<p class=block-text>Trial 40 out of 60</p>","null","","","","","","","","","","","","","","","","","","","","","","","","","",""
"","","","","","image-button-response","84","262683","0.0-2.0-4.0-1.15","5eea591930ca5f0ddaa75a7f","C3","batch3","spm_respsonse","4704","img/question_4_4.jpeg","6","mat_40","7","1","1","4704","","","","","","","","","","","","","","","","","","","","",""
"","","","","","html-keyboard-response","85","263743","0.0-2.0-4.0-0.16","5eea591930ca5f0ddaa75a7f","C3","batch3","spm_show_trial_num","null","<p class=block-text>Trial 41 out of 60</p>","null","","","","","","","","","","","","","","","","","","","","","","","","","",""
"","","","","","image-button-response","86","270267","0.0-2.0-4.0-1.16","5eea591930ca5f0ddaa75a7f","C3","batch3","spm_respsonse","6521","img/question_4_5.jpeg","7","mat_41","8","1","1","6521","","","","","","","","","","","","","","","","","","","","",""
"","","","","","html-keyboard-response","87","271320","0.0-2.0-4.0-0.17","5eea591930ca5f0ddaa75a7f","C3","batch3","spm_show_trial_num","null","<p class=block-text>Trial 42 out of 60</p>","null","","","","","","","","","","","","","","","","","","","","","","","","","",""
"","","","","","image-button-response","88","279987","0.0-2.0-4.0-1.17","5eea591930ca5f0ddaa75a7f","C3","batch3","spm_respsonse","8664","img/question_4_6.jpeg","5","mat_42","6","1","1","8664","","","","","","","","","","","","","","","","","","","","",""
"","","","","","html-keyboard-response","89","281040","0.0-2.0-4.0-0.18","5eea591930ca5f0ddaa75a7f","C3","batch3","spm_show_trial_num","null","<p class=block-text>Trial 43 out of 60</p>","null","","","","","","","","","","","","","","","","","","","","","","","","","",""
"","","","","","image-button-response","90","292787","0.0-2.0-4.0-1.18","5eea591930ca5f0ddaa75a7f","C3","batch3","spm_respsonse","11744","img/question_4_7.jpeg","4","mat_43","5","1","1","11744","","","","","","","","","","","","","","","","","","","","",""
"","","","","","html-keyboard-response","91","293838","0.0-2.0-4.0-0.19","5eea591930ca5f0ddaa75a7f","C3","batch3","spm_show_trial_num","null","<p class=block-text>Trial 44 out of 60</p>","null","","","","","","","","","","","","","","","","","","","","","","","","","",""
"","","","","","image-button-response","92","303323","0.0-2.0-4.0-1.19","5eea591930ca5f0ddaa75a7f","C3","batch3","spm_respsonse","9483","img/question_4_8.jpeg","4","mat_44","4","0","0","9483","","","","","","","","","","","","","","","","","","","","",""
"","","","","","html-keyboard-response","93","304376","0.0-2.0-4.0-0.20","5eea591930ca5f0ddaa75a7f","C3","batch3","spm_show_trial_num","null","<p class=block-text>Trial 45 out of 60</p>","null","","","","","","","","","","","","","","","","","","","","","","","","","",""
"","","","","","image-button-response","94","316586","0.0-2.0-4.0-1.20","5eea591930ca5f0ddaa75a7f","C3","batch3","spm_respsonse","12209","img/question_4_9.jpeg","0","mat_45","1","1","1","12209","","","","","","","","","","","","","","","","","","","","",""
"","","","","","html-keyboard-response","95","317655","0.0-2.0-4.0-0.21","5eea591930ca5f0ddaa75a7f","C3","batch3","spm_show_trial_num","null","<p class=block-text>Trial 46 out of 60</p>","null","","","","","","","","","","","","","","","","","","","","","","","","","",""
"","","","","","image-button-response","96","334116","0.0-2.0-4.0-1.21","5eea591930ca5f0ddaa75a7f","C3","batch3","spm_respsonse","16458","img/question_4_10.jpeg","4","mat_46","2","0","0","16458","","","","","","","","","","","","","","","","","","","","",""
"","","","","","html-keyboard-response","97","335169","0.0-2.0-4.0-0.22","5eea591930ca5f0ddaa75a7f","C3","batch3","spm_show_trial_num","null","<p class=block-text>Trial 47 out of 60</p>","null","","","","","","","","","","","","","","","","","","","","","","","","","",""
"","","","","","image-button-response","98","343979","0.0-2.0-4.0-1.22","5eea591930ca5f0ddaa75a7f","C3","batch3","spm_respsonse","8808","img/question_4_11.jpeg","2","mat_47","5","0","0","8808","","","","","","","","","","","","","","","","","","","","",""
"","","","","","html-keyboard-response","99","345037","0.0-2.0-4.0-0.23","5eea591930ca5f0ddaa75a7f","C3","batch3","spm_show_trial_num","null","<p class=block-text>Trial 48 out of 60</p>","null","","","","","","","","","","","","","","","","","","","","","","","","","",""
"","","","","","image-button-response","100","355747","0.0-2.0-4.0-1.23","5eea591930ca5f0ddaa75a7f","C3","batch3","spm_respsonse","10708","img/question_4_12.jpeg","6","mat_48","6","0","0","10708","","","","","","","","","","","","","","","","","","","","",""
"","","","","","html-keyboard-response","101","356800","0.0-2.0-4.0-0.24","5eea591930ca5f0ddaa75a7f","C3","batch3","spm_show_trial_num","null","<p class=block-text>Trial 49 out of 60</p>","null","","","","","","","","","","","","","","","","","","","","","","","","","",""
"","","","","","image-button-response","102","366859","0.0-2.0-4.0-1.24","5eea591930ca5f0ddaa75a7f","C3","batch3","spm_respsonse","10057","img/question_5_1.jpeg","6","mat_49","7","1","1","10057","","","","","","","","","","","","","","","","","","","","",""
"","","","","","html-keyboard-response","103","367912","0.0-2.0-4.0-0.25","5eea591930ca5f0ddaa75a7f","C3","batch3","spm_show_trial_num","null","<p class=block-text>Trial 50 out of 60</p>","null","","","","","","","","","","","","","","","","","","","","","","","","","",""
"","","","","","image-button-response","104","374115","0.0-2.0-4.0-1.25","5eea591930ca5f0ddaa75a7f","C3","batch3","spm_respsonse","6200","img/question_5_2.jpeg","0","mat_50","6","0","0","6200","","","","","","","","","","","","","","","","","","","","",""
"","","","","","html-keyboard-response","105","375168","0.0-2.0-4.0-0.26","5eea591930ca5f0ddaa75a7f","C3","batch3","spm_show_trial_num","null","<p class=block-text>Trial 51 out of 60</p>","null","","","","","","","","","","","","","","","","","","","","","","","","","",""
"","","","","","image-button-response","106","393611","0.0-2.0-4.0-1.26","5eea591930ca5f0ddaa75a7f","C3","batch3","spm_respsonse","18440","img/question_5_3.jpeg","7","mat_51","8","1","1","18440","","","","","","","","","","","","","","","","","","","","",""
"","","","","","html-keyboard-response","107","394663","0.0-2.0-4.0-0.27","5eea591930ca5f0ddaa75a7f","C3","batch3","spm_show_trial_num","null","<p class=block-text>Trial 52 out of 60</p>","null","","","","","","","","","","","","","","","","","","","","","","","","","",""
"","","","","","image-button-response","108","396643","0.0-2.0-4.0-1.27","5eea591930ca5f0ddaa75a7f","C3","batch3","spm_respsonse","1978","img/question_5_4.jpeg","6","mat_52","2","0","0","1978","","","","","","","","","","","","","","","","","","","","",""
"","","","","","html-keyboard-response","109","397694","0.0-2.0-4.0-0.28","5eea591930ca5f0ddaa75a7f","C3","batch3","spm_show_trial_num","null","<p class=block-text>Trial 53 out of 60</p>","null","","","","","","","","","","","","","","","","","","","","","","","","","",""
"","","","","","image-button-response","110","415299","0.0-2.0-4.0-1.28","5eea591930ca5f0ddaa75a7f","C3","batch3","spm_respsonse","17603","img/question_5_5.jpeg","1","mat_53","1","0","0","17603","","","","","","","","","","","","","","","","","","","","",""
"","","","","","html-keyboard-response","111","416365","0.0-2.0-4.0-0.29","5eea591930ca5f0ddaa75a7f","C3","batch3","spm_show_trial_num","null","<p class=block-text>Trial 54 out of 60</p>","null","","","","","","","","","","","","","","","","","","","","","","","","","",""
"","","","","","image-button-response","112","425259","0.0-2.0-4.0-1.29","5eea591930ca5f0ddaa75a7f","C3","batch3","spm_respsonse","8891","img/question_5_6.jpeg","4","mat_54","5","1","1","8891","","","","","","","","","","","","","","","","","","","","",""
"","","","","","html-keyboard-response","113","426311","0.0-2.0-4.0-0.30","5eea591930ca5f0ddaa75a7f","C3","batch3","spm_show_trial_num","null","<p class=block-text>Trial 55 out of 60</p>","null","","","","","","","","","","","","","","","","","","","","","","","","","",""
"","","","","","image-button-response","114","434667","0.0-2.0-4.0-1.30","5eea591930ca5f0ddaa75a7f","C3","batch3","spm_respsonse","8354","img/question_5_7.jpeg","6","mat_55","1","0","0","8354","","","","","","","","","","","","","","","","","","","","",""
"","","","","","html-keyboard-response","115","435719","0.0-2.0-4.0-0.31","5eea591930ca5f0ddaa75a7f","C3","batch3","spm_show_trial_num","null","<p class=block-text>Trial 56 out of 60</p>","null","","","","","","","","","","","","","","","","","","","","","","","","","",""
"","","","","","image-button-response","116","444067","0.0-2.0-4.0-1.31","5eea591930ca5f0ddaa75a7f","C3","batch3","spm_respsonse","8346","img/question_5_8.jpeg","6","mat_56","6","0","0","8346","","","","","","","","","","","","","","","","","","","","",""
"","","","","","html-keyboard-response","117","445119","0.0-2.0-4.0-0.32","5eea591930ca5f0ddaa75a7f","C3","batch3","spm_show_trial_num","null","<p class=block-text>Trial 57 out of 60</p>","null","","","","","","","","","","","","","","","","","","","","","","","","","",""
"","","","","","image-button-response","118","448651","0.0-2.0-4.0-1.32","5eea591930ca5f0ddaa75a7f","C3","batch3","spm_respsonse","3529","img/question_5_9.jpeg","4","mat_57","3","0","0","3529","","","","","","","","","","","","","","","","","","","","",""
"","","","","","html-keyboard-response","119","449712","0.0-2.0-4.0-0.33","5eea591930ca5f0ddaa75a7f","C3","batch3","spm_show_trial_num","null","<p class=block-text>Trial 58 out of 60</p>","null","","","","","","","","","","","","","","","","","","","","","","","","","",""
"","","","","","image-button-response","120","464595","0.0-2.0-4.0-1.33","5eea591930ca5f0ddaa75a7f","C3","batch3","spm_respsonse","14881","img/question_5_10.jpeg","7","mat_58","2","0","0","14881","","","","","","","","","","","","","","","","","","","","",""
"","","","","","html-keyboard-response","121","465648","0.0-2.0-4.0-0.34","5eea591930ca5f0ddaa75a7f","C3","batch3","spm_show_trial_num","null","<p class=block-text>Trial 59 out of 60</p>","null","","","","","","","","","","","","","","","","","","","","","","","","","",""
"","","","","","image-button-response","122","478387","0.0-2.0-4.0-1.34","5eea591930ca5f0ddaa75a7f","C3","batch3","spm_respsonse","12736","img/question_5_11.jpeg","7","mat_59","4","0","0","12736","","","","","","","","","","","","","","","","","","","","",""
"","","","","","html-keyboard-response","123","479441","0.0-2.0-4.0-0.35","5eea591930ca5f0ddaa75a7f","C3","batch3","spm_show_trial_num","null","<p class=block-text>Trial 60 out of 60</p>","null","","","","","","","","","","","","","","","","","","","","","","","","","",""
"","","","","","image-button-response","124","481059","0.0-2.0-4.0-1.35","5eea591930ca5f0ddaa75a7f","C3","batch3","spm_respsonse","1616","img/question_5_12.jpeg","5","mat_60","5","0","0","1616","","","","","","","","","","","","","","","","","","","","",""
"","","","","","html-button-response","125","519475","0.0-2.0-5.0","5eea591930ca5f0ddaa75a7f","C3","batch3","spm_goodbye","38165","<p class= block-text>This concludes the Standard Progressive Matrix game. Thank you for your responses!<br> When you are ready, click the button continue</p>","0","","","","","","","","","","","","","","","","","","","","","","","","","",""
"true","","","","","fullscreen","126","522507","0.0-3.0-0.0","5eea591930ca5f0ddaa75a7f","C3","batch3","","","","","","","","","","","","","","","","","","","","","","","","","","","","","",""
"","","","","","instructions","127","549971","0.0-3.0-1.0-0.0-0.0","5eea591930ca5f0ddaa75a7f","C3","batch3","tol-instructions","27464","","","","","","","","[{""page_index"":0,""viewing_time"":11343},{""page_index"":1,""viewing_time"":3128},{""page_index"":2,""viewing_time"":2488},{""page_index"":3,""viewing_time"":1432},{""page_index"":4,""viewing_time"":1408},{""page_index"":5,""viewing_time"":1248},{""page_index"":4,""viewing_time"":3288},{""page_index"":5,""viewing_time"":1544},{""page_index"":6,""viewing_time"":1584}]","","","","","","","","","","","","","","","","","","","",""
"","","","","","html-button-response","128","550659","0.0-3.0-1.0-1.0-0.0","5eea591930ca5f0ddaa75a7f","C3","batch3","tol_enter_quiz","687","<p class=block-text> Let's answer a few questions <br>","0","","","","","","","","","","","","","","","","","","","","","","","","","",""
"","","","","","html-button-response","129","558619","0.0-3.0-1.0-1.0-1.0","5eea591930ca5f0ddaa75a7f","C3","batch3","tol_quiz","7959","<p class = block-text>True or False: You can only move the ball on top of a peg. <br></p>","1","","","false","","","","","","","","","","","","","","","","","","","","","","",""
"","","","","","html-button-response","130","561363","0.0-3.0-1.0-1.0-2.0","5eea591930ca5f0ddaa75a7f","C3","batch3","tol_quiz_feedback","2742","<p class = block-text>Incorrect. Remember, you can only move the ball on top of a peg.</p>","0","","","","","","","","","","","","","","","","","","","","","","","","","",""
"","","","","","html-button-response","131","564131","0.0-3.0-1.0-1.0-3.0","5eea591930ca5f0ddaa75a7f","C3","batch3","tol_quiz","2767","<p class = block-text>True or False: You should try to match your board with the target board with fewest moves possible. <br></p>","0","","","true","","","","","","","","","","","","","","","","","","","","","","",""
"","","","","","html-button-response","132","564843","0.0-3.0-1.0-1.0-4.0","5eea591930ca5f0ddaa75a7f","C3","batch3","tol_quiz_feedback","710","<p class = block-text>Correct! </p>","0","","","","","","","","","","","","","","","","","","","","","","","","","",""
"","","","","","html-button-response","133","566803","0.0-3.0-1.0-2.0-0.0","5eea591930ca5f0ddaa75a7f","C3","batch3","","1959","<p class = block-text>You made too many incorrect choices.</p><p class = block-text>You will now repeat the instructions and quiz</p>","0","","","","","","","","","","","","","","","","","","","","","","","","","",""
"","","","","","instructions","134","575523","0.0-3.0-1.1-0.1-0.1","5eea591930ca5f0ddaa75a7f","C3","batch3","tol-instructions","8719","","","","","","","","[{""page_index"":0,""viewing_time"":2630},{""page_index"":1,""viewing_time"":1576},{""page_index"":2,""viewing_time"":1424},{""page_index"":3,""viewing_time"":776},{""page_index"":4,""viewing_time"":568},{""page_index"":5,""viewing_time"":600},{""page_index"":6,""viewing_time"":1144}]","","","","","","","","","","","","","","","","","","","",""
"","","","","","html-button-response","135","576171","0.0-3.0-1.1-1.1-0.1","5eea591930ca5f0ddaa75a7f","C3","batch3","tol_enter_quiz","646","<p class=block-text> Let's answer a few questions <br>","0","","","","","","","","","","","","","","","","","","","","","","","","","",""
"","","","","","html-button-response","136","578131","0.0-3.0-1.1-1.1-1.1","5eea591930ca5f0ddaa75a7f","C3","batch3","tol_quiz","1958","<p class = block-text>True or False: You can only move the ball on top of a peg. <br></p>","0","","","true","","","","","","","","","","","","","","","","","","","","","","",""
"","","","","","html-button-response","137","578955","0.0-3.0-1.1-1.1-2.1","5eea591930ca5f0ddaa75a7f","C3","batch3","tol_quiz_feedback","824","<p class = block-text>Correct! You can only move the ball on top of a peg.</p>","0","","","","","","","","","","","","","","","","","","","","","","","","","",""
"","","","","","html-button-response","138","580355","0.0-3.0-1.1-1.1-3.1","5eea591930ca5f0ddaa75a7f","C3","batch3","tol_quiz","1398","<p class = block-text>True or False: You should try to match your board with the target board with fewest moves possible. <br></p>","0","","","true","","","","","","","","","","","","","","","","","","","","","","",""
"","","","","","html-button-response","139","580827","0.0-3.0-1.1-1.1-4.1","5eea591930ca5f0ddaa75a7f","C3","batch3","tol_quiz_feedback","470","<p class = block-text>Correct! </p>","0","","","","","","","","","","","","","","","","","","","","","","","","","",""
"","","","","","html-button-response","140","582011","0.0-3.0-2.0","5eea591930ca5f0ddaa75a7f","C3","batch3","","1184","<p class=block-text> Now that you've understood the game, let's practice a few easier examples before we start!<br> <br>","0","","","","","","","","","","","","","","","","","","","","","","","","","",""
"","","","","","single-stim-button","141","584997","0.0-3.0-3.0-0.0","5eea591930ca5f0ddaa75a7f","C3","batch3","tol_practice","2984","","","","","","","","","tol_peg_2","2984","2984","0","[[1,2,0],[0,0],[0]]","1","[[1,2,0],[0,0],[3]]","practice","2984","","","","","","","","","","",""
"","","","","","single-stim-button","142","586027","0.0-3.0-3.0-1.0","5eea591930ca5f0ddaa75a7f","C3","batch3","tol_practice","1029","","","","","","","","","tol_peg_3","1029","1029","0","[[1,2,0],[0,0],[3]]","1","[[1,2,0],[0,0],[3]]","practice","1029","","","","","","","","","","",""
"","","","","","poldrack-single-stim","143","587031","0.0-3.0-4.0","5eea591930ca5f0ddaa75a7f","C3","batch3","tol_feedback","-1","","","","","true","","","","","1000","1000","500","","","","","","-1","none","true","","0","","","","","",""
"","","","","","single-stim-button","144","591491","0.0-3.0-5.0-0.0","5eea591930ca5f0ddaa75a7f","C3","batch3","tol_practice","4459","","","","","","","","","tol_peg_1","4459","4459","0","[[1,0,0],[3,0],[0]]","2","[[0,0,0],[3,1],[2]]","practice","4459","","","","","","","","","","",""
"","","","","","single-stim-button","145","592579","0.0-3.0-5.0-1.0","5eea591930ca5f0ddaa75a7f","C3","batch3","tol_practice","1087","","","","","","","","","tol_peg_3","1087","1087","0","[[1,0,0],[3,0],[2]]","2","[[0,0,0],[3,1],[2]]","practice","1087","","","","","","","","","","",""
"","","","","","single-stim-button","146","598724","0.0-3.0-5.1-0.1","5eea591930ca5f0ddaa75a7f","C3","batch3","tol_practice","6143","","","","","","","","","tol_peg_1","6143","6143","0","[[0,0,0],[3,0],[2]]","3","[[0,0,0],[3,1],[2]]","practice","6143","","","","","","","","","","",""
"","","","","","single-stim-button","147","603331","0.0-3.0-5.1-1.1","5eea591930ca5f0ddaa75a7f","C3","batch3","tol_practice","4607","","","","","","","","","tol_peg_2","4607","4607","0","[[0,0,0],[3,1],[2]]","3","[[0,0,0],[3,1],[2]]","practice","4607","","","","","","","","","","",""
"","","","","","poldrack-single-stim","148","604346","0.0-3.0-6.0","5eea591930ca5f0ddaa75a7f","C3","batch3","tol_feedback","-1","","","","","true","","","","","1000","1000","500","","","","","","-1","none","true","","0","","","","","",""
"","","","","","single-stim-button","149","606979","0.0-3.0-7.0-0.0","5eea591930ca5f0ddaa75a7f","C3","batch3","tol_practice","2633","","","","","","","","","tol_peg_2","2633","2633","0","[[1,2,0],[0,0],[0]]","4","[[1,0,0],[2,0],[3]]","practice","2633","","","","","","","","","","",""
"","","","","","single-stim-button","150","608299","0.0-3.0-7.0-1.0","5eea591930ca5f0ddaa75a7f","C3","batch3","tol_practice","1319","","","","","","","","","tol_peg_3","1319","1319","0","[[1,2,0],[0,0],[3]]","4","[[1,0,0],[2,0],[3]]","practice","1319","","","","","","","","","","",""
"","","","","","single-stim-button","151","608883","0.0-3.0-7.1-0.1","5eea591930ca5f0ddaa75a7f","C3","batch3","tol_practice","583","","","","","","","","","tol_peg_1","583","583","0","[[1,0,0],[0,0],[3]]","5","[[1,0,0],[2,0],[3]]","practice","583","","","","","","","","","","",""
"","","","","","single-stim-button","152","609699","0.0-3.0-7.1-1.1","5eea591930ca5f0ddaa75a7f","C3","batch3","tol_practice","814","","","","","","","","","tol_peg_2","814","814","0","[[1,0,0],[2,0],[3]]","5","[[1,0,0],[2,0],[3]]","practice","814","","","","","","","","","","",""
"","","","","","poldrack-single-stim","153","610701","0.0-3.0-8.0","5eea591930ca5f0ddaa75a7f","C3","batch3","tol_feedback","-1","","","","","true","","","","","1000","1000","500","","","","","","-1","none","true","","0","","","","","",""
"","","","","","html-button-response","154","612275","0.0-3.0-9.0","5eea591930ca5f0ddaa75a7f","C3","batch3","tol_instruction","1573","<div class = centerbox><p class = center-block-text>Great job! You are done with practice trials<br>You are about to start official trials.<br> <br> Problem <strong>1</strong> out of 25 problems</p></div>","0","","","","","","","","","","","","","","","","","","","","","","","","","",""
"","","","","","single-stim-button","155","616380","0.0-3.0-10.0-0.0","5eea591930ca5f0ddaa75a7f","C3","batch3","tol_tohand","3099","","","","","","","","","tol_peg_1","3099","3099","0","[[1,0,0],[3,0],[0]]","1","[[1,3,0],[2,0],[0]]","0","0","","","","","","3","","","","",""
"","","","","","single-stim-button","156","617219","0.0-3.0-10.0-1.0","5eea591930ca5f0ddaa75a7f","C3","batch3","tol_toboard","839","","","","","","","","","tol_peg_3","839","839","0","[[1,0,0],[3,0],[2]]","1","[[1,3,0],[2,0],[0]]","0","0","","","","","","3","","","","",""
"","","","","","single-stim-button","157","617740","0.0-3.0-10.1-0.1","5eea591930ca5f0ddaa75a7f","C3","batch3","tol_tohand","519","","","","","","","","","tol_peg_2","519","519","0","[[1,0,0],[0,0],[2]]","2","[[1,3,0],[2,0],[0]]","0","0","","","","","","3","","","","",""
"","","","","","single-stim-button","158","618403","0.0-3.0-10.1-1.1","5eea591930ca5f0ddaa75a7f","C3","batch3","tol_toboard","663","","","","","","","","","tol_peg_1","663","663","0","[[1,3,0],[0,0],[2]]","2","[[1,3,0],[2,0],[0]]","0","0","","","","","","3","","","","",""
"","","","","","single-stim-button","159","618964","0.0-3.0-10.2-0.2","5eea591930ca5f0ddaa75a7f","C3","batch3","tol_tohand","559","","","","","","","","","tol_peg_3","559","559","0","[[1,3,0],[0,0],[0]]","3","[[1,3,0],[2,0],[0]]","0","0","","","","","","3","","","","",""
"","","","","","single-stim-button","160","619379","0.0-3.0-10.2-1.2","5eea591930ca5f0ddaa75a7f","C3","batch3","tol_toboard","414","","","","","","","","","tol_peg_2","414","414","0","[[1,3,0],[2,0],[0]]","3","[[1,3,0],[2,0],[0]]","0","0","","","","","","3","","","","",""
"","","","","","poldrack-single-stim","161","620386","0.0-3.0-11.0","5eea591930ca5f0ddaa75a7f","C3","batch3","tol_feedback","-1","","","","","true","","","","","1000","1000","500","","","","","","-1","none","true","3099","4177","","","","","",""
"","","","","","html-button-response","162","620995","0.0-3.0-12.0","5eea591930ca5f0ddaa75a7f","C3","batch3","tol_trial_num","608","<div class = centerbox><p class = center-block-text>problem <strong>2</strong> out of 25 problems</p></div>","0","","","","","","","","","","","","","","","","","","","","","","","","","",""
"","","","","","single-stim-button","163","625811","0.0-3.0-13.0-0.0","5eea591930ca5f0ddaa75a7f","C3","batch3","tol_tohand","4815","","","","","","","","","tol_peg_1","4815","4815","0","[[1,0,0],[3,0],[0]]","1","[[2,1,3],[0,0],[0]]","1","0","","","","","","5","","","","",""
"","","","","","single-stim-button","164","627667","0.0-3.0-13.0-1.0","5eea591930ca5f0ddaa75a7f","C3","batch3","tol_toboard","1855","","","","","","","","","tol_peg_3","1855","1855","0","[[1,0,0],[3,0],[2]]","1","[[2,1,3],[0,0],[0]]","1","0","","","","","","5","","","","",""
"","","","","","single-stim-button","165","630483","0.0-3.0-13.1-0.1","5eea591930ca5f0ddaa75a7f","C3","batch3","tol_tohand","2815","","","","","","","","","tol_peg_1","2815","2815","0","[[0,0,0],[3,0],[2]]","2","[[2,1,3],[0,0],[0]]","1","0","","","","","","5","","","","",""
"","","","","","single-stim-button","166","635347","0.0-3.0-13.1-1.1","5eea591930ca5f0ddaa75a7f","C3","batch3","tol_toboard","4863","","","","","","","","","tol_peg_1","4863","4863","0","[[1,0,0],[3,0],[2]]","2","[[2,1,3],[0,0],[0]]","1","0","","","","","","5","","","","",""
"","","","","","single-stim-button","167","635931","0.0-3.0-13.2-0.2","5eea591930ca5f0ddaa75a7f","C3","batch3","tol_tohand","583","","","","","","","","","tol_peg_3","583","583","0","[[1,0,0],[3,0],[0]]","3","[[2,1,3],[0,0],[0]]","1","0","","","","","","5","","","","",""
"","","","","","single-stim-button","168","637563","0.0-3.0-13.2-1.2","5eea591930ca5f0ddaa75a7f","C3","batch3","tol_toboard","1631","","","","","","","","","tol_peg_1","1631","1631","0","[[1,2,0],[3,0],[0]]","3","[[2,1,3],[0,0],[0]]","1","0","","","","","","5","","","","",""
"","","","","","single-stim-button","169","638915","0.0-3.0-13.3-0.3","5eea591930ca5f0ddaa75a7f","C3","batch3","tol_tohand","1351","","","","","","","","","tol_peg_1","1351","1351","0","[[1,0,0],[3,0],[0]]","4","[[2,1,3],[0,0],[0]]","1","0","","","","","","5","","","","",""
"","","","","","single-stim-button","170","639859","0.0-3.0-13.3-1.3","5eea591930ca5f0ddaa75a7f","C3","batch3","tol_toboard","943","","","","","","","","","tol_peg_1","943","943","0","[[1,2,0],[3,0],[0]]","4","[[2,1,3],[0,0],[0]]","1","0","","","","","","5","","","","",""
"","","","","","single-stim-button","171","640667","0.0-3.0-13.4-0.4","5eea591930ca5f0ddaa75a7f","C3","batch3","tol_tohand","807","","","","","","","","","tol_peg_1","807","807","0","[[1,0,0],[3,0],[0]]","5","[[2,1,3],[0,0],[0]]","1","0","","","","","","5","","","","",""
"","","","","","single-stim-button","172","641659","0.0-3.0-13.4-1.4","5eea591930ca5f0ddaa75a7f","C3","batch3","tol_toboard","991","","","","","","","","","tol_peg_2","991","991","0","[[1,0,0],[3,2],[0]]","5","[[2,1,3],[0,0],[0]]","1","0","","","","","","5","","","","",""
"","","","","","single-stim-button","173","642195","0.0-3.0-13.5-0.5","5eea591930ca5f0ddaa75a7f","C3","batch3","tol_tohand","535","","","","","","","","","tol_peg_1","535","535","0","[[0,0,0],[3,2],[0]]","6","[[2,1,3],[0,0],[0]]","1","0","","","","","","5","","","","",""
"","","","","","single-stim-button","174","643204","0.0-3.0-13.5-1.5","5eea591930ca5f0ddaa75a7f","C3","batch3","tol_toboard","1007","","","","","","","","","tol_peg_3","1007","1007","0","[[0,0,0],[3,2],[1]]","6","[[2,1,3],[0,0],[0]]","1","0","","","","","","5","","","","",""
"","","","","","single-stim-button","175","643683","0.0-3.0-13.6-0.6","5eea591930ca5f0ddaa75a7f","C3","batch3","tol_tohand","478","","","","","","","","","tol_peg_2","478","478","0","[[0,0,0],[3,0],[1]]","7","[[2,1,3],[0,0],[0]]","1","0","","","","","","5","","","","",""
"","","","","","single-stim-button","176","644180","0.0-3.0-13.6-1.6","5eea591930ca5f0ddaa75a7f","C3","batch3","tol_toboard","495","","","","","","","","","tol_peg_1","495","495","0","[[2,0,0],[3,0],[1]]","7","[[2,1,3],[0,0],[0]]","1","0","","","","","","5","","","","",""
"","","","","","single-stim-button","177","644772","0.0-3.0-13.7-0.7","5eea591930ca5f0ddaa75a7f","C3","batch3","tol_tohand","590","","","","","","","","","tol_peg_3","590","590","0","[[2,0,0],[3,0],[0]]","8","[[2,1,3],[0,0],[0]]","1","0","","","","","","5","","","","",""
"","","","","","single-stim-button","178","645371","0.0-3.0-13.7-1.7","5eea591930ca5f0ddaa75a7f","C3","batch3","tol_toboard","599","","","","","","","","","tol_peg_1","599","599","0","[[2,1,0],[3,0],[0]]","8","[[2,1,3],[0,0],[0]]","1","0","","","","","","5","","","","",""
"","","","","","single-stim-button","179","645923","0.0-3.0-13.8-0.8","5eea591930ca5f0ddaa75a7f","C3","batch3","tol_tohand","551","","","","","","","","","tol_peg_2","551","551","0","[[2,1,0],[0,0],[0]]","9","[[2,1,3],[0,0],[0]]","1","0","","","","","","5","","","","",""
"","","","","","single-stim-button","180","646467","0.0-3.0-13.8-1.8","5eea591930ca5f0ddaa75a7f","C3","batch3","tol_toboard","543","","","","","","","","","tol_peg_1","543","543","0","[[2,1,3],[0,0],[0]]","9","[[2,1,3],[0,0],[0]]","1","0","","","","","","5","","","","",""
"","","","","","poldrack-single-stim","181","647471","0.0-3.0-14.0","5eea591930ca5f0ddaa75a7f","C3","batch3","tol_feedback","-1","","","","","true","","","","","1000","1000","500","","","","","","-1","none","true","4815","12525","","","","","",""
"","","","","","html-button-response","182","648403","0.0-3.0-15.0","5eea591930ca5f0ddaa75a7f","C3","batch3","tol_trial_num","932","<div class = centerbox><p class = center-block-text>problem <strong>3</strong> out of 25 problems</p></div>","0","","","","","","","","","","","","","","","","","","","","","","","","","",""
"","","","","","single-stim-button","183","651779","0.0-3.0-16.0-0.0","5eea591930ca5f0ddaa75a7f","C3","batch3","tol_tohand","3375","","","","","","","","","tol_peg_1","3375","3375","0","[[2,0,0],[0,0],[1]]","1","[[1,2,0],[3,0],[0]]","2","0","","","","","","4","","","","",""
"","","","","","single-stim-button","184","652699","0.0-3.0-16.0-1.0","5eea591930ca5f0ddaa75a7f","C3","batch3","tol_toboard","919","","","","","","","","","tol_peg_2","919","919","0","[[2,0,0],[3,0],[1]]","1","[[1,2,0],[3,0],[0]]","2","0","","","","","","4","","","","",""
"","","","","","single-stim-button","185","653787","0.0-3.0-16.1-0.1","5eea591930ca5f0ddaa75a7f","C3","batch3","tol_tohand","1087","","","","","","","","","tol_peg_1","1087","1087","0","[[0,0,0],[3,0],[1]]","2","[[1,2,0],[3,0],[0]]","2","0","","","","","","4","","","","",""
"","","","","","single-stim-button","186","654835","0.0-3.0-16.1-1.1","5eea591930ca5f0ddaa75a7f","C3","batch3","tol_toboard","1047","","","","","","","","","tol_peg_2","1047","1047","0","[[0,0,0],[3,2],[1]]","2","[[1,2,0],[3,0],[0]]","2","0","","","","","","4","","","","",""
"","","","","","single-stim-button","187","655211","0.0-3.0-16.2-0.2","5eea591930ca5f0ddaa75a7f","C3","batch3","tol_tohand","375","","","","","","","","","tol_peg_3","375","375","0","[[0,0,0],[3,2],[0]]","3","[[1,2,0],[3,0],[0]]","2","0","","","","","","4","","","","",""
"","","","","","single-stim-button","188","655772","0.0-3.0-16.2-1.2","5eea591930ca5f0ddaa75a7f","C3","batch3","tol_toboard","559","","","","","","","","","tol_peg_1","559","559","0","[[1,0,0],[3,2],[0]]","3","[[1,2,0],[3,0],[0]]","2","0","","","","","","4","","","","",""
"","","","","","single-stim-button","189","656140","0.0-3.0-16.3-0.3","5eea591930ca5f0ddaa75a7f","C3","batch3","tol_tohand","367","","","","","","","","","tol_peg_2","367","367","0","[[1,0,0],[3,0],[0]]","4","[[1,2,0],[3,0],[0]]","2","0","","","","","","4","","","","",""
"","","","","","single-stim-button","190","656571","0.0-3.0-16.3-1.3","5eea591930ca5f0ddaa75a7f","C3","batch3","tol_toboard","430","","","","","","","","","tol_peg_1","430","430","0","[[1,2,0],[3,0],[0]]","4","[[1,2,0],[3,0],[0]]","2","0","","","","","","4","","","","",""
"","","","","","poldrack-single-stim","191","657580","0.0-3.0-17.0","5eea591930ca5f0ddaa75a7f","C3","batch3","tol_feedback","-1","","","","","true","","","","","1000","1000","500","","","","","","-1","none","true","3375","5204","","","","","",""
"","","","","","html-button-response","192","658131","0.0-3.0-18.0","5eea591930ca5f0ddaa75a7f","C3","batch3","tol_trial_num","550","<div class = centerbox><p class = center-block-text>problem <strong>4</strong> out of 25 problems</p></div>","0","","","","","","","","","","","","","","","","","","","","","","","","","",""
"","","","","","single-stim-button","193","663347","0.0-3.0-19.0-0.0","5eea591930ca5f0ddaa75a7f","C3","batch3","tol_tohand","5215","","","","","","","","","tol_peg_2","5215","5215","0","[[3,0,0],[2,0],[0]]","1","[[3,0,0],[1,0],[2]]","3","0","","","","","","3","","","","",""
"","","","","","single-stim-button","194","664603","0.0-3.0-19.0-1.0","5eea591930ca5f0ddaa75a7f","C3","batch3","tol_toboard","1254","","","","","","","","","tol_peg_1","1254","1254","0","[[3,1,0],[2,0],[0]]","1","[[3,0,0],[1,0],[2]]","3","0","","","","","","3","","","","",""
"","","","","","single-stim-button","195","664979","0.0-3.0-19.1-0.1","5eea591930ca5f0ddaa75a7f","C3","batch3","tol_tohand","375","","","","","","","","","tol_peg_2","375","375","0","[[3,1,0],[0,0],[0]]","2","[[3,0,0],[1,0],[2]]","3","0","","","","","","3","","","","",""
"","","","","","single-stim-button","196","665459","0.0-3.0-19.1-1.1","5eea591930ca5f0ddaa75a7f","C3","batch3","tol_toboard","478","","","","","","","","","tol_peg_3","478","478","0","[[3,1,0],[0,0],[2]]","2","[[3,0,0],[1,0],[2]]","3","0","","","","","","3","","","","",""
"","","","","","single-stim-button","197","665923","0.0-3.0-19.2-0.2","5eea591930ca5f0ddaa75a7f","C3","batch3","tol_tohand","463","","","","","","","","","tol_peg_1","463","463","0","[[3,0,0],[0,0],[2]]","3","[[3,0,0],[1,0],[2]]","3","0","","","","","","3","","","","",""
"","","","","","single-stim-button","198","666347","0.0-3.0-19.2-1.2","5eea591930ca5f0ddaa75a7f","C3","batch3","tol_toboard","422","","","","","","","","","tol_peg_2","422","422","0","[[3,0,0],[1,0],[2]]","3","[[3,0,0],[1,0],[2]]","3","0","","","","","","3","","","","",""
"","","","","","poldrack-single-stim","199","667349","0.0-3.0-20.0","5eea591930ca5f0ddaa75a7f","C3","batch3","tol_feedback","-1","","","","","true","","","","","1000","1000","500","","","","","","-1","none","true","5215","6053","","","","","",""
"","","","","","html-button-response","200","667875","0.0-3.0-21.0","5eea591930ca5f0ddaa75a7f","C3","batch3","tol_trial_num","525","<div class = centerbox><p class = center-block-text>problem <strong>5</strong> out of 25 problems</p></div>","0","","","","","","","","","","","","","","","","","","","","","","","","","",""
"","","","","","single-stim-button","201","675027","0.0-3.0-22.0-0.0","5eea591930ca5f0ddaa75a7f","C3","batch3","tol_tohand","7150","","","","","","","","","tol_peg_3","7150","7150","0","[[1,0,0],[2,0],[0]]","1","[[0,0,0],[1,2],[3]]","4","0","","","","","","7","","","","",""
"","","","","","single-stim-button","202","675787","0.0-3.0-22.0-1.0","5eea591930ca5f0ddaa75a7f","C3","batch3","tol_toboard","758","","","","","","","","","tol_peg_1","758","758","0","[[1,3,0],[2,0],[0]]","1","[[0,0,0],[1,2],[3]]","4","0","","","","","","7","","","","",""
"","","","","","single-stim-button","203","676963","0.0-3.0-22.1-0.1","5eea591930ca5f0ddaa75a7f","C3","batch3","tol_tohand","1174","","","","","","","","","tol_peg_2","1174","1174","0","[[1,3,0],[0,0],[0]]","2","[[0,0,0],[1,2],[3]]","4","0","","","","","","7","","","","",""
"","","","","","single-stim-button","204","677827","0.0-3.0-22.1-1.1","5eea591930ca5f0ddaa75a7f","C3","batch3","tol_toboard","862","","","","","","","","","tol_peg_3","862","862","0","[[1,3,0],[0,0],[2]]","2","[[0,0,0],[1,2],[3]]","4","0","","","","","","7","","","","",""
"","","","","","single-stim-button","205","681291","0.0-3.0-22.2-0.2","5eea591930ca5f0ddaa75a7f","C3","batch3","tol_tohand","3463","","","","","","","","","tol_peg_1","3463","3463","0","[[1,0,0],[0,0],[2]]","3","[[0,0,0],[1,2],[3]]","4","0","","","","","","7","","","","",""
"","","","","","single-stim-button","206","692179","0.0-3.0-22.2-1.2","5eea591930ca5f0ddaa75a7f","C3","batch3","tol_toboard","10885","","","","","","","","","tol_peg_2","10885","10885","0","[[1,0,0],[3,0],[2]]","3","[[0,0,0],[1,2],[3]]","4","0","","","","","","7","","","","",""
"","","","","","single-stim-button","207","692563","0.0-3.0-22.3-0.3","5eea591930ca5f0ddaa75a7f","C3","batch3","tol_tohand","382","","","","","","","","","tol_peg_3","382","382","0","[[1,0,0],[3,0],[0]]","4","[[0,0,0],[1,2],[3]]","4","0","","","","","","7","","","","",""
"","","","","","single-stim-button","208","697867","0.0-3.0-22.3-1.3","5eea591930ca5f0ddaa75a7f","C3","batch3","tol_toboard","5302","","","","","","","","","tol_peg_1","5302","5302","0","[[1,2,0],[3,0],[0]]","4","[[0,0,0],[1,2],[3]]","4","0","","","","","","7","","","","",""
"","","","","","single-stim-button","209","698283","0.0-3.0-22.4-0.4","5eea591930ca5f0ddaa75a7f","C3","batch3","tol_tohand","414","","","","","","","","","tol_peg_2","414","414","0","[[1,2,0],[0,0],[0]]","5","[[0,0,0],[1,2],[3]]","4","0","","","","","","7","","","","",""
"","","","","","single-stim-button","210","698723","0.0-3.0-22.4-1.4","5eea591930ca5f0ddaa75a7f","C3","batch3","tol_toboard","439","","","","","","","","","tol_peg_3","439","439","0","[[1,2,0],[0,0],[3]]","5","[[0,0,0],[1,2],[3]]","4","0","","","","","","7","","","","",""
"","","","","","single-stim-button","211","704027","0.0-3.0-22.5-0.5","5eea591930ca5f0ddaa75a7f","C3","batch3","tol_tohand","5303","","","","","","","","","tol_peg_1","5303","5303","0","[[1,0,0],[0,0],[3]]","6","[[0,0,0],[1,2],[3]]","4","0","","","","","","7","","","","",""
"","","","","","single-stim-button","212","709763","0.0-3.0-22.5-1.5","5eea591930ca5f0ddaa75a7f","C3","batch3","tol_toboard","5735","","","","","","","","","tol_peg_2","5735","5735","0","[[1,0,0],[2,0],[3]]","6","[[0,0,0],[1,2],[3]]","4","0","","","","","","7","","","","",""
"","","","","","single-stim-button","213","710283","0.0-3.0-22.6-0.6","5eea591930ca5f0ddaa75a7f","C3","batch3","tol_tohand","518","","","","","","","","","tol_peg_3","518","518","0","[[1,0,0],[2,0],[0]]","7","[[0,0,0],[1,2],[3]]","4","0","","","","","","7","","","","",""
"","","","","","single-stim-button","214","711395","0.0-3.0-22.6-1.6","5eea591930ca5f0ddaa75a7f","C3","batch3","tol_toboard","1110","","","","","","","","","tol_peg_1","1110","1110","0","[[1,3,0],[2,0],[0]]","7","[[0,0,0],[1,2],[3]]","4","0","","","","","","7","","","","",""
"","","","","","single-stim-button","215","711891","0.0-3.0-22.7-0.7","5eea591930ca5f0ddaa75a7f","C3","batch3","tol_tohand","495","","","","","","","","","tol_peg_1","495","495","0","[[1,0,0],[2,0],[0]]","8","[[0,0,0],[1,2],[3]]","4","0","","","","","","7","","","","",""
"","","","","","single-stim-button","216","712531","0.0-3.0-22.7-1.7","5eea591930ca5f0ddaa75a7f","C3","batch3","tol_toboard","638","","","","","","","","","tol_peg_1","638","638","0","[[1,3,0],[2,0],[0]]","8","[[0,0,0],[1,2],[3]]","4","0","","","","","","7","","","","",""
"","","","","","single-stim-button","217","713355","0.0-3.0-22.8-0.8","5eea591930ca5f0ddaa75a7f","C3","batch3","tol_tohand","824","","","","","","","","","tol_peg_1","824","824","0","[[1,0,0],[2,0],[0]]","9","[[0,0,0],[1,2],[3]]","4","0","","","","","","7","","","","",""
"","","","","","single-stim-button","218","713995","0.0-3.0-22.8-1.8","5eea591930ca5f0ddaa75a7f","C3","batch3","tol_toboard","638","","","","","","","","","tol_peg_2","638","638","0","[[1,0,0],[2,3],[0]]","9","[[0,0,0],[1,2],[3]]","4","0","","","","","","7","","","","",""
"","","","","","single-stim-button","219","714811","0.0-3.0-22.9-0.9","5eea591930ca5f0ddaa75a7f","C3","batch3","tol_tohand","814","","","","","","","","","tol_peg_1","814","814","0","[[0,0,0],[2,3],[0]]","10","[[0,0,0],[1,2],[3]]","4","0","","","","","","7","","","","",""
"","","","","","single-stim-button","220","715379","0.0-3.0-22.9-1.9","5eea591930ca5f0ddaa75a7f","C3","batch3","tol_toboard","566","","","","","","","","","tol_peg_3","566","566","0","[[0,0,0],[2,3],[1]]","10","[[0,0,0],[1,2],[3]]","4","0","","","","","","7","","","","",""
"","","","","","single-stim-button","221","718740","0.0-3.0-22.10-0.10","5eea591930ca5f0ddaa75a7f","C3","batch3","tol_tohand","3359","","","","","","","","","tol_peg_2","3359","3359","0","[[0,0,0],[2,0],[1]]","11","[[0,0,0],[1,2],[3]]","4","0","","","","","","7","","","","",""
"","","","","","single-stim-button","222","719355","0.0-3.0-22.10-1.10","5eea591930ca5f0ddaa75a7f","C3","batch3","tol_toboard","614","","","","","","","","","tol_peg_1","614","614","0","[[3,0,0],[2,0],[1]]","11","[[0,0,0],[1,2],[3]]","4","0","","","","","","7","","","","",""
"","","","","","single-stim-button","223","719707","0.0-3.0-22.11-0.11","5eea591930ca5f0ddaa75a7f","C3","batch3","tol_tohand","351","","","","","","","","","tol_peg_2","351","351","0","[[3,0,0],[0,0],[1]]","12","[[0,0,0],[1,2],[3]]","4","0","","","","","","7","","","","",""
"","","","","","single-stim-button","224","720100","0.0-3.0-22.11-1.11","5eea591930ca5f0ddaa75a7f","C3","batch3","tol_toboard","391","","","","","","","","","tol_peg_1","391","391","0","[[3,2,0],[0,0],[1]]","12","[[0,0,0],[1,2],[3]]","4","0","","","","","","7","","","","",""
"","","","","","single-stim-button","225","720619","0.0-3.0-22.12-0.12","5eea591930ca5f0ddaa75a7f","C3","batch3","tol_tohand","519","","","","","","","","","tol_peg_3","519","519","0","[[3,2,0],[0,0],[0]]","13","[[0,0,0],[1,2],[3]]","4","0","","","","","","7","","","","",""
"","","","","","single-stim-button","226","721059","0.0-3.0-22.12-1.12","5eea591930ca5f0ddaa75a7f","C3","batch3","tol_toboard","439","","","","","","","","","tol_peg_2","439","439","0","[[3,2,0],[1,0],[0]]","13","[[0,0,0],[1,2],[3]]","4","0","","","","","","7","","","","",""
"","","","","","single-stim-button","227","721595","0.0-3.0-22.13-0.13","5eea591930ca5f0ddaa75a7f","C3","batch3","tol_tohand","535","","","","","","","","","tol_peg_1","535","535","0","[[3,0,0],[1,0],[0]]","14","[[0,0,0],[1,2],[3]]","4","0","","","","","","7","","","","",""
"","","","","","single-stim-button","228","722276","0.0-3.0-22.13-1.13","5eea591930ca5f0ddaa75a7f","C3","batch3","tol_toboard","679","","","","","","","","","tol_peg_2","679","679","0","[[3,0,0],[1,2],[0]]","14","[[0,0,0],[1,2],[3]]","4","0","","","","","","7","","","","",""
"","","","","","single-stim-button","229","722724","0.0-3.0-22.14-0.14","5eea591930ca5f0ddaa75a7f","C3","batch3","tol_tohand","447","","","","","","","","","tol_peg_1","447","447","0","[[0,0,0],[1,2],[0]]","15","[[0,0,0],[1,2],[3]]","4","0","","","","","","7","","","","",""
"","","","","","single-stim-button","230","723236","0.0-3.0-22.14-1.14","5eea591930ca5f0ddaa75a7f","C3","batch3","tol_toboard","511","","","","","","","","","tol_peg_3","511","511","0","[[0,0,0],[1,2],[3]]","15","[[0,0,0],[1,2],[3]]","4","0","","","","","","7","","","","",""
"","","","","","poldrack-single-stim","231","724249","0.0-3.0-23.0","5eea591930ca5f0ddaa75a7f","C3","batch3","tol_feedback","-1","","","","","true","","","","","1000","1000","500","","","","","","-1","none","true","7150","25748","","","","","",""
"","","","","","html-button-response","232","724883","0.0-3.0-24.0","5eea591930ca5f0ddaa75a7f","C3","batch3","tol_trial_num","634","<div class = centerbox><p class = center-block-text>problem <strong>6</strong> out of 25 problems</p></div>","0","","","","","","","","","","","","","","","","","","","","","","","","","",""
"","","","","","single-stim-button","233","736659","0.0-3.0-25.0-0.0","5eea591930ca5f0ddaa75a7f","C3","batch3","tol_tohand","11775","","","","","","","","","tol_peg_2","11775","11775","0","[[0,0,0],[1,0],[3]]","1","[[1,0,0],[2,3],[0]]","5","0","","","","","","6","","","","",""
"","","","","","single-stim-button","234","737283","0.0-3.0-25.0-1.0","5eea591930ca5f0ddaa75a7f","C3","batch3","tol_toboard","623","","","","","","","","","tol_peg_1","623","623","0","[[2,0,0],[1,0],[3]]","1","[[1,0,0],[2,3],[0]]","5","0","","","","","","6","","","","",""
"","","","","","single-stim-button","235","746563","0.0-3.0-25.1-0.1","5eea591930ca5f0ddaa75a7f","C3","batch3","tol_tohand","9279","","","","","","","","","tol_peg_3","9279","9279","0","[[2,0,0],[1,0],[0]]","2","[[1,0,0],[2,3],[0]]","5","0","","","","","","6","","","","",""
"","","","","","single-stim-button","236","747036","0.0-3.0-25.1-1.1","5eea591930ca5f0ddaa75a7f","C3","batch3","tol_toboard","471","","","","","","","","","tol_peg_2","471","471","0","[[2,0,0],[1,3],[0]]","2","[[1,0,0],[2,3],[0]]","5","0","","","","","","6","","","","",""
"","","","","","single-stim-button","237","747563","0.0-3.0-25.2-0.2","5eea591930ca5f0ddaa75a7f","C3","batch3","tol_tohand","527","","","","","","","","","tol_peg_1","527","527","0","[[0,0,0],[1,3],[0]]","3","[[1,0,0],[2,3],[0]]","5","0","","","","","","6","","","","",""
"","","","","","single-stim-button","238","748483","0.0-3.0-25.2-1.2","5eea591930ca5f0ddaa75a7f","C3","batch3","tol_toboard","919","","","","","","","","","tol_peg_3","919","919","0","[[0,0,0],[1,3],[2]]","3","[[1,0,0],[2,3],[0]]","5","0","","","","","","6","","","","",""
"","","","","","single-stim-button","239","750404","0.0-3.0-25.3-0.3","5eea591930ca5f0ddaa75a7f","C3","batch3","tol_tohand","1919","","","","","","","","","tol_peg_2","1919","1919","0","[[0,0,0],[1,0],[2]]","4","[[1,0,0],[2,3],[0]]","5","0","","","","","","6","","","","",""
"","","","","","single-stim-button","240","753428","0.0-3.0-25.3-1.3","5eea591930ca5f0ddaa75a7f","C3","batch3","tol_toboard","3023","","","","","","","","","tol_peg_1","3023","3023","0","[[3,0,0],[1,0],[2]]","4","[[1,0,0],[2,3],[0]]","5","0","","","","","","6","","","","",""
"","","","","","single-stim-button","241","755004","0.0-3.0-25.4-0.4","5eea591930ca5f0ddaa75a7f","C3","batch3","tol_tohand","1575","","","","","","","","","tol_peg_2","1575","1575","0","[[3,0,0],[0,0],[2]]","5","[[1,0,0],[2,3],[0]]","5","0","","","","","","6","","","","",""
"","","","","","single-stim-button","242","755499","0.0-3.0-25.4-1.4","5eea591930ca5f0ddaa75a7f","C3","batch3","tol_toboard","495","","","","","","","","","tol_peg_1","495","495","0","[[3,1,0],[0,0],[2]]","5","[[1,0,0],[2,3],[0]]","5","0","","","","","","6","","","","",""
"","","","","","single-stim-button","243","756348","0.0-3.0-25.5-0.5","5eea591930ca5f0ddaa75a7f","C3","batch3","tol_tohand","847","","","","","","","","","tol_peg_3","847","847","0","[[3,1,0],[0,0],[0]]","6","[[1,0,0],[2,3],[0]]","5","0","","","","","","6","","","","",""
"","","","","","single-stim-button","244","756956","0.0-3.0-25.5-1.5","5eea591930ca5f0ddaa75a7f","C3","batch3","tol_toboard","607","","","","","","","","","tol_peg_2","607","607","0","[[3,1,0],[2,0],[0]]","6","[[1,0,0],[2,3],[0]]","5","0","","","","","","6","","","","",""
"","","","","","single-stim-button","245","757819","0.0-3.0-25.6-0.6","5eea591930ca5f0ddaa75a7f","C3","batch3","tol_tohand","862","","","","","","","","","tol_peg_1","862","862","0","[[3,0,0],[2,0],[0]]","7","[[1,0,0],[2,3],[0]]","5","0","","","","","","6","","","","",""
"","","","","","single-stim-button","246","758403","0.0-3.0-25.6-1.6","5eea591930ca5f0ddaa75a7f","C3","batch3","tol_toboard","583","","","","","","","","","tol_peg_3","583","583","0","[[3,0,0],[2,0],[1]]","7","[[1,0,0],[2,3],[0]]","5","0","","","","","","6","","","","",""
"","","","","","single-stim-button","247","758940","0.0-3.0-25.7-0.7","5eea591930ca5f0ddaa75a7f","C3","batch3","tol_tohand","535","","","","","","","","","tol_peg_1","535","535","0","[[0,0,0],[2,0],[1]]","8","[[1,0,0],[2,3],[0]]","5","0","","","","","","6","","","","",""
"","","","","","single-stim-button","248","759811","0.0-3.0-25.7-1.7","5eea591930ca5f0ddaa75a7f","C3","batch3","tol_toboard","871","","","","","","","","","tol_peg_2","871","871","0","[[0,0,0],[2,3],[1]]","8","[[1,0,0],[2,3],[0]]","5","0","","","","","","6","","","","",""
"","","","","","single-stim-button","249","760412","0.0-3.0-25.8-0.8","5eea591930ca5f0ddaa75a7f","C3","batch3","tol_tohand","599","","","","","","","","","tol_peg_3","599","599","0","[[0,0,0],[2,3],[0]]","9","[[1,0,0],[2,3],[0]]","5","0","","","","","","6","","","","",""
"","","","","","single-stim-button","250","760876","0.0-3.0-25.8-1.8","5eea591930ca5f0ddaa75a7f","C3","batch3","tol_toboard","463","","","","","","","","","tol_peg_1","463","463","0","[[1,0,0],[2,3],[0]]","9","[[1,0,0],[2,3],[0]]","5","0","","","","","","6","","","","",""
"","","","","","poldrack-single-stim","251","761878","0.0-3.0-26.0","5eea591930ca5f0ddaa75a7f","C3","batch3","tol_feedback","-1","","","","","true","","","","","1000","1000","500","","","","","","-1","none","true","11775","27918","","","","","",""
"","","","","","html-button-response","252","762571","0.0-3.0-27.0","5eea591930ca5f0ddaa75a7f","C3","batch3","tol_trial_num","693","<div class = centerbox><p class = center-block-text>problem <strong>7</strong> out of 25 problems</p></div>","0","","","","","","","","","","","","","","","","","","","","","","","","","",""
"","","","","","single-stim-button","253","764644","0.0-3.0-28.0-0.0","5eea591930ca5f0ddaa75a7f","C3","batch3","tol_tohand","2071","","","","","","","","","tol_peg_3","2071","2071","0","[[2,1,0],[0,0],[0]]","1","[[1,2,0],[3,0],[0]]","6","0","","","","","","5","","","","",""
"","","","","","single-stim-button","254","766331","0.0-3.0-28.0-1.0","5eea591930ca5f0ddaa75a7f","C3","batch3","tol_toboard","1687","","","","","","","","","tol_peg_2","1687","1687","0","[[2,1,0],[3,0],[0]]","1","[[1,2,0],[3,0],[0]]","6","0","","","","","","5","","","","",""
"","","","","","single-stim-button","255","767371","0.0-3.0-28.1-0.1","5eea591930ca5f0ddaa75a7f","C3","batch3","tol_tohand","1039","","","","","","","","","tol_peg_1","1039","1039","0","[[2,0,0],[3,0],[0]]","2","[[1,2,0],[3,0],[0]]","6","0","","","","","","5","","","","",""
"","","","","","single-stim-button","256","769572","0.0-3.0-28.1-1.1","5eea591930ca5f0ddaa75a7f","C3","batch3","tol_toboard","2199","","","","","","","","","tol_peg_3","2199","2199","0","[[2,0,0],[3,0],[1]]","2","[[1,2,0],[3,0],[0]]","6","0","","","","","","5","","","","",""
"","","","","","single-stim-button","257","770100","0.0-3.0-28.2-0.2","5eea591930ca5f0ddaa75a7f","C3","batch3","tol_tohand","527","","","","","","","","","tol_peg_1","527","527","0","[[0,0,0],[3,0],[1]]","3","[[1,2,0],[3,0],[0]]","6","0","","","","","","5","","","","",""
"","","","","","single-stim-button","258","770979","0.0-3.0-28.2-1.2","5eea591930ca5f0ddaa75a7f","C3","batch3","tol_toboard","879","","","","","","","","","tol_peg_2","879","879","0","[[0,0,0],[3,2],[1]]","3","[[1,2,0],[3,0],[0]]","6","0","","","","","","5","","","","",""
"","","","","","single-stim-button","259","771340","0.0-3.0-28.3-0.3","5eea591930ca5f0ddaa75a7f","C3","batch3","tol_tohand","359","","","","","","","","","tol_peg_3","359","359","0","[[0,0,0],[3,2],[0]]","4","[[1,2,0],[3,0],[0]]","6","0","","","","","","5","","","","",""
"","","","","","single-stim-button","260","771852","0.0-3.0-28.3-1.3","5eea591930ca5f0ddaa75a7f","C3","batch3","tol_toboard","511","","","","","","","","","tol_peg_1","511","511","0","[[1,0,0],[3,2],[0]]","4","[[1,2,0],[3,0],[0]]","6","0","","","","","","5","","","","",""
"","","","","","single-stim-button","261","772235","0.0-3.0-28.4-0.4","5eea591930ca5f0ddaa75a7f","C3","batch3","tol_tohand","383","","","","","","","","","tol_peg_2","383","383","0","[[1,0,0],[3,0],[0]]","5","[[1,2,0],[3,0],[0]]","6","0","","","","","","5","","","","",""
"","","","","","single-stim-button","262","772731","0.0-3.0-28.4-1.4","5eea591930ca5f0ddaa75a7f","C3","batch3","tol_toboard","495","","","","","","","","","tol_peg_1","495","495","0","[[1,2,0],[3,0],[0]]","5","[[1,2,0],[3,0],[0]]","6","0","","","","","","5","","","","",""
"","","","","","poldrack-single-stim","263","773733","0.0-3.0-29.0","5eea591930ca5f0ddaa75a7f","C3","batch3","tol_feedback","-1","","","","","true","","","","","1000","1000","500","","","","","","-1","none","true","2071","4379","","","","","",""
"","","","","","html-button-response","264","774259","0.0-3.0-30.0","5eea591930ca5f0ddaa75a7f","C3","batch3","tol_trial_num","526","<div class = centerbox><p class = center-block-text>problem <strong>8</strong> out of 25 problems</p></div>","0","","","","","","","","","","","","","","","","","","","","","","","","","",""
"","","","","","single-stim-button","265","778548","0.0-3.0-31.0-0.0","5eea591930ca5f0ddaa75a7f","C3","batch3","tol_tohand","4287","","","","","","","","","tol_peg_3","4287","4287","0","[[0,0,0],[2,3],[0]]","1","[[1,2,0],[3,0],[0]]","7","0","","","","","","4","","","","",""
"","","","","","single-stim-button","266","779124","0.0-3.0-31.0-1.0","5eea591930ca5f0ddaa75a7f","C3","batch3","tol_toboard","575","","","","","","","","","tol_peg_1","575","575","0","[[1,0,0],[2,3],[0]]","1","[[1,2,0],[3,0],[0]]","7","0","","","","","","4","","","","",""
"","","","","","single-stim-button","267","779660","0.0-3.0-31.1-0.1","5eea591930ca5f0ddaa75a7f","C3","batch3","tol_tohand","534","","","","","","","","","tol_peg_2","534","534","0","[[1,0,0],[2,0],[0]]","2","[[1,2,0],[3,0],[0]]","7","0","","","","","","4","","","","",""
"","","","","","single-stim-button","268","781324","0.0-3.0-31.1-1.1","5eea591930ca5f0ddaa75a7f","C3","batch3","tol_toboard","1664","","","","","","","","","tol_peg_3","1664","1664","0","[[1,0,0],[2,0],[3]]","2","[[1,2,0],[3,0],[0]]","7","0","","","","","","4","","","","",""
"","","","","","single-stim-button","269","782587","0.0-3.0-31.2-0.2","5eea591930ca5f0ddaa75a7f","C3","batch3","tol_tohand","1262","","","","","","","","","tol_peg_2","1262","1262","0","[[1,0,0],[0,0],[3]]","3","[[1,2,0],[3,0],[0]]","7","0","","","","","","4","","","","",""
"","","","","","single-stim-button","270","783100","0.0-3.0-31.2-1.2","5eea591930ca5f0ddaa75a7f","C3","batch3","tol_toboard","511","","","","","","","","","tol_peg_1","511","511","0","[[1,2,0],[0,0],[3]]","3","[[1,2,0],[3,0],[0]]","7","0","","","","","","4","","","","",""
"","","","","","single-stim-button","271","783516","0.0-3.0-31.3-0.3","5eea591930ca5f0ddaa75a7f","C3","batch3","tol_tohand","414","","","","","","","","","tol_peg_3","414","414","0","[[1,2,0],[0,0],[0]]","4","[[1,2,0],[3,0],[0]]","7","0","","","","","","4","","","","",""
"","","","","","single-stim-button","272","784172","0.0-3.0-31.3-1.3","5eea591930ca5f0ddaa75a7f","C3","batch3","tol_toboard","655","","","","","","","","","tol_peg_2","655","655","0","[[1,2,0],[3,0],[0]]","4","[[1,2,0],[3,0],[0]]","7","0","","","","","","4","","","","",""
"","","","","","poldrack-single-stim","273","785174","0.0-3.0-32.0","5eea591930ca5f0ddaa75a7f","C3","batch3","tol_feedback","-1","","","","","true","","","","","1000","1000","500","","","","","","-1","none","true","4287","6497","","","","","",""
"","","","","","html-button-response","274","785683","0.0-3.0-33.0","5eea591930ca5f0ddaa75a7f","C3","batch3","tol_trial_num","508","<div class = centerbox><p class = center-block-text>problem <strong>9</strong> out of 25 problems</p></div>","0","","","","","","","","","","","","","","","","","","","","","","","","","",""
"","","","","","single-stim-button","275","794171","0.0-3.0-34.0-0.0","5eea591930ca5f0ddaa75a7f","C3","batch3","tol_tohand","8487","","","","","","","","","tol_peg_3","8487","8487","0","[[3,2,0],[0,0],[0]]","1","[[2,1,0],[3,0],[0]]","8","0","","","","","","6","","","","",""
"","","","","","single-stim-button","276","794660","0.0-3.0-34.0-1.0","5eea591930ca5f0ddaa75a7f","C3","batch3","tol_toboard","487","","","","","","","","","tol_peg_2","487","487","0","[[3,2,0],[1,0],[0]]","1","[[2,1,0],[3,0],[0]]","8","0","","","","","","6","","","","",""
"","","","","","single-stim-button","277","795196","0.0-3.0-34.1-0.1","5eea591930ca5f0ddaa75a7f","C3","batch3","tol_tohand","535","","","","","","","","","tol_peg_1","535","535","0","[[3,0,0],[1,0],[0]]","2","[[2,1,0],[3,0],[0]]","8","0","","","","","","6","","","","",""
"","","","","","single-stim-button","278","796411","0.0-3.0-34.1-1.1","5eea591930ca5f0ddaa75a7f","C3","batch3","tol_toboard","1215","","","","","","","","","tol_peg_3","1215","1215","0","[[3,0,0],[1,0],[2]]","2","[[2,1,0],[3,0],[0]]","8","0","","","","","","6","","","","",""
"","","","","","single-stim-button","279","797059","0.0-3.0-34.2-0.2","5eea591930ca5f0ddaa75a7f","C3","batch3","tol_tohand","647","","","","","","","","","tol_peg_1","647","647","0","[[0,0,0],[1,0],[2]]","3","[[2,1,0],[3,0],[0]]","8","0","","","","","","6","","","","",""
"","","","","","single-stim-button","280","797515","0.0-3.0-34.2-1.2","5eea591930ca5f0ddaa75a7f","C3","batch3","tol_toboard","455","","","","","","","","","tol_peg_2","455","455","0","[[0,0,0],[1,3],[2]]","3","[[2,1,0],[3,0],[0]]","8","0","","","","","","6","","","","",""
"","","","","","single-stim-button","281","797883","0.0-3.0-34.3-0.3","5eea591930ca5f0ddaa75a7f","C3","batch3","tol_tohand","367","","","","","","","","","tol_peg_3","367","367","0","[[0,0,0],[1,3],[0]]","4","[[2,1,0],[3,0],[0]]","8","0","","","","","","6","","","","",""
"","","","","","single-stim-button","282","798587","0.0-3.0-34.3-1.3","5eea591930ca5f0ddaa75a7f","C3","batch3","tol_toboard","703","","","","","","","","","tol_peg_1","703","703","0","[[2,0,0],[1,3],[0]]","4","[[2,1,0],[3,0],[0]]","8","0","","","","","","6","","","","",""
"","","","","","single-stim-button","283","799124","0.0-3.0-34.4-0.4","5eea591930ca5f0ddaa75a7f","C3","batch3","tol_tohand","535","","","","","","","","","tol_peg_2","535","535","0","[[2,0,0],[1,0],[0]]","5","[[2,1,0],[3,0],[0]]","8","0","","","","","","6","","","","",""
"","","","","","single-stim-button","284","799915","0.0-3.0-34.4-1.4","5eea591930ca5f0ddaa75a7f","C3","batch3","tol_toboard","790","","","","","","","","","tol_peg_3","790","790","0","[[2,0,0],[1,0],[3]]","5","[[2,1,0],[3,0],[0]]","8","0","","","","","","6","","","","",""
"","","","","","single-stim-button","285","800436","0.0-3.0-34.5-0.5","5eea591930ca5f0ddaa75a7f","C3","batch3","tol_tohand","519","","","","","","","","","tol_peg_2","519","519","0","[[2,0,0],[0,0],[3]]","6","[[2,1,0],[3,0],[0]]","8","0","","","","","","6","","","","",""
"","","","","","single-stim-button","286","800908","0.0-3.0-34.5-1.5","5eea591930ca5f0ddaa75a7f","C3","batch3","tol_toboard","471","","","","","","","","","tol_peg_1","471","471","0","[[2,1,0],[0,0],[3]]","6","[[2,1,0],[3,0],[0]]","8","0","","","","","","6","","","","",""
"","","","","","single-stim-button","287","801444","0.0-3.0-34.6-0.6","5eea591930ca5f0ddaa75a7f","C3","batch3","tol_tohand","534","","","","","","","","","tol_peg_3","534","534","0","[[2,1,0],[0,0],[0]]","7","[[2,1,0],[3,0],[0]]","8","0","","","","","","6","","","","",""
"","","","","","single-stim-button","288","801844","0.0-3.0-34.6-1.6","5eea591930ca5f0ddaa75a7f","C3","batch3","tol_toboard","399","","","","","","","","","tol_peg_2","399","399","0","[[2,1,0],[3,0],[0]]","7","[[2,1,0],[3,0],[0]]","8","0","","","","","","6","","","","",""
"","","","","","poldrack-single-stim","289","802845","0.0-3.0-35.0","5eea591930ca5f0ddaa75a7f","C3","batch3","tol_feedback","-1","","","","","true","","","","","1000","1000","500","","","","","","-1","none","true","8487","11624","","","","","",""
"","","","","","html-button-response","290","803387","0.0-3.0-36.0","5eea591930ca5f0ddaa75a7f","C3","batch3","tol_trial_num","541","<div class = centerbox><p class = center-block-text>problem <strong>10</strong> out of 25 problems</p></div>","0","","","","","","","","","","","","","","","","","","","","","","","","","",""
"","","","","","single-stim-button","291","807835","0.0-3.0-37.0-0.0","5eea591930ca5f0ddaa75a7f","C3","batch3","tol_tohand","4447","","","","","","","","","tol_peg_2","4447","4447","0","[[3,0,0],[0,0],[2]]","1","[[3,0,0],[2,1],[0]]","9","0","","","","","","3","","","","",""
"","","","","","single-stim-button","292","808636","0.0-3.0-37.0-1.0","5eea591930ca5f0ddaa75a7f","C3","batch3","tol_toboard","799","","","","","","","","","tol_peg_1","799","799","0","[[3,1,0],[0,0],[2]]","1","[[3,0,0],[2,1],[0]]","9","0","","","","","","3","","","","",""
"","","","","","single-stim-button","293","809227","0.0-3.0-37.1-0.1","5eea591930ca5f0ddaa75a7f","C3","batch3","tol_tohand","591","","","","","","","","","tol_peg_3","591","591","0","[[3,1,0],[0,0],[0]]","2","[[3,0,0],[2,1],[0]]","9","0","","","","","","3","","","","",""
"","","","","","single-stim-button","294","809748","0.0-3.0-37.1-1.1","5eea591930ca5f0ddaa75a7f","C3","batch3","tol_toboard","519","","","","","","","","","tol_peg_2","519","519","0","[[3,1,0],[2,0],[0]]","2","[[3,0,0],[2,1],[0]]","9","0","","","","","","3","","","","",""
"","","","","","single-stim-button","295","810148","0.0-3.0-37.2-0.2","5eea591930ca5f0ddaa75a7f","C3","batch3","tol_tohand","399","","","","","","","","","tol_peg_1","399","399","0","[[3,0,0],[2,0],[0]]","3","[[3,0,0],[2,1],[0]]","9","0","","","","","","3","","","","",""
"","","","","","single-stim-button","296","810628","0.0-3.0-37.2-1.2","5eea591930ca5f0ddaa75a7f","C3","batch3","tol_toboard","479","","","","","","","","","tol_peg_2","479","479","0","[[3,0,0],[2,1],[0]]","3","[[3,0,0],[2,1],[0]]","9","0","","","","","","3","","","","",""
"","","","","","poldrack-single-stim","297","811633","0.0-3.0-38.0","5eea591930ca5f0ddaa75a7f","C3","batch3","tol_feedback","-1","","","","","true","","","","","1000","1000","500","","","","","","-1","none","true","4447","5437","","","","","",""
"","","","","","html-button-response","298","812092","0.0-3.0-39.0","5eea591930ca5f0ddaa75a7f","C3","batch3","tol_trial_num","458","<div class = centerbox><p class = center-block-text>problem <strong>11</strong> out of 25 problems</p></div>","0","","","","","","","","","","","","","","","","","","","","","","","","","",""
"","","","","","single-stim-button","299","814444","0.0-3.0-40.0-0.0","5eea591930ca5f0ddaa75a7f","C3","batch3","tol_tohand","2349","","","","","","","","","tol_peg_1","2349","2349","0","[[1,0,0],[3,0],[0]]","1","[[2,0,0],[1,3],[0]]","10","0","","","","","","6","","","","",""
"","","","","","single-stim-button","300","815916","0.0-3.0-40.0-1.0","5eea591930ca5f0ddaa75a7f","C3","batch3","tol_toboard","1470","","","","","","","","","tol_peg_3","1470","1470","0","[[1,0,0],[3,0],[2]]","1","[[2,0,0],[1,3],[0]]","10","0","","","","","","6","","","","",""
"","","","","","single-stim-button","301","818540","0.0-3.0-40.1-0.1","5eea591930ca5f0ddaa75a7f","C3","batch3","tol_tohand","2622","","","","","","","","","tol_peg_1","2622","2622","0","[[0,0,0],[3,0],[2]]","2","[[2,0,0],[1,3],[0]]","10","0","","","","","","6","","","","",""
"","","","","","single-stim-button","302","819324","0.0-3.0-40.1-1.1","5eea591930ca5f0ddaa75a7f","C3","batch3","tol_toboard","782","","","","","","","","","tol_peg_2","782","782","0","[[0,0,0],[3,1],[2]]","2","[[2,0,0],[1,3],[0]]","10","0","","","","","","6","","","","",""
"","","","","","single-stim-button","303","819724","0.0-3.0-40.2-0.2","5eea591930ca5f0ddaa75a7f","C3","batch3","tol_tohand","399","","","","","","","","","tol_peg_3","399","399","0","[[0,0,0],[3,1],[0]]","3","[[2,0,0],[1,3],[0]]","10","0","","","","","","6","","","","",""
"","","","","","single-stim-button","304","820308","0.0-3.0-40.2-1.2","5eea591930ca5f0ddaa75a7f","C3","batch3","tol_toboard","582","","","","","","","","","tol_peg_1","582","582","0","[[2,0,0],[3,1],[0]]","3","[[2,0,0],[1,3],[0]]","10","0","","","","","","6","","","","",""
"","","","","","single-stim-button","305","820852","0.0-3.0-40.3-0.3","5eea591930ca5f0ddaa75a7f","C3","batch3","tol_tohand","542","","","","","","","","","tol_peg_2","542","542","0","[[2,0,0],[3,0],[0]]","4","[[2,0,0],[1,3],[0]]","10","0","","","","","","6","","","","",""
"","","","","","single-stim-button","306","821252","0.0-3.0-40.3-1.3","5eea591930ca5f0ddaa75a7f","C3","batch3","tol_toboard","399","","","","","","","","","tol_peg_3","399","399","0","[[2,0,0],[3,0],[1]]","4","[[2,0,0],[1,3],[0]]","10","0","","","","","","6","","","","",""
"","","","","","single-stim-button","307","822828","0.0-3.0-40.4-0.4","5eea591930ca5f0ddaa75a7f","C3","batch3","tol_tohand","1575","","","","","","","","","tol_peg_2","1575","1575","0","[[2,0,0],[0,0],[1]]","5","[[2,0,0],[1,3],[0]]","10","0","","","","","","6","","","","",""
"","","","","","single-stim-button","308","823276","0.0-3.0-40.4-1.4","5eea591930ca5f0ddaa75a7f","C3","batch3","tol_toboard","447","","","","","","","","","tol_peg_1","447","447","0","[[2,3,0],[0,0],[1]]","5","[[2,0,0],[1,3],[0]]","10","0","","","","","","6","","","","",""
"","","","","","single-stim-button","309","823708","0.0-3.0-40.5-0.5","5eea591930ca5f0ddaa75a7f","C3","batch3","tol_tohand","431","","","","","","","","","tol_peg_3","431","431","0","[[2,3,0],[0,0],[0]]","6","[[2,0,0],[1,3],[0]]","10","0","","","","","","6","","","","",""
"","","","","","single-stim-button","310","824044","0.0-3.0-40.5-1.5","5eea591930ca5f0ddaa75a7f","C3","batch3","tol_toboard","335","","","","","","","","","tol_peg_2","335","335","0","[[2,3,0],[1,0],[0]]","6","[[2,0,0],[1,3],[0]]","10","0","","","","","","6","","","","",""
"","","","","","single-stim-button","311","824436","0.0-3.0-40.6-0.6","5eea591930ca5f0ddaa75a7f","C3","batch3","tol_tohand","391","","","","","","","","","tol_peg_1","391","391","0","[[2,0,0],[1,0],[0]]","7","[[2,0,0],[1,3],[0]]","10","0","","","","","","6","","","","",""
"","","","","","single-stim-button","312","824699","0.0-3.0-40.6-1.6","5eea591930ca5f0ddaa75a7f","C3","batch3","tol_toboard","263","","","","","","","","","tol_peg_2","263","263","0","[[2,0,0],[1,3],[0]]","7","[[2,0,0],[1,3],[0]]","10","0","","","","","","6","","","","",""
"","","","","","poldrack-single-stim","313","825701","0.0-3.0-41.0","5eea591930ca5f0ddaa75a7f","C3","batch3","tol_feedback","-1","","","","","true","","","","","1000","1000","500","","","","","","-1","none","true","2349","8309","","","","","",""
"","","","","","html-button-response","314","826459","0.0-3.0-42.0","5eea591930ca5f0ddaa75a7f","C3","batch3","tol_trial_num","757","<div class = centerbox><p class = center-block-text>problem <strong>12</strong> out of 25 problems</p></div>","0","","","","","","","","","","","","","","","","","","","","","","","","","",""
"","","","","","single-stim-button","315","828716","0.0-3.0-43.0-0.0","5eea591930ca5f0ddaa75a7f","C3","batch3","tol_tohand","2255","","","","","","","","","tol_peg_1","2255","2255","0","[[1,0,0],[3,0],[0]]","1","[[2,3,0],[0,0],[1]]","11","0","","","","","","4","","","","",""
"","","","","","single-stim-button","316","829452","0.0-3.0-43.0-1.0","5eea591930ca5f0ddaa75a7f","C3","batch3","tol_toboard","735","","","","","","","","","tol_peg_3","735","735","0","[[1,0,0],[3,0],[2]]","1","[[2,3,0],[0,0],[1]]","11","0","","","","","","4","","","","",""
"","","","","","single-stim-button","317","830644","0.0-3.0-43.1-0.1","5eea591930ca5f0ddaa75a7f","C3","batch3","tol_tohand","1191","","","","","","","","","tol_peg_2","1191","1191","0","[[1,0,0],[0,0],[2]]","2","[[2,3,0],[0,0],[1]]","11","0","","","","","","4","","","","",""
"","","","","","single-stim-button","318","834292","0.0-3.0-43.1-1.1","5eea591930ca5f0ddaa75a7f","C3","batch3","tol_toboard","3647","","","","","","","","","tol_peg_2","3647","3647","0","[[1,0,0],[3,0],[2]]","2","[[2,3,0],[0,0],[1]]","11","0","","","","","","4","","","","",""
"","","","","","single-stim-button","319","834804","0.0-3.0-43.2-0.2","5eea591930ca5f0ddaa75a7f","C3","batch3","tol_tohand","511","","","","","","","","","tol_peg_1","511","511","0","[[0,0,0],[3,0],[2]]","3","[[2,3,0],[0,0],[1]]","11","0","","","","","","4","","","","",""
"","","","","","single-stim-button","320","836388","0.0-3.0-43.2-1.2","5eea591930ca5f0ddaa75a7f","C3","batch3","tol_toboard","1583","","","","","","","","","tol_peg_2","1583","1583","0","[[0,0,0],[3,1],[2]]","3","[[2,3,0],[0,0],[1]]","11","0","","","","","","4","","","","",""
"","","","","","single-stim-button","321","836899","0.0-3.0-43.3-0.3","5eea591930ca5f0ddaa75a7f","C3","batch3","tol_tohand","511","","","","","","","","","tol_peg_3","511","511","0","[[0,0,0],[3,1],[0]]","4","[[2,3,0],[0,0],[1]]","11","0","","","","","","4","","","","",""
"","","","","","single-stim-button","322","837467","0.0-3.0-43.3-1.3","5eea591930ca5f0ddaa75a7f","C3","batch3","tol_toboard","566","","","","","","","","","tol_peg_1","566","566","0","[[2,0,0],[3,1],[0]]","4","[[2,3,0],[0,0],[1]]","11","0","","","","","","4","","","","",""
"","","","","","single-stim-button","323","837979","0.0-3.0-43.4-0.4","5eea591930ca5f0ddaa75a7f","C3","batch3","tol_tohand","511","","","","","","","","","tol_peg_2","511","511","0","[[2,0,0],[3,0],[0]]","5","[[2,3,0],[0,0],[1]]","11","0","","","","","","4","","","","",""
"","","","","","single-stim-button","324","838531","0.0-3.0-43.4-1.4","5eea591930ca5f0ddaa75a7f","C3","batch3","tol_toboard","550","","","","","","","","","tol_peg_3","550","550","0","[[2,0,0],[3,0],[1]]","5","[[2,3,0],[0,0],[1]]","11","0","","","","","","4","","","","",""
"","","","","","single-stim-button","325","838915","0.0-3.0-43.5-0.5","5eea591930ca5f0ddaa75a7f","C3","batch3","tol_tohand","383","","","","","","","","","tol_peg_2","383","383","0","[[2,0,0],[0,0],[1]]","6","[[2,3,0],[0,0],[1]]","11","0","","","","","","4","","","","",""
"","","","","","single-stim-button","326","839235","0.0-3.0-43.5-1.5","5eea591930ca5f0ddaa75a7f","C3","batch3","tol_toboard","319","","","","","","","","","tol_peg_1","319","319","0","[[2,3,0],[0,0],[1]]","6","[[2,3,0],[0,0],[1]]","11","0","","","","","","4","","","","",""
"","","","","","poldrack-single-stim","327","840238","0.0-3.0-44.0","5eea591930ca5f0ddaa75a7f","C3","batch3","tol_feedback","-1","","","","","true","","","","","1000","1000","500","","","","","","-1","none","true","2255","5362","","","","","",""
"","","","","","html-button-response","328","840987","0.0-3.0-45.0","5eea591930ca5f0ddaa75a7f","C3","batch3","tol_trial_num","749","<div class = centerbox><p class = center-block-text>problem <strong>13</strong> out of 25 problems</p></div>","0","","","","","","","","","","","","","","","","","","","","","","","","","",""
"","","","","","single-stim-button","329","843747","0.0-3.0-46.0-0.0","5eea591930ca5f0ddaa75a7f","C3","batch3","tol_tohand","2758","","","","","","","","","tol_peg_1","2758","2758","0","[[1,0,0],[3,0],[0]]","1","[[0,0,0],[2,3],[1]]","12","0","","","","","","4","","","","",""
"","","","","","single-stim-button","330","844275","0.0-3.0-46.0-1.0","5eea591930ca5f0ddaa75a7f","C3","batch3","tol_toboard","526","","","","","","","","","tol_peg_3","526","526","0","[[1,0,0],[3,0],[2]]","1","[[0,0,0],[2,3],[1]]","12","0","","","","","","4","","","","",""
"","","","","","single-stim-button","331","846219","0.0-3.0-46.1-0.1","5eea591930ca5f0ddaa75a7f","C3","batch3","tol_tohand","1943","","","","","","","","","tol_peg_1","1943","1943","0","[[0,0,0],[3,0],[2]]","2","[[0,0,0],[2,3],[1]]","12","0","","","","","","4","","","","",""
"","","","","","single-stim-button","332","856843","0.0-3.0-46.1-1.1","5eea591930ca5f0ddaa75a7f","C3","batch3","tol_toboard","10622","","","","","","","","","tol_peg_1","10622","10622","0","[[1,0,0],[3,0],[2]]","2","[[0,0,0],[2,3],[1]]","12","0","","","","","","4","","","","",""
"","","","","","single-stim-button","333","857227","0.0-3.0-46.2-0.2","5eea591930ca5f0ddaa75a7f","C3","batch3","tol_tohand","382","","","","","","","","","tol_peg_2","382","382","0","[[1,0,0],[0,0],[2]]","3","[[0,0,0],[2,3],[1]]","12","0","","","","","","4","","","","",""
"","","","","","single-stim-button","334","859011","0.0-3.0-46.2-1.2","5eea591930ca5f0ddaa75a7f","C3","batch3","tol_toboard","1783","","","","","","","","","tol_peg_1","1783","1783","0","[[1,3,0],[0,0],[2]]","3","[[0,0,0],[2,3],[1]]","12","0","","","","","","4","","","","",""
"","","","","","single-stim-button","335","859619","0.0-3.0-46.3-0.3","5eea591930ca5f0ddaa75a7f","C3","batch3","tol_tohand","606","","","","","","","","","tol_peg_3","606","606","0","[[1,3,0],[0,0],[0]]","4","[[0,0,0],[2,3],[1]]","12","0","","","","","","4","","","","",""
"","","","","","single-stim-button","336","860027","0.0-3.0-46.3-1.3","5eea591930ca5f0ddaa75a7f","C3","batch3","tol_toboard","406","","","","","","","","","tol_peg_2","406","406","0","[[1,3,0],[2,0],[0]]","4","[[0,0,0],[2,3],[1]]","12","0","","","","","","4","","","","",""
"","","","","","single-stim-button","337","860483","0.0-3.0-46.4-0.4","5eea591930ca5f0ddaa75a7f","C3","batch3","tol_tohand","455","","","","","","","","","tol_peg_1","455","455","0","[[1,0,0],[2,0],[0]]","5","[[0,0,0],[2,3],[1]]","12","0","","","","","","4","","","","",""
"","","","","","single-stim-button","338","860939","0.0-3.0-46.4-1.4","5eea591930ca5f0ddaa75a7f","C3","batch3","tol_toboard","455","","","","","","","","","tol_peg_2","455","455","0","[[1,0,0],[2,3],[0]]","5","[[0,0,0],[2,3],[1]]","12","0","","","","","","4","","","","",""
"","","","","","single-stim-button","339","861355","0.0-3.0-46.5-0.5","5eea591930ca5f0ddaa75a7f","C3","batch3","tol_tohand","414","","","","","","","","","tol_peg_1","414","414","0","[[0,0,0],[2,3],[0]]","6","[[0,0,0],[2,3],[1]]","12","0","","","","","","4","","","","",""
"","","","","","single-stim-button","340","861891","0.0-3.0-46.5-1.5","5eea591930ca5f0ddaa75a7f","C3","batch3","tol_toboard","534","","","","","","","","","tol_peg_3","534","534","0","[[0,0,0],[2,3],[1]]","6","[[0,0,0],[2,3],[1]]","12","0","","","","","","4","","","","",""
"","","","","","poldrack-single-stim","341","862893","0.0-3.0-47.0","5eea591930ca5f0ddaa75a7f","C3","batch3","tol_feedback","-1","","","","","true","","","","","1000","1000","500","","","","","","-1","none","true","2758","6558","","","","","",""
"","","","","","html-button-response","342","865211","0.0-3.0-48.0","5eea591930ca5f0ddaa75a7f","C3","batch3","attention_check","2317","<p class = block-text>How many balls are in your board<br></p>","1","","","true","","","","","","","","","","","","","","","","","","","","","","",""
"","","","","","html-button-response","343","866611","0.0-3.0-49.0","5eea591930ca5f0ddaa75a7f","C3","batch3","tol_trial_num","1399","<div class = centerbox><p class = center-block-text>problem <strong>14</strong> out of 25 problems</p></div>","0","","","","","","","","","","","","","","","","","","","","","","","","","",""
"","","","","","single-stim-button","344","869371","0.0-3.0-50.0-0.0","5eea591930ca5f0ddaa75a7f","C3","batch3","tol_tohand","2759","","","","","","","","","tol_peg_1","2759","2759","0","[[2,0,0],[3,0],[0]]","1","[[1,2,0],[3,0],[0]]","13","0","","","","","","4","","","","",""
"","","","","","single-stim-button","345","869811","0.0-3.0-50.0-1.0","5eea591930ca5f0ddaa75a7f","C3","batch3","tol_toboard","438","","","","","","","","","tol_peg_3","438","438","0","[[2,0,0],[3,0],[1]]","1","[[1,2,0],[3,0],[0]]","13","0","","","","","","4","","","","",""
"","","","","","single-stim-button","346","870683","0.0-3.0-50.1-0.1","5eea591930ca5f0ddaa75a7f","C3","batch3","tol_tohand","870","","","","","","","","","tol_peg_1","870","870","0","[[0,0,0],[3,0],[1]]","2","[[1,2,0],[3,0],[0]]","13","0","","","","","","4","","","","",""
"","","","","","single-stim-button","347","871107","0.0-3.0-50.1-1.1","5eea591930ca5f0ddaa75a7f","C3","batch3","tol_toboard","423","","","","","","","","","tol_peg_2","423","423","0","[[0,0,0],[3,2],[1]]","2","[[1,2,0],[3,0],[0]]","13","0","","","","","","4","","","","",""
"","","","","","single-stim-button","348","871539","0.0-3.0-50.2-0.2","5eea591930ca5f0ddaa75a7f","C3","batch3","tol_tohand","430","","","","","","","","","tol_peg_3","430","430","0","[[0,0,0],[3,2],[0]]","3","[[1,2,0],[3,0],[0]]","13","0","","","","","","4","","","","",""
"","","","","","single-stim-button","349","872051","0.0-3.0-50.2-1.2","5eea591930ca5f0ddaa75a7f","C3","batch3","tol_toboard","511","","","","","","","","","tol_peg_1","511","511","0","[[1,0,0],[3,2],[0]]","3","[[1,2,0],[3,0],[0]]","13","0","","","","","","4","","","","",""
"","","","","","single-stim-button","350","872387","0.0-3.0-50.3-0.3","5eea591930ca5f0ddaa75a7f","C3","batch3","tol_tohand","335","","","","","","","","","tol_peg_2","335","335","0","[[1,0,0],[3,0],[0]]","4","[[1,2,0],[3,0],[0]]","13","0","","","","","","4","","","","",""
"","","","","","single-stim-button","351","872963","0.0-3.0-50.3-1.3","5eea591930ca5f0ddaa75a7f","C3","batch3","tol_toboard","574","","","","","","","","","tol_peg_1","574","574","0","[[1,2,0],[3,0],[0]]","4","[[1,2,0],[3,0],[0]]","13","0","","","","","","4","","","","",""
"","","","","","poldrack-single-stim","352","873964","0.0-3.0-51.0","5eea591930ca5f0ddaa75a7f","C3","batch3","tol_feedback","-1","","","","","true","","","","","1000","1000","500","","","","","","-1","none","true","2759","4394","","","","","",""
"","","","","","html-button-response","353","874531","0.0-3.0-52.0","5eea591930ca5f0ddaa75a7f","C3","batch3","tol_trial_num","565","<div class = centerbox><p class = center-block-text>problem <strong>15</strong> out of 25 problems</p></div>","0","","","","","","","","","","","","","","","","","","","","","","","","","",""
"","","","","","single-stim-button","354","876947","0.0-3.0-53.0-0.0","5eea591930ca5f0ddaa75a7f","C3","batch3","tol_tohand","2415","","","","","","","","","tol_peg_1","2415","2415","0","[[1,0,0],[3,0],[0]]","1","[[2,0,0],[3,0],[1]]","14","0","","","","","","3","","","","",""
"","","","","","single-stim-button","355","877763","0.0-3.0-53.0-1.0","5eea591930ca5f0ddaa75a7f","C3","batch3","tol_toboard","815","","","","","","","","","tol_peg_3","815","815","0","[[1,0,0],[3,0],[2]]","1","[[2,0,0],[3,0],[1]]","14","0","","","","","","3","","","","",""
"","","","","","single-stim-button","356","878451","0.0-3.0-53.1-0.1","5eea591930ca5f0ddaa75a7f","C3","batch3","tol_tohand","686","","","","","","","","","tol_peg_1","686","686","0","[[0,0,0],[3,0],[2]]","2","[[2,0,0],[3,0],[1]]","14","0","","","","","","3","","","","",""
"","","","","","single-stim-button","357","878987","0.0-3.0-53.1-1.1","5eea591930ca5f0ddaa75a7f","C3","batch3","tol_toboard","535","","","","","","","","","tol_peg_2","535","535","0","[[0,0,0],[3,1],[2]]","2","[[2,0,0],[3,0],[1]]","14","0","","","","","","3","","","","",""
"","","","","","single-stim-button","358","879355","0.0-3.0-53.2-0.2","5eea591930ca5f0ddaa75a7f","C3","batch3","tol_tohand","366","","","","","","","","","tol_peg_3","366","366","0","[[0,0,0],[3,1],[0]]","3","[[2,0,0],[3,0],[1]]","14","0","","","","","","3","","","","",""
"","","","","","single-stim-button","359","879851","0.0-3.0-53.2-1.2","5eea591930ca5f0ddaa75a7f","C3","batch3","tol_toboard","495","","","","","","","","","tol_peg_1","495","495","0","[[2,0,0],[3,1],[0]]","3","[[2,0,0],[3,0],[1]]","14","0","","","","","","3","","","","",""
