"success","timeout","failed_images","failed_audio","failed_video","trial_type","trial_index","time_elapsed","internal_node_id","subject_id","study_id","session_id","view_history","rt","task","stimulus","response","correct","mouse_click","stim_duration","block_duration","timing_post_trial","current_position","tol_num_moves_made","tol_target","tol_problem_id","tol_rt","key_press","possible_responses","tol_correct","preplanning","tol_rt_per_trial","tol_min_moves","item","answer","spm_correct","spm_rt","fiar_detect_rt","fiar_detect_correct","total_correct_fiar_detect","post_trial_gap","choices"
"true","false","[]","[]","[]","preload","0","18907","0.0-0.0","5eeaff28cf5da71d691ef212","C3","batch3","","","","","","","","","","","","","","","","","","","","","","","","","","","","","",""
"true","","","","","fullscreen","1","30491","0.0-1.0-0.0","5eeaff28cf5da71d691ef212","C3","batch3","","","","","","","","","","","","","","","","","","","","","","","","","","","","","",""
"true","","","","","fullscreen","2","34043","0.0-2.0-0.0","5eeaff28cf5da71d691ef212","C3","batch3","","","","","","","","","","","","","","","","","","","","","","","","","","","","","",""
"","","","","","instructions","3","125775","0.0-2.0-1.0-0.0-0.0","5eeaff28cf5da71d691ef212","C3","batch3","[{""page_index"":0,""viewing_time"":15622.60000000149},{""page_index"":1,""viewing_time"":14071.89999999851},{""page_index"":2,""viewing_time"":10189.19999999553},{""page_index"":3,""viewing_time"":19376.40000000596},{""page_index"":4,""viewing_time"":12106.39999999851},{""page_index"":5,""viewing_time"":17428.10000000149},{""page_index"":6,""viewing_time"":2937.5}]","91732.29999999702","tol-instructions","","","","","","","","","","","","","","","","","","","","","","","","","","",""
"","","","","","html-button-response","4","127724","0.0-2.0-1.0-1.0-0.0","5eeaff28cf5da71d691ef212","C3","batch3","","1948.1000000014901","tol_enter_quiz","<p class=block-text> Let's answer a few questions <br>","0","","","","","","","","","","","","","","","","","","","","","","","","",""
"","","","","","html-button-response","5","141840","0.0-2.0-1.0-1.0-1.0","5eeaff28cf5da71d691ef212","C3","batch3","","14114.70000000298","tol_quiz","<p class = block-text>True or False: You can only move the ball on top of a peg. <br></p>","0","true","","","","","","","","","","","","","","","","","","","","","","","",""
"","","","","","html-button-response","6","143294","0.0-2.0-1.0-1.0-2.0","5eeaff28cf5da71d691ef212","C3","batch3","","1452.7000000029802","tol_quiz_feedback","<p class = block-text>Correct! You can only move the ball on top of a peg.</p>","0","","","","","","","","","","","","","","","","","","","","","","","","",""
"","","","","","html-button-response","7","146371","0.0-2.0-1.0-1.0-3.0","5eeaff28cf5da71d691ef212","C3","batch3","","3076.0999999940395","tol_quiz","<p class = block-text>True or False: You should try to match your board with the target board with fewest moves possible. <br></p>","0","true","","","","","","","","","","","","","","","","","","","","","","","",""
"","","","","","html-button-response","8","147212","0.0-2.0-1.0-1.0-4.0","5eeaff28cf5da71d691ef212","C3","batch3","","840.7000000029802","tol_quiz_feedback","<p class = block-text>Correct! </p>","0","","","","","","","","","","","","","","","","","","","","","","","","",""
"","","","","","html-button-response","9","149317","0.0-2.0-2.0","5eeaff28cf5da71d691ef212","C3","batch3","","2104.39999999851","","<p class=block-text> Now that you've understood the game, let's practice a few easier examples before we start!<br> <br>","0","","","","","","","","","","","","","","","","","","","","","","","","",""
"","","","","","single-stim-button","10","151400","0.0-2.0-3.0-0.0","5eeaff28cf5da71d691ef212","C3","batch3","","2081","tol_practice","","","","tol_peg_2","2081","2081","0","[[1,2,0],[0,0],[0]]","1","[[1,2,0],[0,0],[3]]","practice","2081","","","","","","","","","","","","","","",""
"","","","","","single-stim-button","11","153109","0.0-2.0-3.0-1.0","5eeaff28cf5da71d691ef212","C3","batch3","","1707","tol_practice","","","","tol_peg_3","1707","1707","0","[[1,2,0],[0,0],[3]]","1","[[1,2,0],[0,0],[3]]","practice","1707","","","","","","","","","","","","","","",""
"","","","","","poldrack-single-stim","12","154111","0.0-2.0-4.0","5eeaff28cf5da71d691ef212","C3","batch3","","-1","tol_feedback","","","true","","1000","1000","500","","","","","","-1","none","true","","0","","","","","","","","","",""
"","","","","","single-stim-button","13","160887","0.0-2.0-5.0-0.0","5eeaff28cf5da71d691ef212","C3","batch3","","6775","tol_practice","","","","tol_peg_2","6775","6775","0","[[1,2,0],[0,0],[0]]","2","[[0,0,0],[3,1],[2]]","practice","6775","","","","","","","","","","","","","","",""
"","","","","","single-stim-button","14","163011","0.0-2.0-5.0-1.0","5eeaff28cf5da71d691ef212","C3","batch3","","2124","tol_practice","","","","tol_peg_1","2124","2124","0","[[1,2,3],[0,0],[0]]","2","[[0,0,0],[3,1],[2]]","practice","2124","","","","","","","","","","","","","","",""
"","","","","","single-stim-button","15","165163","0.0-2.0-5.1-0.1","5eeaff28cf5da71d691ef212","C3","batch3","","2150","tol_practice","","","","tol_peg_1","2150","2150","0","[[1,2,0],[0,0],[0]]","3","[[0,0,0],[3,1],[2]]","practice","2150","","","","","","","","","","","","","","",""
"","","","","","single-stim-button","16","168126","0.0-2.0-5.1-1.1","5eeaff28cf5da71d691ef212","C3","batch3","","2963","tol_practice","","","","tol_peg_1","2963","2963","0","[[1,2,3],[0,0],[0]]","3","[[0,0,0],[3,1],[2]]","practice","2963","","","","","","","","","","","","","","",""
"","","","","","single-stim-button","17","169603","0.0-2.0-5.2-0.2","5eeaff28cf5da71d691ef212","C3","batch3","","1476","tol_practice","","","","tol_peg_1","1476","1476","0","[[1,2,0],[0,0],[0]]","4","[[0,0,0],[3,1],[2]]","practice","1476","","","","","","","","","","","","","","",""
"","","","","","single-stim-button","18","173165","0.0-2.0-5.2-1.2","5eeaff28cf5da71d691ef212","C3","batch3","","3562","tol_practice","","","","tol_peg_3","3562","3562","0","[[1,2,0],[0,0],[3]]","4","[[0,0,0],[3,1],[2]]","practice","3562","","","","","","","","","","","","","","",""
"","","","","","single-stim-button","19","174360","0.0-2.0-5.3-0.3","5eeaff28cf5da71d691ef212","C3","batch3","","1194","tol_practice","","","","tol_peg_1","1194","1194","0","[[1,0,0],[0,0],[3]]","5","[[0,0,0],[3,1],[2]]","practice","1194","","","","","","","","","","","","","","",""
"","","","","","single-stim-button","20","177457","0.0-2.0-5.3-1.3","5eeaff28cf5da71d691ef212","C3","batch3","","3096","tol_practice","","","","tol_peg_2","3096","3096","0","[[1,0,0],[2,0],[3]]","5","[[0,0,0],[3,1],[2]]","practice","3096","","","","","","","","","","","","","","",""
"","","","","","single-stim-button","21","179134","0.0-2.0-5.4-0.4","5eeaff28cf5da71d691ef212","C3","batch3","","1677","tol_practice","","","","tol_peg_3","1677","1677","0","[[1,0,0],[2,0],[0]]","6","[[0,0,0],[3,1],[2]]","practice","1677","","","","","","","","","","","","","","",""
"","","","","","single-stim-button","22","180075","0.0-2.0-5.4-1.4","5eeaff28cf5da71d691ef212","C3","batch3","","940","tol_practice","","","","tol_peg_1","940","940","0","[[1,3,0],[2,0],[0]]","6","[[0,0,0],[3,1],[2]]","practice","940","","","","","","","","","","","","","","",""
"","","","","","single-stim-button","23","181564","0.0-2.0-5.5-0.5","5eeaff28cf5da71d691ef212","C3","batch3","","1489","tol_practice","","","","tol_peg_1","1489","1489","0","[[1,0,0],[2,0],[0]]","7","[[0,0,0],[3,1],[2]]","practice","1489","","","","","","","","","","","","","","",""
"","","","","","single-stim-button","24","182504","0.0-2.0-5.5-1.5","5eeaff28cf5da71d691ef212","C3","batch3","","940","tol_practice","","","","tol_peg_3","940","940","0","[[1,0,0],[2,0],[3]]","7","[[0,0,0],[3,1],[2]]","practice","940","","","","","","","","","","","","","","",""
"","","","","","single-stim-button","25","183238","0.0-2.0-5.6-0.6","5eeaff28cf5da71d691ef212","C3","batch3","","734","tol_practice","","","","tol_peg_1","734","734","0","[[0,0,0],[2,0],[3]]","8","[[0,0,0],[3,1],[2]]","practice","734","","","","","","","","","","","","","","",""
"","","","","","single-stim-button","26","186260","0.0-2.0-5.6-1.6","5eeaff28cf5da71d691ef212","C3","batch3","","3021","tol_practice","","","","tol_peg_1","3021","3021","0","[[1,0,0],[2,0],[3]]","8","[[0,0,0],[3,1],[2]]","practice","3021","","","","","","","","","","","","","","",""
"","","","","","single-stim-button","27","188804","0.0-2.0-5.7-0.7","5eeaff28cf5da71d691ef212","C3","batch3","","2543","tol_practice","","","","tol_peg_1","2543","2543","0","[[0,0,0],[2,0],[3]]","9","[[0,0,0],[3,1],[2]]","practice","2543","","","","","","","","","","","","","","",""
"","","","","","single-stim-button","28","189502","0.0-2.0-5.7-1.7","5eeaff28cf5da71d691ef212","C3","batch3","","698","tol_practice","","","","tol_peg_2","698","698","0","[[0,0,0],[2,1],[3]]","9","[[0,0,0],[3,1],[2]]","practice","698","","","","","","","","","","","","","","",""
"","","","","","single-stim-button","29","190401","0.0-2.0-5.8-0.8","5eeaff28cf5da71d691ef212","C3","batch3","","898","tol_practice","","","","tol_peg_3","898","898","0","[[0,0,0],[2,1],[0]]","10","[[0,0,0],[3,1],[2]]","practice","898","","","","","","","","","","","","","","",""
"","","","","","single-stim-button","30","191522","0.0-2.0-5.8-1.8","5eeaff28cf5da71d691ef212","C3","batch3","","1121","tol_practice","","","","tol_peg_1","1121","1121","0","[[3,0,0],[2,1],[0]]","10","[[0,0,0],[3,1],[2]]","practice","1121","","","","","","","","","","","","","","",""
"","","","","","single-stim-button","31","192791","0.0-2.0-5.9-0.9","5eeaff28cf5da71d691ef212","C3","batch3","","1267","tol_practice","","","","tol_peg_2","1267","1267","0","[[3,0,0],[2,0],[0]]","11","[[0,0,0],[3,1],[2]]","practice","1267","","","","","","","","","","","","","","",""
"","","","","","single-stim-button","32","194012","0.0-2.0-5.9-1.9","5eeaff28cf5da71d691ef212","C3","batch3","","1220","tol_practice","","","","tol_peg_1","1220","1220","0","[[3,1,0],[2,0],[0]]","11","[[0,0,0],[3,1],[2]]","practice","1220","","","","","","","","","","","","","","",""
"","","","","","single-stim-button","33","200650","0.0-2.0-5.10-0.10","5eeaff28cf5da71d691ef212","C3","batch3","","6638","tol_practice","","","","tol_peg_2","6638","6638","0","[[3,1,0],[0,0],[0]]","12","[[0,0,0],[3,1],[2]]","practice","6638","","","","","","","","","","","","","","",""
"","","","","","single-stim-button","34","203679","0.0-2.0-5.10-1.10","5eeaff28cf5da71d691ef212","C3","batch3","","3028","tol_practice","","","","tol_peg_3","3028","3028","0","[[3,1,0],[0,0],[2]]","12","[[0,0,0],[3,1],[2]]","practice","3028","","","","","","","","","","","","","","",""
"","","","","","single-stim-button","35","205696","0.0-2.0-5.11-0.11","5eeaff28cf5da71d691ef212","C3","batch3","","2016","tol_practice","","","","tol_peg_1","2016","2016","0","[[3,0,0],[0,0],[2]]","13","[[0,0,0],[3,1],[2]]","practice","2016","","","","","","","","","","","","","","",""
"","","","","","single-stim-button","36","207369","0.0-2.0-5.11-1.11","5eeaff28cf5da71d691ef212","C3","batch3","","1673","tol_practice","","","","tol_peg_2","1673","1673","0","[[3,0,0],[1,0],[2]]","13","[[0,0,0],[3,1],[2]]","practice","1673","","","","","","","","","","","","","","",""
"","","","","","single-stim-button","37","208442","0.0-2.0-5.12-0.12","5eeaff28cf5da71d691ef212","C3","batch3","","1073","tol_practice","","","","tol_peg_1","1073","1073","0","[[0,0,0],[1,0],[2]]","14","[[0,0,0],[3,1],[2]]","practice","1073","","","","","","","","","","","","","","",""
"","","","","","single-stim-button","38","209777","0.0-2.0-5.12-1.12","5eeaff28cf5da71d691ef212","C3","batch3","","1334","tol_practice","","","","tol_peg_2","1334","1334","0","[[0,0,0],[1,3],[2]]","14","[[0,0,0],[3,1],[2]]","practice","1334","","","","","","","","","","","","","","",""
"","","","","","single-stim-button","39","210812","0.0-2.0-5.13-0.13","5eeaff28cf5da71d691ef212","C3","batch3","","1034","tol_practice","","","","tol_peg_3","1034","1034","0","[[0,0,0],[1,3],[0]]","15","[[0,0,0],[3,1],[2]]","practice","1034","","","","","","","","","","","","","","",""
"","","","","","single-stim-button","40","211594","0.0-2.0-5.13-1.13","5eeaff28cf5da71d691ef212","C3","batch3","","782","tol_practice","","","","tol_peg_1","782","782","0","[[2,0,0],[1,3],[0]]","15","[[0,0,0],[3,1],[2]]","practice","782","","","","","","","","","","","","","","",""
"","","","","","single-stim-button","41","217435","0.0-2.0-5.14-0.14","5eeaff28cf5da71d691ef212","C3","batch3","","5840","tol_practice","","","","tol_peg_1","5840","5840","0","[[0,0,0],[1,3],[0]]","16","[[0,0,0],[3,1],[2]]","practice","5840","","","","","","","","","","","","","","",""
"","","","","","single-stim-button","42","218276","0.0-2.0-5.14-1.14","5eeaff28cf5da71d691ef212","C3","batch3","","840","tol_practice","","","","tol_peg_3","840","840","0","[[0,0,0],[1,3],[2]]","16","[[0,0,0],[3,1],[2]]","practice","840","","","","","","","","","","","","","","",""
"","","","","","single-stim-button","43","221118","0.0-2.0-5.15-0.15","5eeaff28cf5da71d691ef212","C3","batch3","","2842","tol_practice","","","","tol_peg_2","2842","2842","0","[[0,0,0],[1,0],[2]]","17","[[0,0,0],[3,1],[2]]","practice","2842","","","","","","","","","","","","","","",""
"","","","","","single-stim-button","44","226607","0.0-2.0-5.15-1.15","5eeaff28cf5da71d691ef212","C3","batch3","","5489","tol_practice","","","","tol_peg_2","5489","5489","0","[[0,0,0],[1,3],[2]]","17","[[0,0,0],[3,1],[2]]","practice","5489","","","","","","","","","","","","","","",""
"","","","","","single-stim-button","45","227714","0.0-2.0-5.16-0.16","5eeaff28cf5da71d691ef212","C3","batch3","","1107","tol_practice","","","","tol_peg_2","1107","1107","0","[[0,0,0],[1,0],[2]]","18","[[0,0,0],[3,1],[2]]","practice","1107","","","","","","","","","","","","","","",""
"","","","","","single-stim-button","46","228122","0.0-2.0-5.16-1.16","5eeaff28cf5da71d691ef212","C3","batch3","","407","tol_practice","","","","tol_peg_1","407","407","0","[[3,0,0],[1,0],[2]]","18","[[0,0,0],[3,1],[2]]","practice","407","","","","","","","","","","","","","","",""
"","","","","","single-stim-button","47","228706","0.0-2.0-5.17-0.17","5eeaff28cf5da71d691ef212","C3","batch3","","583","tol_practice","","","","tol_peg_2","583","583","0","[[3,0,0],[0,0],[2]]","19","[[0,0,0],[3,1],[2]]","practice","583","","","","","","","","","","","","","","",""
"","","","","","single-stim-button","48","229729","0.0-2.0-5.17-1.17","5eeaff28cf5da71d691ef212","C3","batch3","","1022","tol_practice","","","","tol_peg_1","1022","1022","0","[[3,1,0],[0,0],[2]]","19","[[0,0,0],[3,1],[2]]","practice","1022","","","","","","","","","","","","","","",""
"","","","","","single-stim-button","49","232633","0.0-2.0-5.18-0.18","5eeaff28cf5da71d691ef212","C3","batch3","","2903","tol_practice","","","","tol_peg_1","2903","2903","0","[[3,0,0],[0,0],[2]]","20","[[0,0,0],[3,1],[2]]","practice","2903","","","","","","","","","","","","","","",""
"","","","","","single-stim-button","50","235771","0.0-2.0-5.18-1.18","5eeaff28cf5da71d691ef212","C3","batch3","","3138","tol_practice","","","","tol_peg_1","3138","3138","0","[[3,1,0],[0,0],[2]]","20","[[0,0,0],[3,1],[2]]","practice","3138","","","","","","","","","","","","","","",""
"","","","","","single-stim-button","51","236430","0.0-2.0-5.19-0.19","5eeaff28cf5da71d691ef212","C3","batch3","","657","tol_practice","","","","tol_peg_1","657","657","0","[[3,0,0],[0,0],[2]]","21","[[0,0,0],[3,1],[2]]","practice","657","","","","","","","","","","","","","","",""
"","","","","","single-stim-button","52","237646","0.0-2.0-5.19-1.19","5eeaff28cf5da71d691ef212","C3","batch3","","1215","tol_practice","","","","tol_peg_2","1215","1215","0","[[3,0,0],[1,0],[2]]","21","[[0,0,0],[3,1],[2]]","practice","1215","","","","","","","","","","","","","","",""
"","","","","","single-stim-button","53","238293","0.0-2.0-5.20-0.20","5eeaff28cf5da71d691ef212","C3","batch3","","646","tol_practice","","","","tol_peg_1","646","646","0","[[0,0,0],[1,0],[2]]","22","[[0,0,0],[3,1],[2]]","practice","646","","","","","","","","","","","","","","",""
"","","","","","single-stim-button","54","240266","0.0-2.0-5.20-1.20","5eeaff28cf5da71d691ef212","C3","batch3","","1973","tol_practice","","","","tol_peg_1","1973","1973","0","[[3,0,0],[1,0],[2]]","22","[[0,0,0],[3,1],[2]]","practice","1973","","","","","","","","","","","","","","",""
"","","","","","single-stim-button","55","241197","0.0-2.0-5.21-0.21","5eeaff28cf5da71d691ef212","C3","batch3","","930","tol_practice","","","","tol_peg_2","930","930","0","[[3,0,0],[0,0],[2]]","23","[[0,0,0],[3,1],[2]]","practice","930","","","","","","","","","","","","","","",""
"","","","","","single-stim-button","56","242792","0.0-2.0-5.21-1.21","5eeaff28cf5da71d691ef212","C3","batch3","","1595","tol_practice","","","","tol_peg_1","1595","1595","0","[[3,1,0],[0,0],[2]]","23","[[0,0,0],[3,1],[2]]","practice","1595","","","","","","","","","","","","","","",""
"","","","","","single-stim-button","57","243381","0.0-2.0-5.22-0.22","5eeaff28cf5da71d691ef212","C3","batch3","","588","tol_practice","","","","tol_peg_1","588","588","0","[[3,0,0],[0,0],[2]]","24","[[0,0,0],[3,1],[2]]","practice","588","","","","","","","","","","","","","","",""
"","","","","","single-stim-button","58","245634","0.0-2.0-5.22-1.22","5eeaff28cf5da71d691ef212","C3","batch3","","2252","tol_practice","","","","tol_peg_1","2252","2252","0","[[3,1,0],[0,0],[2]]","24","[[0,0,0],[3,1],[2]]","practice","2252","","","","","","","","","","","","","","",""
"","","","","","single-stim-button","59","246437","0.0-2.0-5.23-0.23","5eeaff28cf5da71d691ef212","C3","batch3","","801","tol_practice","","","","tol_peg_3","801","801","0","[[3,1,0],[0,0],[0]]","25","[[0,0,0],[3,1],[2]]","practice","801","","","","","","","","","","","","","","",""
"","","","","","single-stim-button","60","246980","0.0-2.0-5.23-1.23","5eeaff28cf5da71d691ef212","C3","batch3","","543","tol_practice","","","","tol_peg_2","543","543","0","[[3,1,0],[2,0],[0]]","25","[[0,0,0],[3,1],[2]]","practice","543","","","","","","","","","","","","","","",""
"","","","","","single-stim-button","61","250918","0.0-2.0-5.24-0.24","5eeaff28cf5da71d691ef212","C3","batch3","","3937","tol_practice","","","","tol_peg_1","3937","3937","0","[[3,0,0],[2,0],[0]]","26","[[0,0,0],[3,1],[2]]","practice","3937","","","","","","","","","","","","","","",""
"","","","","","single-stim-button","62","251986","0.0-2.0-5.24-1.24","5eeaff28cf5da71d691ef212","C3","batch3","","1067","tol_practice","","","","tol_peg_3","1067","1067","0","[[3,0,0],[2,0],[1]]","26","[[0,0,0],[3,1],[2]]","practice","1067","","","","","","","","","","","","","","",""
"","","","","","single-stim-button","63","253235","0.0-2.0-5.25-0.25","5eeaff28cf5da71d691ef212","C3","batch3","","1249","tol_practice","","","","tol_peg_2","1249","1249","0","[[3,0,0],[0,0],[1]]","27","[[0,0,0],[3,1],[2]]","practice","1249","","","","","","","","","","","","","","",""
"","","","","","single-stim-button","64","256479","0.0-2.0-5.25-1.25","5eeaff28cf5da71d691ef212","C3","batch3","","3243","tol_practice","","","","tol_peg_1","3243","3243","0","[[3,2,0],[0,0],[1]]","27","[[0,0,0],[3,1],[2]]","practice","3243","","","","","","","","","","","","","","",""
"","","","","","single-stim-button","65","257290","0.0-2.0-5.26-0.26","5eeaff28cf5da71d691ef212","C3","batch3","","810","tol_practice","","","","tol_peg_3","810","810","0","[[3,2,0],[0,0],[0]]","28","[[0,0,0],[3,1],[2]]","practice","810","","","","","","","","","","","","","","",""
"","","","","","single-stim-button","66","260372","0.0-2.0-5.26-1.26","5eeaff28cf5da71d691ef212","C3","batch3","","3082","tol_practice","","","","tol_peg_1","3082","3082","0","[[3,2,1],[0,0],[0]]","28","[[0,0,0],[3,1],[2]]","practice","3082","","","","","","","","","","","","","","",""
"","","","","","single-stim-button","67","261260","0.0-2.0-5.27-0.27","5eeaff28cf5da71d691ef212","C3","batch3","","887","tol_practice","","","","tol_peg_1","887","887","0","[[3,2,0],[0,0],[0]]","29","[[0,0,0],[3,1],[2]]","practice","887","","","","","","","","","","","","","","",""
"","","","","","single-stim-button","68","263488","0.0-2.0-5.27-1.27","5eeaff28cf5da71d691ef212","C3","batch3","","2227","tol_practice","","","","tol_peg_1","2227","2227","0","[[3,2,1],[0,0],[0]]","29","[[0,0,0],[3,1],[2]]","practice","2227","","","","","","","","","","","","","","",""
"","","","","","single-stim-button","69","264013","0.0-2.0-5.28-0.28","5eeaff28cf5da71d691ef212","C3","batch3","","524","tol_practice","","","","tol_peg_1","524","524","0","[[3,2,0],[0,0],[0]]","30","[[0,0,0],[3,1],[2]]","practice","524","","","","","","","","","","","","","","",""
"","","","","","single-stim-button","70","265269","0.0-2.0-5.28-1.28","5eeaff28cf5da71d691ef212","C3","batch3","","1256","tol_practice","","","","tol_peg_2","1256","1256","0","[[3,2,0],[1,0],[0]]","30","[[0,0,0],[3,1],[2]]","practice","1256","","","","","","","","","","","","","","",""
"","","","","","single-stim-button","71","265997","0.0-2.0-5.29-0.29","5eeaff28cf5da71d691ef212","C3","batch3","","728","tol_practice","","","","tol_peg_1","728","728","0","[[3,0,0],[1,0],[0]]","31","[[0,0,0],[3,1],[2]]","practice","728","","","","","","","","","","","","","","",""
"","","","","","single-stim-button","72","266880","0.0-2.0-5.29-1.29","5eeaff28cf5da71d691ef212","C3","batch3","","882","tol_practice","","","","tol_peg_3","882","882","0","[[3,0,0],[1,0],[2]]","31","[[0,0,0],[3,1],[2]]","practice","882","","","","","","","","","","","","","","",""
"","","","","","single-stim-button","73","268799","0.0-2.0-5.30-0.30","5eeaff28cf5da71d691ef212","C3","batch3","","1918","tol_practice","","","","tol_peg_1","1918","1918","0","[[0,0,0],[1,0],[2]]","32","[[0,0,0],[3,1],[2]]","practice","1918","","","","","","","","","","","","","","",""
"","","","","","single-stim-button","74","271434","0.0-2.0-5.30-1.30","5eeaff28cf5da71d691ef212","C3","batch3","","2635","tol_practice","","","","tol_peg_2","2635","2635","0","[[0,0,0],[1,3],[2]]","32","[[0,0,0],[3,1],[2]]","practice","2635","","","","","","","","","","","","","","",""
"","","","","","single-stim-button","75","275566","0.0-2.0-5.31-0.31","5eeaff28cf5da71d691ef212","C3","batch3","","4131","tol_practice","","","","tol_peg_2","4131","4131","0","[[0,0,0],[1,0],[2]]","33","[[0,0,0],[3,1],[2]]","practice","4131","","","","","","","","","","","","","","",""
"","","","","","single-stim-button","76","277304","0.0-2.0-5.31-1.31","5eeaff28cf5da71d691ef212","C3","batch3","","1737","tol_practice","","","","tol_peg_1","1737","1737","0","[[3,0,0],[1,0],[2]]","33","[[0,0,0],[3,1],[2]]","practice","1737","","","","","","","","","","","","","","",""
"","","","","","single-stim-button","77","278884","0.0-2.0-5.32-0.32","5eeaff28cf5da71d691ef212","C3","batch3","","1580","tol_practice","","","","tol_peg_3","1580","1580","0","[[3,0,0],[1,0],[0]]","34","[[0,0,0],[3,1],[2]]","practice","1580","","","","","","","","","","","","","","",""
"","","","","","single-stim-button","78","279759","0.0-2.0-5.32-1.32","5eeaff28cf5da71d691ef212","C3","batch3","","875","tol_practice","","","","tol_peg_1","875","875","0","[[3,2,0],[1,0],[0]]","34","[[0,0,0],[3,1],[2]]","practice","875","","","","","","","","","","","","","","",""
"","","","","","single-stim-button","79","281174","0.0-2.0-5.33-0.33","5eeaff28cf5da71d691ef212","C3","batch3","","1414","tol_practice","","","","tol_peg_2","1414","1414","0","[[3,2,0],[0,0],[0]]","35","[[0,0,0],[3,1],[2]]","practice","1414","","","","","","","","","","","","","","",""
"","","","","","single-stim-button","80","282282","0.0-2.0-5.33-1.33","5eeaff28cf5da71d691ef212","C3","batch3","","1108","tol_practice","","","","tol_peg_1","1108","1108","0","[[3,2,1],[0,0],[0]]","35","[[0,0,0],[3,1],[2]]","practice","1108","","","","","","","","","","","","","","",""
"","","","","","single-stim-button","81","285487","0.0-2.0-5.34-0.34","5eeaff28cf5da71d691ef212","C3","batch3","","3205","tol_practice","","","","tol_peg_1","3205","3205","0","[[3,2,0],[0,0],[0]]","36","[[0,0,0],[3,1],[2]]","practice","3205","","","","","","","","","","","","","","",""
"","","","","","single-stim-button","82","290445","0.0-2.0-5.34-1.34","5eeaff28cf5da71d691ef212","C3","batch3","","4957","tol_practice","","","","tol_peg_3","4957","4957","0","[[3,2,0],[0,0],[1]]","36","[[0,0,0],[3,1],[2]]","practice","4957","","","","","","","","","","","","","","",""
"","","","","","single-stim-button","83","291907","0.0-2.0-5.35-0.35","5eeaff28cf5da71d691ef212","C3","batch3","","1462","tol_practice","","","","tol_peg_1","1462","1462","0","[[3,0,0],[0,0],[1]]","37","[[0,0,0],[3,1],[2]]","practice","1462","","","","","","","","","","","","","","",""
"","","","","","single-stim-button","84","293397","0.0-2.0-5.35-1.35","5eeaff28cf5da71d691ef212","C3","batch3","","1489","tol_practice","","","","tol_peg_2","1489","1489","0","[[3,0,0],[2,0],[1]]","37","[[0,0,0],[3,1],[2]]","practice","1489","","","","","","","","","","","","","","",""
"","","","","","single-stim-button","85","294632","0.0-2.0-5.36-0.36","5eeaff28cf5da71d691ef212","C3","batch3","","1234","tol_practice","","","","tol_peg_3","1234","1234","0","[[3,0,0],[2,0],[0]]","38","[[0,0,0],[3,1],[2]]","practice","1234","","","","","","","","","","","","","","",""
"","","","","","single-stim-button","86","295484","0.0-2.0-5.36-1.36","5eeaff28cf5da71d691ef212","C3","batch3","","852","tol_practice","","","","tol_peg_1","852","852","0","[[3,1,0],[2,0],[0]]","38","[[0,0,0],[3,1],[2]]","practice","852","","","","","","","","","","","","","","",""
"","","","","","single-stim-button","87","296392","0.0-2.0-5.37-0.37","5eeaff28cf5da71d691ef212","C3","batch3","","908","tol_practice","","","","tol_peg_2","908","908","0","[[3,1,0],[0,0],[0]]","39","[[0,0,0],[3,1],[2]]","practice","908","","","","","","","","","","","","","","",""
"","","","","","single-stim-button","88","297270","0.0-2.0-5.37-1.37","5eeaff28cf5da71d691ef212","C3","batch3","","877","tol_practice","","","","tol_peg_1","877","877","0","[[3,1,2],[0,0],[0]]","39","[[0,0,0],[3,1],[2]]","practice","877","","","","","","","","","","","","","","",""
"","","","","","single-stim-button","89","297755","0.0-2.0-5.38-0.38","5eeaff28cf5da71d691ef212","C3","batch3","","484","tol_practice","","","","tol_peg_1","484","484","0","[[3,1,0],[0,0],[0]]","40","[[0,0,0],[3,1],[2]]","practice","484","","","","","","","","","","","","","","",""
"","","","","","single-stim-button","90","298490","0.0-2.0-5.38-1.38","5eeaff28cf5da71d691ef212","C3","batch3","","735","tol_practice","","","","tol_peg_3","735","735","0","[[3,1,0],[0,0],[2]]","40","[[0,0,0],[3,1],[2]]","practice","735","","","","","","","","","","","","","","",""
"","","","","","single-stim-button","91","300087","0.0-2.0-5.39-0.39","5eeaff28cf5da71d691ef212","C3","batch3","","1597","tol_practice","","","","tol_peg_1","1597","1597","0","[[3,0,0],[0,0],[2]]","41","[[0,0,0],[3,1],[2]]","practice","1597","","","","","","","","","","","","","","",""
"","","","","","single-stim-button","92","301396","0.0-2.0-5.39-1.39","5eeaff28cf5da71d691ef212","C3","batch3","","1309","tol_practice","","","","tol_peg_2","1309","1309","0","[[3,0,0],[1,0],[2]]","41","[[0,0,0],[3,1],[2]]","practice","1309","","","","","","","","","","","","","","",""
"","","","","","single-stim-button","93","302254","0.0-2.0-5.40-0.40","5eeaff28cf5da71d691ef212","C3","batch3","","858","tol_practice","","","","tol_peg_1","858","858","0","[[0,0,0],[1,0],[2]]","42","[[0,0,0],[3,1],[2]]","practice","858","","","","","","","","","","","","","","",""
"","","","","","single-stim-button","94","302981","0.0-2.0-5.40-1.40","5eeaff28cf5da71d691ef212","C3","batch3","","727","tol_practice","","","","tol_peg_2","727","727","0","[[0,0,0],[1,3],[2]]","42","[[0,0,0],[3,1],[2]]","practice","727","","","","","","","","","","","","","","",""
"","","","","","single-stim-button","95","304575","0.0-2.0-5.41-0.41","5eeaff28cf5da71d691ef212","C3","batch3","","1594","tol_practice","","","","tol_peg_2","1594","1594","0","[[0,0,0],[1,0],[2]]","43","[[0,0,0],[3,1],[2]]","practice","1594","","","","","","","","","","","","","","",""
"","","","","","single-stim-button","96","305075","0.0-2.0-5.41-1.41","5eeaff28cf5da71d691ef212","C3","batch3","","500","tol_practice","","","","tol_peg_1","500","500","0","[[3,0,0],[1,0],[2]]","43","[[0,0,0],[3,1],[2]]","practice","500","","","","","","","","","","","","","","",""
"","","","","","single-stim-button","97","306251","0.0-2.0-5.42-0.42","5eeaff28cf5da71d691ef212","C3","batch3","","1176","tol_practice","","","","tol_peg_2","1176","1176","0","[[3,0,0],[0,0],[2]]","44","[[0,0,0],[3,1],[2]]","practice","1176","","","","","","","","","","","","","","",""
"","","","","","single-stim-button","98","306947","0.0-2.0-5.42-1.42","5eeaff28cf5da71d691ef212","C3","batch3","","696","tol_practice","","","","tol_peg_1","696","696","0","[[3,1,0],[0,0],[2]]","44","[[0,0,0],[3,1],[2]]","practice","696","","","","","","","","","","","","","","",""
"","","","","","single-stim-button","99","307607","0.0-2.0-5.43-0.43","5eeaff28cf5da71d691ef212","C3","batch3","","660","tol_practice","","","","tol_peg_3","660","660","0","[[3,1,0],[0,0],[0]]","45","[[0,0,0],[3,1],[2]]","practice","660","","","","","","","","","","","","","","",""
"","","","","","single-stim-button","100","308372","0.0-2.0-5.43-1.43","5eeaff28cf5da71d691ef212","C3","batch3","","765","tol_practice","","","","tol_peg_1","765","765","0","[[3,1,2],[0,0],[0]]","45","[[0,0,0],[3,1],[2]]","practice","765","","","","","","","","","","","","","","",""
"","","","","","single-stim-button","101","309507","0.0-2.0-5.44-0.44","5eeaff28cf5da71d691ef212","C3","batch3","","1134","tol_practice","","","","tol_peg_1","1134","1134","0","[[3,1,0],[0,0],[0]]","46","[[0,0,0],[3,1],[2]]","practice","1134","","","","","","","","","","","","","","",""
"","","","","","single-stim-button","102","310100","0.0-2.0-5.44-1.44","5eeaff28cf5da71d691ef212","C3","batch3","","592","tol_practice","","","","tol_peg_3","592","592","0","[[3,1,0],[0,0],[2]]","46","[[0,0,0],[3,1],[2]]","practice","592","","","","","","","","","","","","","","",""
"","","","","","single-stim-button","103","310727","0.0-2.0-5.45-0.45","5eeaff28cf5da71d691ef212","C3","batch3","","626","tol_practice","","","","tol_peg_1","626","626","0","[[3,0,0],[0,0],[2]]","47","[[0,0,0],[3,1],[2]]","practice","626","","","","","","","","","","","","","","",""
"","","","","","single-stim-button","104","311501","0.0-2.0-5.45-1.45","5eeaff28cf5da71d691ef212","C3","batch3","","773","tol_practice","","","","tol_peg_2","773","773","0","[[3,0,0],[1,0],[2]]","47","[[0,0,0],[3,1],[2]]","practice","773","","","","","","","","","","","","","","",""
"","","","","","single-stim-button","105","312417","0.0-2.0-5.46-0.46","5eeaff28cf5da71d691ef212","C3","batch3","","916","tol_practice","","","","tol_peg_3","916","916","0","[[3,0,0],[1,0],[0]]","48","[[0,0,0],[3,1],[2]]","practice","916","","","","","","","","","","","","","","",""
"","","","","","single-stim-button","106","313176","0.0-2.0-5.46-1.46","5eeaff28cf5da71d691ef212","C3","batch3","","759","tol_practice","","","","tol_peg_1","759","759","0","[[3,2,0],[1,0],[0]]","48","[[0,0,0],[3,1],[2]]","practice","759","","","","","","","","","","","","","","",""
"","","","","","single-stim-button","107","313659","0.0-2.0-5.47-0.47","5eeaff28cf5da71d691ef212","C3","batch3","","482","tol_practice","","","","tol_peg_2","482","482","0","[[3,2,0],[0,0],[0]]","49","[[0,0,0],[3,1],[2]]","practice","482","","","","","","","","","","","","","","",""
"","","","","","single-stim-button","108","314383","0.0-2.0-5.47-1.47","5eeaff28cf5da71d691ef212","C3","batch3","","724","tol_practice","","","","tol_peg_1","724","724","0","[[3,2,1],[0,0],[0]]","49","[[0,0,0],[3,1],[2]]","practice","724","","","","","","","","","","","","","","",""
"","","","","","single-stim-button","109","318083","0.0-2.0-5.48-0.48","5eeaff28cf5da71d691ef212","C3","batch3","","3699","tol_practice","","","","tol_peg_1","3699","3699","0","[[3,2,0],[0,0],[0]]","50","[[0,0,0],[3,1],[2]]","practice","3699","","","","","","","","","","","","","","",""
"","","","","","single-stim-button","110","318771","0.0-2.0-5.48-1.48","5eeaff28cf5da71d691ef212","C3","batch3","","688","tol_practice","","","","tol_peg_3","688","688","0","[[3,2,0],[0,0],[1]]","50","[[0,0,0],[3,1],[2]]","practice","688","","","","","","","","","","","","","","",""
"","","","","","single-stim-button","111","319857","0.0-2.0-5.49-0.49","5eeaff28cf5da71d691ef212","C3","batch3","","1085","tol_practice","","","","tol_peg_1","1085","1085","0","[[3,0,0],[0,0],[1]]","51","[[0,0,0],[3,1],[2]]","practice","1085","","","","","","","","","","","","","","",""
"","","","","","single-stim-button","112","320746","0.0-2.0-5.49-1.49","5eeaff28cf5da71d691ef212","C3","batch3","","889","tol_practice","","","","tol_peg_2","889","889","0","[[3,0,0],[2,0],[1]]","51","[[0,0,0],[3,1],[2]]","practice","889","","","","","","","","","","","","","","",""
"","","","","","single-stim-button","113","323106","0.0-2.0-5.50-0.50","5eeaff28cf5da71d691ef212","C3","batch3","","2359","tol_practice","","","","tol_peg_1","2359","2359","0","[[0,0,0],[2,0],[1]]","52","[[0,0,0],[3,1],[2]]","practice","2359","","","","","","","","","","","","","","",""
"","","","","","single-stim-button","114","323618","0.0-2.0-5.50-1.50","5eeaff28cf5da71d691ef212","C3","batch3","","511","tol_practice","","","","tol_peg_2","511","511","0","[[0,0,0],[2,3],[1]]","52","[[0,0,0],[3,1],[2]]","practice","511","","","","","","","","","","","","","","",""
"","","","","","single-stim-button","115","324279","0.0-2.0-5.51-0.51","5eeaff28cf5da71d691ef212","C3","batch3","","661","tol_practice","","","","tol_peg_3","661","661","0","[[0,0,0],[2,3],[0]]","53","[[0,0,0],[3,1],[2]]","practice","661","","","","","","","","","","","","","","",""
"","","","","","single-stim-button","116","325090","0.0-2.0-5.51-1.51","5eeaff28cf5da71d691ef212","C3","batch3","","810","tol_practice","","","","tol_peg_1","810","810","0","[[1,0,0],[2,3],[0]]","53","[[0,0,0],[3,1],[2]]","practice","810","","","","","","","","","","","","","","",""
"","","","","","single-stim-button","117","326669","0.0-2.0-5.52-0.52","5eeaff28cf5da71d691ef212","C3","batch3","","1579","tol_practice","","","","tol_peg_2","1579","1579","0","[[1,0,0],[2,0],[0]]","54","[[0,0,0],[3,1],[2]]","practice","1579","","","","","","","","","","","","","","",""
"","","","","","single-stim-button","118","329289","0.0-2.0-5.52-1.52","5eeaff28cf5da71d691ef212","C3","batch3","","2620","tol_practice","","","","tol_peg_1","2620","2620","0","[[1,3,0],[2,0],[0]]","54","[[0,0,0],[3,1],[2]]","practice","2620","","","","","","","","","","","","","","",""
"","","","","","single-stim-button","119","329805","0.0-2.0-5.53-0.53","5eeaff28cf5da71d691ef212","C3","batch3","","515","tol_practice","","","","tol_peg_2","515","515","0","[[1,3,0],[0,0],[0]]","55","[[0,0,0],[3,1],[2]]","practice","515","","","","","","","","","","","","","","",""
"","","","","","single-stim-button","120","330545","0.0-2.0-5.53-1.53","5eeaff28cf5da71d691ef212","C3","batch3","","739","tol_practice","","","","tol_peg_3","739","739","0","[[1,3,0],[0,0],[2]]","55","[[0,0,0],[3,1],[2]]","practice","739","","","","","","","","","","","","","","",""
"","","","","","single-stim-button","121","331609","0.0-2.0-5.54-0.54","5eeaff28cf5da71d691ef212","C3","batch3","","1064","tol_practice","","","","tol_peg_1","1064","1064","0","[[1,0,0],[0,0],[2]]","56","[[0,0,0],[3,1],[2]]","practice","1064","","","","","","","","","","","","","","",""
"","","","","","single-stim-button","122","332136","0.0-2.0-5.54-1.54","5eeaff28cf5da71d691ef212","C3","batch3","","527","tol_practice","","","","tol_peg_2","527","527","0","[[1,0,0],[3,0],[2]]","56","[[0,0,0],[3,1],[2]]","practice","527","","","","","","","","","","","","","","",""
"","","","","","single-stim-button","123","332661","0.0-2.0-5.55-0.55","5eeaff28cf5da71d691ef212","C3","batch3","","525","tol_practice","","","","tol_peg_1","525","525","0","[[0,0,0],[3,0],[2]]","57","[[0,0,0],[3,1],[2]]","practice","525","","","","","","","","","","","","","","",""
"","","","","","single-stim-button","124","333182","0.0-2.0-5.55-1.55","5eeaff28cf5da71d691ef212","C3","batch3","","521","tol_practice","","","","tol_peg_2","521","521","0","[[0,0,0],[3,1],[2]]","57","[[0,0,0],[3,1],[2]]","practice","521","","","","","","","","","","","","","","",""
"","","","","","poldrack-single-stim","125","334190","0.0-2.0-6.0","5eeaff28cf5da71d691ef212","C3","batch3","","-1","tol_feedback","","","true","","1000","1000","500","","","","","","-1","none","true","","0","","","","","","","","","",""
"","","","","","single-stim-button","126","338540","0.0-2.0-7.0-0.0","5eeaff28cf5da71d691ef212","C3","batch3","","4350","tol_practice","","","","tol_peg_2","4350","4350","0","[[1,2,0],[0,0],[0]]","58","[[1,0,0],[2,0],[3]]","practice","4350","","","","","","","","","","","","","","",""
"","","","","","single-stim-button","127","339511","0.0-2.0-7.0-1.0","5eeaff28cf5da71d691ef212","C3","batch3","","969","tol_practice","","","","tol_peg_3","969","969","0","[[1,2,0],[0,0],[3]]","58","[[1,0,0],[2,0],[3]]","practice","969","","","","","","","","","","","","","","",""
"","","","","","single-stim-button","128","340453","0.0-2.0-7.1-0.1","5eeaff28cf5da71d691ef212","C3","batch3","","942","tol_practice","","","","tol_peg_1","942","942","0","[[1,0,0],[0,0],[3]]","59","[[1,0,0],[2,0],[3]]","practice","942","","","","","","","","","","","","","","",""
"","","","","","single-stim-button","129","341083","0.0-2.0-7.1-1.1","5eeaff28cf5da71d691ef212","C3","batch3","","629","tol_practice","","","","tol_peg_2","629","629","0","[[1,0,0],[2,0],[3]]","59","[[1,0,0],[2,0],[3]]","practice","629","","","","","","","","","","","","","","",""
"","","","","","poldrack-single-stim","130","342084","0.0-2.0-8.0","5eeaff28cf5da71d691ef212","C3","batch3","","-1","tol_feedback","","","true","","1000","1000","500","","","","","","-1","none","true","","0","","","","","","","","","",""
"","","","","","html-button-response","131","344524","0.0-2.0-9.0","5eeaff28cf5da71d691ef212","C3","batch3","","2438.7999999970198","tol_instruction","<div class = centerbox><p class = center-block-text>Great job! You are done with practice trials<br>You are about to start official trials.<br> <br> Problem <strong>1</strong> out of 25 problems</p></div>","0","","","","","","","","","","","","","","","","","","","","","","","","",""
"","","","","","single-stim-button","132","349554","0.0-2.0-10.0-0.0","5eeaff28cf5da71d691ef212","C3","batch3","","4027","tol_tohand","","","","tol_peg_2","4027","4027","0","[[1,2,0],[0,0],[0]]","1","[[1,3,0],[2,0],[0]]","0","0","","","","","","3","","","","","","","","",""
"","","","","","single-stim-button","133","350851","0.0-2.0-10.0-1.0","5eeaff28cf5da71d691ef212","C3","batch3","","1295","tol_toboard","","","","tol_peg_3","1295","1295","0","[[1,2,0],[0,0],[3]]","1","[[1,3,0],[2,0],[0]]","0","0","","","","","","3","","","","","","","","",""
"","","","","","single-stim-button","134","351740","0.0-2.0-10.1-0.1","5eeaff28cf5da71d691ef212","C3","batch3","","889","tol_tohand","","","","tol_peg_1","889","889","0","[[1,0,0],[0,0],[3]]","2","[[1,3,0],[2,0],[0]]","0","0","","","","","","3","","","","","","","","",""
"","","","","","single-stim-button","135","352967","0.0-2.0-10.1-1.1","5eeaff28cf5da71d691ef212","C3","batch3","","1226","tol_toboard","","","","tol_peg_2","1226","1226","0","[[1,0,0],[2,0],[3]]","2","[[1,3,0],[2,0],[0]]","0","0","","","","","","3","","","","","","","","",""
"","","","","","single-stim-button","136","353824","0.0-2.0-10.2-0.2","5eeaff28cf5da71d691ef212","C3","batch3","","855","tol_tohand","","","","tol_peg_3","855","855","0","[[1,0,0],[2,0],[0]]","3","[[1,3,0],[2,0],[0]]","0","0","","","","","","3","","","","","","","","",""
"","","","","","single-stim-button","137","354500","0.0-2.0-10.2-1.2","5eeaff28cf5da71d691ef212","C3","batch3","","676","tol_toboard","","","","tol_peg_1","676","676","0","[[1,3,0],[2,0],[0]]","3","[[1,3,0],[2,0],[0]]","0","0","","","","","","3","","","","","","","","",""
"","","","","","poldrack-single-stim","138","355518","0.0-2.0-11.0","5eeaff28cf5da71d691ef212","C3","batch3","","-1","tol_feedback","","","true","","1000","1000","500","","","","","","-1","none","true","4027","5771","","","","","","","","","",""
"","","","","","html-button-response","139","356482","0.0-2.0-12.0","5eeaff28cf5da71d691ef212","C3","batch3","","962.7999999970198","tol_trial_num","<div class = centerbox><p class = center-block-text>problem <strong>2</strong> out of 25 problems</p></div>","0","","","","","","","","","","","","","","","","","","","","","","","","",""
"","","","","","single-stim-button","140","358725","0.0-2.0-13.0-0.0","5eeaff28cf5da71d691ef212","C3","batch3","","2243","tol_tohand","","","","tol_peg_2","2243","2243","0","[[1,2,0],[0,0],[0]]","1","[[2,1,3],[0,0],[0]]","1","0","","","","","","5","","","","","","","","",""
"","","","","","single-stim-button","141","359952","0.0-2.0-13.0-1.0","5eeaff28cf5da71d691ef212","C3","batch3","","1226","tol_toboard","","","","tol_peg_1","1226","1226","0","[[1,2,3],[0,0],[0]]","1","[[2,1,3],[0,0],[0]]","1","0","","","","","","5","","","","","","","","",""
"","","","","","single-stim-button","142","362217","0.0-2.0-13.1-0.1","5eeaff28cf5da71d691ef212","C3","batch3","","2265","tol_tohand","","","","tol_peg_1","2265","2265","0","[[1,2,0],[0,0],[0]]","2","[[2,1,3],[0,0],[0]]","1","0","","","","","","5","","","","","","","","",""
"","","","","","single-stim-button","143","362841","0.0-2.0-13.1-1.1","5eeaff28cf5da71d691ef212","C3","batch3","","623","tol_toboard","","","","tol_peg_3","623","623","0","[[1,2,0],[0,0],[3]]","2","[[2,1,3],[0,0],[0]]","1","0","","","","","","5","","","","","","","","",""
"","","","","","single-stim-button","144","363894","0.0-2.0-13.2-0.2","5eeaff28cf5da71d691ef212","C3","batch3","","1053","tol_tohand","","","","tol_peg_1","1053","1053","0","[[1,0,0],[0,0],[3]]","3","[[2,1,3],[0,0],[0]]","1","0","","","","","","5","","","","","","","","",""
"","","","","","single-stim-button","145","364727","0.0-2.0-13.2-1.2","5eeaff28cf5da71d691ef212","C3","batch3","","832","tol_toboard","","","","tol_peg_2","832","832","0","[[1,0,0],[2,0],[3]]","3","[[2,1,3],[0,0],[0]]","1","0","","","","","","5","","","","","","","","",""
"","","","","","single-stim-button","146","366327","0.0-2.0-13.3-0.3","5eeaff28cf5da71d691ef212","C3","batch3","","1600","tol_tohand","","","","tol_peg_1","1600","1600","0","[[0,0,0],[2,0],[3]]","4","[[2,1,3],[0,0],[0]]","1","0","","","","","","5","","","","","","","","",""
"","","","","","single-stim-button","147","366736","0.0-2.0-13.3-1.3","5eeaff28cf5da71d691ef212","C3","batch3","","408","tol_toboard","","","","tol_peg_2","408","408","0","[[0,0,0],[2,1],[3]]","4","[[2,1,3],[0,0],[0]]","1","0","","","","","","5","","","","","","","","",""
"","","","","","single-stim-button","148","367609","0.0-2.0-13.4-0.4","5eeaff28cf5da71d691ef212","C3","batch3","","872","tol_tohand","","","","tol_peg_2","872","872","0","[[0,0,0],[2,0],[3]]","5","[[2,1,3],[0,0],[0]]","1","0","","","","","","5","","","","","","","","",""
"","","","","","single-stim-button","149","369118","0.0-2.0-13.4-1.4","5eeaff28cf5da71d691ef212","C3","batch3","","1509","tol_toboard","","","","tol_peg_1","1509","1509","0","[[1,0,0],[2,0],[3]]","5","[[2,1,3],[0,0],[0]]","1","0","","","","","","5","","","","","","","","",""
"","","","","","single-stim-button","150","369948","0.0-2.0-13.5-0.5","5eeaff28cf5da71d691ef212","C3","batch3","","829","tol_tohand","","","","tol_peg_3","829","829","0","[[1,0,0],[2,0],[0]]","6","[[2,1,3],[0,0],[0]]","1","0","","","","","","5","","","","","","","","",""
"","","","","","single-stim-button","151","371082","0.0-2.0-13.5-1.5","5eeaff28cf5da71d691ef212","C3","batch3","","1133","tol_toboard","","","","tol_peg_2","1133","1133","0","[[1,0,0],[2,3],[0]]","6","[[2,1,3],[0,0],[0]]","1","0","","","","","","5","","","","","","","","",""
"","","","","","single-stim-button","152","371812","0.0-2.0-13.6-0.6","5eeaff28cf5da71d691ef212","C3","batch3","","730","tol_tohand","","","","tol_peg_1","730","730","0","[[0,0,0],[2,3],[0]]","7","[[2,1,3],[0,0],[0]]","1","0","","","","","","5","","","","","","","","",""
"","","","","","single-stim-button","153","372898","0.0-2.0-13.6-1.6","5eeaff28cf5da71d691ef212","C3","batch3","","1085","tol_toboard","","","","tol_peg_3","1085","1085","0","[[0,0,0],[2,3],[1]]","7","[[2,1,3],[0,0],[0]]","1","0","","","","","","5","","","","","","","","",""
"","","","","","single-stim-button","154","373692","0.0-2.0-13.7-0.7","5eeaff28cf5da71d691ef212","C3","batch3","","792","tol_tohand","","","","tol_peg_2","792","792","0","[[0,0,0],[2,0],[1]]","8","[[2,1,3],[0,0],[0]]","1","0","","","","","","5","","","","","","","","",""
"","","","","","single-stim-button","155","376997","0.0-2.0-13.7-1.7","5eeaff28cf5da71d691ef212","C3","batch3","","3304","tol_toboard","","","","tol_peg_1","3304","3304","0","[[3,0,0],[2,0],[1]]","8","[[2,1,3],[0,0],[0]]","1","0","","","","","","5","","","","","","","","",""
"","","","","","single-stim-button","156","377796","0.0-2.0-13.8-0.8","5eeaff28cf5da71d691ef212","C3","batch3","","799","tol_tohand","","","","tol_peg_3","799","799","0","[[3,0,0],[2,0],[0]]","9","[[2,1,3],[0,0],[0]]","1","0","","","","","","5","","","","","","","","",""
"","","","","","single-stim-button","157","378252","0.0-2.0-13.8-1.8","5eeaff28cf5da71d691ef212","C3","batch3","","456","tol_toboard","","","","tol_peg_2","456","456","0","[[3,0,0],[2,1],[0]]","9","[[2,1,3],[0,0],[0]]","1","0","","","","","","5","","","","","","","","",""
"","","","","","single-stim-button","158","378874","0.0-2.0-13.9-0.9","5eeaff28cf5da71d691ef212","C3","batch3","","622","tol_tohand","","","","tol_peg_2","622","622","0","[[3,0,0],[2,0],[0]]","10","[[2,1,3],[0,0],[0]]","1","0","","","","","","5","","","","","","","","",""
"","","","","","single-stim-button","159","379883","0.0-2.0-13.9-1.9","5eeaff28cf5da71d691ef212","C3","batch3","","1007","tol_toboard","","","","tol_peg_1","1007","1007","0","[[3,1,0],[2,0],[0]]","10","[[2,1,3],[0,0],[0]]","1","0","","","","","","5","","","","","","","","",""
"","","","","","single-stim-button","160","380568","0.0-2.0-13.10-0.10","5eeaff28cf5da71d691ef212","C3","batch3","","684","tol_tohand","","","","tol_peg_2","684","684","0","[[3,1,0],[0,0],[0]]","11","[[2,1,3],[0,0],[0]]","1","0","","","","","","5","","","","","","","","",""
"","","","","","single-stim-button","161","382700","0.0-2.0-13.10-1.10","5eeaff28cf5da71d691ef212","C3","batch3","","2131","tol_toboard","","","","tol_peg_3","2131","2131","0","[[3,1,0],[0,0],[2]]","11","[[2,1,3],[0,0],[0]]","1","0","","","","","","5","","","","","","","","",""
"","","","","","single-stim-button","162","383298","0.0-2.0-13.11-0.11","5eeaff28cf5da71d691ef212","C3","batch3","","598","tol_tohand","","","","tol_peg_1","598","598","0","[[3,0,0],[0,0],[2]]","12","[[2,1,3],[0,0],[0]]","1","0","","","","","","5","","","","","","","","",""
"","","","","","single-stim-button","163","383926","0.0-2.0-13.11-1.11","5eeaff28cf5da71d691ef212","C3","batch3","","627","tol_toboard","","","","tol_peg_2","627","627","0","[[3,0,0],[1,0],[2]]","12","[[2,1,3],[0,0],[0]]","1","0","","","","","","5","","","","","","","","",""
"","","","","","single-stim-button","164","384900","0.0-2.0-13.12-0.12","5eeaff28cf5da71d691ef212","C3","batch3","","972","tol_tohand","","","","tol_peg_1","972","972","0","[[0,0,0],[1,0],[2]]","13","[[2,1,3],[0,0],[0]]","1","0","","","","","","5","","","","","","","","",""
"","","","","","single-stim-button","165","385512","0.0-2.0-13.12-1.12","5eeaff28cf5da71d691ef212","C3","batch3","","612","tol_toboard","","","","tol_peg_2","612","612","0","[[0,0,0],[1,3],[2]]","13","[[2,1,3],[0,0],[0]]","1","0","","","","","","5","","","","","","","","",""
"","","","","","single-stim-button","166","386141","0.0-2.0-13.13-0.13","5eeaff28cf5da71d691ef212","C3","batch3","","628","tol_tohand","","","","tol_peg_3","628","628","0","[[0,0,0],[1,3],[0]]","14","[[2,1,3],[0,0],[0]]","1","0","","","","","","5","","","","","","","","",""
"","","","","","single-stim-button","167","386792","0.0-2.0-13.13-1.13","5eeaff28cf5da71d691ef212","C3","batch3","","651","tol_toboard","","","","tol_peg_1","651","651","0","[[2,0,0],[1,3],[0]]","14","[[2,1,3],[0,0],[0]]","1","0","","","","","","5","","","","","","","","",""
"","","","","","single-stim-button","168","388027","0.0-2.0-13.14-0.14","5eeaff28cf5da71d691ef212","C3","batch3","","1235","tol_tohand","","","","tol_peg_2","1235","1235","0","[[2,0,0],[1,0],[0]]","15","[[2,1,3],[0,0],[0]]","1","0","","","","","","5","","","","","","","","",""
"","","","","","single-stim-button","169","388560","0.0-2.0-13.14-1.14","5eeaff28cf5da71d691ef212","C3","batch3","","532","tol_toboard","","","","tol_peg_3","532","532","0","[[2,0,0],[1,0],[3]]","15","[[2,1,3],[0,0],[0]]","1","0","","","","","","5","","","","","","","","",""
"","","","","","single-stim-button","170","389142","0.0-2.0-13.15-0.15","5eeaff28cf5da71d691ef212","C3","batch3","","582","tol_tohand","","","","tol_peg_2","582","582","0","[[2,0,0],[0,0],[3]]","16","[[2,1,3],[0,0],[0]]","1","0","","","","","","5","","","","","","","","",""
"","","","","","single-stim-button","171","389767","0.0-2.0-13.15-1.15","5eeaff28cf5da71d691ef212","C3","batch3","","623","tol_toboard","","","","tol_peg_1","623","623","0","[[2,1,0],[0,0],[3]]","16","[[2,1,3],[0,0],[0]]","1","0","","","","","","5","","","","","","","","",""
"","","","","","single-stim-button","172","391201","0.0-2.0-13.16-0.16","5eeaff28cf5da71d691ef212","C3","batch3","","1434","tol_tohand","","","","tol_peg_3","1434","1434","0","[[2,1,0],[0,0],[0]]","17","[[2,1,3],[0,0],[0]]","1","0","","","","","","5","","","","","","","","",""
"","","","","","single-stim-button","173","391934","0.0-2.0-13.16-1.16","5eeaff28cf5da71d691ef212","C3","batch3","","732","tol_toboard","","","","tol_peg_1","732","732","0","[[2,1,3],[0,0],[0]]","17","[[2,1,3],[0,0],[0]]","1","0","","","","","","5","","","","","","","","",""
"","","","","","poldrack-single-stim","174","392936","0.0-2.0-14.0","5eeaff28cf5da71d691ef212","C3","batch3","","-1","tol_feedback","","","true","","1000","1000","500","","","","","","-1","none","true","2243","17938","","","","","","","","","",""
"","","","","","html-button-response","175","393791","0.0-2.0-15.0","5eeaff28cf5da71d691ef212","C3","batch3","","854.7999999970198","tol_trial_num","<div class = centerbox><p class = center-block-text>problem <strong>3</strong> out of 25 problems</p></div>","0","","","","","","","","","","","","","","","","","","","","","","","","",""
"","","","","","single-stim-button","176","397718","0.0-2.0-16.0-0.0","5eeaff28cf5da71d691ef212","C3","batch3","","3926","tol_tohand","","","","tol_peg_3","3926","3926","0","[[2,3,0],[0,0],[0]]","1","[[1,2,0],[3,0],[0]]","2","0","","","","","","4","","","","","","","","",""
"","","","","","single-stim-button","177","400476","0.0-2.0-16.0-1.0","5eeaff28cf5da71d691ef212","C3","batch3","","2757","tol_toboard","","","","tol_peg_3","2757","2757","0","[[2,3,0],[0,0],[1]]","1","[[1,2,0],[3,0],[0]]","2","0","","","","","","4","","","","","","","","",""
"","","","","","single-stim-button","178","401181","0.0-2.0-16.1-0.1","5eeaff28cf5da71d691ef212","C3","batch3","","703","tol_tohand","","","","tol_peg_1","703","703","0","[[2,0,0],[0,0],[1]]","2","[[1,2,0],[3,0],[0]]","2","0","","","","","","4","","","","","","","","",""
"","","","","","single-stim-button","179","402138","0.0-2.0-16.1-1.1","5eeaff28cf5da71d691ef212","C3","batch3","","957","tol_toboard","","","","tol_peg_2","957","957","0","[[2,0,0],[3,0],[1]]","2","[[1,2,0],[3,0],[0]]","2","0","","","","","","4","","","","","","","","",""
"","","","","","single-stim-button","180","403534","0.0-2.0-16.2-0.2","5eeaff28cf5da71d691ef212","C3","batch3","","1396","tol_tohand","","","","tol_peg_1","1396","1396","0","[[0,0,0],[3,0],[1]]","3","[[1,2,0],[3,0],[0]]","2","0","","","","","","4","","","","","","","","",""
"","","","","","single-stim-button","181","404348","0.0-2.0-16.2-1.2","5eeaff28cf5da71d691ef212","C3","batch3","","814","tol_toboard","","","","tol_peg_2","814","814","0","[[0,0,0],[3,2],[1]]","3","[[1,2,0],[3,0],[0]]","2","0","","","","","","4","","","","","","","","",""
"","","","","","single-stim-button","182","404884","0.0-2.0-16.3-0.3","5eeaff28cf5da71d691ef212","C3","batch3","","536","tol_tohand","","","","tol_peg_3","536","536","0","[[0,0,0],[3,2],[0]]","4","[[1,2,0],[3,0],[0]]","2","0","","","","","","4","","","","","","","","",""
"","","","","","single-stim-button","183","405562","0.0-2.0-16.3-1.3","5eeaff28cf5da71d691ef212","C3","batch3","","677","tol_toboard","","","","tol_peg_1","677","677","0","[[1,0,0],[3,2],[0]]","4","[[1,2,0],[3,0],[0]]","2","0","","","","","","4","","","","","","","","",""
"","","","","","single-stim-button","184","406623","0.0-2.0-16.4-0.4","5eeaff28cf5da71d691ef212","C3","batch3","","1061","tol_tohand","","","","tol_peg_2","1061","1061","0","[[1,0,0],[3,0],[0]]","5","[[1,2,0],[3,0],[0]]","2","0","","","","","","4","","","","","","","","",""
"","","","","","single-stim-button","185","407351","0.0-2.0-16.4-1.4","5eeaff28cf5da71d691ef212","C3","batch3","","728","tol_toboard","","","","tol_peg_1","728","728","0","[[1,2,0],[3,0],[0]]","5","[[1,2,0],[3,0],[0]]","2","0","","","","","","4","","","","","","","","",""
"","","","","","poldrack-single-stim","186","408367","0.0-2.0-17.0","5eeaff28cf5da71d691ef212","C3","batch3","","-1","tol_feedback","","","true","","1000","1000","500","","","","","","-1","none","true","3926","7622","","","","","","","","","",""
"","","","","","html-button-response","187","409137","0.0-2.0-18.0","5eeaff28cf5da71d691ef212","C3","batch3","","769.2999999970198","tol_trial_num","<div class = centerbox><p class = center-block-text>problem <strong>4</strong> out of 25 problems</p></div>","0","","","","","","","","","","","","","","","","","","","","","","","","",""
"","","","","","single-stim-button","188","412173","0.0-2.0-19.0-0.0","5eeaff28cf5da71d691ef212","C3","batch3","","3035","tol_tohand","","","","tol_peg_2","3035","3035","0","[[3,0,0],[2,0],[0]]","1","[[3,0,0],[1,0],[2]]","3","0","","","","","","3","","","","","","","","",""
"","","","","","single-stim-button","189","414134","0.0-2.0-19.0-1.0","5eeaff28cf5da71d691ef212","C3","batch3","","1961","tol_toboard","","","","tol_peg_1","1961","1961","0","[[3,1,0],[2,0],[0]]","1","[[3,0,0],[1,0],[2]]","3","0","","","","","","3","","","","","","","","",""
"","","","","","single-stim-button","190","414865","0.0-2.0-19.1-0.1","5eeaff28cf5da71d691ef212","C3","batch3","","730","tol_tohand","","","","tol_peg_2","730","730","0","[[3,1,0],[0,0],[0]]","2","[[3,0,0],[1,0],[2]]","3","0","","","","","","3","","","","","","","","",""
"","","","","","single-stim-button","191","415362","0.0-2.0-19.1-1.1","5eeaff28cf5da71d691ef212","C3","batch3","","497","tol_toboard","","","","tol_peg_3","497","497","0","[[3,1,0],[0,0],[2]]","2","[[3,0,0],[1,0],[2]]","3","0","","","","","","3","","","","","","","","",""
"","","","","","single-stim-button","192","416070","0.0-2.0-19.2-0.2","5eeaff28cf5da71d691ef212","C3","batch3","","708","tol_tohand","","","","tol_peg_1","708","708","0","[[3,0,0],[0,0],[2]]","3","[[3,0,0],[1,0],[2]]","3","0","","","","","","3","","","","","","","","",""
"","","","","","single-stim-button","193","416615","0.0-2.0-19.2-1.2","5eeaff28cf5da71d691ef212","C3","batch3","","545","tol_toboard","","","","tol_peg_2","545","545","0","[[3,0,0],[1,0],[2]]","3","[[3,0,0],[1,0],[2]]","3","0","","","","","","3","","","","","","","","",""
"","","","","","poldrack-single-stim","194","417618","0.0-2.0-20.0","5eeaff28cf5da71d691ef212","C3","batch3","","-1","tol_feedback","","","true","","1000","1000","500","","","","","","-1","none","true","3035","4473","","","","","","","","","",""
"","","","","","html-button-response","195","418548","0.0-2.0-21.0","5eeaff28cf5da71d691ef212","C3","batch3","","928.9000000059605","tol_trial_num","<div class = centerbox><p class = center-block-text>problem <strong>5</strong> out of 25 problems</p></div>","0","","","","","","","","","","","","","","","","","","","","","","","","",""
"","","","","","single-stim-button","196","422558","0.0-2.0-22.0-0.0","5eeaff28cf5da71d691ef212","C3","batch3","","4010","tol_tohand","","","","tol_peg_2","4010","4010","0","[[1,0,0],[0,0],[3]]","1","[[0,0,0],[1,2],[3]]","4","0","","","","","","7","","","","","","","","",""
"","","","","","single-stim-button","197","423154","0.0-2.0-22.0-1.0","5eeaff28cf5da71d691ef212","C3","batch3","","595","tol_toboard","","","","tol_peg_1","595","595","0","[[1,2,0],[0,0],[3]]","1","[[0,0,0],[1,2],[3]]","4","0","","","","","","7","","","","","","","","",""
"","","","","","single-stim-button","198","424197","0.0-2.0-22.1-0.1","5eeaff28cf5da71d691ef212","C3","batch3","","1042","tol_tohand","","","","tol_peg_3","1042","1042","0","[[1,2,0],[0,0],[0]]","2","[[0,0,0],[1,2],[3]]","4","0","","","","","","7","","","","","","","","",""
"","","","","","single-stim-button","199","424847","0.0-2.0-22.1-1.1","5eeaff28cf5da71d691ef212","C3","batch3","","650","tol_toboard","","","","tol_peg_2","650","650","0","[[1,2,0],[3,0],[0]]","2","[[0,0,0],[1,2],[3]]","4","0","","","","","","7","","","","","","","","",""
"","","","","","single-stim-button","200","425664","0.0-2.0-22.2-0.2","5eeaff28cf5da71d691ef212","C3","batch3","","816","tol_tohand","","","","tol_peg_1","816","816","0","[[1,0,0],[3,0],[0]]","3","[[0,0,0],[1,2],[3]]","4","0","","","","","","7","","","","","","","","",""
"","","","","","single-stim-button","201","427520","0.0-2.0-22.2-1.2","5eeaff28cf5da71d691ef212","C3","batch3","","1855","tol_toboard","","","","tol_peg_3","1855","1855","0","[[1,0,0],[3,0],[2]]","3","[[0,0,0],[1,2],[3]]","4","0","","","","","","7","","","","","","","","",""
"","","","","","single-stim-button","202","428039","0.0-2.0-22.3-0.3","5eeaff28cf5da71d691ef212","C3","batch3","","519","tol_tohand","","","","tol_peg_2","519","519","0","[[1,0,0],[0,0],[2]]","4","[[0,0,0],[1,2],[3]]","4","0","","","","","","7","","","","","","","","",""
"","","","","","single-stim-button","203","429583","0.0-2.0-22.3-1.3","5eeaff28cf5da71d691ef212","C3","batch3","","1544","tol_toboard","","","","tol_peg_1","1544","1544","0","[[1,3,0],[0,0],[2]]","4","[[0,0,0],[1,2],[3]]","4","0","","","","","","7","","","","","","","","",""
"","","","","","single-stim-button","204","430577","0.0-2.0-22.4-0.4","5eeaff28cf5da71d691ef212","C3","batch3","","994","tol_tohand","","","","tol_peg_3","994","994","0","[[1,3,0],[0,0],[0]]","5","[[0,0,0],[1,2],[3]]","4","0","","","","","","7","","","","","","","","",""
"","","","","","single-stim-button","205","430998","0.0-2.0-22.4-1.4","5eeaff28cf5da71d691ef212","C3","batch3","","421","tol_toboard","","","","tol_peg_2","421","421","0","[[1,3,0],[2,0],[0]]","5","[[0,0,0],[1,2],[3]]","4","0","","","","","","7","","","","","","","","",""
"","","","","","single-stim-button","206","431992","0.0-2.0-22.5-0.5","5eeaff28cf5da71d691ef212","C3","batch3","","993","tol_tohand","","","","tol_peg_1","993","993","0","[[1,0,0],[2,0],[0]]","6","[[0,0,0],[1,2],[3]]","4","0","","","","","","7","","","","","","","","",""
"","","","","","single-stim-button","207","432585","0.0-2.0-22.5-1.5","5eeaff28cf5da71d691ef212","C3","batch3","","592","tol_toboard","","","","tol_peg_3","592","592","0","[[1,0,0],[2,0],[3]]","6","[[0,0,0],[1,2],[3]]","4","0","","","","","","7","","","","","","","","",""
"","","","","","single-stim-button","208","433786","0.0-2.0-22.6-0.6","5eeaff28cf5da71d691ef212","C3","batch3","","1201","tol_tohand","","","","tol_peg_2","1201","1201","0","[[1,0,0],[0,0],[3]]","7","[[0,0,0],[1,2],[3]]","4","0","","","","","","7","","","","","","","","",""
"","","","","","single-stim-button","209","434605","0.0-2.0-22.6-1.6","5eeaff28cf5da71d691ef212","C3","batch3","","818","tol_toboard","","","","tol_peg_1","818","818","0","[[1,2,0],[0,0],[3]]","7","[[0,0,0],[1,2],[3]]","4","0","","","","","","7","","","","","","","","",""
"","","","","","single-stim-button","210","435107","0.0-2.0-22.7-0.7","5eeaff28cf5da71d691ef212","C3","batch3","","502","tol_tohand","","","","tol_peg_1","502","502","0","[[1,0,0],[0,0],[3]]","8","[[0,0,0],[1,2],[3]]","4","0","","","","","","7","","","","","","","","",""
"","","","","","single-stim-button","211","435845","0.0-2.0-22.7-1.7","5eeaff28cf5da71d691ef212","C3","batch3","","738","tol_toboard","","","","tol_peg_2","738","738","0","[[1,0,0],[2,0],[3]]","8","[[0,0,0],[1,2],[3]]","4","0","","","","","","7","","","","","","","","",""
"","","","","","single-stim-button","212","436293","0.0-2.0-22.8-0.8","5eeaff28cf5da71d691ef212","C3","batch3","","447","tol_tohand","","","","tol_peg_3","447","447","0","[[1,0,0],[2,0],[0]]","9","[[0,0,0],[1,2],[3]]","4","0","","","","","","7","","","","","","","","",""
"","","","","","single-stim-button","213","436990","0.0-2.0-22.8-1.8","5eeaff28cf5da71d691ef212","C3","batch3","","697","tol_toboard","","","","tol_peg_1","697","697","0","[[1,3,0],[2,0],[0]]","9","[[0,0,0],[1,2],[3]]","4","0","","","","","","7","","","","","","","","",""
"","","","","","single-stim-button","214","437505","0.0-2.0-22.9-0.9","5eeaff28cf5da71d691ef212","C3","batch3","","515","tol_tohand","","","","tol_peg_2","515","515","0","[[1,3,0],[0,0],[0]]","10","[[0,0,0],[1,2],[3]]","4","0","","","","","","7","","","","","","","","",""
"","","","","","single-stim-button","215","438311","0.0-2.0-22.9-1.9","5eeaff28cf5da71d691ef212","C3","batch3","","806","tol_toboard","","","","tol_peg_3","806","806","0","[[1,3,0],[0,0],[2]]","10","[[0,0,0],[1,2],[3]]","4","0","","","","","","7","","","","","","","","",""
"","","","","","single-stim-button","216","439358","0.0-2.0-22.10-0.10","5eeaff28cf5da71d691ef212","C3","batch3","","1047","tol_tohand","","","","tol_peg_1","1047","1047","0","[[1,0,0],[0,0],[2]]","11","[[0,0,0],[1,2],[3]]","4","0","","","","","","7","","","","","","","","",""
"","","","","","single-stim-button","217","439800","0.0-2.0-22.10-1.10","5eeaff28cf5da71d691ef212","C3","batch3","","441","tol_toboard","","","","tol_peg_2","441","441","0","[[1,0,0],[3,0],[2]]","11","[[0,0,0],[1,2],[3]]","4","0","","","","","","7","","","","","","","","",""
"","","","","","single-stim-button","218","441010","0.0-2.0-22.11-0.11","5eeaff28cf5da71d691ef212","C3","batch3","","1210","tol_tohand","","","","tol_peg_1","1210","1210","0","[[0,0,0],[3,0],[2]]","12","[[0,0,0],[1,2],[3]]","4","0","","","","","","7","","","","","","","","",""
"","","","","","single-stim-button","219","441540","0.0-2.0-22.11-1.11","5eeaff28cf5da71d691ef212","C3","batch3","","530","tol_toboard","","","","tol_peg_2","530","530","0","[[0,0,0],[3,1],[2]]","12","[[0,0,0],[1,2],[3]]","4","0","","","","","","7","","","","","","","","",""
"","","","","","single-stim-button","220","442183","0.0-2.0-22.12-0.12","5eeaff28cf5da71d691ef212","C3","batch3","","643","tol_tohand","","","","tol_peg_3","643","643","0","[[0,0,0],[3,1],[0]]","13","[[0,0,0],[1,2],[3]]","4","0","","","","","","7","","","","","","","","",""
"","","","","","single-stim-button","221","442753","0.0-2.0-22.12-1.12","5eeaff28cf5da71d691ef212","C3","batch3","","570","tol_toboard","","","","tol_peg_1","570","570","0","[[2,0,0],[3,1],[0]]","13","[[0,0,0],[1,2],[3]]","4","0","","","","","","7","","","","","","","","",""
"","","","","","single-stim-button","222","444558","0.0-2.0-22.13-0.13","5eeaff28cf5da71d691ef212","C3","batch3","","1805","tol_tohand","","","","tol_peg_2","1805","1805","0","[[2,0,0],[3,0],[0]]","14","[[0,0,0],[1,2],[3]]","4","0","","","","","","7","","","","","","","","",""
"","","","","","single-stim-button","223","445703","0.0-2.0-22.13-1.13","5eeaff28cf5da71d691ef212","C3","batch3","","1145","tol_toboard","","","","tol_peg_1","1145","1145","0","[[2,1,0],[3,0],[0]]","14","[[0,0,0],[1,2],[3]]","4","0","","","","","","7","","","","","","","","",""
"","","","","","single-stim-button","224","446307","0.0-2.0-22.14-0.14","5eeaff28cf5da71d691ef212","C3","batch3","","604","tol_tohand","","","","tol_peg_2","604","604","0","[[2,1,0],[0,0],[0]]","15","[[0,0,0],[1,2],[3]]","4","0","","","","","","7","","","","","","","","",""
"","","","","","single-stim-button","225","446846","0.0-2.0-22.14-1.14","5eeaff28cf5da71d691ef212","C3","batch3","","539","tol_toboard","","","","tol_peg_3","539","539","0","[[2,1,0],[0,0],[3]]","15","[[0,0,0],[1,2],[3]]","4","0","","","","","","7","","","","","","","","",""
"","","","","","single-stim-button","226","447494","0.0-2.0-22.15-0.15","5eeaff28cf5da71d691ef212","C3","batch3","","648","tol_tohand","","","","tol_peg_1","648","648","0","[[2,0,0],[0,0],[3]]","16","[[0,0,0],[1,2],[3]]","4","0","","","","","","7","","","","","","","","",""
"","","","","","single-stim-button","227","447914","0.0-2.0-22.15-1.15","5eeaff28cf5da71d691ef212","C3","batch3","","420","tol_toboard","","","","tol_peg_2","420","420","0","[[2,0,0],[1,0],[3]]","16","[[0,0,0],[1,2],[3]]","4","0","","","","","","7","","","","","","","","",""
"","","","","","single-stim-button","228","448356","0.0-2.0-22.16-0.16","5eeaff28cf5da71d691ef212","C3","batch3","","442","tol_tohand","","","","tol_peg_1","442","442","0","[[0,0,0],[1,0],[3]]","17","[[0,0,0],[1,2],[3]]","4","0","","","","","","7","","","","","","","","",""
"","","","","","single-stim-button","229","448792","0.0-2.0-22.16-1.16","5eeaff28cf5da71d691ef212","C3","batch3","","436","tol_toboard","","","","tol_peg_2","436","436","0","[[0,0,0],[1,2],[3]]","17","[[0,0,0],[1,2],[3]]","4","0","","","","","","7","","","","","","","","",""
"","","","","","poldrack-single-stim","230","449794","0.0-2.0-23.0","5eeaff28cf5da71d691ef212","C3","batch3","","-1","tol_feedback","","","true","","1000","1000","500","","","","","","-1","none","true","4010","17438","","","","","","","","","",""
"","","","","","html-button-response","231","450455","0.0-2.0-24.0","5eeaff28cf5da71d691ef212","C3","batch3","","660.1999999955297","tol_trial_num","<div class = centerbox><p class = center-block-text>problem <strong>6</strong> out of 25 problems</p></div>","0","","","","","","","","","","","","","","","","","","","","","","","","",""
"","","","","","single-stim-button","232","458599","0.0-2.0-25.0-0.0","5eeaff28cf5da71d691ef212","C3","batch3","","8144","tol_tohand","","","","tol_peg_2","8144","8144","0","[[0,0,0],[1,0],[3]]","1","[[1,0,0],[2,3],[0]]","5","0","","","","","","6","","","","","","","","",""
"","","","","","single-stim-button","233","459675","0.0-2.0-25.0-1.0","5eeaff28cf5da71d691ef212","C3","batch3","","1076","tol_toboard","","","","tol_peg_1","1076","1076","0","[[2,0,0],[1,0],[3]]","1","[[1,0,0],[2,3],[0]]","5","0","","","","","","6","","","","","","","","",""
"","","","","","single-stim-button","234","461022","0.0-2.0-25.1-0.1","5eeaff28cf5da71d691ef212","C3","batch3","","1347","tol_tohand","","","","tol_peg_3","1347","1347","0","[[2,0,0],[1,0],[0]]","2","[[1,0,0],[2,3],[0]]","5","0","","","","","","6","","","","","","","","",""
"","","","","","single-stim-button","235","462037","0.0-2.0-25.1-1.1","5eeaff28cf5da71d691ef212","C3","batch3","","1014","tol_toboard","","","","tol_peg_2","1014","1014","0","[[2,0,0],[1,3],[0]]","2","[[1,0,0],[2,3],[0]]","5","0","","","","","","6","","","","","","","","",""
"","","","","","single-stim-button","236","463595","0.0-2.0-25.2-0.2","5eeaff28cf5da71d691ef212","C3","batch3","","1558","tol_tohand","","","","tol_peg_2","1558","1558","0","[[2,0,0],[1,0],[0]]","3","[[1,0,0],[2,3],[0]]","5","0","","","","","","6","","","","","","","","",""
"","","","","","single-stim-button","237","464153","0.0-2.0-25.2-1.2","5eeaff28cf5da71d691ef212","C3","batch3","","557","tol_toboard","","","","tol_peg_1","557","557","0","[[2,3,0],[1,0],[0]]","3","[[1,0,0],[2,3],[0]]","5","0","","","","","","6","","","","","","","","",""
"","","","","","single-stim-button","238","465927","0.0-2.0-25.3-0.3","5eeaff28cf5da71d691ef212","C3","batch3","","1773","tol_tohand","","","","tol_peg_1","1773","1773","0","[[2,0,0],[1,0],[0]]","4","[[1,0,0],[2,3],[0]]","5","0","","","","","","6","","","","","","","","",""
"","","","","","single-stim-button","239","466228","0.0-2.0-25.3-1.3","5eeaff28cf5da71d691ef212","C3","batch3","","301","tol_toboard","","","","tol_peg_2","301","301","0","[[2,0,0],[1,3],[0]]","4","[[1,0,0],[2,3],[0]]","5","0","","","","","","6","","","","","","","","",""
"","","","","","single-stim-button","240","467177","0.0-2.0-25.4-0.4","5eeaff28cf5da71d691ef212","C3","batch3","","948","tol_tohand","","","","tol_peg_2","948","948","0","[[2,0,0],[1,0],[0]]","5","[[1,0,0],[2,3],[0]]","5","0","","","","","","6","","","","","","","","",""
"","","","","","single-stim-button","241","467563","0.0-2.0-25.4-1.4","5eeaff28cf5da71d691ef212","C3","batch3","","385","tol_toboard","","","","tol_peg_3","385","385","0","[[2,0,0],[1,0],[3]]","5","[[1,0,0],[2,3],[0]]","5","0","","","","","","6","","","","","","","","",""
"","","","","","single-stim-button","242","468091","0.0-2.0-25.5-0.5","5eeaff28cf5da71d691ef212","C3","batch3","","528","tol_tohand","","","","tol_peg_2","528","528","0","[[2,0,0],[0,0],[3]]","6","[[1,0,0],[2,3],[0]]","5","0","","","","","","6","","","","","","","","",""
"","","","","","single-stim-button","243","468498","0.0-2.0-25.5-1.5","5eeaff28cf5da71d691ef212","C3","batch3","","406","tol_toboard","","","","tol_peg_1","406","406","0","[[2,1,0],[0,0],[3]]","6","[[1,0,0],[2,3],[0]]","5","0","","","","","","6","","","","","","","","",""
"","","","","","single-stim-button","244","470033","0.0-2.0-25.6-0.6","5eeaff28cf5da71d691ef212","C3","batch3","","1534","tol_tohand","","","","tol_peg_1","1534","1534","0","[[2,0,0],[0,0],[3]]","7","[[1,0,0],[2,3],[0]]","5","0","","","","","","6","","","","","","","","",""
"","","","","","single-stim-button","245","470472","0.0-2.0-25.6-1.6","5eeaff28cf5da71d691ef212","C3","batch3","","438","tol_toboard","","","","tol_peg_2","438","438","0","[[2,0,0],[1,0],[3]]","7","[[1,0,0],[2,3],[0]]","5","0","","","","","","6","","","","","","","","",""
"","","","","","single-stim-button","246","470960","0.0-2.0-25.7-0.7","5eeaff28cf5da71d691ef212","C3","batch3","","488","tol_tohand","","","","tol_peg_1","488","488","0","[[0,0,0],[1,0],[3]]","8","[[1,0,0],[2,3],[0]]","5","0","","","","","","6","","","","","","","","",""
"","","","","","single-stim-button","247","471308","0.0-2.0-25.7-1.7","5eeaff28cf5da71d691ef212","C3","batch3","","348","tol_toboard","","","","tol_peg_2","348","348","0","[[0,0,0],[1,2],[3]]","8","[[1,0,0],[2,3],[0]]","5","0","","","","","","6","","","","","","","","",""
"","","","","","single-stim-button","248","475105","0.0-2.0-25.8-0.8","5eeaff28cf5da71d691ef212","C3","batch3","","3796","tol_tohand","","","","tol_peg_2","3796","3796","0","[[0,0,0],[1,0],[3]]","9","[[1,0,0],[2,3],[0]]","5","0","","","","","","6","","","","","","","","",""
"","","","","","single-stim-button","249","475665","0.0-2.0-25.8-1.8","5eeaff28cf5da71d691ef212","C3","batch3","","559","tol_toboard","","","","tol_peg_1","559","559","0","[[2,0,0],[1,0],[3]]","9","[[1,0,0],[2,3],[0]]","5","0","","","","","","6","","","","","","","","",""
"","","","","","single-stim-button","250","476027","0.0-2.0-25.9-0.9","5eeaff28cf5da71d691ef212","C3","batch3","","362","tol_tohand","","","","tol_peg_2","362","362","0","[[2,0,0],[0,0],[3]]","10","[[1,0,0],[2,3],[0]]","5","0","","","","","","6","","","","","","","","",""
"","","","","","single-stim-button","251","476696","0.0-2.0-25.9-1.9","5eeaff28cf5da71d691ef212","C3","batch3","","669","tol_toboard","","","","tol_peg_1","669","669","0","[[2,1,0],[0,0],[3]]","10","[[1,0,0],[2,3],[0]]","5","0","","","","","","6","","","","","","","","",""
"","","","","","single-stim-button","252","477842","0.0-2.0-25.10-0.10","5eeaff28cf5da71d691ef212","C3","batch3","","1146","tol_tohand","","","","tol_peg_3","1146","1146","0","[[2,1,0],[0,0],[0]]","11","[[1,0,0],[2,3],[0]]","5","0","","","","","","6","","","","","","","","",""
"","","","","","single-stim-button","253","479868","0.0-2.0-25.10-1.10","5eeaff28cf5da71d691ef212","C3","batch3","","2025","tol_toboard","","","","tol_peg_3","2025","2025","0","[[2,1,0],[0,0],[3]]","11","[[1,0,0],[2,3],[0]]","5","0","","","","","","6","","","","","","","","",""
"","","","","","single-stim-button","254","480792","0.0-2.0-25.11-0.11","5eeaff28cf5da71d691ef212","C3","batch3","","923","tol_tohand","","","","tol_peg_1","923","923","0","[[2,0,0],[0,0],[3]]","12","[[1,0,0],[2,3],[0]]","5","0","","","","","","6","","","","","","","","",""
"","","","","","single-stim-button","255","482697","0.0-2.0-25.11-1.11","5eeaff28cf5da71d691ef212","C3","batch3","","1905","tol_toboard","","","","tol_peg_2","1905","1905","0","[[2,0,0],[1,0],[3]]","12","[[1,0,0],[2,3],[0]]","5","0","","","","","","6","","","","","","","","",""
"","","","","","single-stim-button","256","483164","0.0-2.0-25.12-0.12","5eeaff28cf5da71d691ef212","C3","batch3","","466","tol_tohand","","","","tol_peg_3","466","466","0","[[2,0,0],[1,0],[0]]","13","[[1,0,0],[2,3],[0]]","5","0","","","","","","6","","","","","","","","",""
"","","","","","single-stim-button","257","484507","0.0-2.0-25.12-1.12","5eeaff28cf5da71d691ef212","C3","batch3","","1341","tol_toboard","","","","tol_peg_2","1341","1341","0","[[2,0,0],[1,3],[0]]","13","[[1,0,0],[2,3],[0]]","5","0","","","","","","6","","","","","","","","",""
"","","","","","single-stim-button","258","485257","0.0-2.0-25.13-0.13","5eeaff28cf5da71d691ef212","C3","batch3","","750","tol_tohand","","","","tol_peg_1","750","750","0","[[0,0,0],[1,3],[0]]","14","[[1,0,0],[2,3],[0]]","5","0","","","","","","6","","","","","","","","",""
"","","","","","single-stim-button","259","486180","0.0-2.0-25.13-1.13","5eeaff28cf5da71d691ef212","C3","batch3","","922","tol_toboard","","","","tol_peg_3","922","922","0","[[0,0,0],[1,3],[2]]","14","[[1,0,0],[2,3],[0]]","5","0","","","","","","6","","","","","","","","",""
"","","","","","single-stim-button","260","487011","0.0-2.0-25.14-0.14","5eeaff28cf5da71d691ef212","C3","batch3","","831","tol_tohand","","","","tol_peg_2","831","831","0","[[0,0,0],[1,0],[2]]","15","[[1,0,0],[2,3],[0]]","5","0","","","","","","6","","","","","","","","",""
"","","","","","single-stim-button","261","487495","0.0-2.0-25.14-1.14","5eeaff28cf5da71d691ef212","C3","batch3","","482","tol_toboard","","","","tol_peg_1","482","482","0","[[3,0,0],[1,0],[2]]","15","[[1,0,0],[2,3],[0]]","5","0","","","","","","6","","","","","","","","",""
"","","","","","single-stim-button","262","487984","0.0-2.0-25.15-0.15","5eeaff28cf5da71d691ef212","C3","batch3","","489","tol_tohand","","","","tol_peg_2","489","489","0","[[3,0,0],[0,0],[2]]","16","[[1,0,0],[2,3],[0]]","5","0","","","","","","6","","","","","","","","",""
"","","","","","single-stim-button","263","489519","0.0-2.0-25.15-1.15","5eeaff28cf5da71d691ef212","C3","batch3","","1535","tol_toboard","","","","tol_peg_1","1535","1535","0","[[3,1,0],[0,0],[2]]","16","[[1,0,0],[2,3],[0]]","5","0","","","","","","6","","","","","","","","",""
"","","","","","single-stim-button","264","490275","0.0-2.0-25.16-0.16","5eeaff28cf5da71d691ef212","C3","batch3","","756","tol_tohand","","","","tol_peg_3","756","756","0","[[3,1,0],[0,0],[0]]","17","[[1,0,0],[2,3],[0]]","5","0","","","","","","6","","","","","","","","",""
"","","","","","single-stim-button","265","490785","0.0-2.0-25.16-1.16","5eeaff28cf5da71d691ef212","C3","batch3","","509","tol_toboard","","","","tol_peg_2","509","509","0","[[3,1,0],[2,0],[0]]","17","[[1,0,0],[2,3],[0]]","5","0","","","","","","6","","","","","","","","",""
"","","","","","single-stim-button","266","491792","0.0-2.0-25.17-0.17","5eeaff28cf5da71d691ef212","C3","batch3","","1006","tol_tohand","","","","tol_peg_1","1006","1006","0","[[3,0,0],[2,0],[0]]","18","[[1,0,0],[2,3],[0]]","5","0","","","","","","6","","","","","","","","",""
"","","","","","single-stim-button","267","492626","0.0-2.0-25.17-1.17","5eeaff28cf5da71d691ef212","C3","batch3","","834","tol_toboard","","","","tol_peg_3","834","834","0","[[3,0,0],[2,0],[1]]","18","[[1,0,0],[2,3],[0]]","5","0","","","","","","6","","","","","","","","",""
"","","","","","single-stim-button","268","493259","0.0-2.0-25.18-0.18","5eeaff28cf5da71d691ef212","C3","batch3","","632","tol_tohand","","","","tol_peg_1","632","632","0","[[0,0,0],[2,0],[1]]","19","[[1,0,0],[2,3],[0]]","5","0","","","","","","6","","","","","","","","",""
"","","","","","single-stim-button","269","493731","0.0-2.0-25.18-1.18","5eeaff28cf5da71d691ef212","C3","batch3","","470","tol_toboard","","","","tol_peg_2","470","470","0","[[0,0,0],[2,3],[1]]","19","[[1,0,0],[2,3],[0]]","5","0","","","","","","6","","","","","","","","",""
"","","","","","single-stim-button","270","494248","0.0-2.0-25.19-0.19","5eeaff28cf5da71d691ef212","C3","batch3","","517","tol_tohand","","","","tol_peg_3","517","517","0","[[0,0,0],[2,3],[0]]","20","[[1,0,0],[2,3],[0]]","5","0","","","","","","6","","","","","","","","",""
"","","","","","single-stim-button","271","494927","0.0-2.0-25.19-1.19","5eeaff28cf5da71d691ef212","C3","batch3","","679","tol_toboard","","","","tol_peg_1","679","679","0","[[1,0,0],[2,3],[0]]","20","[[1,0,0],[2,3],[0]]","5","0","","","","","","6","","","","","","","","",""
"","","","","","poldrack-single-stim","272","495940","0.0-2.0-26.0","5eeaff28cf5da71d691ef212","C3","batch3","","-1","tol_feedback","","","true","","1000","1000","500","","","","","","-1","none","true","8144","27994","","","","","","","","","",""
"","","","","","html-button-response","273","496664","0.0-2.0-27.0","5eeaff28cf5da71d691ef212","C3","batch3","","722.7000000029802","tol_trial_num","<div class = centerbox><p class = center-block-text>problem <strong>7</strong> out of 25 problems</p></div>","0","","","","","","","","","","","","","","","","","","","","","","","","",""
"","","","","","single-stim-button","274","503541","0.0-2.0-28.0-0.0","5eeaff28cf5da71d691ef212","C3","batch3","","6877","tol_tohand","","","","tol_peg_3","6877","6877","0","[[2,1,0],[0,0],[0]]","1","[[1,2,0],[3,0],[0]]","6","0","","","","","","5","","","","","","","","",""
"","","","","","single-stim-button","275","504407","0.0-2.0-28.0-1.0","5eeaff28cf5da71d691ef212","C3","batch3","","865","tol_toboard","","","","tol_peg_2","865","865","0","[[2,1,0],[3,0],[0]]","1","[[1,2,0],[3,0],[0]]","6","0","","","","","","5","","","","","","","","",""
"","","","","","single-stim-button","276","506473","0.0-2.0-28.1-0.1","5eeaff28cf5da71d691ef212","C3","batch3","","2066","tol_tohand","","","","tol_peg_1","2066","2066","0","[[2,0,0],[3,0],[0]]","2","[[1,2,0],[3,0],[0]]","6","0","","","","","","5","","","","","","","","",""
"","","","","","single-stim-button","277","507371","0.0-2.0-28.1-1.1","5eeaff28cf5da71d691ef212","C3","batch3","","897","tol_toboard","","","","tol_peg_3","897","897","0","[[2,0,0],[3,0],[1]]","2","[[1,2,0],[3,0],[0]]","6","0","","","","","","5","","","","","","","","",""
"","","","","","single-stim-button","278","508043","0.0-2.0-28.2-0.2","5eeaff28cf5da71d691ef212","C3","batch3","","672","tol_tohand","","","","tol_peg_1","672","672","0","[[0,0,0],[3,0],[1]]","3","[[1,2,0],[3,0],[0]]","6","0","","","","","","5","","","","","","","","",""
"","","","","","single-stim-button","279","508584","0.0-2.0-28.2-1.2","5eeaff28cf5da71d691ef212","C3","batch3","","541","tol_toboard","","","","tol_peg_2","541","541","0","[[0,0,0],[3,2],[1]]","3","[[1,2,0],[3,0],[0]]","6","0","","","","","","5","","","","","","","","",""
"","","","","","single-stim-button","280","509000","0.0-2.0-28.3-0.3","5eeaff28cf5da71d691ef212","C3","batch3","","415","tol_tohand","","","","tol_peg_3","415","415","0","[[0,0,0],[3,2],[0]]","4","[[1,2,0],[3,0],[0]]","6","0","","","","","","5","","","","","","","","",""
"","","","","","single-stim-button","281","509604","0.0-2.0-28.3-1.3","5eeaff28cf5da71d691ef212","C3","batch3","","604","tol_toboard","","","","tol_peg_1","604","604","0","[[1,0,0],[3,2],[0]]","4","[[1,2,0],[3,0],[0]]","6","0","","","","","","5","","","","","","","","",""
"","","","","","single-stim-button","282","510135","0.0-2.0-28.4-0.4","5eeaff28cf5da71d691ef212","C3","batch3","","531","tol_tohand","","","","tol_peg_2","531","531","0","[[1,0,0],[3,0],[0]]","5","[[1,2,0],[3,0],[0]]","6","0","","","","","","5","","","","","","","","",""
"","","","","","single-stim-button","283","510647","0.0-2.0-28.4-1.4","5eeaff28cf5da71d691ef212","C3","batch3","","511","tol_toboard","","","","tol_peg_1","511","511","0","[[1,2,0],[3,0],[0]]","5","[[1,2,0],[3,0],[0]]","6","0","","","","","","5","","","","","","","","",""
"","","","","","poldrack-single-stim","284","511649","0.0-2.0-29.0","5eeaff28cf5da71d691ef212","C3","batch3","","-1","tol_feedback","","","true","","1000","1000","500","","","","","","-1","none","true","6877","10561","","","","","","","","","",""
"","","","","","html-button-response","285","512288","0.0-2.0-30.0","5eeaff28cf5da71d691ef212","C3","batch3","","638.8999999985099","tol_trial_num","<div class = centerbox><p class = center-block-text>problem <strong>8</strong> out of 25 problems</p></div>","0","","","","","","","","","","","","","","","","","","","","","","","","",""
"","","","","","single-stim-button","286","515226","0.0-2.0-31.0-0.0","5eeaff28cf5da71d691ef212","C3","batch3","","2936","tol_tohand","","","","tol_peg_3","2936","2936","0","[[0,0,0],[2,3],[0]]","1","[[1,2,0],[3,0],[0]]","7","0","","","","","","4","","","","","","","","",""
"","","","","","single-stim-button","287","515926","0.0-2.0-31.0-1.0","5eeaff28cf5da71d691ef212","C3","batch3","","700","tol_toboard","","","","tol_peg_1","700","700","0","[[1,0,0],[2,3],[0]]","1","[[1,2,0],[3,0],[0]]","7","0","","","","","","4","","","","","","","","",""
"","","","","","single-stim-button","288","516409","0.0-2.0-31.1-0.1","5eeaff28cf5da71d691ef212","C3","batch3","","482","tol_tohand","","","","tol_peg_2","482","482","0","[[1,0,0],[2,0],[0]]","2","[[1,2,0],[3,0],[0]]","7","0","","","","","","4","","","","","","","","",""
"","","","","","single-stim-button","289","516753","0.0-2.0-31.1-1.1","5eeaff28cf5da71d691ef212","C3","batch3","","343","tol_toboard","","","","tol_peg_3","343","343","0","[[1,0,0],[2,0],[3]]","2","[[1,2,0],[3,0],[0]]","7","0","","","","","","4","","","","","","","","",""
"","","","","","single-stim-button","290","517148","0.0-2.0-31.2-0.2","5eeaff28cf5da71d691ef212","C3","batch3","","394","tol_tohand","","","","tol_peg_2","394","394","0","[[1,0,0],[0,0],[3]]","3","[[1,2,0],[3,0],[0]]","7","0","","","","","","4","","","","","","","","",""
"","","","","","single-stim-button","291","517475","0.0-2.0-31.2-1.2","5eeaff28cf5da71d691ef212","C3","batch3","","327","tol_toboard","","","","tol_peg_1","327","327","0","[[1,2,0],[0,0],[3]]","3","[[1,2,0],[3,0],[0]]","7","0","","","","","","4","","","","","","","","",""
"","","","","","single-stim-button","292","518096","0.0-2.0-31.3-0.3","5eeaff28cf5da71d691ef212","C3","batch3","","621","tol_tohand","","","","tol_peg_3","621","621","0","[[1,2,0],[0,0],[0]]","4","[[1,2,0],[3,0],[0]]","7","0","","","","","","4","","","","","","","","",""
"","","","","","single-stim-button","293","518404","0.0-2.0-31.3-1.3","5eeaff28cf5da71d691ef212","C3","batch3","","308","tol_toboard","","","","tol_peg_2","308","308","0","[[1,2,0],[3,0],[0]]","4","[[1,2,0],[3,0],[0]]","7","0","","","","","","4","","","","","","","","",""
"","","","","","poldrack-single-stim","294","519416","0.0-2.0-32.0","5eeaff28cf5da71d691ef212","C3","batch3","","-1","tol_feedback","","","true","","1000","1000","500","","","","","","-1","none","true","2936","4433","","","","","","","","","",""
"","","","","","html-button-response","295","520092","0.0-2.0-33.0","5eeaff28cf5da71d691ef212","C3","batch3","","674.9000000059605","tol_trial_num","<div class = centerbox><p class = center-block-text>problem <strong>9</strong> out of 25 problems</p></div>","0","","","","","","","","","","","","","","","","","","","","","","","","",""
"","","","","","single-stim-button","296","523896","0.0-2.0-34.0-0.0","5eeaff28cf5da71d691ef212","C3","batch3","","3804","tol_tohand","","","","tol_peg_1","3804","3804","0","[[3,0,0],[0,0],[1]]","1","[[2,1,0],[3,0],[0]]","8","0","","","","","","6","","","","","","","","",""
"","","","","","single-stim-button","297","524497","0.0-2.0-34.0-1.0","5eeaff28cf5da71d691ef212","C3","batch3","","600","tol_toboard","","","","tol_peg_2","600","600","0","[[3,0,0],[2,0],[1]]","1","[[2,1,0],[3,0],[0]]","8","0","","","","","","6","","","","","","","","",""
"","","","","","single-stim-button","298","524923","0.0-2.0-34.1-0.1","5eeaff28cf5da71d691ef212","C3","batch3","","426","tol_tohand","","","","tol_peg_1","426","426","0","[[0,0,0],[2,0],[1]]","2","[[2,1,0],[3,0],[0]]","8","0","","","","","","6","","","","","","","","",""
"","","","","","single-stim-button","299","527339","0.0-2.0-34.1-1.1","5eeaff28cf5da71d691ef212","C3","batch3","","2416","tol_toboard","","","","tol_peg_1","2416","2416","0","[[3,0,0],[2,0],[1]]","2","[[2,1,0],[3,0],[0]]","8","0","","","","","","6","","","","","","","","",""
"","","","","","single-stim-button","300","527994","0.0-2.0-34.2-0.2","5eeaff28cf5da71d691ef212","C3","batch3","","654","tol_tohand","","","","tol_peg_3","654","654","0","[[3,0,0],[2,0],[0]]","3","[[2,1,0],[3,0],[0]]","8","0","","","","","","6","","","","","","","","",""
"","","","","","single-stim-button","301","528658","0.0-2.0-34.2-1.2","5eeaff28cf5da71d691ef212","C3","batch3","","663","tol_toboard","","","","tol_peg_1","663","663","0","[[3,1,0],[2,0],[0]]","3","[[2,1,0],[3,0],[0]]","8","0","","","","","","6","","","","","","","","",""
"","","","","","single-stim-button","302","529748","0.0-2.0-34.3-0.3","5eeaff28cf5da71d691ef212","C3","batch3","","1088","tol_tohand","","","","tol_peg_2","1088","1088","0","[[3,1,0],[0,0],[0]]","4","[[2,1,0],[3,0],[0]]","8","0","","","","","","6","","","","","","","","",""
"","","","","","single-stim-button","303","530171","0.0-2.0-34.3-1.3","5eeaff28cf5da71d691ef212","C3","batch3","","422","tol_toboard","","","","tol_peg_3","422","422","0","[[3,1,0],[0,0],[2]]","4","[[2,1,0],[3,0],[0]]","8","0","","","","","","6","","","","","","","","",""
"","","","","","single-stim-button","304","531082","0.0-2.0-34.4-0.4","5eeaff28cf5da71d691ef212","C3","batch3","","911","tol_tohand","","","","tol_peg_1","911","911","0","[[3,0,0],[0,0],[2]]","5","[[2,1,0],[3,0],[0]]","8","0","","","","","","6","","","","","","","","",""
"","","","","","single-stim-button","305","531989","0.0-2.0-34.4-1.4","5eeaff28cf5da71d691ef212","C3","batch3","","907","tol_toboard","","","","tol_peg_2","907","907","0","[[3,0,0],[1,0],[2]]","5","[[2,1,0],[3,0],[0]]","8","0","","","","","","6","","","","","","","","",""
"","","","","","single-stim-button","306","532483","0.0-2.0-34.5-0.5","5eeaff28cf5da71d691ef212","C3","batch3","","492","tol_tohand","","","","tol_peg_1","492","492","0","[[0,0,0],[1,0],[2]]","6","[[2,1,0],[3,0],[0]]","8","0","","","","","","6","","","","","","","","",""
"","","","","","single-stim-button","307","533426","0.0-2.0-34.5-1.5","5eeaff28cf5da71d691ef212","C3","batch3","","942","tol_toboard","","","","tol_peg_2","942","942","0","[[0,0,0],[1,3],[2]]","6","[[2,1,0],[3,0],[0]]","8","0","","","","","","6","","","","","","","","",""
"","","","","","single-stim-button","308","533881","0.0-2.0-34.6-0.6","5eeaff28cf5da71d691ef212","C3","batch3","","454","tol_tohand","","","","tol_peg_3","454","454","0","[[0,0,0],[1,3],[0]]","7","[[2,1,0],[3,0],[0]]","8","0","","","","","","6","","","","","","","","",""
"","","","","","single-stim-button","309","534402","0.0-2.0-34.6-1.6","5eeaff28cf5da71d691ef212","C3","batch3","","521","tol_toboard","","","","tol_peg_1","521","521","0","[[2,0,0],[1,3],[0]]","7","[[2,1,0],[3,0],[0]]","8","0","","","","","","6","","","","","","","","",""
"","","","","","single-stim-button","310","534995","0.0-2.0-34.7-0.7","5eeaff28cf5da71d691ef212","C3","batch3","","593","tol_tohand","","","","tol_peg_2","593","593","0","[[2,0,0],[1,0],[0]]","8","[[2,1,0],[3,0],[0]]","8","0","","","","","","6","","","","","","","","",""
"","","","","","single-stim-button","311","535500","0.0-2.0-34.7-1.7","5eeaff28cf5da71d691ef212","C3","batch3","","504","tol_toboard","","","","tol_peg_3","504","504","0","[[2,0,0],[1,0],[3]]","8","[[2,1,0],[3,0],[0]]","8","0","","","","","","6","","","","","","","","",""
"","","","","","single-stim-button","312","535839","0.0-2.0-34.8-0.8","5eeaff28cf5da71d691ef212","C3","batch3","","337","tol_tohand","","","","tol_peg_2","337","337","0","[[2,0,0],[0,0],[3]]","9","[[2,1,0],[3,0],[0]]","8","0","","","","","","6","","","","","","","","",""
"","","","","","single-stim-button","313","536231","0.0-2.0-34.8-1.8","5eeaff28cf5da71d691ef212","C3","batch3","","391","tol_toboard","","","","tol_peg_1","391","391","0","[[2,1,0],[0,0],[3]]","9","[[2,1,0],[3,0],[0]]","8","0","","","","","","6","","","","","","","","",""
"","","","","","single-stim-button","314","536744","0.0-2.0-34.9-0.9","5eeaff28cf5da71d691ef212","C3","batch3","","512","tol_tohand","","","","tol_peg_3","512","512","0","[[2,1,0],[0,0],[0]]","10","[[2,1,0],[3,0],[0]]","8","0","","","","","","6","","","","","","","","",""
"","","","","","single-stim-button","315","537123","0.0-2.0-34.9-1.9","5eeaff28cf5da71d691ef212","C3","batch3","","379","tol_toboard","","","","tol_peg_2","379","379","0","[[2,1,0],[3,0],[0]]","10","[[2,1,0],[3,0],[0]]","8","0","","","","","","6","","","","","","","","",""
"","","","","","poldrack-single-stim","316","538139","0.0-2.0-35.0","5eeaff28cf5da71d691ef212","C3","batch3","","-1","tol_feedback","","","true","","1000","1000","500","","","","","","-1","none","true","3804","9271","","","","","","","","","",""
"","","","","","html-button-response","317","538894","0.0-2.0-36.0","5eeaff28cf5da71d691ef212","C3","batch3","","754.1000000014901","tol_trial_num","<div class = centerbox><p class = center-block-text>problem <strong>10</strong> out of 25 problems</p></div>","0","","","","","","","","","","","","","","","","","","","","","","","","",""
"","","","","","single-stim-button","318","542156","0.0-2.0-37.0-0.0","5eeaff28cf5da71d691ef212","C3","batch3","","3260","tol_tohand","","","","tol_peg_2","3260","3260","0","[[3,0,0],[0,0],[2]]","1","[[3,0,0],[2,1],[0]]","9","0","","","","","","3","","","","","","","","",""
"","","","","","single-stim-button","319","542566","0.0-2.0-37.0-1.0","5eeaff28cf5da71d691ef212","C3","batch3","","409","tol_toboard","","","","tol_peg_1","409","409","0","[[3,1,0],[0,0],[2]]","1","[[3,0,0],[2,1],[0]]","9","0","","","","","","3","","","","","","","","",""
"","","","","","single-stim-button","320","543991","0.0-2.0-37.1-0.1","5eeaff28cf5da71d691ef212","C3","batch3","","1424","tol_tohand","","","","tol_peg_3","1424","1424","0","[[3,1,0],[0,0],[0]]","2","[[3,0,0],[2,1],[0]]","9","0","","","","","","3","","","","","","","","",""
"","","","","","single-stim-button","321","544356","0.0-2.0-37.1-1.1","5eeaff28cf5da71d691ef212","C3","batch3","","364","tol_toboard","","","","tol_peg_2","364","364","0","[[3,1,0],[2,0],[0]]","2","[[3,0,0],[2,1],[0]]","9","0","","","","","","3","","","","","","","","",""
"","","","","","single-stim-button","322","544921","0.0-2.0-37.2-0.2","5eeaff28cf5da71d691ef212","C3","batch3","","565","tol_tohand","","","","tol_peg_1","565","565","0","[[3,0,0],[2,0],[0]]","3","[[3,0,0],[2,1],[0]]","9","0","","","","","","3","","","","","","","","",""
"","","","","","single-stim-button","323","545368","0.0-2.0-37.2-1.2","5eeaff28cf5da71d691ef212","C3","batch3","","446","tol_toboard","","","","tol_peg_2","446","446","0","[[3,0,0],[2,1],[0]]","3","[[3,0,0],[2,1],[0]]","9","0","","","","","","3","","","","","","","","",""
"","","","","","poldrack-single-stim","324","546369","0.0-2.0-38.0","5eeaff28cf5da71d691ef212","C3","batch3","","-1","tol_feedback","","","true","","1000","1000","500","","","","","","-1","none","true","3260","5249","","","","","","","","","",""
"","","","","","html-button-response","325","547010","0.0-2.0-39.0","5eeaff28cf5da71d691ef212","C3","batch3","","639.3999999985099","tol_trial_num","<div class = centerbox><p class = center-block-text>problem <strong>11</strong> out of 25 problems</p></div>","0","","","","","","","","","","","","","","","","","","","","","","","","",""
"","","","","","single-stim-button","326","550248","0.0-2.0-40.0-0.0","5eeaff28cf5da71d691ef212","C3","batch3","","3237","tol_tohand","","","","tol_peg_2","3237","3237","0","[[1,2,0],[0,0],[0]]","1","[[2,0,0],[1,3],[0]]","10","0","","","","","","6","","","","","","","","",""
"","","","","","single-stim-button","327","550805","0.0-2.0-40.0-1.0","5eeaff28cf5da71d691ef212","C3","batch3","","557","tol_toboard","","","","tol_peg_3","557","557","0","[[1,2,0],[0,0],[3]]","1","[[2,0,0],[1,3],[0]]","10","0","","","","","","6","","","","","","","","",""
"","","","","","single-stim-button","328","552491","0.0-2.0-40.1-0.1","5eeaff28cf5da71d691ef212","C3","batch3","","1684","tol_tohand","","","","tol_peg_1","1684","1684","0","[[1,0,0],[0,0],[3]]","2","[[2,0,0],[1,3],[0]]","10","0","","","","","","6","","","","","","","","",""
"","","","","","single-stim-button","329","553657","0.0-2.0-40.1-1.1","5eeaff28cf5da71d691ef212","C3","batch3","","1166","tol_toboard","","","","tol_peg_2","1166","1166","0","[[1,0,0],[2,0],[3]]","2","[[2,0,0],[1,3],[0]]","10","0","","","","","","6","","","","","","","","",""
"","","","","","single-stim-button","330","555297","0.0-2.0-40.2-0.2","5eeaff28cf5da71d691ef212","C3","batch3","","1639","tol_tohand","","","","tol_peg_1","1639","1639","0","[[0,0,0],[2,0],[3]]","3","[[2,0,0],[1,3],[0]]","10","0","","","","","","6","","","","","","","","",""
"","","","","","single-stim-button","331","555817","0.0-2.0-40.2-1.2","5eeaff28cf5da71d691ef212","C3","batch3","","519","tol_toboard","","","","tol_peg_2","519","519","0","[[0,0,0],[2,1],[3]]","3","[[2,0,0],[1,3],[0]]","10","0","","","","","","6","","","","","","","","",""
"","","","","","single-stim-button","332","557693","0.0-2.0-40.3-0.3","5eeaff28cf5da71d691ef212","C3","batch3","","1876","tol_tohand","","","","tol_peg_2","1876","1876","0","[[0,0,0],[2,0],[3]]","4","[[2,0,0],[1,3],[0]]","10","0","","","","","","6","","","","","","","","",""
"","","","","","single-stim-button","333","558428","0.0-2.0-40.3-1.3","5eeaff28cf5da71d691ef212","C3","batch3","","733","tol_toboard","","","","tol_peg_1","733","733","0","[[1,0,0],[2,0],[3]]","4","[[2,0,0],[1,3],[0]]","10","0","","","","","","6","","","","","","","","",""
"","","","","","single-stim-button","334","558920","0.0-2.0-40.4-0.4","5eeaff28cf5da71d691ef212","C3","batch3","","492","tol_tohand","","","","tol_peg_2","492","492","0","[[1,0,0],[0,0],[3]]","5","[[2,0,0],[1,3],[0]]","10","0","","","","","","6","","","","","","","","",""
"","","","","","single-stim-button","335","559481","0.0-2.0-40.4-1.4","5eeaff28cf5da71d691ef212","C3","batch3","","560","tol_toboard","","","","tol_peg_1","560","560","0","[[1,2,0],[0,0],[3]]","5","[[2,0,0],[1,3],[0]]","10","0","","","","","","6","","","","","","","","",""
"","","","","","single-stim-button","336","563833","0.0-2.0-40.5-0.5","5eeaff28cf5da71d691ef212","C3","batch3","","4351","tol_tohand","","","","tol_peg_3","4351","4351","0","[[1,2,0],[0,0],[0]]","6","[[2,0,0],[1,3],[0]]","10","0","","","","","","6","","","","","","","","",""
"","","","","","single-stim-button","337","565647","0.0-2.0-40.5-1.5","5eeaff28cf5da71d691ef212","C3","batch3","","1812","tol_toboard","","","","tol_peg_2","1812","1812","0","[[1,2,0],[3,0],[0]]","6","[[2,0,0],[1,3],[0]]","10","0","","","","","","6","","","","","","","","",""
"","","","","","single-stim-button","338","566770","0.0-2.0-40.6-0.6","5eeaff28cf5da71d691ef212","C3","batch3","","1122","tol_tohand","","","","tol_peg_1","1122","1122","0","[[1,0,0],[3,0],[0]]","7","[[2,0,0],[1,3],[0]]","10","0","","","","","","6","","","","","","","","",""
"","","","","","single-stim-button","339","567303","0.0-2.0-40.6-1.6","5eeaff28cf5da71d691ef212","C3","batch3","","533","tol_toboard","","","","tol_peg_2","533","533","0","[[1,0,0],[3,2],[0]]","7","[[2,0,0],[1,3],[0]]","10","0","","","","","","6","","","","","","","","",""
"","","","","","single-stim-button","340","567907","0.0-2.0-40.7-0.7","5eeaff28cf5da71d691ef212","C3","batch3","","603","tol_tohand","","","","tol_peg_1","603","603","0","[[0,0,0],[3,2],[0]]","8","[[2,0,0],[1,3],[0]]","10","0","","","","","","6","","","","","","","","",""
"","","","","","single-stim-button","341","568320","0.0-2.0-40.7-1.7","5eeaff28cf5da71d691ef212","C3","batch3","","413","tol_toboard","","","","tol_peg_3","413","413","0","[[0,0,0],[3,2],[1]]","8","[[2,0,0],[1,3],[0]]","10","0","","","","","","6","","","","","","","","",""
"","","","","","single-stim-button","342","568953","0.0-2.0-40.8-0.8","5eeaff28cf5da71d691ef212","C3","batch3","","632","tol_tohand","","","","tol_peg_2","632","632","0","[[0,0,0],[3,0],[1]]","9","[[2,0,0],[1,3],[0]]","10","0","","","","","","6","","","","","","","","",""
"","","","","","single-stim-button","343","569450","0.0-2.0-40.8-1.8","5eeaff28cf5da71d691ef212","C3","batch3","","497","tol_toboard","","","","tol_peg_1","497","497","0","[[2,0,0],[3,0],[1]]","9","[[2,0,0],[1,3],[0]]","10","0","","","","","","6","","","","","","","","",""
"","","","","","single-stim-button","344","570040","0.0-2.0-40.9-0.9","5eeaff28cf5da71d691ef212","C3","batch3","","589","tol_tohand","","","","tol_peg_3","589","589","0","[[2,0,0],[3,0],[0]]","10","[[2,0,0],[1,3],[0]]","10","0","","","","","","6","","","","","","","","",""
"","","","","","single-stim-button","345","570408","0.0-2.0-40.9-1.9","5eeaff28cf5da71d691ef212","C3","batch3","","367","tol_toboard","","","","tol_peg_2","367","367","0","[[2,0,0],[3,1],[0]]","10","[[2,0,0],[1,3],[0]]","10","0","","","","","","6","","","","","","","","",""
"","","","","","single-stim-button","346","573013","0.0-2.0-40.10-0.10","5eeaff28cf5da71d691ef212","C3","batch3","","2604","tol_tohand","","","","tol_peg_2","2604","2604","0","[[2,0,0],[3,0],[0]]","11","[[2,0,0],[1,3],[0]]","10","0","","","","","","6","","","","","","","","",""
"","","","","","single-stim-button","347","573358","0.0-2.0-40.10-1.10","5eeaff28cf5da71d691ef212","C3","batch3","","343","tol_toboard","","","","tol_peg_3","343","343","0","[[2,0,0],[3,0],[1]]","11","[[2,0,0],[1,3],[0]]","10","0","","","","","","6","","","","","","","","",""
"","","","","","single-stim-button","348","574490","0.0-2.0-40.11-0.11","5eeaff28cf5da71d691ef212","C3","batch3","","1132","tol_tohand","","","","tol_peg_2","1132","1132","0","[[2,0,0],[0,0],[1]]","12","[[2,0,0],[1,3],[0]]","10","0","","","","","","6","","","","","","","","",""
"","","","","","single-stim-button","349","574908","0.0-2.0-40.11-1.11","5eeaff28cf5da71d691ef212","C3","batch3","","416","tol_toboard","","","","tol_peg_1","416","416","0","[[2,3,0],[0,0],[1]]","12","[[2,0,0],[1,3],[0]]","10","0","","","","","","6","","","","","","","","",""
"","","","","","single-stim-button","350","575346","0.0-2.0-40.12-0.12","5eeaff28cf5da71d691ef212","C3","batch3","","438","tol_tohand","","","","tol_peg_3","438","438","0","[[2,3,0],[0,0],[0]]","13","[[2,0,0],[1,3],[0]]","10","0","","","","","","6","","","","","","","","",""
"","","","","","single-stim-button","351","575763","0.0-2.0-40.12-1.12","5eeaff28cf5da71d691ef212","C3","batch3","","415","tol_toboard","","","","tol_peg_2","415","415","0","[[2,3,0],[1,0],[0]]","13","[[2,0,0],[1,3],[0]]","10","0","","","","","","6","","","","","","","","",""
"","","","","","single-stim-button","352","576162","0.0-2.0-40.13-0.13","5eeaff28cf5da71d691ef212","C3","batch3","","399","tol_tohand","","","","tol_peg_1","399","399","0","[[2,0,0],[1,0],[0]]","14","[[2,0,0],[1,3],[0]]","10","0","","","","","","6","","","","","","","","",""
