"success","timeout","failed_images","failed_audio","failed_video","trial_type","trial_index","time_elapsed","internal_node_id","subject_id","study_id","session_id","task","rt","stimulus","response","item","answer","correct","spm_correct","spm_rt","view_history","fiar_detect_rt","fiar_detect_correct","total_correct_fiar_detect","post_trial_gap","choices","mouse_click","stim_duration","block_duration","timing_post_trial","current_position","tol_num_moves_made","tol_target","tol_problem_id","tol_rt","key_press","possible_responses","tol_correct","preplanning","tol_rt_per_trial","tol_min_moves"
"true","false","[]","[]","[]","preload","0","1167","0.0-0.0","5eeaa065c7acf61c4322f6d9","F1","batch6","","","","","","","","","","","","","","","","","","","","","","","","","","","","","",""
"true","","","","","fullscreen","1","3374","0.0-1.0-0.0","5eeaa065c7acf61c4322f6d9","F1","batch6","","","","","","","","","","","","","","","","","","","","","","","","","","","","","",""
"true","","","","","fullscreen","2","5208","0.0-2.0-0.0","5eeaa065c7acf61c4322f6d9","F1","batch6","spm_fullscreen","","","","","","","","","","","","","","","","","","","","","","","","","","","","",""
"","","","","","html-button-response","3","10193","0.0-2.0-1.0","5eeaa065c7acf61c4322f6d9","F1","batch6","","4984","<p class = block-text><b>Instructions</b> <br>This is a widely used intelligence test in research. <br>In this test, a figure with a missing piece will be presented.<br>Below the figure are alternative pieces to complete the figure, only one of which is correct.<br> Different figures might involve different principles for obtaining the missing piece<br>Your job is to select the most logical piece to complete the figure.</p>","0","","","","","","","","","","","","","","","","","","","","","","","","","",""
"","","","","","html-keyboard-response","4","10995","0.0-2.0-2.0-0.0","5eeaa065c7acf61c4322f6d9","F1","batch6","spm_show_trial_num","null","<p class=block-text>Trial 1 out of 60</p>","null","","","","","","","","","","","","","","","","","","","","","","","","","",""
"","","","","","image-button-response","5","15304","0.0-2.0-2.0-1.0","5eeaa065c7acf61c4322f6d9","F1","batch6","spm_respsonse","4307","img/question_1_1.jpeg","3","mat_01","4","1","1","4307","","","","","","","","","","","","","","","","","","","","",""
"","","","","","html-keyboard-response","6","16356","0.0-2.0-2.0-0.1","5eeaa065c7acf61c4322f6d9","F1","batch6","spm_show_trial_num","null","<p class=block-text>Trial 2 out of 60</p>","null","","","","","","","","","","","","","","","","","","","","","","","","","",""
"","","","","","image-button-response","7","18506","0.0-2.0-2.0-1.1","5eeaa065c7acf61c4322f6d9","F1","batch6","spm_respsonse","2149.2000000011176","img/question_1_2.jpeg","4","mat_02","5","1","1","2149.2000000011176","","","","","","","","","","","","","","","","","","","","",""
"","","","","","html-keyboard-response","8","19562","0.0-2.0-2.0-0.2","5eeaa065c7acf61c4322f6d9","F1","batch6","spm_show_trial_num","null","<p class=block-text>Trial 3 out of 60</p>","null","","","","","","","","","","","","","","","","","","","","","","","","","",""
"","","","","","image-button-response","9","21479","0.0-2.0-2.0-1.2","5eeaa065c7acf61c4322f6d9","F1","batch6","spm_respsonse","1915.800000000745","img/question_1_3.jpeg","0","mat_03","1","1","1","1915.800000000745","","","","","","","","","","","","","","","","","","","","",""
"","","","","","html-keyboard-response","10","22532","0.0-2.0-2.0-0.3","5eeaa065c7acf61c4322f6d9","F1","batch6","spm_show_trial_num","null","<p class=block-text>Trial 4 out of 60</p>","null","","","","","","","","","","","","","","","","","","","","","","","","","",""
"","","","","","image-button-response","11","25571","0.0-2.0-2.0-1.3","5eeaa065c7acf61c4322f6d9","F1","batch6","spm_respsonse","3038.7000000011176","img/question_1_4.jpeg","1","mat_04","2","1","1","3038.7000000011176","","","","","","","","","","","","","","","","","","","","",""
"","","","","","html-keyboard-response","12","26623","0.0-2.0-2.0-0.4","5eeaa065c7acf61c4322f6d9","F1","batch6","spm_show_trial_num","null","<p class=block-text>Trial 5 out of 60</p>","null","","","","","","","","","","","","","","","","","","","","","","","","","",""
"","","","","","image-button-response","13","32623","0.0-2.0-2.0-1.4","5eeaa065c7acf61c4322f6d9","F1","batch6","spm_respsonse","5998.9000000003725","img/question_1_5.jpeg","5","mat_05","6","1","1","5998.9000000003725","","","","","","","","","","","","","","","","","","","","",""
"","","","","","html-keyboard-response","14","33683","0.0-2.0-2.0-0.5","5eeaa065c7acf61c4322f6d9","F1","batch6","spm_show_trial_num","null","<p class=block-text>Trial 6 out of 60</p>","null","","","","","","","","","","","","","","","","","","","","","","","","","",""
"","","","","","image-button-response","15","37974","0.0-2.0-2.0-1.5","5eeaa065c7acf61c4322f6d9","F1","batch6","spm_respsonse","4289.800000000745","img/question_1_6.jpeg","2","mat_06","3","1","1","4289.800000000745","","","","","","","","","","","","","","","","","","","","",""
"","","","","","html-keyboard-response","16","39045","0.0-2.0-2.0-0.6","5eeaa065c7acf61c4322f6d9","F1","batch6","spm_show_trial_num","null","<p class=block-text>Trial 7 out of 60</p>","null","","","","","","","","","","","","","","","","","","","","","","","","","",""
"","","","","","image-button-response","17","44732","0.0-2.0-2.0-1.6","5eeaa065c7acf61c4322f6d9","F1","batch6","spm_respsonse","5686","img/question_1_7.jpeg","5","mat_07","6","1","1","5686","","","","","","","","","","","","","","","","","","","","",""
"","","","","","html-keyboard-response","18","45784","0.0-2.0-2.0-0.7","5eeaa065c7acf61c4322f6d9","F1","batch6","spm_show_trial_num","null","<p class=block-text>Trial 8 out of 60</p>","null","","","","","","","","","","","","","","","","","","","","","","","","","",""
"","","","","","image-button-response","19","52802","0.0-2.0-2.0-1.7","5eeaa065c7acf61c4322f6d9","F1","batch6","spm_respsonse","7017.300000000745","img/question_1_8.jpeg","1","mat_08","2","1","1","7017.300000000745","","","","","","","","","","","","","","","","","","","","",""
"","","","","","html-keyboard-response","20","53876","0.0-2.0-2.0-0.8","5eeaa065c7acf61c4322f6d9","F1","batch6","spm_show_trial_num","null","<p class=block-text>Trial 9 out of 60</p>","null","","","","","","","","","","","","","","","","","","","","","","","","","",""
"","","","","","image-button-response","21","59274","0.0-2.0-2.0-1.8","5eeaa065c7acf61c4322f6d9","F1","batch6","spm_respsonse","5397.700000001118","img/question_1_9.jpeg","0","mat_09","1","1","1","5397.700000001118","","","","","","","","","","","","","","","","","","","","",""
"","","","","","html-keyboard-response","22","60328","0.0-2.0-2.0-0.9","5eeaa065c7acf61c4322f6d9","F1","batch6","spm_show_trial_num","null","<p class=block-text>Trial 10 out of 60</p>","null","","","","","","","","","","","","","","","","","","","","","","","","","",""
"","","","","","image-button-response","23","62969","0.0-2.0-2.0-1.9","5eeaa065c7acf61c4322f6d9","F1","batch6","spm_respsonse","2639.800000000745","img/question_1_10.jpeg","2","mat_10","3","1","1","2639.800000000745","","","","","","","","","","","","","","","","","","","","",""
"","","","","","html-keyboard-response","24","64024","0.0-2.0-2.0-0.10","5eeaa065c7acf61c4322f6d9","F1","batch6","spm_show_trial_num","null","<p class=block-text>Trial 11 out of 60</p>","null","","","","","","","","","","","","","","","","","","","","","","","","","",""
"","","","","","image-button-response","25","69691","0.0-2.0-2.0-1.10","5eeaa065c7acf61c4322f6d9","F1","batch6","spm_respsonse","5666.5","img/question_1_11.jpeg","3","mat_11","4","1","1","5666.5","","","","","","","","","","","","","","","","","","","","",""
"","","","","","html-keyboard-response","26","70750","0.0-2.0-2.0-0.11","5eeaa065c7acf61c4322f6d9","F1","batch6","spm_show_trial_num","null","<p class=block-text>Trial 12 out of 60</p>","null","","","","","","","","","","","","","","","","","","","","","","","","","",""
"","","","","","image-button-response","27","74766","0.0-2.0-2.0-1.11","5eeaa065c7acf61c4322f6d9","F1","batch6","spm_respsonse","4015.5999999996275","img/question_1_12.jpeg","4","mat_12","5","1","1","4015.5999999996275","","","","","","","","","","","","","","","","","","","","",""
"","","","","","html-keyboard-response","28","75828","0.0-2.0-2.0-0.12","5eeaa065c7acf61c4322f6d9","F1","batch6","spm_show_trial_num","null","<p class=block-text>Trial 13 out of 60</p>","null","","","","","","","","","","","","","","","","","","","","","","","","","",""
"","","","","","image-button-response","29","77807","0.0-2.0-2.0-1.12","5eeaa065c7acf61c4322f6d9","F1","batch6","spm_respsonse","1978.0999999996275","img/question_2_1.jpeg","1","mat_13","2","1","1","1978.0999999996275","","","","","","","","","","","","","","","","","","","","",""
"","","","","","html-keyboard-response","30","78874","0.0-2.0-2.0-0.13","5eeaa065c7acf61c4322f6d9","F1","batch6","spm_show_trial_num","null","<p class=block-text>Trial 14 out of 60</p>","null","","","","","","","","","","","","","","","","","","","","","","","","","",""
"","","","","","image-button-response","31","82660","0.0-2.0-2.0-1.13","5eeaa065c7acf61c4322f6d9","F1","batch6","spm_respsonse","3785.5","img/question_2_2.jpeg","5","mat_14","6","1","1","3785.5","","","","","","","","","","","","","","","","","","","","",""
"","","","","","html-keyboard-response","32","83718","0.0-2.0-2.0-0.14","5eeaa065c7acf61c4322f6d9","F1","batch6","spm_show_trial_num","null","<p class=block-text>Trial 15 out of 60</p>","null","","","","","","","","","","","","","","","","","","","","","","","","","",""
"","","","","","image-button-response","33","86807","0.0-2.0-2.0-1.14","5eeaa065c7acf61c4322f6d9","F1","batch6","spm_respsonse","3088","img/question_2_3.jpeg","0","mat_15","1","1","1","3088","","","","","","","","","","","","","","","","","","","","",""
"","","","","","html-keyboard-response","34","87875","0.0-2.0-2.0-0.15","5eeaa065c7acf61c4322f6d9","F1","batch6","spm_show_trial_num","null","<p class=block-text>Trial 16 out of 60</p>","null","","","","","","","","","","","","","","","","","","","","","","","","","",""
"","","","","","image-button-response","35","89687","0.0-2.0-2.0-1.15","5eeaa065c7acf61c4322f6d9","F1","batch6","spm_respsonse","1811.4000000003725","img/question_2_4.jpeg","1","mat_16","2","1","1","1811.4000000003725","","","","","","","","","","","","","","","","","","","","",""
"","","","","","html-keyboard-response","36","90749","0.0-2.0-2.0-0.16","5eeaa065c7acf61c4322f6d9","F1","batch6","spm_show_trial_num","null","<p class=block-text>Trial 17 out of 60</p>","null","","","","","","","","","","","","","","","","","","","","","","","","","",""
"","","","","","image-button-response","37","94233","0.0-2.0-2.0-1.16","5eeaa065c7acf61c4322f6d9","F1","batch6","spm_respsonse","3483.300000000745","img/question_2_5.jpeg","0","mat_17","1","1","1","3483.300000000745","","","","","","","","","","","","","","","","","","","","",""
"","","","","","html-keyboard-response","38","95296","0.0-2.0-2.0-0.17","5eeaa065c7acf61c4322f6d9","F1","batch6","spm_show_trial_num","null","<p class=block-text>Trial 18 out of 60</p>","null","","","","","","","","","","","","","","","","","","","","","","","","","",""
"","","","","","image-button-response","39","97898","0.0-2.0-2.0-1.17","5eeaa065c7acf61c4322f6d9","F1","batch6","spm_respsonse","2601.0999999996275","img/question_2_6.jpeg","2","mat_18","3","1","1","2601.0999999996275","","","","","","","","","","","","","","","","","","","","",""
"","","","","","html-keyboard-response","40","98968","0.0-2.0-2.0-0.18","5eeaa065c7acf61c4322f6d9","F1","batch6","spm_show_trial_num","null","<p class=block-text>Trial 19 out of 60</p>","null","","","","","","","","","","","","","","","","","","","","","","","","","",""
"","","","","","image-button-response","41","103838","0.0-2.0-2.0-1.18","5eeaa065c7acf61c4322f6d9","F1","batch6","spm_respsonse","4869","img/question_2_7.jpeg","5","mat_19","5","0","0","4869","","","","","","","","","","","","","","","","","","","","",""
"","","","","","html-keyboard-response","42","104894","0.0-2.0-2.0-0.19","5eeaa065c7acf61c4322f6d9","F1","batch6","spm_show_trial_num","null","<p class=block-text>Trial 20 out of 60</p>","null","","","","","","","","","","","","","","","","","","","","","","","","","",""
"","","","","","image-button-response","43","119608","0.0-2.0-2.0-1.19","5eeaa065c7acf61c4322f6d9","F1","batch6","spm_respsonse","14712.900000000373","img/question_2_8.jpeg","5","mat_20","6","1","1","14712.900000000373","","","","","","","","","","","","","","","","","","","","",""
"","","","","","html-keyboard-response","44","120675","0.0-2.0-2.0-0.20","5eeaa065c7acf61c4322f6d9","F1","batch6","spm_show_trial_num","null","<p class=block-text>Trial 21 out of 60</p>","null","","","","","","","","","","","","","","","","","","","","","","","","","",""
"","","","","","image-button-response","45","122968","0.0-2.0-2.0-1.20","5eeaa065c7acf61c4322f6d9","F1","batch6","spm_respsonse","2291.7000000011176","img/question_2_9.jpeg","4","mat_21","4","0","0","2291.7000000011176","","","","","","","","","","","","","","","","","","","","",""
"","","","","","html-keyboard-response","46","124021","0.0-2.0-2.0-0.21","5eeaa065c7acf61c4322f6d9","F1","batch6","spm_show_trial_num","null","<p class=block-text>Trial 22 out of 60</p>","null","","","","","","","","","","","","","","","","","","","","","","","","","",""
"","","","","","image-button-response","47","127415","0.0-2.0-2.0-1.21","5eeaa065c7acf61c4322f6d9","F1","batch6","spm_respsonse","3392.800000000745","img/question_2_10.jpeg","2","mat_22","3","1","1","3392.800000000745","","","","","","","","","","","","","","","","","","","","",""
"","","","","","html-keyboard-response","48","128482","0.0-2.0-2.0-0.22","5eeaa065c7acf61c4322f6d9","F1","batch6","spm_show_trial_num","null","<p class=block-text>Trial 23 out of 60</p>","null","","","","","","","","","","","","","","","","","","","","","","","","","",""
"","","","","","image-button-response","49","132473","0.0-2.0-2.0-1.22","5eeaa065c7acf61c4322f6d9","F1","batch6","spm_respsonse","3990","img/question_2_11.jpeg","3","mat_23","4","1","1","3990","","","","","","","","","","","","","","","","","","","","",""
"","","","","","html-keyboard-response","50","133546","0.0-2.0-2.0-0.23","5eeaa065c7acf61c4322f6d9","F1","batch6","spm_show_trial_num","null","<p class=block-text>Trial 24 out of 60</p>","null","","","","","","","","","","","","","","","","","","","","","","","","","",""
"","","","","","image-button-response","51","143582","0.0-2.0-2.0-1.23","5eeaa065c7acf61c4322f6d9","F1","batch6","spm_respsonse","10034.300000000745","img/question_2_12.jpeg","1","mat_24","5","0","0","10034.300000000745","","","","","","","","","","","","","","","","","","","","",""
"","","","","","html-button-response","52","145164","0.0-2.0-3.0","5eeaa065c7acf61c4322f6d9","F1","batch6","attention_check","1319.300000000745","<p class = block-text>Attention check: Please choose 1<br></p>","0","","","true","","","","","","","","","","","","","","","","","","","","","","",""
"","","","","","html-keyboard-response","53","145964","0.0-2.0-4.0-0.0","5eeaa065c7acf61c4322f6d9","F1","batch6","spm_show_trial_num","null","<p class=block-text>Trial 25 out of 60</p>","null","","","","","","","","","","","","","","","","","","","","","","","","","",""
"","","","","","image-button-response","54","155656","0.0-2.0-4.0-1.0","5eeaa065c7acf61c4322f6d9","F1","batch6","spm_respsonse","9690.60000000149","img/question_3_1.jpeg","7","mat_25","8","1","1","9690.60000000149","","","","","","","","","","","","","","","","","","","","",""
"","","","","","html-keyboard-response","55","156718","0.0-2.0-4.0-0.1","5eeaa065c7acf61c4322f6d9","F1","batch6","spm_show_trial_num","null","<p class=block-text>Trial 26 out of 60</p>","null","","","","","","","","","","","","","","","","","","","","","","","","","",""
"","","","","","image-button-response","56","160871","0.0-2.0-4.0-1.1","5eeaa065c7acf61c4322f6d9","F1","batch6","spm_respsonse","4151.300000000745","img/question_3_2.jpeg","1","mat_26","2","1","1","4151.300000000745","","","","","","","","","","","","","","","","","","","","",""
"","","","","","html-keyboard-response","57","161938","0.0-2.0-4.0-0.2","5eeaa065c7acf61c4322f6d9","F1","batch6","spm_show_trial_num","null","<p class=block-text>Trial 27 out of 60</p>","null","","","","","","","","","","","","","","","","","","","","","","","","","",""
"","","","","","image-button-response","58","165484","0.0-2.0-4.0-1.2","5eeaa065c7acf61c4322f6d9","F1","batch6","spm_respsonse","3544.4000000003725","img/question_3_3.jpeg","2","mat_27","3","1","1","3544.4000000003725","","","","","","","","","","","","","","","","","","","","",""
"","","","","","html-keyboard-response","59","166562","0.0-2.0-4.0-0.3","5eeaa065c7acf61c4322f6d9","F1","batch6","spm_show_trial_num","null","<p class=block-text>Trial 28 out of 60</p>","null","","","","","","","","","","","","","","","","","","","","","","","","","",""
"","","","","","image-button-response","60","171577","0.0-2.0-4.0-1.3","5eeaa065c7acf61c4322f6d9","F1","batch6","spm_respsonse","5013.700000001118","img/question_3_4.jpeg","7","mat_28","8","1","1","5013.700000001118","","","","","","","","","","","","","","","","","","","","",""
"","","","","","html-keyboard-response","61","172631","0.0-2.0-4.0-0.4","5eeaa065c7acf61c4322f6d9","F1","batch6","spm_show_trial_num","null","<p class=block-text>Trial 29 out of 60</p>","null","","","","","","","","","","","","","","","","","","","","","","","","","",""
"","","","","","image-button-response","62","181255","0.0-2.0-4.0-1.4","5eeaa065c7acf61c4322f6d9","F1","batch6","spm_respsonse","8623","img/question_3_5.jpeg","6","mat_29","7","1","1","8623","","","","","","","","","","","","","","","","","","","","",""
"","","","","","html-keyboard-response","63","182312","0.0-2.0-4.0-0.5","5eeaa065c7acf61c4322f6d9","F1","batch6","spm_show_trial_num","null","<p class=block-text>Trial 30 out of 60</p>","null","","","","","","","","","","","","","","","","","","","","","","","","","",""
"","","","","","image-button-response","64","189679","0.0-2.0-4.0-1.5","5eeaa065c7acf61c4322f6d9","F1","batch6","spm_respsonse","7365.5","img/question_3_6.jpeg","3","mat_30","4","1","1","7365.5","","","","","","","","","","","","","","","","","","","","",""
"","","","","","html-keyboard-response","65","190751","0.0-2.0-4.0-0.6","5eeaa065c7acf61c4322f6d9","F1","batch6","spm_show_trial_num","null","<p class=block-text>Trial 31 out of 60</p>","null","","","","","","","","","","","","","","","","","","","","","","","","","",""
"","","","","","image-button-response","66","195398","0.0-2.0-4.0-1.6","5eeaa065c7acf61c4322f6d9","F1","batch6","spm_respsonse","4644.4000000003725","img/question_3_7.jpeg","4","mat_31","5","1","1","4644.4000000003725","","","","","","","","","","","","","","","","","","","","",""
"","","","","","html-keyboard-response","67","196461","0.0-2.0-4.0-0.7","5eeaa065c7acf61c4322f6d9","F1","batch6","spm_show_trial_num","null","<p class=block-text>Trial 32 out of 60</p>","null","","","","","","","","","","","","","","","","","","","","","","","","","",""
"","","","","","image-button-response","68","210622","0.0-2.0-4.0-1.7","5eeaa065c7acf61c4322f6d9","F1","batch6","spm_respsonse","14160.700000001118","img/question_3_8.jpeg","0","mat_32","1","1","1","14160.700000001118","","","","","","","","","","","","","","","","","","","","",""
"","","","","","html-keyboard-response","69","211688","0.0-2.0-4.0-0.8","5eeaa065c7acf61c4322f6d9","F1","batch6","spm_show_trial_num","null","<p class=block-text>Trial 33 out of 60</p>","null","","","","","","","","","","","","","","","","","","","","","","","","","",""
"","","","","","image-button-response","70","218453","0.0-2.0-4.0-1.8","5eeaa065c7acf61c4322f6d9","F1","batch6","spm_respsonse","6764.199999999255","img/question_3_9.jpeg","0","mat_33","7","0","0","6764.199999999255","","","","","","","","","","","","","","","","","","","","",""
"","","","","","html-keyboard-response","71","219515","0.0-2.0-4.0-0.9","5eeaa065c7acf61c4322f6d9","F1","batch6","spm_show_trial_num","null","<p class=block-text>Trial 34 out of 60</p>","null","","","","","","","","","","","","","","","","","","","","","","","","","",""
"","","","","","image-button-response","72","228110","0.0-2.0-4.0-1.9","5eeaa065c7acf61c4322f6d9","F1","batch6","spm_respsonse","8592.900000000373","img/question_3_10.jpeg","7","mat_34","6","0","0","8592.900000000373","","","","","","","","","","","","","","","","","","","","",""
"","","","","","html-keyboard-response","73","229173","0.0-2.0-4.0-0.10","5eeaa065c7acf61c4322f6d9","F1","batch6","spm_show_trial_num","null","<p class=block-text>Trial 35 out of 60</p>","null","","","","","","","","","","","","","","","","","","","","","","","","","",""
"","","","","","image-button-response","74","253376","0.0-2.0-4.0-1.10","5eeaa065c7acf61c4322f6d9","F1","batch6","spm_respsonse","24201.700000001118","img/question_3_11.jpeg","4","mat_35","1","0","0","24201.700000001118","","","","","","","","","","","","","","","","","","","","",""
"","","","","","html-keyboard-response","75","254456","0.0-2.0-4.0-0.11","5eeaa065c7acf61c4322f6d9","F1","batch6","spm_show_trial_num","null","<p class=block-text>Trial 36 out of 60</p>","null","","","","","","","","","","","","","","","","","","","","","","","","","",""
"","","","","","image-button-response","76","257633","0.0-2.0-4.0-1.11","5eeaa065c7acf61c4322f6d9","F1","batch6","spm_respsonse","3176.300000000745","img/question_3_12.jpeg","5","mat_36","2","0","0","3176.300000000745","","","","","","","","","","","","","","","","","","","","",""
"","","","","","html-keyboard-response","77","258685","0.0-2.0-4.0-0.12","5eeaa065c7acf61c4322f6d9","F1","batch6","spm_show_trial_num","null","<p class=block-text>Trial 37 out of 60</p>","null","","","","","","","","","","","","","","","","","","","","","","","","","",""
"","","","","","image-button-response","78","262631","0.0-2.0-4.0-1.12","5eeaa065c7acf61c4322f6d9","F1","batch6","spm_respsonse","3945","img/question_4_1.jpeg","2","mat_37","3","1","1","3945","","","","","","","","","","","","","","","","","","","","",""
"","","","","","html-keyboard-response","79","263705","0.0-2.0-4.0-0.13","5eeaa065c7acf61c4322f6d9","F1","batch6","spm_show_trial_num","null","<p class=block-text>Trial 38 out of 60</p>","null","","","","","","","","","","","","","","","","","","","","","","","","","",""
"","","","","","image-button-response","80","268652","0.0-2.0-4.0-1.13","5eeaa065c7acf61c4322f6d9","F1","batch6","spm_respsonse","4946.0999999996275","img/question_4_2.jpeg","3","mat_38","4","1","1","4946.0999999996275","","","","","","","","","","","","","","","","","","","","",""
"","","","","","html-keyboard-response","81","269719","0.0-2.0-4.0-0.14","5eeaa065c7acf61c4322f6d9","F1","batch6","spm_show_trial_num","null","<p class=block-text>Trial 39 out of 60</p>","null","","","","","","","","","","","","","","","","","","","","","","","","","",""
"","","","","","image-button-response","82","274122","0.0-2.0-4.0-1.14","5eeaa065c7acf61c4322f6d9","F1","batch6","spm_respsonse","4402.5","img/question_4_3.jpeg","3","mat_39","3","0","0","4402.5","","","","","","","","","","","","","","","","","","","","",""
"","","","","","html-keyboard-response","83","275188","0.0-2.0-4.0-0.15","5eeaa065c7acf61c4322f6d9","F1","batch6","spm_show_trial_num","null","<p class=block-text>Trial 40 out of 60</p>","null","","","","","","","","","","","","","","","","","","","","","","","","","",""
"","","","","","image-button-response","84","288339","0.0-2.0-4.0-1.15","5eeaa065c7acf61c4322f6d9","F1","batch6","spm_respsonse","13149.800000000745","img/question_4_4.jpeg","6","mat_40","7","1","1","13149.800000000745","","","","","","","","","","","","","","","","","","","","",""
"","","","","","html-keyboard-response","85","289397","0.0-2.0-4.0-0.16","5eeaa065c7acf61c4322f6d9","F1","batch6","spm_show_trial_num","null","<p class=block-text>Trial 41 out of 60</p>","null","","","","","","","","","","","","","","","","","","","","","","","","","",""
"","","","","","image-button-response","86","299931","0.0-2.0-4.0-1.16","5eeaa065c7acf61c4322f6d9","F1","batch6","spm_respsonse","10533.200000001118","img/question_4_5.jpeg","7","mat_41","8","1","1","10533.200000001118","","","","","","","","","","","","","","","","","","","","",""
"","","","","","html-keyboard-response","87","300998","0.0-2.0-4.0-0.17","5eeaa065c7acf61c4322f6d9","F1","batch6","spm_show_trial_num","null","<p class=block-text>Trial 42 out of 60</p>","null","","","","","","","","","","","","","","","","","","","","","","","","","",""
"","","","","","image-button-response","88","310782","0.0-2.0-4.0-1.17","5eeaa065c7acf61c4322f6d9","F1","batch6","spm_respsonse","9783.300000000745","img/question_4_6.jpeg","5","mat_42","6","1","1","9783.300000000745","","","","","","","","","","","","","","","","","","","","",""
"","","","","","html-keyboard-response","89","311835","0.0-2.0-4.0-0.18","5eeaa065c7acf61c4322f6d9","F1","batch6","spm_show_trial_num","null","<p class=block-text>Trial 43 out of 60</p>","null","","","","","","","","","","","","","","","","","","","","","","","","","",""
"","","","","","image-button-response","90","324158","0.0-2.0-4.0-1.18","5eeaa065c7acf61c4322f6d9","F1","batch6","spm_respsonse","12322.300000000745","img/question_4_7.jpeg","7","mat_43","5","0","0","12322.300000000745","","","","","","","","","","","","","","","","","","","","",""
"","","","","","html-keyboard-response","91","325232","0.0-2.0-4.0-0.19","5eeaa065c7acf61c4322f6d9","F1","batch6","spm_show_trial_num","null","<p class=block-text>Trial 44 out of 60</p>","null","","","","","","","","","","","","","","","","","","","","","","","","","",""
"","","","","","image-button-response","92","328756","0.0-2.0-4.0-1.19","5eeaa065c7acf61c4322f6d9","F1","batch6","spm_respsonse","3523","img/question_4_8.jpeg","3","mat_44","4","1","1","3523","","","","","","","","","","","","","","","","","","","","",""
"","","","","","html-keyboard-response","93","329829","0.0-2.0-4.0-0.20","5eeaa065c7acf61c4322f6d9","F1","batch6","spm_show_trial_num","null","<p class=block-text>Trial 45 out of 60</p>","null","","","","","","","","","","","","","","","","","","","","","","","","","",""
"","","","","","image-button-response","94","341041","0.0-2.0-4.0-1.20","5eeaa065c7acf61c4322f6d9","F1","batch6","spm_respsonse","11211.300000000745","img/question_4_9.jpeg","1","mat_45","1","0","0","11211.300000000745","","","","","","","","","","","","","","","","","","","","",""
"","","","","","html-keyboard-response","95","342113","0.0-2.0-4.0-0.21","5eeaa065c7acf61c4322f6d9","F1","batch6","spm_show_trial_num","null","<p class=block-text>Trial 46 out of 60</p>","null","","","","","","","","","","","","","","","","","","","","","","","","","",""
"","","","","","image-button-response","96","350567","0.0-2.0-4.0-1.21","5eeaa065c7acf61c4322f6d9","F1","batch6","spm_respsonse","8453.10000000149","img/question_4_10.jpeg","1","mat_46","2","1","1","8453.10000000149","","","","","","","","","","","","","","","","","","","","",""
"","","","","","html-keyboard-response","97","351632","0.0-2.0-4.0-0.22","5eeaa065c7acf61c4322f6d9","F1","batch6","spm_show_trial_num","null","<p class=block-text>Trial 47 out of 60</p>","null","","","","","","","","","","","","","","","","","","","","","","","","","",""
"","","","","","image-button-response","98","373103","0.0-2.0-4.0-1.22","5eeaa065c7acf61c4322f6d9","F1","batch6","spm_respsonse","21469.5","img/question_4_11.jpeg","1","mat_47","5","0","0","21469.5","","","","","","","","","","","","","","","","","","","","",""
"","","","","","html-keyboard-response","99","374158","0.0-2.0-4.0-0.23","5eeaa065c7acf61c4322f6d9","F1","batch6","spm_show_trial_num","null","<p class=block-text>Trial 48 out of 60</p>","null","","","","","","","","","","","","","","","","","","","","","","","","","",""
"","","","","","image-button-response","100","382416","0.0-2.0-4.0-1.23","5eeaa065c7acf61c4322f6d9","F1","batch6","spm_respsonse","8257.60000000149","img/question_4_12.jpeg","7","mat_48","6","0","0","8257.60000000149","","","","","","","","","","","","","","","","","","","","",""
"","","","","","html-keyboard-response","101","383484","0.0-2.0-4.0-0.24","5eeaa065c7acf61c4322f6d9","F1","batch6","spm_show_trial_num","null","<p class=block-text>Trial 49 out of 60</p>","null","","","","","","","","","","","","","","","","","","","","","","","","","",""
"","","","","","image-button-response","102","388945","0.0-2.0-4.0-1.24","5eeaa065c7acf61c4322f6d9","F1","batch6","spm_respsonse","5459.700000001118","img/question_5_1.jpeg","6","mat_49","7","1","1","5459.700000001118","","","","","","","","","","","","","","","","","","","","",""
"","","","","","html-keyboard-response","103","390001","0.0-2.0-4.0-0.25","5eeaa065c7acf61c4322f6d9","F1","batch6","spm_show_trial_num","null","<p class=block-text>Trial 50 out of 60</p>","null","","","","","","","","","","","","","","","","","","","","","","","","","",""
"","","","","","image-button-response","104","393022","0.0-2.0-4.0-1.25","5eeaa065c7acf61c4322f6d9","F1","batch6","spm_respsonse","3020.10000000149","img/question_5_2.jpeg","2","mat_50","6","0","0","3020.10000000149","","","","","","","","","","","","","","","","","","","","",""
"","","","","","html-keyboard-response","105","394094","0.0-2.0-4.0-0.26","5eeaa065c7acf61c4322f6d9","F1","batch6","spm_show_trial_num","null","<p class=block-text>Trial 51 out of 60</p>","null","","","","","","","","","","","","","","","","","","","","","","","","","",""
"","","","","","image-button-response","106","397624","0.0-2.0-4.0-1.26","5eeaa065c7acf61c4322f6d9","F1","batch6","spm_respsonse","3529.2000000011176","img/question_5_3.jpeg","0","mat_51","8","0","0","3529.2000000011176","","","","","","","","","","","","","","","","","","","","",""
"","","","","","html-keyboard-response","107","398675","0.0-2.0-4.0-0.27","5eeaa065c7acf61c4322f6d9","F1","batch6","spm_show_trial_num","null","<p class=block-text>Trial 52 out of 60</p>","null","","","","","","","","","","","","","","","","","","","","","","","","","",""
"","","","","","image-button-response","108","401693","0.0-2.0-4.0-1.27","5eeaa065c7acf61c4322f6d9","F1","batch6","spm_respsonse","3016.5","img/question_5_4.jpeg","5","mat_52","2","0","0","3016.5","","","","","","","","","","","","","","","","","","","","",""
"","","","","","html-keyboard-response","109","402755","0.0-2.0-4.0-0.28","5eeaa065c7acf61c4322f6d9","F1","batch6","spm_show_trial_num","null","<p class=block-text>Trial 53 out of 60</p>","null","","","","","","","","","","","","","","","","","","","","","","","","","",""
"","","","","","image-button-response","110","416272","0.0-2.0-4.0-1.28","5eeaa065c7acf61c4322f6d9","F1","batch6","spm_respsonse","13515.89999999851","img/question_5_5.jpeg","1","mat_53","1","0","0","13515.89999999851","","","","","","","","","","","","","","","","","","","","",""
"","","","","","html-keyboard-response","111","417345","0.0-2.0-4.0-0.29","5eeaa065c7acf61c4322f6d9","F1","batch6","spm_show_trial_num","null","<p class=block-text>Trial 54 out of 60</p>","null","","","","","","","","","","","","","","","","","","","","","","","","","",""
"","","","","","image-button-response","112","427178","0.0-2.0-4.0-1.29","5eeaa065c7acf61c4322f6d9","F1","batch6","spm_respsonse","9832.200000001118","img/question_5_6.jpeg","5","mat_54","5","0","0","9832.200000001118","","","","","","","","","","","","","","","","","","","","",""
"","","","","","html-keyboard-response","113","428235","0.0-2.0-4.0-0.30","5eeaa065c7acf61c4322f6d9","F1","batch6","spm_show_trial_num","null","<p class=block-text>Trial 55 out of 60</p>","null","","","","","","","","","","","","","","","","","","","","","","","","","",""
"","","","","","image-button-response","114","434618","0.0-2.0-4.0-1.30","5eeaa065c7acf61c4322f6d9","F1","batch6","spm_respsonse","6382.199999999255","img/question_5_7.jpeg","1","mat_55","1","0","0","6382.199999999255","","","","","","","","","","","","","","","","","","","","",""
"","","","","","html-keyboard-response","115","435689","0.0-2.0-4.0-0.31","5eeaa065c7acf61c4322f6d9","F1","batch6","spm_show_trial_num","null","<p class=block-text>Trial 56 out of 60</p>","null","","","","","","","","","","","","","","","","","","","","","","","","","",""
"","","","","","image-button-response","116","461914","0.0-2.0-4.0-1.31","5eeaa065c7acf61c4322f6d9","F1","batch6","spm_respsonse","26224.199999999255","img/question_5_8.jpeg","1","mat_56","6","0","0","26224.199999999255","","","","","","","","","","","","","","","","","","","","",""
"","","","","","html-keyboard-response","117","462974","0.0-2.0-4.0-0.32","5eeaa065c7acf61c4322f6d9","F1","batch6","spm_show_trial_num","null","<p class=block-text>Trial 57 out of 60</p>","null","","","","","","","","","","","","","","","","","","","","","","","","","",""
"","","","","","image-button-response","118","465029","0.0-2.0-4.0-1.32","5eeaa065c7acf61c4322f6d9","F1","batch6","spm_respsonse","2053.89999999851","img/question_5_9.jpeg","3","mat_57","3","0","0","2053.89999999851","","","","","","","","","","","","","","","","","","","","",""
"","","","","","html-keyboard-response","119","466094","0.0-2.0-4.0-0.33","5eeaa065c7acf61c4322f6d9","F1","batch6","spm_show_trial_num","null","<p class=block-text>Trial 58 out of 60</p>","null","","","","","","","","","","","","","","","","","","","","","","","","","",""
"","","","","","image-button-response","120","467678","0.0-2.0-4.0-1.33","5eeaa065c7acf61c4322f6d9","F1","batch6","spm_respsonse","1583.3999999985099","img/question_5_10.jpeg","5","mat_58","2","0","0","1583.3999999985099","","","","","","","","","","","","","","","","","","","","",""
"","","","","","html-keyboard-response","121","468741","0.0-2.0-4.0-0.34","5eeaa065c7acf61c4322f6d9","F1","batch6","spm_show_trial_num","null","<p class=block-text>Trial 59 out of 60</p>","null","","","","","","","","","","","","","","","","","","","","","","","","","",""
"","","","","","image-button-response","122","470057","0.0-2.0-4.0-1.34","5eeaa065c7acf61c4322f6d9","F1","batch6","spm_respsonse","1316","img/question_5_11.jpeg","1","mat_59","4","0","0","1316","","","","","","","","","","","","","","","","","","","","",""
"","","","","","html-keyboard-response","123","471110","0.0-2.0-4.0-0.35","5eeaa065c7acf61c4322f6d9","F1","batch6","spm_show_trial_num","null","<p class=block-text>Trial 60 out of 60</p>","null","","","","","","","","","","","","","","","","","","","","","","","","","",""
"","","","","","image-button-response","124","474860","0.0-2.0-4.0-1.35","5eeaa065c7acf61c4322f6d9","F1","batch6","spm_respsonse","3749.199999999255","img/question_5_12.jpeg","3","mat_60","5","0","0","3749.199999999255","","","","","","","","","","","","","","","","","","","","",""
"","","","","","html-button-response","125","477046","0.0-2.0-5.0","5eeaa065c7acf61c4322f6d9","F1","batch6","spm_goodbye","1934.1000000014901","<p class= block-text>This concludes the Standard Progressive Matrix game. Thank you for your responses!<br> When you are ready, click the button continue</p>","0","","","","","","","","","","","","","","","","","","","","","","","","","",""
"true","","","","","fullscreen","126","480154","0.0-3.0-0.0","5eeaa065c7acf61c4322f6d9","F1","batch6","","","","","","","","","","","","","","","","","","","","","","","","","","","","","",""
"","","","","","instructions","127","496686","0.0-3.0-1.0-0.0","5eeaa065c7acf61c4322f6d9","F1","batch6","","16531.900000000373","","","","","","","","[{""page_index"":0,""viewing_time"":7541.60000000149},{""page_index"":1,""viewing_time"":8990.099999999627}]","","","","","","","","","","","","","","","","","","","",""
"","","","","","html-button-response","128","497639","0.0-3.0-1.0-1.0-0.0","5eeaa065c7acf61c4322f6d9","F1","batch6","pattern_enter_quiz","952.1999999992549","<p class=block-text> Let's answer a few questions <br>","0","","","","","","","","","","","","","","","","","","","","","","","","","",""
"","","","","","html-button-response","129","499669","0.0-3.0-1.0-1.0-1.0","5eeaa065c7acf61c4322f6d9","F1","batch6","pattern_quiz","2029.2999999988824","<p class = block-text>True or False: You will have as much time as you want to make each choice. <br></p>","1","","","true","","","","","","","","","","","","","","","","","","","","","","",""
"","","","","","html-button-response","130","500776","0.0-3.0-1.0-1.0-2.0","5eeaa065c7acf61c4322f6d9","F1","batch6","pattern_quiz_feedback","1106","<p class = block-text>Correct! You should make your choice <strong> as fast as you can</strong>.</p>","0","","","","","","","","","","","","","","","","","","","","","","","","","",""
"","","","","","html-button-response","131","504047","0.0-3.0-1.0-1.0-3.0","5eeaa065c7acf61c4322f6d9","F1","batch6","pattern_quiz","3270.5","<p class = block-text>True or False: You will look for 4 pieces in black or white color connected in a row either horizontally, vertically or diagonally. <br></p>","0","","","true","","","","","","","","","","","","","","","","","","","","","","",""
"","","","","","html-button-response","132","504648","0.0-3.0-1.0-1.0-4.0","5eeaa065c7acf61c4322f6d9","F1","batch6","pattern_quiz_feedback","600.6999999992549","<p class = block-text>Correct! </p>","0","","","","","","","","","","","","","","","","","","","","","","","","","",""
"","","","","","html-button-response","133","505584","0.0-3.0-2.0","5eeaa065c7acf61c4322f6d9","F1","batch6","pattern_enter_practice","934.7999999988824","<p class=block-text> Now that you've understood the game, let's do a few practice trials before we start!<br> <br>","0","","","","","","","","","","","","","","","","","","","","","","","","","",""
"","","","","","image-keyboard-response","134","507334","0.0-3.0-3.0-0.0","5eeaa065c7acf61c4322f6d9","F1","batch6","pattern_practice","1748.800000000745","stim/prac_no_16_1.png","j","","j","true","","","","","","","","","","","","","","","","","","","","","","",""
"","","","","","html-keyboard-response","135","508345","0.0-3.0-3.0-1.0","5eeaa065c7acf61c4322f6d9","F1","batch6","pattern_feedback","null","<p style=""font-size:30px;color:green;"">Correct!</p>","null","","","","","","","","","","","","","","","","","","","","","","","","","",""
"","","","","","image-keyboard-response","136","508963","0.0-3.0-3.0-0.1","5eeaa065c7acf61c4322f6d9","F1","batch6","pattern_practice","617.8000000007451","stim/prac_no_18_1.png","j","","j","true","","","","","","","","","","","","","","","","","","","","","","",""
"","","","","","html-keyboard-response","137","509969","0.0-3.0-3.0-1.1","5eeaa065c7acf61c4322f6d9","F1","batch6","pattern_feedback","null","<p style=""font-size:30px;color:green;"">Correct!</p>","null","","","","","","","","","","","","","","","","","","","","","","","","","",""
"","","","","","image-keyboard-response","138","510729","0.0-3.0-3.0-0.2","5eeaa065c7acf61c4322f6d9","F1","batch6","pattern_practice","759.5","stim/prac_yes_20_dia_b1.png","j","","f","false","","","","","","","","","","","","","","","","","","","","","","",""
"","","","","","html-keyboard-response","139","511749","0.0-3.0-3.0-1.2","5eeaa065c7acf61c4322f6d9","F1","batch6","pattern_feedback","null","<p style=""font-size:30px;color:red;"">Wrong.</p>","null","","","","","","","","","","","","","","","","","","","","","","","","","",""
"","","","","","image-keyboard-response","140","512789","0.0-3.0-3.0-0.3","5eeaa065c7acf61c4322f6d9","F1","batch6","pattern_practice","1038.800000000745","stim/prac_yes_16_ver_w1.png","j","","f","false","","","","","","","","","","","","","","","","","","","","","","",""
"","","","","","html-keyboard-response","141","513812","0.0-3.0-3.0-1.3","5eeaa065c7acf61c4322f6d9","F1","batch6","pattern_feedback","null","<p style=""font-size:30px;color:red;"">Wrong.</p>","null","","","","","","","","","","","","","","","","","","","","","","","","","",""
"","","","","","image-keyboard-response","142","516407","0.0-3.0-3.0-0.4","5eeaa065c7acf61c4322f6d9","F1","batch6","pattern_practice","2594.7000000011176","stim/prac_yes_18_hor_w1.png","j","","f","false","","","","","","","","","","","","","","","","","","","","","","",""
"","","","","","html-keyboard-response","143","517438","0.0-3.0-3.0-1.4","5eeaa065c7acf61c4322f6d9","F1","batch6","pattern_feedback","null","<p style=""font-size:30px;color:red;"">Wrong.</p>","null","","","","","","","","","","","","","","","","","","","","","","","","","",""
"","","","","","html-button-response","144","520793","0.0-3.0-4.0","5eeaa065c7acf61c4322f6d9","F1","batch6","pattern_enter_official_trials","3353.7000000011176","<p class=block-text> Good job! You are done with practice trials!<br>
        You responded correctly on 40% of the trials.<br>
        Press the button below to start official trials. Now you won't see any feedback about your response</p>","0","","","","","","","","","","","","","","","","","","","","","","","","","",""
"","","","","","html-keyboard-response","145","521609","0.0-3.0-5.0-0.0","5eeaa065c7acf61c4322f6d9","F1","batch6","pattern_show_trial_num","null","<p class=block-text>Trial 1 out of 78</p>","null","","","","","","","","","","","","","","","","","","","","","","","","","",""
"","","","","","image-keyboard-response","146","522437","0.0-3.0-5.0-1.0","5eeaa065c7acf61c4322f6d9","F1","batch6","pattern_response","826.7000000011176","stim/no_49_2_b.png","f","pattern_29","j","false","","","","826.7000000011176","false","0","","","","","","","","","","","","","","","","",""
"","","","","","html-keyboard-response","147","523750","0.0-3.0-5.0-0.1","5eeaa065c7acf61c4322f6d9","F1","batch6","pattern_show_trial_num","null","<p class=block-text>Trial 2 out of 78</p>","null","","","","","","","","","","","","","","","","","","","","","","","","","",""
"","","","","","image-keyboard-response","148","525077","0.0-3.0-5.0-1.1","5eeaa065c7acf61c4322f6d9","F1","batch6","pattern_response","1326.0999999996275","stim/no_30_1_b.png","f","pattern_13","j","false","","","","1326.0999999996275","false","0","","","","","","","","","","","","","","","","",""
"","","","","","html-keyboard-response","149","526391","0.0-3.0-5.0-0.2","5eeaa065c7acf61c4322f6d9","F1","batch6","pattern_show_trial_num","null","<p class=block-text>Trial 3 out of 78</p>","null","","","","","","","","","","","","","","","","","","","","","","","","","",""
"","","","","","image-keyboard-response","150","529800","0.0-3.0-5.0-1.2","5eeaa065c7acf61c4322f6d9","F1","batch6","pattern_response","3408.4000000003725","stim/no_53_1_b.png","f","pattern_33","j","false","","","","3408.4000000003725","false","0","","","","","","","","","","","","","","","","",""
"","","","","","html-keyboard-response","151","531125","0.0-3.0-5.0-0.3","5eeaa065c7acf61c4322f6d9","F1","batch6","pattern_show_trial_num","null","<p class=block-text>Trial 4 out of 78</p>","null","","","","","","","","","","","","","","","","","","","","","","","","","",""
"","","","","","image-keyboard-response","152","531900","0.0-3.0-5.0-1.3","5eeaa065c7acf61c4322f6d9","F1","batch6","pattern_response","774.5","stim/yes_29_hor_b1_b.png","f","pattern_52","f","true","","","","774.5","true","1","","","","","","","","","","","","","","","","",""
"","","","","","html-keyboard-response","153","533219","0.0-3.0-5.0-0.4","5eeaa065c7acf61c4322f6d9","F1","batch6","pattern_show_trial_num","null","<p class=block-text>Trial 5 out of 78</p>","null","","","","","","","","","","","","","","","","","","","","","","","","","",""
"","","","","","image-keyboard-response","154","534569","0.0-3.0-5.0-1.4","5eeaa065c7acf61c4322f6d9","F1","batch6","pattern_response","1349.7999999988824","stim/no_15_1_w.png","j","pattern_03","j","true","","","","1349.7999999988824","true","2","","","","","","","","","","","","","","","","",""
"","","","","","html-keyboard-response","155","535890","0.0-3.0-5.0-0.5","5eeaa065c7acf61c4322f6d9","F1","batch6","pattern_show_trial_num","null","<p class=block-text>Trial 6 out of 78</p>","null","","","","","","","","","","","","","","","","","","","","","","","","","",""
"","","","","","image-keyboard-response","156","536795","0.0-3.0-5.0-1.5","5eeaa065c7acf61c4322f6d9","F1","batch6","pattern_response","904.1999999992549","stim/yes_23_ver_b1.png","f","pattern_48","f","true","","","","904.1999999992549","true","3","","","","","","","","","","","","","","","","",""
"","","","","","html-keyboard-response","157","538110","0.0-3.0-5.0-0.6","5eeaa065c7acf61c4322f6d9","F1","batch6","pattern_show_trial_num","null","<p class=block-text>Trial 7 out of 78</p>","null","","","","","","","","","","","","","","","","","","","","","","","","","",""
"","","","","","image-keyboard-response","158","539571","0.0-3.0-5.0-1.6","5eeaa065c7acf61c4322f6d9","F1","batch6","pattern_response","1460.5999999996275","stim/no_51_1.png","j","pattern_31","j","true","","","","1460.5999999996275","true","4","","","","","","","","","","","","","","","","",""
"","","","","","html-keyboard-response","159","540890","0.0-3.0-5.0-0.7","5eeaa065c7acf61c4322f6d9","F1","batch6","pattern_show_trial_num","null","<p class=block-text>Trial 8 out of 78</p>","null","","","","","","","","","","","","","","","","","","","","","","","","","",""
"","","","","","image-keyboard-response","160","543198","0.0-3.0-5.0-1.7","5eeaa065c7acf61c4322f6d9","F1","batch6","pattern_response","2307.2999999988824","stim/yes_33_dia_w1_w.png","j","pattern_56","f","false","","","","2307.2999999988824","false","4","","","","","","","","","","","","","","","","",""
"","","","","","html-keyboard-response","161","544517","0.0-3.0-5.0-0.8","5eeaa065c7acf61c4322f6d9","F1","batch6","pattern_show_trial_num","null","<p class=block-text>Trial 9 out of 78</p>","null","","","","","","","","","","","","","","","","","","","","","","","","","",""
"","","","","","image-keyboard-response","162","545393","0.0-3.0-5.0-1.8","5eeaa065c7acf61c4322f6d9","F1","batch6","pattern_response","874.7000000011176","stim/no_67_1.png","f","pattern_39","j","false","","","","874.7000000011176","false","4","","","","","","","","","","","","","","","","",""
"","","","","","html-keyboard-response","163","546719","0.0-3.0-5.0-0.9","5eeaa065c7acf61c4322f6d9","F1","batch6","pattern_show_trial_num","null","<p class=block-text>Trial 10 out of 78</p>","null","","","","","","","","","","","","","","","","","","","","","","","","","",""
"","","","","","image-keyboard-response","164","548670","0.0-3.0-5.0-1.9","5eeaa065c7acf61c4322f6d9","F1","batch6","pattern_response","1950.5","stim/yes_49_hor_w1_b.png","f","pattern_70","f","true","","","","1950.5","true","5","","","","","","","","","","","","","","","","",""
"","","","","","html-keyboard-response","165","549985","0.0-3.0-5.0-0.10","5eeaa065c7acf61c4322f6d9","F1","batch6","pattern_show_trial_num","null","<p class=block-text>Trial 11 out of 78</p>","null","","","","","","","","","","","","","","","","","","","","","","","","","",""
"","","","","","image-keyboard-response","166","551513","0.0-3.0-5.0-1.10","5eeaa065c7acf61c4322f6d9","F1","batch6","pattern_response","1527.0999999996275","stim/no_12_1.png","j","pattern_01","j","true","","","","1527.0999999996275","true","6","","","","","","","","","","","","","","","","",""
"","","","","","html-keyboard-response","167","552829","0.0-3.0-5.0-0.11","5eeaa065c7acf61c4322f6d9","F1","batch6","pattern_show_trial_num","null","<p class=block-text>Trial 12 out of 78</p>","null","","","","","","","","","","","","","","","","","","","","","","","","","",""
"","","","","","image-keyboard-response","168","553409","0.0-3.0-5.0-1.11","5eeaa065c7acf61c4322f6d9","F1","batch6","pattern_response","579.8000000007451","stim/no_33_1_b.png","f","pattern_15","j","false","","","","579.8000000007451","false","6","","","","","","","","","","","","","","","","",""
"","","","","","html-keyboard-response","169","554736","0.0-3.0-5.0-0.12","5eeaa065c7acf61c4322f6d9","F1","batch6","pattern_show_trial_num","null","<p class=block-text>Trial 13 out of 78</p>","null","","","","","","","","","","","","","","","","","","","","","","","","","",""
"","","","","","image-keyboard-response","170","555758","0.0-3.0-5.0-1.12","5eeaa065c7acf61c4322f6d9","F1","batch6","pattern_response","1021.5999999996275","stim/yes_17_ver_b1_b.png","f","pattern_46","f","true","","","","1021.5999999996275","true","7","","","","","","","","","","","","","","","","",""
"","","","","","html-keyboard-response","171","557078","0.0-3.0-5.0-0.13","5eeaa065c7acf61c4322f6d9","F1","batch6","pattern_show_trial_num","null","<p class=block-text>Trial 14 out of 78</p>","null","","","","","","","","","","","","","","","","","","","","","","","","","",""
"","","","","","image-keyboard-response","172","558636","0.0-3.0-5.0-1.13","5eeaa065c7acf61c4322f6d9","F1","batch6","pattern_response","1557.300000000745","stim/no_25_1_b.png","j","pattern_09","j","true","","","","1557.300000000745","true","8","","","","","","","","","","","","","","","","",""
"","","","","","html-keyboard-response","173","559954","0.0-3.0-5.0-0.14","5eeaa065c7acf61c4322f6d9","F1","batch6","pattern_show_trial_num","null","<p class=block-text>Trial 15 out of 78</p>","null","","","","","","","","","","","","","","","","","","","","","","","","","",""
"","","","","","image-keyboard-response","174","560593","0.0-3.0-5.0-1.14","5eeaa065c7acf61c4322f6d9","F1","batch6","pattern_response","638.5999999996275","stim/yes_15_dia_b1u_b.png","f","pattern_44","f","true","","","","638.5999999996275","true","9","","","","","","","","","","","","","","","","",""
"","","","","","html-keyboard-response","175","561908","0.0-3.0-5.0-0.15","5eeaa065c7acf61c4322f6d9","F1","batch6","pattern_show_trial_num","null","<p class=block-text>Trial 16 out of 78</p>","null","","","","","","","","","","","","","","","","","","","","","","","","","",""
"","","","","","image-keyboard-response","176","563132","0.0-3.0-5.0-1.15","5eeaa065c7acf61c4322f6d9","F1","batch6","pattern_response","1223.5","stim/no_36_1_b.png","f","pattern_17","j","false","","","","1223.5","false","9","","","","","","","","","","","","","","","","",""
"","","","","","html-keyboard-response","177","564453","0.0-3.0-5.0-0.16","5eeaa065c7acf61c4322f6d9","F1","batch6","pattern_show_trial_num","null","<p class=block-text>Trial 17 out of 78</p>","null","","","","","","","","","","","","","","","","","","","","","","","","","",""
"","","","","","image-keyboard-response","178","565218","0.0-3.0-5.0-1.16","5eeaa065c7acf61c4322f6d9","F1","batch6","pattern_response","764.2999999988824","stim/yes_53_ver_b1_b.png","f","pattern_74","f","true","","","","764.2999999988824","true","10","","","","","","","","","","","","","","","","",""
"","","","","","html-keyboard-response","179","566531","0.0-3.0-5.0-0.17","5eeaa065c7acf61c4322f6d9","F1","batch6","pattern_show_trial_num","null","<p class=block-text>Trial 18 out of 78</p>","null","","","","","","","","","","","","","","","","","","","","","","","","","",""
"","","","","","image-keyboard-response","180","567933","0.0-3.0-5.0-1.17","5eeaa065c7acf61c4322f6d9","F1","batch6","pattern_response","1401","stim/no_47_1_b.png","f","pattern_27","j","false","","","","1401","false","10","","","","","","","","","","","","","","","","",""
"","","","","","html-keyboard-response","181","569250","0.0-3.0-5.0-0.18","5eeaa065c7acf61c4322f6d9","F1","batch6","pattern_show_trial_num","null","<p class=block-text>Trial 19 out of 78</p>","null","","","","","","","","","","","","","","","","","","","","","","","","","",""
"","","","","","image-keyboard-response","182","570334","0.0-3.0-5.0-1.18","5eeaa065c7acf61c4322f6d9","F1","batch6","pattern_response","1083.199999999255","stim/yes_37_hor_w1_w.png","j","pattern_60","f","false","","","","1083.199999999255","false","10","","","","","","","","","","","","","","","","",""
"","","","","","html-keyboard-response","183","571659","0.0-3.0-5.0-0.19","5eeaa065c7acf61c4322f6d9","F1","batch6","pattern_show_trial_num","null","<p class=block-text>Trial 20 out of 78</p>","null","","","","","","","","","","","","","","","","","","","","","","","","","",""
"","","","","","image-keyboard-response","184","572584","0.0-3.0-5.0-1.19","5eeaa065c7acf61c4322f6d9","F1","batch6","pattern_response","924","stim/yes_39_hor_w1_w.png","j","pattern_62","f","false","","","","924","false","10","","","","","","","","","","","","","","","","",""
"","","","","","html-keyboard-response","185","573906","0.0-3.0-5.0-0.20","5eeaa065c7acf61c4322f6d9","F1","batch6","pattern_show_trial_num","null","<p class=block-text>Trial 21 out of 78</p>","null","","","","","","","","","","","","","","","","","","","","","","","","","",""
"","","","","","image-keyboard-response","186","574630","0.0-3.0-5.0-1.20","5eeaa065c7acf61c4322f6d9","F1","batch6","pattern_response","723","stim/yes_12_hor_w1_w.png","j","pattern_42","f","false","","","","723","false","10","","","","","","","","","","","","","","","","",""
"","","","","","html-keyboard-response","187","575953","0.0-3.0-5.0-0.21","5eeaa065c7acf61c4322f6d9","F1","batch6","pattern_show_trial_num","null","<p class=block-text>Trial 22 out of 78</p>","null","","","","","","","","","","","","","","","","","","","","","","","","","",""
"","","","","","image-keyboard-response","188","577752","0.0-3.0-5.0-1.21","5eeaa065c7acf61c4322f6d9","F1","batch6","pattern_response","1798.4000000003725","stim/no_43_2_b.png","f","pattern_23","j","false","","","","1798.4000000003725","false","10","","","","","","","","","","","","","","","","",""
"","","","","","html-keyboard-response","189","579080","0.0-3.0-5.0-0.22","5eeaa065c7acf61c4322f6d9","F1","batch6","pattern_show_trial_num","null","<p class=block-text>Trial 23 out of 78</p>","null","","","","","","","","","","","","","","","","","","","","","","","","","",""
"","","","","","image-keyboard-response","190","580368","0.0-3.0-5.0-1.22","5eeaa065c7acf61c4322f6d9","F1","batch6","pattern_response","1287.6000000014901","stim/yes_44_ver_w1_w.png","j","pattern_66","f","false","","","","1287.6000000014901","false","10","","","","","","","","","","","","","","","","",""
"","","","","","html-keyboard-response","191","581688","0.0-3.0-5.0-0.23","5eeaa065c7acf61c4322f6d9","F1","batch6","pattern_show_trial_num","null","<p class=block-text>Trial 24 out of 78</p>","null","","","","","","","","","","","","","","","","","","","","","","","","","",""
"","","","","","image-keyboard-response","192","582593","0.0-3.0-5.0-1.23","5eeaa065c7acf61c4322f6d9","F1","batch6","pattern_response","905.1000000014901","stim/no_58_1_w.png","f","pattern_35","j","false","","","","905.1000000014901","false","10","","","","","","","","","","","","","","","","",""
"","","","","","html-keyboard-response","193","583906","0.0-3.0-5.0-0.24","5eeaa065c7acf61c4322f6d9","F1","batch6","pattern_show_trial_num","null","<p class=block-text>Trial 25 out of 78</p>","null","","","","","","","","","","","","","","","","","","","","","","","","","",""
"","","","","","image-keyboard-response","194","584554","0.0-3.0-5.0-1.24","5eeaa065c7acf61c4322f6d9","F1","batch6","pattern_response","647.7999999988824","stim/yes_46_ver_b1_b.png","f","pattern_68","f","true","","","","647.7999999988824","true","11","","","","","","","","","","","","","","","","",""
"","","","","","html-keyboard-response","195","585876","0.0-3.0-5.0-0.25","5eeaa065c7acf61c4322f6d9","F1","batch6","pattern_show_trial_num","null","<p class=block-text>Trial 26 out of 78</p>","null","","","","","","","","","","","","","","","","","","","","","","","","","",""
"","","","","","image-keyboard-response","196","586618","0.0-3.0-5.0-1.25","5eeaa065c7acf61c4322f6d9","F1","batch6","pattern_response","740.5999999996275","stim/no_45_1_w.png","j","pattern_25","j","true","","","","740.5999999996275","true","12","","","","","","","","","","","","","","","","",""
"","","","","","html-keyboard-response","197","587938","0.0-3.0-5.0-0.26","5eeaa065c7acf61c4322f6d9","F1","batch6","pattern_show_trial_num","null","<p class=block-text>Trial 27 out of 78</p>","null","","","","","","","","","","","","","","","","","","","","","","","","","",""
"","","","","","image-keyboard-response","198","589154","0.0-3.0-5.0-1.26","5eeaa065c7acf61c4322f6d9","F1","batch6","pattern_response","1215","stim/yes_30_ver_b1_b.png","f","pattern_54","f","true","","","","1215","true","13","","","","","","","","","","","","","","","","",""
"","","","","","html-keyboard-response","199","590470","0.0-3.0-5.0-0.27","5eeaa065c7acf61c4322f6d9","F1","batch6","pattern_show_trial_num","null","<p class=block-text>Trial 28 out of 78</p>","null","","","","","","","","","","","","","","","","","","","","","","","","","",""
"","","","","","image-keyboard-response","200","591286","0.0-3.0-5.0-1.27","5eeaa065c7acf61c4322f6d9","F1","batch6","pattern_response","814.6999999992549","stim/yes_63_dia_b1.png","f","pattern_78","f","true","","","","814.6999999992549","true","14","","","","","","","","","","","","","","","","",""
"","","","","","html-keyboard-response","201","592610","0.0-3.0-5.0-0.28","5eeaa065c7acf61c4322f6d9","F1","batch6","pattern_show_trial_num","null","<p class=block-text>Trial 29 out of 78</p>","null","","","","","","","","","","","","","","","","","","","","","","","","","",""
"","","","","","image-keyboard-response","202","593907","0.0-3.0-5.0-1.28","5eeaa065c7acf61c4322f6d9","F1","batch6","pattern_response","1296.300000000745","stim/yes_42_dia_w1_w.png","j","pattern_64","f","false","","","","1296.300000000745","false","14","","","","","","","","","","","","","","","","",""
"","","","","","html-keyboard-response","203","595219","0.0-3.0-5.0-0.29","5eeaa065c7acf61c4322f6d9","F1","batch6","pattern_show_trial_num","null","<p class=block-text>Trial 30 out of 78</p>","null","","","","","","","","","","","","","","","","","","","","","","","","","",""
"","","","","","image-keyboard-response","204","596087","0.0-3.0-5.0-1.29","5eeaa065c7acf61c4322f6d9","F1","batch6","pattern_response","867.1000000014901","stim/no_37_2_w.png","j","pattern_19","j","true","","","","867.1000000014901","true","15","","","","","","","","","","","","","","","","",""
"","","","","","html-keyboard-response","205","597407","0.0-3.0-5.0-0.30","5eeaa065c7acf61c4322f6d9","F1","batch6","pattern_show_trial_num","null","<p class=block-text>Trial 31 out of 78</p>","null","","","","","","","","","","","","","","","","","","","","","","","","","",""
"","","","","","image-keyboard-response","206","598625","0.0-3.0-5.0-1.30","5eeaa065c7acf61c4322f6d9","F1","batch6","pattern_response","1217.3999999985099","stim/yes_51_dia_b1.png","f","pattern_72","f","true","","","","1217.3999999985099","true","16","","","","","","","","","","","","","","","","",""
"","","","","","html-keyboard-response","207","599938","0.0-3.0-5.0-0.31","5eeaa065c7acf61c4322f6d9","F1","batch6","pattern_show_trial_num","null","<p class=block-text>Trial 32 out of 78</p>","null","","","","","","","","","","","","","","","","","","","","","","","","","",""
"","","","","","image-keyboard-response","208","600648","0.0-3.0-5.0-1.31","5eeaa065c7acf61c4322f6d9","F1","batch6","pattern_response","709.3000000007451","stim/yes_36_ver_w1_w.png","j","pattern_58","f","false","","","","709.3000000007451","false","16","","","","","","","","","","","","","","","","",""
"","","","","","html-keyboard-response","209","601969","0.0-3.0-5.0-0.32","5eeaa065c7acf61c4322f6d9","F1","batch6","pattern_show_trial_num","null","<p class=block-text>Trial 33 out of 78</p>","null","","","","","","","","","","","","","","","","","","","","","","","","","",""
"","","","","","image-keyboard-response","210","602588","0.0-3.0-5.0-1.32","5eeaa065c7acf61c4322f6d9","F1","batch6","pattern_response","617.5999999996275","stim/no_18_1_b.png","j","pattern_05","j","true","","","","617.5999999996275","true","17","","","","","","","","","","","","","","","","",""
"","","","","","html-keyboard-response","211","603906","0.0-3.0-5.0-0.33","5eeaa065c7acf61c4322f6d9","F1","batch6","pattern_show_trial_num","null","<p class=block-text>Trial 34 out of 78</p>","null","","","","","","","","","","","","","","","","","","","","","","","","","",""
"","","","","","image-keyboard-response","212","604513","0.0-3.0-5.0-1.33","5eeaa065c7acf61c4322f6d9","F1","batch6","pattern_response","605.7999999988824","stim/no_28_2.png","f","pattern_11","j","false","","","","605.7999999988824","false","17","","","","","","","","","","","","","","","","",""
"","","","","","html-keyboard-response","213","605829","0.0-3.0-5.0-0.34","5eeaa065c7acf61c4322f6d9","F1","batch6","pattern_show_trial_num","null","<p class=block-text>Trial 35 out of 78</p>","null","","","","","","","","","","","","","","","","","","","","","","","","","",""
"","","","","","image-keyboard-response","214","606486","0.0-3.0-5.0-1.34","5eeaa065c7acf61c4322f6d9","F1","batch6","pattern_response","656.8000000007451","stim/yes_26_dia_w2_w.png","j","pattern_50","f","false","","","","656.8000000007451","false","17","","","","","","","","","","","","","","","","",""
"","","","","","html-keyboard-response","215","607797","0.0-3.0-5.0-0.35","5eeaa065c7acf61c4322f6d9","F1","batch6","pattern_show_trial_num","null","<p class=block-text>Trial 36 out of 78</p>","null","","","","","","","","","","","","","","","","","","","","","","","","","",""
"","","","","","image-keyboard-response","216","608721","0.0-3.0-5.0-1.35","5eeaa065c7acf61c4322f6d9","F1","batch6","pattern_response","923.2999999988824","stim/no_39_1_w.png","j","pattern_21","j","true","","","","923.2999999988824","true","18","","","","","","","","","","","","","","","","",""
"","","","","","html-keyboard-response","217","610032","0.0-3.0-5.0-0.36","5eeaa065c7acf61c4322f6d9","F1","batch6","pattern_show_trial_num","null","<p class=block-text>Trial 37 out of 78</p>","null","","","","","","","","","","","","","","","","","","","","","","","","","",""
"","","","","","image-keyboard-response","218","610854","0.0-3.0-5.0-1.36","5eeaa065c7acf61c4322f6d9","F1","batch6","pattern_response","821","stim/yes_70_ver_b1.png","f","pattern_80","f","true","","","","821","true","19","","","","","","","","","","","","","","","","",""
"","","","","","html-keyboard-response","219","612171","0.0-3.0-5.0-0.37","5eeaa065c7acf61c4322f6d9","F1","batch6","pattern_show_trial_num","null","<p class=block-text>Trial 38 out of 78</p>","null","","","","","","","","","","","","","","","","","","","","","","","","","",""
"","","","","","image-keyboard-response","220","612935","0.0-3.0-5.0-1.37","5eeaa065c7acf61c4322f6d9","F1","batch6","pattern_response","763.7000000011176","stim/no_22_1_b.png","j","pattern_07","j","true","","","","763.7000000011176","true","20","","","","","","","","","","","","","","","","",""
"","","","","","html-keyboard-response","221","614252","0.0-3.0-5.0-0.38","5eeaa065c7acf61c4322f6d9","F1","batch6","pattern_show_trial_num","null","<p class=block-text>Trial 39 out of 78</p>","null","","","","","","","","","","","","","","","","","","","","","","","","","",""
"","","","","","image-keyboard-response","222","615522","0.0-3.0-5.0-1.38","5eeaa065c7acf61c4322f6d9","F1","batch6","pattern_response","1269.9000000003725","stim/yes_58_dia_w1_w.png","j","pattern_76","f","false","","","","1269.9000000003725","false","20","","","","","","","","","","","","","","","","",""
"","","","","","image-keyboard-response","223","618303","0.0-3.0-6.0","5eeaa065c7acf61c4322f6d9","F1","batch6","attention_check","2267.300000000745","stim/empty_board.png","j","","j","true","","","","","","","500","[""f"",""j""]","","","","","","","","","","","","","","",""
"","","","","","html-keyboard-response","224","619111","0.0-3.0-7.0-0.0","5eeaa065c7acf61c4322f6d9","F1","batch6","pattern_show_trial_num","null","<p class=block-text>Trial 40 out of 78</p>","null","","","","","","","","","","","","","","","","","","","","","","","","","",""
"","","","","","image-keyboard-response","225","620203","0.0-3.0-7.0-1.0","5eeaa065c7acf61c4322f6d9","F1","batch6","pattern_response","1091","stim/no_13_2_b.png","f","pattern_02","j","false","","","","1091","false","20","","","","","","","","","","","","","","","","",""
"","","","","","html-keyboard-response","226","621518","0.0-3.0-7.0-0.1","5eeaa065c7acf61c4322f6d9","F1","batch6","pattern_show_trial_num","null","<p class=block-text>Trial 41 out of 78</p>","null","","","","","","","","","","","","","","","","","","","","","","","","","",""
"","","","","","image-keyboard-response","227","622541","0.0-3.0-7.0-1.1","5eeaa065c7acf61c4322f6d9","F1","batch6","pattern_response","1021.9000000003725","stim/no_17_1_w.png","j","pattern_04","j","true","","","","1021.9000000003725","true","21","","","","","","","","","","","","","","","","",""
"","","","","","html-keyboard-response","228","623860","0.0-3.0-7.0-0.2","5eeaa065c7acf61c4322f6d9","F1","batch6","pattern_show_trial_num","null","<p class=block-text>Trial 42 out of 78</p>","null","","","","","","","","","","","","","","","","","","","","","","","","","",""
"","","","","","image-keyboard-response","229","624477","0.0-3.0-7.0-1.2","5eeaa065c7acf61c4322f6d9","F1","batch6","pattern_response","616.4000000003725","stim/no_32_1_w.png","j","pattern_14","j","true","","","","616.4000000003725","true","22","","","","","","","","","","","","","","","","",""
"","","","","","html-keyboard-response","230","625798","0.0-3.0-7.0-0.3","5eeaa065c7acf61c4322f6d9","F1","batch6","pattern_show_trial_num","null","<p class=block-text>Trial 43 out of 78</p>","null","","","","","","","","","","","","","","","","","","","","","","","","","",""
"","","","","","image-keyboard-response","231","626334","0.0-3.0-7.0-1.3","5eeaa065c7acf61c4322f6d9","F1","batch6","pattern_response","536.2000000011176","stim/yes_40_dia_b1_b.png","j","pattern_63","f","false","","","","536.2000000011176","false","22","","","","","","","","","","","","","","","","",""
"","","","","","html-keyboard-response","232","627658","0.0-3.0-7.0-0.4","5eeaa065c7acf61c4322f6d9","F1","batch6","pattern_show_trial_num","null","<p class=block-text>Trial 44 out of 78</p>","null","","","","","","","","","","","","","","","","","","","","","","","","","",""
"","","","","","image-keyboard-response","233","628757","0.0-3.0-7.0-1.4","5eeaa065c7acf61c4322f6d9","F1","batch6","pattern_response","1099.0999999996275","stim/yes_55_hor_w1_w.png","f","pattern_75","f","true","","","","1099.0999999996275","true","23","","","","","","","","","","","","","","","","",""
"","","","","","html-keyboard-response","234","630078","0.0-3.0-7.0-0.5","5eeaa065c7acf61c4322f6d9","F1","batch6","pattern_show_trial_num","null","<p class=block-text>Trial 45 out of 78</p>","null","","","","","","","","","","","","","","","","","","","","","","","","","",""
"","","","","","image-keyboard-response","235","630676","0.0-3.0-7.0-1.5","5eeaa065c7acf61c4322f6d9","F1","batch6","pattern_response","597.4000000022352","stim/yes_45_hor_b2_b.png","f","pattern_67","f","true","","","","597.4000000022352","true","24","","","","","","","","","","","","","","","","",""
"","","","","","html-keyboard-response","236","632000","0.0-3.0-7.0-0.6","5eeaa065c7acf61c4322f6d9","F1","batch6","pattern_show_trial_num","null","<p class=block-text>Trial 46 out of 78</p>","null","","","","","","","","","","","","","","","","","","","","","","","","","",""
"","","","","","image-keyboard-response","237","632717","0.0-3.0-7.0-1.6","5eeaa065c7acf61c4322f6d9","F1","batch6","pattern_response","716","stim/no_52_1.png","j","pattern_32","j","true","","","","716","true","25","","","","","","","","","","","","","","","","",""
"","","","","","html-keyboard-response","238","634032","0.0-3.0-7.0-0.7","5eeaa065c7acf61c4322f6d9","F1","batch6","pattern_show_trial_num","null","<p class=block-text>Trial 47 out of 78</p>","null","","","","","","","","","","","","","","","","","","","","","","","","","",""
"","","","","","image-keyboard-response","239","634758","0.0-3.0-7.0-1.7","5eeaa065c7acf61c4322f6d9","F1","batch6","pattern_response","725.6999999992549","stim/yes_29_ver_w1.png","j","pattern_53","f","false","","","","725.6999999992549","false","25","","","","","","","","","","","","","","","","",""
"","","","","","html-keyboard-response","240","636078","0.0-3.0-7.0-0.8","5eeaa065c7acf61c4322f6d9","F1","batch6","pattern_show_trial_num","null","<p class=block-text>Trial 48 out of 78</p>","null","","","","","","","","","","","","","","","","","","","","","","","","","",""
"","","","","","image-keyboard-response","241","637745","0.0-3.0-7.0-1.8","5eeaa065c7acf61c4322f6d9","F1","batch6","pattern_response","1666.300000000745","stim/no_70_2.png","j","pattern_40","j","true","","","","1666.300000000745","true","26","","","","","","","","","","","","","","","","",""
"","","","","","html-keyboard-response","242","639063","0.0-3.0-7.0-0.9","5eeaa065c7acf61c4322f6d9","F1","batch6","pattern_show_trial_num","null","<p class=block-text>Trial 49 out of 78</p>","null","","","","","","","","","","","","","","","","","","","","","","","","","",""
"","","","","","image-keyboard-response","243","640067","0.0-3.0-7.0-1.9","5eeaa065c7acf61c4322f6d9","F1","batch6","pattern_response","1002.5","stim/yes_38_hor_b1_b.png","f","pattern_61","f","true","","","","1002.5","true","27","","","","","","","","","","","","","","","","",""
"","","","","","html-keyboard-response","244","641391","0.0-3.0-7.0-0.10","5eeaa065c7acf61c4322f6d9","F1","batch6","pattern_show_trial_num","null","<p class=block-text>Trial 50 out of 78</p>","null","","","","","","","","","","","","","","","","","","","","","","","","","",""
"","","","","","image-keyboard-response","245","642776","0.0-3.0-7.0-1.10","5eeaa065c7acf61c4322f6d9","F1","batch6","pattern_response","1384.7999999970198","stim/no_46_1_b.png","j","pattern_26","j","true","","","","1384.7999999970198","true","28","","","","","","","","","","","","","","","","",""
"","","","","","html-keyboard-response","246","644095","0.0-3.0-7.0-0.11","5eeaa065c7acf61c4322f6d9","F1","batch6","pattern_show_trial_num","null","<p class=block-text>Trial 51 out of 78</p>","null","","","","","","","","","","","","","","","","","","","","","","","","","",""
"","","","","","image-keyboard-response","247","645611","0.0-3.0-7.0-1.11","5eeaa065c7acf61c4322f6d9","F1","batch6","pattern_response","1515.9000000022352","stim/no_65_1_b.png","f","pattern_38","j","false","","","","1515.9000000022352","false","28","","","","","","","","","","","","","","","","",""
"","","","","","html-keyboard-response","248","646939","0.0-3.0-7.0-0.12","5eeaa065c7acf61c4322f6d9","F1","batch6","pattern_show_trial_num","null","<p class=block-text>Trial 52 out of 78</p>","null","","","","","","","","","","","","","","","","","","","","","","","","","",""
"","","","","","image-keyboard-response","249","648290","0.0-3.0-7.0-1.12","5eeaa065c7acf61c4322f6d9","F1","batch6","pattern_response","1349.6000000014901","stim/yes_67_hor_b1.png","f","pattern_79","f","true","","","","1349.6000000014901","true","29","","","","","","","","","","","","","","","","",""
"","","","","","html-keyboard-response","250","649610","0.0-3.0-7.0-0.13","5eeaa065c7acf61c4322f6d9","F1","batch6","pattern_show_trial_num","null","<p class=block-text>Trial 53 out of 78</p>","null","","","","","","","","","","","","","","","","","","","","","","","","","",""
"","","","","","image-keyboard-response","251","650373","0.0-3.0-7.0-1.13","5eeaa065c7acf61c4322f6d9","F1","batch6","pattern_response","762.5999999977648","stim/no_29_1_b.png","j","pattern_12","j","true","","","","762.5999999977648","true","30","","","","","","","","","","","","","","","","",""
"","","","","","html-keyboard-response","252","651689","0.0-3.0-7.0-0.14","5eeaa065c7acf61c4322f6d9","F1","batch6","pattern_show_trial_num","null","<p class=block-text>Trial 54 out of 78</p>","null","","","","","","","","","","","","","","","","","","","","","","","","","",""
"","","","","","image-keyboard-response","253","652526","0.0-3.0-7.0-1.14","5eeaa065c7acf61c4322f6d9","F1","batch6","pattern_response","837","stim/yes_17_dia_w1.png","j","pattern_45","f","false","","","","837","false","30","","","","","","","","","","","","","","","","",""
"","","","","","html-keyboard-response","254","653845","0.0-3.0-7.0-0.15","5eeaa065c7acf61c4322f6d9","F1","batch6","pattern_show_trial_num","null","<p class=block-text>Trial 55 out of 78</p>","null","","","","","","","","","","","","","","","","","","","","","","","","","",""
"","","","","","image-keyboard-response","255","656136","0.0-3.0-7.0-1.15","5eeaa065c7acf61c4322f6d9","F1","batch6","pattern_response","2290.39999999851","stim/no_36_2_w.png","j","pattern_18","j","true","","","","2290.39999999851","true","31","","","","","","","","","","","","","","","","",""
"","","","","","html-keyboard-response","256","657454","0.0-3.0-7.0-0.16","5eeaa065c7acf61c4322f6d9","F1","batch6","pattern_show_trial_num","null","<p class=block-text>Trial 56 out of 78</p>","null","","","","","","","","","","","","","","","","","","","","","","","","","",""
"","","","","","image-keyboard-response","257","658172","0.0-3.0-7.0-1.16","5eeaa065c7acf61c4322f6d9","F1","batch6","pattern_response","716.9000000022352","stim/yes_25_hor_b1_b.png","f","pattern_49","f","true","","","","716.9000000022352","true","32","","","","","","","","","","","","","","","","",""
"","","","","","html-keyboard-response","258","659487","0.0-3.0-7.0-0.17","5eeaa065c7acf61c4322f6d9","F1","batch6","pattern_show_trial_num","null","<p class=block-text>Trial 57 out of 78</p>","null","","","","","","","","","","","","","","","","","","","","","","","","","",""
"","","","","","image-keyboard-response","259","661512","0.0-3.0-7.0-1.17","5eeaa065c7acf61c4322f6d9","F1","batch6","pattern_response","2024.300000000745","stim/no_34_1_b.png","j","pattern_16","j","true","","","","2024.300000000745","true","33","","","","","","","","","","","","","","","","",""
"","","","","","html-keyboard-response","260","662831","0.0-3.0-7.0-0.18","5eeaa065c7acf61c4322f6d9","F1","batch6","pattern_show_trial_num","null","<p class=block-text>Trial 58 out of 78</p>","null","","","","","","","","","","","","","","","","","","","","","","","","","",""
"","","","","","image-keyboard-response","261","665389","0.0-3.0-7.0-1.18","5eeaa065c7acf61c4322f6d9","F1","batch6","pattern_response","2557.300000000745","stim/no_62_1_w.png","f","pattern_36","j","false","","","","2557.300000000745","false","33","","","","","","","","","","","","","","","","",""
"","","","","","html-keyboard-response","262","666704","0.0-3.0-7.0-0.19","5eeaa065c7acf61c4322f6d9","F1","batch6","pattern_show_trial_num","null","<p class=block-text>Trial 59 out of 78</p>","null","","","","","","","","","","","","","","","","","","","","","","","","","",""
"","","","","","image-keyboard-response","263","668152","0.0-3.0-7.0-1.19","5eeaa065c7acf61c4322f6d9","F1","batch6","pattern_response","1446.6000000014901","stim/yes_31_hor_b1.png","f","pattern_55","f","true","","","","1446.6000000014901","true","34","","","","","","","","","","","","","","","","",""
"","","","","","html-keyboard-response","264","669470","0.0-3.0-7.0-0.20","5eeaa065c7acf61c4322f6d9","F1","batch6","pattern_show_trial_num","null","<p class=block-text>Trial 60 out of 78</p>","null","","","","","","","","","","","","","","","","","","","","","","","","","",""
"","","","","","image-keyboard-response","265","671440","0.0-3.0-7.0-1.20","5eeaa065c7acf61c4322f6d9","F1","batch6","pattern_response","1969","stim/no_55_1_w.png","j","pattern_34","j","true","","","","1969","true","35","","","","","","","","","","","","","","","","",""
"","","","","","html-keyboard-response","266","672766","0.0-3.0-7.0-0.21","5eeaa065c7acf61c4322f6d9","F1","batch6","pattern_show_trial_num","null","<p class=block-text>Trial 61 out of 78</p>","null","","","","","","","","","","","","","","","","","","","","","","","","","",""
"","","","","","image-keyboard-response","267","673383","0.0-3.0-7.0-1.21","5eeaa065c7acf61c4322f6d9","F1","batch6","pattern_response","616.1000000014901","stim/yes_14_hor_b1_w.png","f","pattern_43","f","true","","","","616.1000000014901","true","36","","","","","","","","","","","","","","","","",""
"","","","","","html-keyboard-response","268","674706","0.0-3.0-7.0-0.22","5eeaa065c7acf61c4322f6d9","F1","batch6","pattern_show_trial_num","null","<p class=block-text>Trial 62 out of 78</p>","null","","","","","","","","","","","","","","","","","","","","","","","","","",""
"","","","","","image-keyboard-response","269","676895","0.0-3.0-7.0-1.22","5eeaa065c7acf61c4322f6d9","F1","batch6","pattern_response","2189.199999999255","stim/no_44_1.png","f","pattern_24","j","false","","","","2189.199999999255","false","36","","","","","","","","","","","","","","","","",""
"","","","","","html-keyboard-response","270","678219","0.0-3.0-7.0-0.23","5eeaa065c7acf61c4322f6d9","F1","batch6","pattern_show_trial_num","null","<p class=block-text>Trial 63 out of 78</p>","null","","","","","","","","","","","","","","","","","","","","","","","","","",""
"","","","","","image-keyboard-response","271","679447","0.0-3.0-7.0-1.23","5eeaa065c7acf61c4322f6d9","F1","batch6","pattern_response","1227.5999999977648","stim/no_42_1_w.png","f","pattern_22","j","false","","","","1227.5999999977648","false","36","","","","","","","","","","","","","","","","",""
"","","","","","html-keyboard-response","272","680763","0.0-3.0-7.0-0.24","5eeaa065c7acf61c4322f6d9","F1","batch6","pattern_show_trial_num","null","<p class=block-text>Trial 64 out of 78</p>","null","","","","","","","","","","","","","","","","","","","","","","","","","",""
"","","","","","image-keyboard-response","273","682211","0.0-3.0-7.0-1.24","5eeaa065c7acf61c4322f6d9","F1","batch6","pattern_response","1446.800000000745","stim/no_38_1_b.png","f","pattern_20","j","false","","","","1446.800000000745","false","36","","","","","","","","","","","","","","","","",""
"","","","","","html-keyboard-response","274","683530","0.0-3.0-7.0-0.25","5eeaa065c7acf61c4322f6d9","F1","batch6","pattern_show_trial_num","null","<p class=block-text>Trial 65 out of 78</p>","null","","","","","","","","","","","","","","","","","","","","","","","","","",""
"","","","","","image-keyboard-response","275","684529","0.0-3.0-7.0-1.25","5eeaa065c7acf61c4322f6d9","F1","batch6","pattern_response","998.6000000014901","stim/no_50_1.png","f","pattern_30","j","false","","","","998.6000000014901","false","36","","","","","","","","","","","","","","","","",""
"","","","","","html-keyboard-response","276","685860","0.0-3.0-7.0-0.26","5eeaa065c7acf61c4322f6d9","F1","batch6","pattern_show_trial_num","null","<p class=block-text>Trial 66 out of 78</p>","null","","","","","","","","","","","","","","","","","","","","","","","","","",""
"","","","","","image-keyboard-response","277","686525","0.0-3.0-7.0-1.26","5eeaa065c7acf61c4322f6d9","F1","batch6","pattern_response","663.9000000022352","stim/yes_22_ver_w1.png","j","pattern_47","f","false","","","","663.9000000022352","false","36","","","","","","","","","","","","","","","","",""
"","","","","","html-keyboard-response","278","687843","0.0-3.0-7.0-0.27","5eeaa065c7acf61c4322f6d9","F1","batch6","pattern_show_trial_num","null","<p class=block-text>Trial 67 out of 78</p>","null","","","","","","","","","","","","","","","","","","","","","","","","","",""
"","","","","","image-keyboard-response","279","689584","0.0-3.0-7.0-1.27","5eeaa065c7acf61c4322f6d9","F1","batch6","pattern_response","1739.6000000014901","stim/yes_48_dia_w1_w.png","j","pattern_69","f","false","","","","1739.6000000014901","false","36","","","","","","","","","","","","","","","","",""
"","","","","","html-keyboard-response","280","690908","0.0-3.0-7.0-0.28","5eeaa065c7acf61c4322f6d9","F1","batch6","pattern_show_trial_num","null","<p class=block-text>Trial 68 out of 78</p>","null","","","","","","","","","","","","","","","","","","","","","","","","","",""
"","","","","","image-keyboard-response","281","692319","0.0-3.0-7.0-1.28","5eeaa065c7acf61c4322f6d9","F1","batch6","pattern_response","1410.1000000014901","stim/no_26_1_w.png","j","pattern_10","j","true","","","","1410.1000000014901","true","37","","","","","","","","","","","","","","","","",""
"","","","","","html-keyboard-response","282","693642","0.0-3.0-7.0-0.29","5eeaa065c7acf61c4322f6d9","F1","batch6","pattern_show_trial_num","null","<p class=block-text>Trial 69 out of 78</p>","null","","","","","","","","","","","","","","","","","","","","","","","","","",""
"","","","","","image-keyboard-response","283","694979","0.0-3.0-7.0-1.29","5eeaa065c7acf61c4322f6d9","F1","batch6","pattern_response","1336.699999999255","stim/yes_43_ver_w1_w.png","j","pattern_65","f","false","","","","1336.699999999255","false","37","","","","","","","","","","","","","","","","",""
"","","","","","html-keyboard-response","284","696297","0.0-3.0-7.0-0.30","5eeaa065c7acf61c4322f6d9","F1","batch6","pattern_show_trial_num","null","<p class=block-text>Trial 70 out of 78</p>","null","","","","","","","","","","","","","","","","","","","","","","","","","",""
"","","","","","image-keyboard-response","285","698438","0.0-3.0-7.0-1.30","5eeaa065c7acf61c4322f6d9","F1","batch6","pattern_response","2140.800000000745","stim/yes_52_ver_w1.png","f","pattern_73","f","true","","","","2140.800000000745","true","38","","","","","","","","","","","","","","","","",""
"","","","","","html-keyboard-response","286","699766","0.0-3.0-7.0-0.31","5eeaa065c7acf61c4322f6d9","F1","batch6","pattern_show_trial_num","null","<p class=block-text>Trial 71 out of 78</p>","null","","","","","","","","","","","","","","","","","","","","","","","","","",""
"","","","","","image-keyboard-response","287","700485","0.0-3.0-7.0-1.31","5eeaa065c7acf61c4322f6d9","F1","batch6","pattern_response","717.6999999992549","stim/yes_60_ver_b1_b.png","f","pattern_77","f","true","","","","717.6999999992549","true","39","","","","","","","","","","","","","","","","",""
"","","","","","html-keyboard-response","288","701814","0.0-3.0-7.0-0.32","5eeaa065c7acf61c4322f6d9","F1","batch6","pattern_show_trial_num","null","<p class=block-text>Trial 72 out of 78</p>","null","","","","","","","","","","","","","","","","","","","","","","","","","",""
"","","","","","image-keyboard-response","289","702497","0.0-3.0-7.0-1.32","5eeaa065c7acf61c4322f6d9","F1","batch6","pattern_response","682.6000000014901","stim/yes_28_ver_b1.png","f","pattern_51","f","true","","","","682.6000000014901","true","40","","","","","","","","","","","","","","","","",""
"","","","","","html-keyboard-response","290","703813","0.0-3.0-7.0-0.33","5eeaa065c7acf61c4322f6d9","F1","batch6","pattern_show_trial_num","null","<p class=block-text>Trial 73 out of 78</p>","null","","","","","","","","","","","","","","","","","","","","","","","","","",""
"","","","","","image-keyboard-response","291","705095","0.0-3.0-7.0-1.33","5eeaa065c7acf61c4322f6d9","F1","batch6","pattern_response","1280.8999999985099","stim/yes_50_dia_w1.png","j","pattern_71","f","false","","","","1280.8999999985099","false","40","","","","","","","","","","","","","","","","",""
"","","","","","html-keyboard-response","292","706408","0.0-3.0-7.0-0.34","5eeaa065c7acf61c4322f6d9","F1","batch6","pattern_show_trial_num","null","<p class=block-text>Trial 74 out of 78</p>","null","","","","","","","","","","","","","","","","","","","","","","","","","",""
"","","","","","image-keyboard-response","293","706919","0.0-3.0-7.0-1.34","5eeaa065c7acf61c4322f6d9","F1","batch6","pattern_response","510.4000000022352","stim/no_20_1_w.png","j","pattern_06","j","true","","","","510.4000000022352","true","41","","","","","","","","","","","","","","","","",""
"","","","","","html-keyboard-response","294","708234","0.0-3.0-7.0-0.35","5eeaa065c7acf61c4322f6d9","F1","batch6","pattern_show_trial_num","null","<p class=block-text>Trial 75 out of 78</p>","null","","","","","","","","","","","","","","","","","","","","","","","","","",""
"","","","","","image-keyboard-response","295","709698","0.0-3.0-7.0-1.35","5eeaa065c7acf61c4322f6d9","F1","batch6","pattern_response","1463.0999999977648","stim/yes_35_dia_b1.png","j","pattern_57","f","false","","","","1463.0999999977648","false","41","","","","","","","","","","","","","","","","",""
"","","","","","html-keyboard-response","296","711017","0.0-3.0-7.0-0.36","5eeaa065c7acf61c4322f6d9","F1","batch6","pattern_show_trial_num","null","<p class=block-text>Trial 76 out of 78</p>","null","","","","","","","","","","","","","","","","","","","","","","","","","",""
"","","","","","image-keyboard-response","297","712789","0.0-3.0-7.0-1.36","5eeaa065c7acf61c4322f6d9","F1","batch6","pattern_response","1771.0999999977648","stim/no_23_1.png","j","pattern_08","j","true","","","","1771.0999999977648","true","42","","","","","","","","","","","","","","","","",""
"","","","","","html-keyboard-response","298","714110","0.0-3.0-7.0-0.37","5eeaa065c7acf61c4322f6d9","F1","batch6","pattern_show_trial_num","null","<p class=block-text>Trial 77 out of 78</p>","null","","","","","","","","","","","","","","","","","","","","","","","","","",""
"","","","","","image-keyboard-response","299","714806","0.0-3.0-7.0-1.37","5eeaa065c7acf61c4322f6d9","F1","batch6","pattern_response","695.3999999985099","stim/yes_37_dia_w1.png","j","pattern_59","f","false","","","","695.3999999985099","false","42","","","","","","","","","","","","","","","","",""
"","","","","","html-keyboard-response","300","716125","0.0-3.0-7.0-0.38","5eeaa065c7acf61c4322f6d9","F1","batch6","pattern_show_trial_num","null","<p class=block-text>Trial 78 out of 78</p>","null","","","","","","","","","","","","","","","","","","","","","","","","","",""
"","","","","","image-keyboard-response","301","717161","0.0-3.0-7.0-1.38","5eeaa065c7acf61c4322f6d9","F1","batch6","pattern_response","1035.9000000022352","stim/no_48_1_w.png","j","pattern_28","j","true","","","","1035.9000000022352","true","43","","","","","","","","","","","","","","","","",""
"","","","","","html-button-response","302","721560","0.0-3.0-8.0","5eeaa065c7acf61c4322f6d9","F1","batch6","","3884.5","<p class = block-text>This concludes the 4-in-a-row detection game.Thank you for your responses!<br>
            You responded correctly on 55% of the trials.<br>
            When you are ready, press ""Continue"" button to continue </p>","0","","","","","","","","","","","","","","","","","","","","","","","","","",""
"true","","","","","fullscreen","303","724813","0.0-4.0-0.0","5eeaa065c7acf61c4322f6d9","F1","batch6","","","","","","","","","","","","","","","","","","","","","","","","","","","","","",""
"","","","","","instructions","304","786699","0.0-4.0-1.0-0.0-0.0","5eeaa065c7acf61c4322f6d9","F1","batch6","tol-instructions","61885","","","","","","","","[{""page_index"":0,""viewing_time"":35466.70000000298},{""page_index"":1,""viewing_time"":7626},{""page_index"":2,""viewing_time"":9101},{""page_index"":3,""viewing_time"":5634},{""page_index"":4,""viewing_time"":1645},{""page_index"":5,""viewing_time"":1242},{""page_index"":6,""viewing_time"":1170.0999999977648}]","","","","","","","","","","","","","","","","","","","",""
"","","","","","html-button-response","305","787399","0.0-4.0-1.0-1.0-0.0","5eeaa065c7acf61c4322f6d9","F1","batch6","tol_enter_quiz","698.6999999992549","<p class=block-text> Let's answer a few questions <br>","0","","","","","","","","","","","","","","","","","","","","","","","","","",""
"","","","","","html-button-response","306","789683","0.0-4.0-1.0-1.0-1.0","5eeaa065c7acf61c4322f6d9","F1","batch6","tol_quiz","2284","<p class = block-text>True or False: You can only move the ball on top of a peg. <br></p>","0","","","true","","","","","","","","","","","","","","","","","","","","","","",""
"","","","","","html-button-response","307","790852","0.0-4.0-1.0-1.0-2.0","5eeaa065c7acf61c4322f6d9","F1","batch6","tol_quiz_feedback","1168.2000000029802","<p class = block-text>Correct! You can only move the ball on top of a peg.</p>","0","","","","","","","","","","","","","","","","","","","","","","","","","",""
"","","","","","html-button-response","308","793937","0.0-4.0-1.0-1.0-3.0","5eeaa065c7acf61c4322f6d9","F1","batch6","tol_quiz","3084.60000000149","<p class = block-text>True or False: You should try to match your board with the target board with fewest moves possible. <br></p>","0","","","true","","","","","","","","","","","","","","","","","","","","","","",""
"","","","","","html-button-response","309","794422","0.0-4.0-1.0-1.0-4.0","5eeaa065c7acf61c4322f6d9","F1","batch6","tol_quiz_feedback","484.3999999985099","<p class = block-text>Correct! </p>","0","","","","","","","","","","","","","","","","","","","","","","","","","",""
"","","","","","html-button-response","310","795142","0.0-4.0-2.0","5eeaa065c7acf61c4322f6d9","F1","batch6","","719.5","<p class=block-text> Now that you've understood the game, let's practice a few easier examples before we start!<br> <br>","0","","","","","","","","","","","","","","","","","","","","","","","","","",""
"","","","","","single-stim-button","311","798353","0.0-4.0-3.0-0.0","5eeaa065c7acf61c4322f6d9","F1","batch6","tol_practice","3210","","","","","","","","","","","","","","tol_peg_2","3210","3210","0","[[1,2,0],[0,0],[0]]","1","[[1,2,0],[0,0],[3]]","practice","3210","","","","","",""
"","","","","","single-stim-button","312","799762","0.0-4.0-3.0-1.0","5eeaa065c7acf61c4322f6d9","F1","batch6","tol_practice","1408","","","","","","","","","","","","","","tol_peg_3","1408","1408","0","[[1,2,0],[0,0],[3]]","1","[[1,2,0],[0,0],[3]]","practice","1408","","","","","",""
"","","","","","poldrack-single-stim","313","800764","0.0-4.0-4.0","5eeaa065c7acf61c4322f6d9","F1","batch6","tol_feedback","-1","","","","","true","","","","","","","","","","1000","1000","500","","","","","","-1","none","true","","0",""
"","","","","","single-stim-button","314","805637","0.0-4.0-5.0-0.0","5eeaa065c7acf61c4322f6d9","F1","batch6","tol_practice","4873","","","","","","","","","","","","","","tol_peg_1","4873","4873","0","[[1,0,0],[3,0],[0]]","2","[[0,0,0],[3,1],[2]]","practice","4873","","","","","",""
"","","","","","single-stim-button","315","806596","0.0-4.0-5.0-1.0","5eeaa065c7acf61c4322f6d9","F1","batch6","tol_practice","958","","","","","","","","","","","","","","tol_peg_3","958","958","0","[[1,0,0],[3,0],[2]]","2","[[0,0,0],[3,1],[2]]","practice","958","","","","","",""
"","","","","","single-stim-button","316","807117","0.0-4.0-5.1-0.1","5eeaa065c7acf61c4322f6d9","F1","batch6","tol_practice","520","","","","","","","","","","","","","","tol_peg_1","520","520","0","[[0,0,0],[3,0],[2]]","3","[[0,0,0],[3,1],[2]]","practice","520","","","","","",""
"","","","","","single-stim-button","317","807701","0.0-4.0-5.1-1.1","5eeaa065c7acf61c4322f6d9","F1","batch6","tol_practice","584","","","","","","","","","","","","","","tol_peg_2","584","584","0","[[0,0,0],[3,1],[2]]","3","[[0,0,0],[3,1],[2]]","practice","584","","","","","",""
"","","","","","poldrack-single-stim","318","808702","0.0-4.0-6.0","5eeaa065c7acf61c4322f6d9","F1","batch6","tol_feedback","-1","","","","","true","","","","","","","","","","1000","1000","500","","","","","","-1","none","true","","0",""
"","","","","","single-stim-button","319","811688","0.0-4.0-7.0-0.0","5eeaa065c7acf61c4322f6d9","F1","batch6","tol_practice","2986","","","","","","","","","","","","","","tol_peg_2","2986","2986","0","[[1,2,0],[0,0],[0]]","4","[[1,0,0],[2,0],[3]]","practice","2986","","","","","",""
"","","","","","single-stim-button","320","812115","0.0-4.0-7.0-1.0","5eeaa065c7acf61c4322f6d9","F1","batch6","tol_practice","426","","","","","","","","","","","","","","tol_peg_3","426","426","0","[[1,2,0],[0,0],[3]]","4","[[1,0,0],[2,0],[3]]","practice","426","","","","","",""
"","","","","","single-stim-button","321","812536","0.0-4.0-7.1-0.1","5eeaa065c7acf61c4322f6d9","F1","batch6","tol_practice","420","","","","","","","","","","","","","","tol_peg_1","420","420","0","[[1,0,0],[0,0],[3]]","5","[[1,0,0],[2,0],[3]]","practice","420","","","","","",""
"","","","","","single-stim-button","322","812841","0.0-4.0-7.1-1.1","5eeaa065c7acf61c4322f6d9","F1","batch6","tol_practice","305","","","","","","","","","","","","","","tol_peg_2","305","305","0","[[1,0,0],[2,0],[3]]","5","[[1,0,0],[2,0],[3]]","practice","305","","","","","",""
"","","","","","poldrack-single-stim","323","813843","0.0-4.0-8.0","5eeaa065c7acf61c4322f6d9","F1","batch6","tol_feedback","-1","","","","","true","","","","","","","","","","1000","1000","500","","","","","","-1","none","true","","0",""
"","","","","","html-button-response","324","814821","0.0-4.0-9.0","5eeaa065c7acf61c4322f6d9","F1","batch6","tol_instruction","978.2000000029802","<div class = centerbox><p class = center-block-text>Great job! You are done with practice trials<br>You are about to start official trials.<br> <br> Problem <strong>1</strong> out of 25 problems</p></div>","0","","","","","","","","","","","","","","","","","","","","","","","","","",""
"","","","","","single-stim-button","325","820936","0.0-4.0-10.0-0.0","5eeaa065c7acf61c4322f6d9","F1","batch6","tol_tohand","5113","","","","","","","","","","","","","","tol_peg_1","5113","5113","0","[[1,0,0],[3,0],[0]]","1","[[1,3,0],[2,0],[0]]","0","0","","","","","","3"
"","","","","","single-stim-button","326","821621","0.0-4.0-10.0-1.0","5eeaa065c7acf61c4322f6d9","F1","batch6","tol_toboard","685","","","","","","","","","","","","","","tol_peg_3","685","685","0","[[1,0,0],[3,0],[2]]","1","[[1,3,0],[2,0],[0]]","0","0","","","","","","3"
"","","","","","single-stim-button","327","822218","0.0-4.0-10.1-0.1","5eeaa065c7acf61c4322f6d9","F1","batch6","tol_tohand","597","","","","","","","","","","","","","","tol_peg_2","597","597","0","[[1,0,0],[0,0],[2]]","2","[[1,3,0],[2,0],[0]]","0","0","","","","","","3"
"","","","","","single-stim-button","328","822617","0.0-4.0-10.1-1.1","5eeaa065c7acf61c4322f6d9","F1","batch6","tol_toboard","399","","","","","","","","","","","","","","tol_peg_1","399","399","0","[[1,3,0],[0,0],[2]]","2","[[1,3,0],[2,0],[0]]","0","0","","","","","","3"
"","","","","","single-stim-button","329","823257","0.0-4.0-10.2-0.2","5eeaa065c7acf61c4322f6d9","F1","batch6","tol_tohand","640","","","","","","","","","","","","","","tol_peg_3","640","640","0","[[1,3,0],[0,0],[0]]","3","[[1,3,0],[2,0],[0]]","0","0","","","","","","3"
"","","","","","single-stim-button","330","823873","0.0-4.0-10.2-1.2","5eeaa065c7acf61c4322f6d9","F1","batch6","tol_toboard","616","","","","","","","","","","","","","","tol_peg_2","616","616","0","[[1,3,0],[2,0],[0]]","3","[[1,3,0],[2,0],[0]]","0","0","","","","","","3"
"","","","","","poldrack-single-stim","331","824875","0.0-4.0-11.0","5eeaa065c7acf61c4322f6d9","F1","batch6","tol_feedback","-1","","","","","true","","","","","","","","","","1000","1000","500","","","","","","-1","none","true","5113","6350",""
"","","","","","html-button-response","332","825676","0.0-4.0-12.0","5eeaa065c7acf61c4322f6d9","F1","batch6","tol_trial_num","800.6000000014901","<div class = centerbox><p class = center-block-text>problem <strong>2</strong> out of 25 problems</p></div>","0","","","","","","","","","","","","","","","","","","","","","","","","","",""
"","","","","","single-stim-button","333","836951","0.0-4.0-13.0-0.0","5eeaa065c7acf61c4322f6d9","F1","batch6","tol_tohand","11274","","","","","","","","","","","","","","tol_peg_1","11274","11274","0","[[1,0,0],[3,0],[0]]","1","[[2,1,3],[0,0],[0]]","1","0","","","","","","5"
"","","","","","single-stim-button","334","838077","0.0-4.0-13.0-1.0","5eeaa065c7acf61c4322f6d9","F1","batch6","tol_toboard","1126","","","","","","","","","","","","","","tol_peg_2","1126","1126","0","[[1,0,0],[3,2],[0]]","1","[[2,1,3],[0,0],[0]]","1","0","","","","","","5"
"","","","","","single-stim-button","335","838628","0.0-4.0-13.1-0.1","5eeaa065c7acf61c4322f6d9","F1","batch6","tol_tohand","551","","","","","","","","","","","","","","tol_peg_1","551","551","0","[[0,0,0],[3,2],[0]]","2","[[2,1,3],[0,0],[0]]","1","0","","","","","","5"
"","","","","","single-stim-button","336","840829","0.0-4.0-13.1-1.1","5eeaa065c7acf61c4322f6d9","F1","batch6","tol_toboard","2201","","","","","","","","","","","","","","tol_peg_3","2201","2201","0","[[0,0,0],[3,2],[1]]","2","[[2,1,3],[0,0],[0]]","1","0","","","","","","5"
"","","","","","single-stim-button","337","842437","0.0-4.0-13.2-0.2","5eeaa065c7acf61c4322f6d9","F1","batch6","tol_tohand","1608","","","","","","","","","","","","","","tol_peg_2","1608","1608","0","[[0,0,0],[3,0],[1]]","3","[[2,1,3],[0,0],[0]]","1","0","","","","","","5"
"","","","","","single-stim-button","338","842849","0.0-4.0-13.2-1.2","5eeaa065c7acf61c4322f6d9","F1","batch6","tol_toboard","411","","","","","","","","","","","","","","tol_peg_1","411","411","0","[[2,0,0],[3,0],[1]]","3","[[2,1,3],[0,0],[0]]","1","0","","","","","","5"
"","","","","","single-stim-button","339","843893","0.0-4.0-13.3-0.3","5eeaa065c7acf61c4322f6d9","F1","batch6","tol_tohand","1044","","","","","","","","","","","","","","tol_peg_3","1044","1044","0","[[2,0,0],[3,0],[0]]","4","[[2,1,3],[0,0],[0]]","1","0","","","","","","5"
"","","","","","single-stim-button","340","844447","0.0-4.0-13.3-1.3","5eeaa065c7acf61c4322f6d9","F1","batch6","tol_toboard","554","","","","","","","","","","","","","","tol_peg_1","554","554","0","[[2,1,0],[3,0],[0]]","4","[[2,1,3],[0,0],[0]]","1","0","","","","","","5"
"","","","","","single-stim-button","341","845021","0.0-4.0-13.4-0.4","5eeaa065c7acf61c4322f6d9","F1","batch6","tol_tohand","574","","","","","","","","","","","","","","tol_peg_2","574","574","0","[[2,1,0],[0,0],[0]]","5","[[2,1,3],[0,0],[0]]","1","0","","","","","","5"
"","","","","","single-stim-button","342","845509","0.0-4.0-13.4-1.4","5eeaa065c7acf61c4322f6d9","F1","batch6","tol_toboard","488","","","","","","","","","","","","","","tol_peg_1","488","488","0","[[2,1,3],[0,0],[0]]","5","[[2,1,3],[0,0],[0]]","1","0","","","","","","5"
"","","","","","poldrack-single-stim","343","846511","0.0-4.0-14.0","5eeaa065c7acf61c4322f6d9","F1","batch6","tol_feedback","-1","","","","","true","","","","","","","","","","1000","1000","500","","","","","","-1","none","true","11274","15051",""
"","","","","","html-button-response","344","847056","0.0-4.0-15.0","5eeaa065c7acf61c4322f6d9","F1","batch6","tol_trial_num","544.3999999985099","<div class = centerbox><p class = center-block-text>problem <strong>3</strong> out of 25 problems</p></div>","0","","","","","","","","","","","","","","","","","","","","","","","","","",""
"","","","","","single-stim-button","345","848544","0.0-4.0-16.0-0.0","5eeaa065c7acf61c4322f6d9","F1","batch6","tol_tohand","1488","","","","","","","","","","","","","","tol_peg_1","1488","1488","0","[[2,0,0],[0,0],[1]]","1","[[1,2,0],[3,0],[0]]","2","0","","","","","","4"
"","","","","","single-stim-button","346","857867","0.0-4.0-16.0-1.0","5eeaa065c7acf61c4322f6d9","F1","batch6","tol_toboard","9323","","","","","","","","","","","","","","tol_peg_2","9323","9323","0","[[2,0,0],[3,0],[1]]","1","[[1,2,0],[3,0],[0]]","2","0","","","","","","4"
"","","","","","single-stim-button","347","858810","0.0-4.0-16.1-0.1","5eeaa065c7acf61c4322f6d9","F1","batch6","tol_tohand","943","","","","","","","","","","","","","","tol_peg_1","943","943","0","[[0,0,0],[3,0],[1]]","2","[[1,2,0],[3,0],[0]]","2","0","","","","","","4"
"","","","","","single-stim-button","348","862580","0.0-4.0-16.1-1.1","5eeaa065c7acf61c4322f6d9","F1","batch6","tol_toboard","3770","","","","","","","","","","","","","","tol_peg_2","3770","3770","0","[[0,0,0],[3,2],[1]]","2","[[1,2,0],[3,0],[0]]","2","0","","","","","","4"
