"success","timeout","failed_images","failed_audio","failed_video","trial_type","trial_index","time_elapsed","internal_node_id","subject_id","study_id","session_id","view_history","rt","task","stimulus","response","correct","mouse_click","stim_duration","block_duration","timing_post_trial","current_position","tol_num_moves_made","tol_target","tol_problem_id","tol_rt","key_press","possible_responses","tol_correct","preplanning","tol_rt_per_trial","tol_min_moves","answer","item","fiar_detect_rt","fiar_detect_correct","total_correct_fiar_detect","post_trial_gap","choices","spm_correct","spm_rt"
"true","false","[]","[]","[]","preload","0","4021","0.0-0.0","5eecf88a4e531e0e897631df","A3","batch1","","","","","","","","","","","","","","","","","","","","","","","","","","","","","",""
"true","","","","","fullscreen","1","13061","0.0-1.0-0.0","5eecf88a4e531e0e897631df","A3","batch1","","","","","","","","","","","","","","","","","","","","","","","","","","","","","",""
"true","","","","","fullscreen","2","17387","0.0-2.0-0.0","5eecf88a4e531e0e897631df","A3","batch1","","","","","","","","","","","","","","","","","","","","","","","","","","","","","",""
"","","","","","instructions","3","117138","0.0-2.0-1.0-0.0-0.0","5eecf88a4e531e0e897631df","A3","batch1","[{""page_index"":0,""viewing_time"":11066.300000190735},{""page_index"":1,""viewing_time"":6323.299999713898},{""page_index"":2,""viewing_time"":9232.800000190735},{""page_index"":3,""viewing_time"":10978.699999809265},{""page_index"":4,""viewing_time"":7758.60000038147},{""page_index"":5,""viewing_time"":11525},{""page_index"":4,""viewing_time"":914.2999997138977},{""page_index"":3,""viewing_time"":11108.599999904633},{""page_index"":4,""viewing_time"":9037.800000190735},{""page_index"":5,""viewing_time"":17616.800000190735},{""page_index"":6,""viewing_time"":4185.599999904633}]","99748.80000019073","tol-instructions","","","","","","","","","","","","","","","","","","","","","","","","","","",""
"","","","","","html-button-response","4","118967","0.0-2.0-1.0-1.0-0.0","5eecf88a4e531e0e897631df","A3","batch1","","1824.5999999046326","tol_enter_quiz","<p class=block-text> Let's answer a few questions <br>","0","","","","","","","","","","","","","","","","","","","","","","","","",""
"","","","","","html-button-response","5","125255","0.0-2.0-1.0-1.0-1.0","5eecf88a4e531e0e897631df","A3","batch1","","6284.699999809265","tol_quiz","<p class = block-text>True or False: You can only move the ball on top of a peg. <br></p>","1","false","","","","","","","","","","","","","","","","","","","","","","","",""
"","","","","","html-button-response","6","126468","0.0-2.0-1.0-1.0-2.0","5eecf88a4e531e0e897631df","A3","batch1","","1210.8000001907349","tol_quiz_feedback","<p class = block-text>Incorrect. Remember, you can only move the ball on top of a peg.</p>","0","","","","","","","","","","","","","","","","","","","","","","","","",""
"","","","","","html-button-response","7","132047","0.0-2.0-1.0-1.0-3.0","5eecf88a4e531e0e897631df","A3","batch1","","5577.699999809265","tol_quiz","<p class = block-text>True or False: You should try to match your board with the target board with fewest moves possible. <br></p>","0","true","","","","","","","","","","","","","","","","","","","","","","","",""
"","","","","","html-button-response","8","132843","0.0-2.0-1.0-1.0-4.0","5eecf88a4e531e0e897631df","A3","batch1","","793.7000002861023","tol_quiz_feedback","<p class = block-text>Correct! </p>","0","","","","","","","","","","","","","","","","","","","","","","","","",""
"","","","","","html-button-response","9","134982","0.0-2.0-1.0-2.0-0.0","5eecf88a4e531e0e897631df","A3","batch1","","2135.7999997138977","","<p class = block-text>You made too many incorrect choices.</p><p class = block-text>You will now repeat the instructions and quiz</p>","0","","","","","","","","","","","","","","","","","","","","","","","","",""
"","","","","","instructions","10","139063","0.0-2.0-1.1-0.1-0.1","5eecf88a4e531e0e897631df","A3","batch1","[{""page_index"":0,""viewing_time"":987.2999997138977},{""page_index"":1,""viewing_time"":321},{""page_index"":2,""viewing_time"":307.90000009536743},{""page_index"":3,""viewing_time"":249.7000002861023},{""page_index"":4,""viewing_time"":556.3999996185303},{""page_index"":5,""viewing_time"":528.6000003814697},{""page_index"":6,""viewing_time"":1128.6999998092651}]","4080.5999999046326","tol-instructions","","","","","","","","","","","","","","","","","","","","","","","","","","",""
"","","","","","html-button-response","11","140041","0.0-2.0-1.1-1.1-0.1","5eecf88a4e531e0e897631df","A3","batch1","","975.1999998092651","tol_enter_quiz","<p class=block-text> Let's answer a few questions <br>","0","","","","","","","","","","","","","","","","","","","","","","","","",""
"","","","","","html-button-response","12","142404","0.0-2.0-1.1-1.1-1.1","5eecf88a4e531e0e897631df","A3","batch1","","2360.199999809265","tol_quiz","<p class = block-text>True or False: You can only move the ball on top of a peg. <br></p>","1","false","","","","","","","","","","","","","","","","","","","","","","","",""
"","","","","","html-button-response","13","143522","0.0-2.0-1.1-1.1-2.1","5eecf88a4e531e0e897631df","A3","batch1","","1117.3000001907349","tol_quiz_feedback","<p class = block-text>Incorrect. Remember, you can only move the ball on top of a peg.</p>","0","","","","","","","","","","","","","","","","","","","","","","","","",""
"","","","","","html-button-response","14","145718","0.0-2.0-1.1-1.1-3.1","5eecf88a4e531e0e897631df","A3","batch1","","2194.5","tol_quiz","<p class = block-text>True or False: You should try to match your board with the target board with fewest moves possible. <br></p>","0","true","","","","","","","","","","","","","","","","","","","","","","","",""
"","","","","","html-button-response","15","146347","0.0-2.0-1.1-1.1-4.1","5eecf88a4e531e0e897631df","A3","batch1","","626.4000000953674","tol_quiz_feedback","<p class = block-text>Correct! </p>","0","","","","","","","","","","","","","","","","","","","","","","","","",""
"","","","","","html-button-response","16","147094","0.0-2.0-1.1-2.1-0.1","5eecf88a4e531e0e897631df","A3","batch1","","745","","<p class = block-text>You made too many incorrect choices.</p><p class = block-text>You will now repeat the instructions and quiz</p>","0","","","","","","","","","","","","","","","","","","","","","","","","",""
"","","","","","instructions","17","181019","0.0-2.0-1.2-0.2-0.2","5eecf88a4e531e0e897631df","A3","batch1","[{""page_index"":0,""viewing_time"":1241.7000002861023},{""page_index"":1,""viewing_time"":3431.7999997138977},{""page_index"":2,""viewing_time"":1398},{""page_index"":3,""viewing_time"":6233.200000286102},{""page_index"":4,""viewing_time"":3090.199999809265},{""page_index"":5,""viewing_time"":1229.8000001907349},{""page_index"":4,""viewing_time"":9120.400000095367},{""page_index"":5,""viewing_time"":6573.39999961853},{""page_index"":6,""viewing_time"":1608.3000001907349}]","33927.5","tol-instructions","","","","","","","","","","","","","","","","","","","","","","","","","","",""
"","","","","","html-button-response","18","181999","0.0-2.0-1.2-1.2-0.2","5eecf88a4e531e0e897631df","A3","batch1","","977.9000000953674","tol_enter_quiz","<p class=block-text> Let's answer a few questions <br>","0","","","","","","","","","","","","","","","","","","","","","","","","",""
"","","","","","html-button-response","19","184289","0.0-2.0-1.2-1.2-1.2","5eecf88a4e531e0e897631df","A3","batch1","","2286","tol_quiz","<p class = block-text>True or False: You can only move the ball on top of a peg. <br></p>","0","true","","","","","","","","","","","","","","","","","","","","","","","",""
"","","","","","html-button-response","20","185535","0.0-2.0-1.2-1.2-2.2","5eecf88a4e531e0e897631df","A3","batch1","","1244.8000001907349","tol_quiz_feedback","<p class = block-text>Correct! You can only move the ball on top of a peg.</p>","0","","","","","","","","","","","","","","","","","","","","","","","","",""
"","","","","","html-button-response","21","187059","0.0-2.0-1.2-1.2-3.2","5eecf88a4e531e0e897631df","A3","batch1","","1522.5","tol_quiz","<p class = block-text>True or False: You should try to match your board with the target board with fewest moves possible. <br></p>","0","true","","","","","","","","","","","","","","","","","","","","","","","",""
"","","","","","html-button-response","22","187852","0.0-2.0-1.2-1.2-4.2","5eecf88a4e531e0e897631df","A3","batch1","","790.5","tol_quiz_feedback","<p class = block-text>Correct! </p>","0","","","","","","","","","","","","","","","","","","","","","","","","",""
"","","","","","html-button-response","23","189359","0.0-2.0-2.0","5eecf88a4e531e0e897631df","A3","batch1","","1505.2999997138977","","<p class=block-text> Now that you've understood the game, let's practice a few easier examples before we start!<br> <br>","0","","","","","","","","","","","","","","","","","","","","","","","","",""
"","","","","","single-stim-button","24","191055","0.0-2.0-3.0-0.0","5eecf88a4e531e0e897631df","A3","batch1","","1689","tol_practice","","","","tol_peg_2","1689","1689","0","[[1,2,0],[0,0],[0]]","1","[[1,2,0],[0,0],[3]]","practice","1689","","","","","","","","","","","","","","",""
"","","","","","single-stim-button","25","192519","0.0-2.0-3.0-1.0","5eecf88a4e531e0e897631df","A3","batch1","","1461","tol_practice","","","","tol_peg_3","1461","1461","0","[[1,2,0],[0,0],[3]]","1","[[1,2,0],[0,0],[3]]","practice","1461","","","","","","","","","","","","","","",""
"","","","","","poldrack-single-stim","26","193531","0.0-2.0-4.0","5eecf88a4e531e0e897631df","A3","batch1","","-1","tol_feedback","","","true","","1000","1000","500","","","","","","-1","none","true","","0","","","","","","","","","",""
"","","","","","single-stim-button","27","197738","0.0-2.0-5.0-0.0","5eecf88a4e531e0e897631df","A3","batch1","","4206","tol_practice","","","","tol_peg_1","4206","4206","0","[[1,0,0],[3,0],[0]]","2","[[0,0,0],[3,1],[2]]","practice","4206","","","","","","","","","","","","","","",""
"","","","","","single-stim-button","28","198901","0.0-2.0-5.0-1.0","5eecf88a4e531e0e897631df","A3","batch1","","1163","tol_practice","","","","tol_peg_3","1163","1163","0","[[1,0,0],[3,0],[2]]","2","[[0,0,0],[3,1],[2]]","practice","1163","","","","","","","","","","","","","","",""
"","","","","","single-stim-button","29","200712","0.0-2.0-5.1-0.1","5eecf88a4e531e0e897631df","A3","batch1","","1809","tol_practice","","","","tol_peg_1","1809","1809","0","[[0,0,0],[3,0],[2]]","3","[[0,0,0],[3,1],[2]]","practice","1809","","","","","","","","","","","","","","",""
"","","","","","single-stim-button","30","202082","0.0-2.0-5.1-1.1","5eecf88a4e531e0e897631df","A3","batch1","","1367","tol_practice","","","","tol_peg_2","1367","1367","0","[[0,0,0],[3,1],[2]]","3","[[0,0,0],[3,1],[2]]","practice","1367","","","","","","","","","","","","","","",""
"","","","","","poldrack-single-stim","31","203087","0.0-2.0-6.0","5eecf88a4e531e0e897631df","A3","batch1","","-1","tol_feedback","","","true","","1000","1000","500","","","","","","-1","none","true","","0","","","","","","","","","",""
"","","","","","single-stim-button","32","206270","0.0-2.0-7.0-0.0","5eecf88a4e531e0e897631df","A3","batch1","","3182","tol_practice","","","","tol_peg_2","3182","3182","0","[[1,2,0],[0,0],[0]]","4","[[1,0,0],[2,0],[3]]","practice","3182","","","","","","","","","","","","","","",""
"","","","","","single-stim-button","33","208157","0.0-2.0-7.0-1.0","5eecf88a4e531e0e897631df","A3","batch1","","1886","tol_practice","","","","tol_peg_3","1886","1886","0","[[1,2,0],[0,0],[3]]","4","[[1,0,0],[2,0],[3]]","practice","1886","","","","","","","","","","","","","","",""
"","","","","","single-stim-button","34","209244","0.0-2.0-7.1-0.1","5eecf88a4e531e0e897631df","A3","batch1","","1085","tol_practice","","","","tol_peg_1","1085","1085","0","[[1,0,0],[0,0],[3]]","5","[[1,0,0],[2,0],[3]]","practice","1085","","","","","","","","","","","","","","",""
"","","","","","single-stim-button","35","210516","0.0-2.0-7.1-1.1","5eecf88a4e531e0e897631df","A3","batch1","","1269","tol_practice","","","","tol_peg_2","1269","1269","0","[[1,0,0],[2,0],[3]]","5","[[1,0,0],[2,0],[3]]","practice","1269","","","","","","","","","","","","","","",""
"","","","","","poldrack-single-stim","36","211519","0.0-2.0-8.0","5eecf88a4e531e0e897631df","A3","batch1","","-1","tol_feedback","","","true","","1000","1000","500","","","","","","-1","none","true","","0","","","","","","","","","",""
"","","","","","html-button-response","37","214206","0.0-2.0-9.0","5eecf88a4e531e0e897631df","A3","batch1","","2685.4000000953674","tol_instruction","<div class = centerbox><p class = center-block-text>Great job! You are done with practice trials<br>You are about to start official trials.<br> <br> Problem <strong>1</strong> out of 25 problems</p></div>","0","","","","","","","","","","","","","","","","","","","","","","","","",""
"","","","","","single-stim-button","38","219840","0.0-2.0-10.0-0.0","5eecf88a4e531e0e897631df","A3","batch1","","4626","tol_tohand","","","","tol_peg_1","4626","4626","0","[[1,0,0],[3,0],[0]]","1","[[1,3,0],[2,0],[0]]","0","0","","","","","","3","","","","","","","","",""
"","","","","","single-stim-button","39","220960","0.0-2.0-10.0-1.0","5eecf88a4e531e0e897631df","A3","batch1","","1117","tol_toboard","","","","tol_peg_3","1117","1117","0","[[1,0,0],[3,0],[2]]","1","[[1,3,0],[2,0],[0]]","0","0","","","","","","3","","","","","","","","",""
"","","","","","single-stim-button","40","222066","0.0-2.0-10.1-0.1","5eecf88a4e531e0e897631df","A3","batch1","","1104","tol_tohand","","","","tol_peg_2","1104","1104","0","[[1,0,0],[0,0],[2]]","2","[[1,3,0],[2,0],[0]]","0","0","","","","","","3","","","","","","","","",""
"","","","","","single-stim-button","41","226810","0.0-2.0-10.1-1.1","5eecf88a4e531e0e897631df","A3","batch1","","4743","tol_toboard","","","","tol_peg_1","4743","4743","0","[[1,3,0],[0,0],[2]]","2","[[1,3,0],[2,0],[0]]","0","0","","","","","","3","","","","","","","","",""
"","","","","","single-stim-button","42","227984","0.0-2.0-10.2-0.2","5eecf88a4e531e0e897631df","A3","batch1","","1172","tol_tohand","","","","tol_peg_3","1172","1172","0","[[1,3,0],[0,0],[0]]","3","[[1,3,0],[2,0],[0]]","0","0","","","","","","3","","","","","","","","",""
"","","","","","single-stim-button","43","229041","0.0-2.0-10.2-1.2","5eecf88a4e531e0e897631df","A3","batch1","","1055","tol_toboard","","","","tol_peg_2","1055","1055","0","[[1,3,0],[2,0],[0]]","3","[[1,3,0],[2,0],[0]]","0","0","","","","","","3","","","","","","","","",""
"","","","","","poldrack-single-stim","44","230053","0.0-2.0-11.0","5eecf88a4e531e0e897631df","A3","batch1","","-1","tol_feedback","","","true","","1000","1000","500","","","","","","-1","none","true","4626","6902","","","","","","","","","",""
"","","","","","html-button-response","45","230931","0.0-2.0-12.0","5eecf88a4e531e0e897631df","A3","batch1","","875.9000000953674","tol_trial_num","<div class = centerbox><p class = center-block-text>problem <strong>2</strong> out of 25 problems</p></div>","0","","","","","","","","","","","","","","","","","","","","","","","","",""
"","","","","","single-stim-button","46","239979","0.0-2.0-13.0-0.0","5eecf88a4e531e0e897631df","A3","batch1","","9045","tol_tohand","","","","tol_peg_1","9045","9045","0","[[1,0,0],[3,0],[0]]","1","[[2,1,3],[0,0],[0]]","1","0","","","","","","5","","","","","","","","",""
"","","","","","single-stim-button","47","242671","0.0-2.0-13.0-1.0","5eecf88a4e531e0e897631df","A3","batch1","","2689","tol_toboard","","","","tol_peg_3","2689","2689","0","[[1,0,0],[3,0],[2]]","1","[[2,1,3],[0,0],[0]]","1","0","","","","","","5","","","","","","","","",""
"","","","","","single-stim-button","48","243724","0.0-2.0-13.1-0.1","5eecf88a4e531e0e897631df","A3","batch1","","1050","tol_tohand","","","","tol_peg_1","1050","1050","0","[[0,0,0],[3,0],[2]]","2","[[2,1,3],[0,0],[0]]","1","0","","","","","","5","","","","","","","","",""
"","","","","","single-stim-button","49","246482","0.0-2.0-13.1-1.1","5eecf88a4e531e0e897631df","A3","batch1","","2757","tol_toboard","","","","tol_peg_2","2757","2757","0","[[0,0,0],[3,1],[2]]","2","[[2,1,3],[0,0],[0]]","1","0","","","","","","5","","","","","","","","",""
"","","","","","single-stim-button","50","247203","0.0-2.0-13.2-0.2","5eecf88a4e531e0e897631df","A3","batch1","","718","tol_tohand","","","","tol_peg_3","718","718","0","[[0,0,0],[3,1],[0]]","3","[[2,1,3],[0,0],[0]]","1","0","","","","","","5","","","","","","","","",""
"","","","","","single-stim-button","51","247992","0.0-2.0-13.2-1.2","5eecf88a4e531e0e897631df","A3","batch1","","788","tol_toboard","","","","tol_peg_1","788","788","0","[[2,0,0],[3,1],[0]]","3","[[2,1,3],[0,0],[0]]","1","0","","","","","","5","","","","","","","","",""
"","","","","","single-stim-button","52","250093","0.0-2.0-13.3-0.3","5eecf88a4e531e0e897631df","A3","batch1","","2099","tol_tohand","","","","tol_peg_2","2099","2099","0","[[2,0,0],[3,0],[0]]","4","[[2,1,3],[0,0],[0]]","1","0","","","","","","5","","","","","","","","",""
"","","","","","single-stim-button","53","251000","0.0-2.0-13.3-1.3","5eecf88a4e531e0e897631df","A3","batch1","","905","tol_toboard","","","","tol_peg_1","905","905","0","[[2,1,0],[3,0],[0]]","4","[[2,1,3],[0,0],[0]]","1","0","","","","","","5","","","","","","","","",""
"","","","","","single-stim-button","54","251847","0.0-2.0-13.4-0.4","5eecf88a4e531e0e897631df","A3","batch1","","845","tol_tohand","","","","tol_peg_2","845","845","0","[[2,1,0],[0,0],[0]]","5","[[2,1,3],[0,0],[0]]","1","0","","","","","","5","","","","","","","","",""
"","","","","","single-stim-button","55","252947","0.0-2.0-13.4-1.4","5eecf88a4e531e0e897631df","A3","batch1","","1098","tol_toboard","","","","tol_peg_1","1098","1098","0","[[2,1,3],[0,0],[0]]","5","[[2,1,3],[0,0],[0]]","1","0","","","","","","5","","","","","","","","",""
"","","","","","poldrack-single-stim","56","253952","0.0-2.0-14.0","5eecf88a4e531e0e897631df","A3","batch1","","-1","tol_feedback","","","true","","1000","1000","500","","","","","","-1","none","true","9045","13757","","","","","","","","","",""
"","","","","","html-button-response","57","255009","0.0-2.0-15.0","5eecf88a4e531e0e897631df","A3","batch1","","1054.2000002861023","tol_trial_num","<div class = centerbox><p class = center-block-text>problem <strong>3</strong> out of 25 problems</p></div>","0","","","","","","","","","","","","","","","","","","","","","","","","",""
"","","","","","single-stim-button","58","259743","0.0-2.0-16.0-0.0","5eecf88a4e531e0e897631df","A3","batch1","","4731","tol_tohand","","","","tol_peg_1","4731","4731","0","[[2,0,0],[0,0],[1]]","1","[[1,2,0],[3,0],[0]]","2","0","","","","","","4","","","","","","","","",""
"","","","","","single-stim-button","59","260842","0.0-2.0-16.0-1.0","5eecf88a4e531e0e897631df","A3","batch1","","1097","tol_toboard","","","","tol_peg_2","1097","1097","0","[[2,0,0],[3,0],[1]]","1","[[1,2,0],[3,0],[0]]","2","0","","","","","","4","","","","","","","","",""
"","","","","","single-stim-button","60","262346","0.0-2.0-16.1-0.1","5eecf88a4e531e0e897631df","A3","batch1","","1503","tol_tohand","","","","tol_peg_1","1503","1503","0","[[0,0,0],[3,0],[1]]","2","[[1,2,0],[3,0],[0]]","2","0","","","","","","4","","","","","","","","",""
"","","","","","single-stim-button","61","263953","0.0-2.0-16.1-1.1","5eecf88a4e531e0e897631df","A3","batch1","","1605","tol_toboard","","","","tol_peg_2","1605","1605","0","[[0,0,0],[3,2],[1]]","2","[[1,2,0],[3,0],[0]]","2","0","","","","","","4","","","","","","","","",""
"","","","","","single-stim-button","62","264886","0.0-2.0-16.2-0.2","5eecf88a4e531e0e897631df","A3","batch1","","930","tol_tohand","","","","tol_peg_3","930","930","0","[[0,0,0],[3,2],[0]]","3","[[1,2,0],[3,0],[0]]","2","0","","","","","","4","","","","","","","","",""
"","","","","","single-stim-button","63","266221","0.0-2.0-16.2-1.2","5eecf88a4e531e0e897631df","A3","batch1","","1334","tol_toboard","","","","tol_peg_1","1334","1334","0","[[1,0,0],[3,2],[0]]","3","[[1,2,0],[3,0],[0]]","2","0","","","","","","4","","","","","","","","",""
"","","","","","single-stim-button","64","266922","0.0-2.0-16.3-0.3","5eecf88a4e531e0e897631df","A3","batch1","","699","tol_tohand","","","","tol_peg_2","699","699","0","[[1,0,0],[3,0],[0]]","4","[[1,2,0],[3,0],[0]]","2","0","","","","","","4","","","","","","","","",""
"","","","","","single-stim-button","65","267857","0.0-2.0-16.3-1.3","5eecf88a4e531e0e897631df","A3","batch1","","932","tol_toboard","","","","tol_peg_1","932","932","0","[[1,2,0],[3,0],[0]]","4","[[1,2,0],[3,0],[0]]","2","0","","","","","","4","","","","","","","","",""
"","","","","","poldrack-single-stim","66","268861","0.0-2.0-17.0","5eecf88a4e531e0e897631df","A3","batch1","","-1","tol_feedback","","","true","","1000","1000","500","","","","","","-1","none","true","4731","7863","","","","","","","","","",""
"","","","","","html-button-response","67","269764","0.0-2.0-18.0","5eecf88a4e531e0e897631df","A3","batch1","","901.5","tol_trial_num","<div class = centerbox><p class = center-block-text>problem <strong>4</strong> out of 25 problems</p></div>","0","","","","","","","","","","","","","","","","","","","","","","","","",""
"","","","","","single-stim-button","68","275234","0.0-2.0-19.0-0.0","5eecf88a4e531e0e897631df","A3","batch1","","5469","tol_tohand","","","","tol_peg_2","5469","5469","0","[[3,0,0],[2,0],[0]]","1","[[3,0,0],[1,0],[2]]","3","0","","","","","","3","","","","","","","","",""
"","","","","","single-stim-button","69","276201","0.0-2.0-19.0-1.0","5eecf88a4e531e0e897631df","A3","batch1","","964","tol_toboard","","","","tol_peg_1","964","964","0","[[3,1,0],[2,0],[0]]","1","[[3,0,0],[1,0],[2]]","3","0","","","","","","3","","","","","","","","",""
"","","","","","single-stim-button","70","277135","0.0-2.0-19.1-0.1","5eecf88a4e531e0e897631df","A3","batch1","","932","tol_tohand","","","","tol_peg_2","932","932","0","[[3,1,0],[0,0],[0]]","2","[[3,0,0],[1,0],[2]]","3","0","","","","","","3","","","","","","","","",""
"","","","","","single-stim-button","71","278156","0.0-2.0-19.1-1.1","5eecf88a4e531e0e897631df","A3","batch1","","1019","tol_toboard","","","","tol_peg_3","1019","1019","0","[[3,1,0],[0,0],[2]]","2","[[3,0,0],[1,0],[2]]","3","0","","","","","","3","","","","","","","","",""
"","","","","","single-stim-button","72","279040","0.0-2.0-19.2-0.2","5eecf88a4e531e0e897631df","A3","batch1","","881","tol_tohand","","","","tol_peg_1","881","881","0","[[3,0,0],[0,0],[2]]","3","[[3,0,0],[1,0],[2]]","3","0","","","","","","3","","","","","","","","",""
"","","","","","single-stim-button","73","279975","0.0-2.0-19.2-1.2","5eecf88a4e531e0e897631df","A3","batch1","","933","tol_toboard","","","","tol_peg_2","933","933","0","[[3,0,0],[1,0],[2]]","3","[[3,0,0],[1,0],[2]]","3","0","","","","","","3","","","","","","","","",""
"","","","","","poldrack-single-stim","74","280991","0.0-2.0-20.0","5eecf88a4e531e0e897631df","A3","batch1","","-1","tol_feedback","","","true","","1000","1000","500","","","","","","-1","none","true","5469","7282","","","","","","","","","",""
"","","","","","html-button-response","75","281959","0.0-2.0-21.0","5eecf88a4e531e0e897631df","A3","batch1","","966.0999999046326","tol_trial_num","<div class = centerbox><p class = center-block-text>problem <strong>5</strong> out of 25 problems</p></div>","0","","","","","","","","","","","","","","","","","","","","","","","","",""
"","","","","","single-stim-button","76","284981","0.0-2.0-22.0-0.0","5eecf88a4e531e0e897631df","A3","batch1","","3020","tol_tohand","","","","tol_peg_2","3020","3020","0","[[1,0,0],[0,0],[3]]","1","[[0,0,0],[1,2],[3]]","4","0","","","","","","7","","","","","","","","",""
"","","","","","single-stim-button","77","303330","0.0-2.0-22.0-1.0","5eecf88a4e531e0e897631df","A3","batch1","","18347","tol_toboard","","","","tol_peg_2","18347","18347","0","[[1,0,0],[2,0],[3]]","1","[[0,0,0],[1,2],[3]]","4","0","","","","","","7","","","","","","","","",""
"","","","","","single-stim-button","78","314697","0.0-2.0-22.1-0.1","5eecf88a4e531e0e897631df","A3","batch1","","11365","tol_tohand","","","","tol_peg_2","11365","11365","0","[[1,0,0],[0,0],[3]]","2","[[0,0,0],[1,2],[3]]","4","0","","","","","","7","","","","","","","","",""
"","","","","","single-stim-button","79","316523","0.0-2.0-22.1-1.1","5eecf88a4e531e0e897631df","A3","batch1","","1825","tol_toboard","","","","tol_peg_2","1825","1825","0","[[1,0,0],[2,0],[3]]","2","[[0,0,0],[1,2],[3]]","4","0","","","","","","7","","","","","","","","",""
"","","","","","single-stim-button","80","317249","0.0-2.0-22.2-0.2","5eecf88a4e531e0e897631df","A3","batch1","","723","tol_tohand","","","","tol_peg_3","723","723","0","[[1,0,0],[2,0],[0]]","3","[[0,0,0],[1,2],[3]]","4","0","","","","","","7","","","","","","","","",""
"","","","","","single-stim-button","81","322902","0.0-2.0-22.2-1.2","5eecf88a4e531e0e897631df","A3","batch1","","5651","tol_toboard","","","","tol_peg_3","5651","5651","0","[[1,0,0],[2,0],[3]]","3","[[0,0,0],[1,2],[3]]","4","0","","","","","","7","","","","","","","","",""
"","","","","","single-stim-button","82","338449","0.0-2.0-22.3-0.3","5eecf88a4e531e0e897631df","A3","batch1","","15544","tol_tohand","","","","tol_peg_1","15544","15544","0","[[0,0,0],[2,0],[3]]","4","[[0,0,0],[1,2],[3]]","4","0","","","","","","7","","","","","","","","",""
"","","","","","single-stim-button","83","339600","0.0-2.0-22.3-1.3","5eecf88a4e531e0e897631df","A3","batch1","","1150","tol_toboard","","","","tol_peg_2","1150","1150","0","[[0,0,0],[2,1],[3]]","4","[[0,0,0],[1,2],[3]]","4","0","","","","","","7","","","","","","","","",""
"","","","","","single-stim-button","84","341441","0.0-2.0-22.4-0.4","5eecf88a4e531e0e897631df","A3","batch1","","1841","tol_tohand","","","","tol_peg_2","1841","1841","0","[[0,0,0],[2,0],[3]]","5","[[0,0,0],[1,2],[3]]","4","0","","","","","","7","","","","","","","","",""
"","","","","","single-stim-button","85","344478","0.0-2.0-22.4-1.4","5eecf88a4e531e0e897631df","A3","batch1","","3035","tol_toboard","","","","tol_peg_1","3035","3035","0","[[1,0,0],[2,0],[3]]","5","[[0,0,0],[1,2],[3]]","4","0","","","","","","7","","","","","","","","",""
"","","","","","single-stim-button","86","346174","0.0-2.0-22.5-0.5","5eecf88a4e531e0e897631df","A3","batch1","","1694","tol_tohand","","","","tol_peg_2","1694","1694","0","[[1,0,0],[0,0],[3]]","6","[[0,0,0],[1,2],[3]]","4","0","","","","","","7","","","","","","","","",""
"","","","","","single-stim-button","87","349015","0.0-2.0-22.5-1.5","5eecf88a4e531e0e897631df","A3","batch1","","2840","tol_toboard","","","","tol_peg_2","2840","2840","0","[[1,0,0],[2,0],[3]]","6","[[0,0,0],[1,2],[3]]","4","0","","","","","","7","","","","","","","","",""
"","","","","","single-stim-button","88","351491","0.0-2.0-22.6-0.6","5eecf88a4e531e0e897631df","A3","batch1","","2474","tol_tohand","","","","tol_peg_3","2474","2474","0","[[1,0,0],[2,0],[0]]","7","[[0,0,0],[1,2],[3]]","4","0","","","","","","7","","","","","","","","",""
"","","","","","single-stim-button","89","352407","0.0-2.0-22.6-1.6","5eecf88a4e531e0e897631df","A3","batch1","","915","tol_toboard","","","","tol_peg_1","915","915","0","[[1,3,0],[2,0],[0]]","7","[[0,0,0],[1,2],[3]]","4","0","","","","","","7","","","","","","","","",""
"","","","","","single-stim-button","90","353487","0.0-2.0-22.7-0.7","5eecf88a4e531e0e897631df","A3","batch1","","1079","tol_tohand","","","","tol_peg_2","1079","1079","0","[[1,3,0],[0,0],[0]]","8","[[0,0,0],[1,2],[3]]","4","0","","","","","","7","","","","","","","","",""
"","","","","","single-stim-button","91","354231","0.0-2.0-22.7-1.7","5eecf88a4e531e0e897631df","A3","batch1","","743","tol_toboard","","","","tol_peg_3","743","743","0","[[1,3,0],[0,0],[2]]","8","[[0,0,0],[1,2],[3]]","4","0","","","","","","7","","","","","","","","",""
"","","","","","single-stim-button","92","359257","0.0-2.0-22.8-0.8","5eecf88a4e531e0e897631df","A3","batch1","","5024","tol_tohand","","","","tol_peg_1","5024","5024","0","[[1,0,0],[0,0],[2]]","9","[[0,0,0],[1,2],[3]]","4","0","","","","","","7","","","","","","","","",""
"","","","","","single-stim-button","93","360596","0.0-2.0-22.8-1.8","5eecf88a4e531e0e897631df","A3","batch1","","1338","tol_toboard","","","","tol_peg_2","1338","1338","0","[[1,0,0],[3,0],[2]]","9","[[0,0,0],[1,2],[3]]","4","0","","","","","","7","","","","","","","","",""
"","","","","","single-stim-button","94","361590","0.0-2.0-22.9-0.9","5eecf88a4e531e0e897631df","A3","batch1","","993","tol_tohand","","","","tol_peg_2","993","993","0","[[1,0,0],[0,0],[2]]","10","[[0,0,0],[1,2],[3]]","4","0","","","","","","7","","","","","","","","",""
"","","","","","single-stim-button","95","364013","0.0-2.0-22.9-1.9","5eecf88a4e531e0e897631df","A3","batch1","","2421","tol_toboard","","","","tol_peg_1","2421","2421","0","[[1,3,0],[0,0],[2]]","10","[[0,0,0],[1,2],[3]]","4","0","","","","","","7","","","","","","","","",""
"","","","","","single-stim-button","96","366129","0.0-2.0-22.10-0.10","5eecf88a4e531e0e897631df","A3","batch1","","2114","tol_tohand","","","","tol_peg_3","2114","2114","0","[[1,3,0],[0,0],[0]]","11","[[0,0,0],[1,2],[3]]","4","0","","","","","","7","","","","","","","","",""
"","","","","","single-stim-button","97","367515","0.0-2.0-22.10-1.10","5eecf88a4e531e0e897631df","A3","batch1","","1385","tol_toboard","","","","tol_peg_1","1385","1385","0","[[1,3,2],[0,0],[0]]","11","[[0,0,0],[1,2],[3]]","4","0","","","","","","7","","","","","","","","",""
"","","","","","single-stim-button","98","369364","0.0-2.0-22.11-0.11","5eecf88a4e531e0e897631df","A3","batch1","","1847","tol_tohand","","","","tol_peg_1","1847","1847","0","[[1,3,0],[0,0],[0]]","12","[[0,0,0],[1,2],[3]]","4","0","","","","","","7","","","","","","","","",""
"","","","","","single-stim-button","99","372348","0.0-2.0-22.11-1.11","5eecf88a4e531e0e897631df","A3","batch1","","2982","tol_toboard","","","","tol_peg_2","2982","2982","0","[[1,3,0],[2,0],[0]]","12","[[0,0,0],[1,2],[3]]","4","0","","","","","","7","","","","","","","","",""
"","","","","","single-stim-button","100","373018","0.0-2.0-22.12-0.12","5eecf88a4e531e0e897631df","A3","batch1","","668","tol_tohand","","","","tol_peg_1","668","668","0","[[1,0,0],[2,0],[0]]","13","[[0,0,0],[1,2],[3]]","4","0","","","","","","7","","","","","","","","",""
"","","","","","single-stim-button","101","374003","0.0-2.0-22.12-1.12","5eecf88a4e531e0e897631df","A3","batch1","","983","tol_toboard","","","","tol_peg_3","983","983","0","[[1,0,0],[2,0],[3]]","13","[[0,0,0],[1,2],[3]]","4","0","","","","","","7","","","","","","","","",""
"","","","","","single-stim-button","102","377709","0.0-2.0-22.13-0.13","5eecf88a4e531e0e897631df","A3","batch1","","3705","tol_tohand","","","","tol_peg_1","3705","3705","0","[[0,0,0],[2,0],[3]]","14","[[0,0,0],[1,2],[3]]","4","0","","","","","","7","","","","","","","","",""
"","","","","","single-stim-button","103","381507","0.0-2.0-22.13-1.13","5eecf88a4e531e0e897631df","A3","batch1","","3797","tol_toboard","","","","tol_peg_1","3797","3797","0","[[1,0,0],[2,0],[3]]","14","[[0,0,0],[1,2],[3]]","4","0","","","","","","7","","","","","","","","",""
"","","","","","single-stim-button","104","383489","0.0-2.0-22.14-0.14","5eecf88a4e531e0e897631df","A3","batch1","","1980","tol_tohand","","","","tol_peg_2","1980","1980","0","[[1,0,0],[0,0],[3]]","15","[[0,0,0],[1,2],[3]]","4","0","","","","","","7","","","","","","","","",""
"","","","","","single-stim-button","105","385015","0.0-2.0-22.14-1.14","5eecf88a4e531e0e897631df","A3","batch1","","1524","tol_toboard","","","","tol_peg_1","1524","1524","0","[[1,2,0],[0,0],[3]]","15","[[0,0,0],[1,2],[3]]","4","0","","","","","","7","","","","","","","","",""
"","","","","","single-stim-button","106","387763","0.0-2.0-22.15-0.15","5eecf88a4e531e0e897631df","A3","batch1","","2747","tol_tohand","","","","tol_peg_1","2747","2747","0","[[1,0,0],[0,0],[3]]","16","[[0,0,0],[1,2],[3]]","4","0","","","","","","7","","","","","","","","",""
"","","","","","single-stim-button","107","396296","0.0-2.0-22.15-1.15","5eecf88a4e531e0e897631df","A3","batch1","","8532","tol_toboard","","","","tol_peg_2","8532","8532","0","[[1,0,0],[2,0],[3]]","16","[[0,0,0],[1,2],[3]]","4","0","","","","","","7","","","","","","","","",""
"","","","","","single-stim-button","108","397652","0.0-2.0-22.16-0.16","5eecf88a4e531e0e897631df","A3","batch1","","1354","tol_tohand","","","","tol_peg_3","1354","1354","0","[[1,0,0],[2,0],[0]]","17","[[0,0,0],[1,2],[3]]","4","0","","","","","","7","","","","","","","","",""
"","","","","","single-stim-button","109","400840","0.0-2.0-22.16-1.16","5eecf88a4e531e0e897631df","A3","batch1","","3186","tol_toboard","","","","tol_peg_2","3186","3186","0","[[1,0,0],[2,3],[0]]","17","[[0,0,0],[1,2],[3]]","4","0","","","","","","7","","","","","","","","",""
"","","","","","single-stim-button","110","401580","0.0-2.0-22.17-0.17","5eecf88a4e531e0e897631df","A3","batch1","","738","tol_tohand","","","","tol_peg_1","738","738","0","[[0,0,0],[2,3],[0]]","18","[[0,0,0],[1,2],[3]]","4","0","","","","","","7","","","","","","","","",""
"","","","","","single-stim-button","111","402454","0.0-2.0-22.17-1.17","5eecf88a4e531e0e897631df","A3","batch1","","872","tol_toboard","","","","tol_peg_3","872","872","0","[[0,0,0],[2,3],[1]]","18","[[0,0,0],[1,2],[3]]","4","0","","","","","","7","","","","","","","","",""
"","","","","","single-stim-button","112","404392","0.0-2.0-22.18-0.18","5eecf88a4e531e0e897631df","A3","batch1","","1937","tol_tohand","","","","tol_peg_2","1937","1937","0","[[0,0,0],[2,0],[1]]","19","[[0,0,0],[1,2],[3]]","4","0","","","","","","7","","","","","","","","",""
"","","","","","single-stim-button","113","405577","0.0-2.0-22.18-1.18","5eecf88a4e531e0e897631df","A3","batch1","","1183","tol_toboard","","","","tol_peg_1","1183","1183","0","[[3,0,0],[2,0],[1]]","19","[[0,0,0],[1,2],[3]]","4","0","","","","","","7","","","","","","","","",""
"","","","","","single-stim-button","114","407414","0.0-2.0-22.19-0.19","5eecf88a4e531e0e897631df","A3","batch1","","1835","tol_tohand","","","","tol_peg_2","1835","1835","0","[[3,0,0],[0,0],[1]]","20","[[0,0,0],[1,2],[3]]","4","0","","","","","","7","","","","","","","","",""
"","","","","","single-stim-button","115","408294","0.0-2.0-22.19-1.19","5eecf88a4e531e0e897631df","A3","batch1","","878","tol_toboard","","","","tol_peg_1","878","878","0","[[3,2,0],[0,0],[1]]","20","[[0,0,0],[1,2],[3]]","4","0","","","","","","7","","","","","","","","",""
"","","","","","single-stim-button","116","409167","0.0-2.0-22.20-0.20","5eecf88a4e531e0e897631df","A3","batch1","","871","tol_tohand","","","","tol_peg_3","871","871","0","[[3,2,0],[0,0],[0]]","21","[[0,0,0],[1,2],[3]]","4","0","","","","","","7","","","","","","","","",""
"","","","","","single-stim-button","117","410333","0.0-2.0-22.20-1.20","5eecf88a4e531e0e897631df","A3","batch1","","1165","tol_toboard","","","","tol_peg_2","1165","1165","0","[[3,2,0],[1,0],[0]]","21","[[0,0,0],[1,2],[3]]","4","0","","","","","","7","","","","","","","","",""
"","","","","","single-stim-button","118","411399","0.0-2.0-22.21-0.21","5eecf88a4e531e0e897631df","A3","batch1","","1064","tol_tohand","","","","tol_peg_1","1064","1064","0","[[3,0,0],[1,0],[0]]","22","[[0,0,0],[1,2],[3]]","4","0","","","","","","7","","","","","","","","",""
"","","","","","single-stim-button","119","412203","0.0-2.0-22.21-1.21","5eecf88a4e531e0e897631df","A3","batch1","","802","tol_toboard","","","","tol_peg_2","802","802","0","[[3,0,0],[1,2],[0]]","22","[[0,0,0],[1,2],[3]]","4","0","","","","","","7","","","","","","","","",""
"","","","","","single-stim-button","120","412916","0.0-2.0-22.22-0.22","5eecf88a4e531e0e897631df","A3","batch1","","710","tol_tohand","","","","tol_peg_1","710","710","0","[[0,0,0],[1,2],[0]]","23","[[0,0,0],[1,2],[3]]","4","0","","","","","","7","","","","","","","","",""
"","","","","","single-stim-button","121","413875","0.0-2.0-22.22-1.22","5eecf88a4e531e0e897631df","A3","batch1","","957","tol_toboard","","","","tol_peg_3","957","957","0","[[0,0,0],[1,2],[3]]","23","[[0,0,0],[1,2],[3]]","4","0","","","","","","7","","","","","","","","",""
"","","","","","poldrack-single-stim","122","414881","0.0-2.0-23.0","5eecf88a4e531e0e897631df","A3","batch1","","-1","tol_feedback","","","true","","1000","1000","500","","","","","","-1","none","true","3020","65327","","","","","","","","","",""
"","","","","","html-button-response","123","416405","0.0-2.0-24.0","5eecf88a4e531e0e897631df","A3","batch1","","1522.0999999046326","tol_trial_num","<div class = centerbox><p class = center-block-text>problem <strong>6</strong> out of 25 problems</p></div>","0","","","","","","","","","","","","","","","","","","","","","","","","",""
"","","","","","single-stim-button","124","432887","0.0-2.0-25.0-0.0","5eecf88a4e531e0e897631df","A3","batch1","","16481","tol_tohand","","","","tol_peg_3","16481","16481","0","[[0,0,0],[1,2],[0]]","1","[[1,0,0],[2,3],[0]]","5","0","","","","","","6","","","","","","","","",""
"","","","","","single-stim-button","125","443025","0.0-2.0-25.0-1.0","5eecf88a4e531e0e897631df","A3","batch1","","10137","tol_toboard","","","","tol_peg_1","10137","10137","0","[[3,0,0],[1,2],[0]]","1","[[1,0,0],[2,3],[0]]","5","0","","","","","","6","","","","","","","","",""
"","","","","","single-stim-button","126","451044","0.0-2.0-25.1-0.1","5eecf88a4e531e0e897631df","A3","batch1","","8017","tol_tohand","","","","tol_peg_2","8017","8017","0","[[3,0,0],[1,0],[0]]","2","[[1,0,0],[2,3],[0]]","5","0","","","","","","6","","","","","","","","",""
"","","","","","single-stim-button","127","451944","0.0-2.0-25.1-1.1","5eecf88a4e531e0e897631df","A3","batch1","","898","tol_toboard","","","","tol_peg_1","898","898","0","[[3,2,0],[1,0],[0]]","2","[[1,0,0],[2,3],[0]]","5","0","","","","","","6","","","","","","","","",""
"","","","","","single-stim-button","128","453800","0.0-2.0-25.2-0.2","5eecf88a4e531e0e897631df","A3","batch1","","1855","tol_tohand","","","","tol_peg_2","1855","1855","0","[[3,2,0],[0,0],[0]]","3","[[1,0,0],[2,3],[0]]","5","0","","","","","","6","","","","","","","","",""
"","","","","","single-stim-button","129","455524","0.0-2.0-25.2-1.2","5eecf88a4e531e0e897631df","A3","batch1","","1723","tol_toboard","","","","tol_peg_3","1723","1723","0","[[3,2,0],[0,0],[1]]","3","[[1,0,0],[2,3],[0]]","5","0","","","","","","6","","","","","","","","",""
"","","","","","single-stim-button","130","457841","0.0-2.0-25.3-0.3","5eecf88a4e531e0e897631df","A3","batch1","","2316","tol_tohand","","","","tol_peg_1","2316","2316","0","[[3,0,0],[0,0],[1]]","4","[[1,0,0],[2,3],[0]]","5","0","","","","","","6","","","","","","","","",""
"","","","","","single-stim-button","131","458687","0.0-2.0-25.3-1.3","5eecf88a4e531e0e897631df","A3","batch1","","844","tol_toboard","","","","tol_peg_2","844","844","0","[[3,0,0],[2,0],[1]]","4","[[1,0,0],[2,3],[0]]","5","0","","","","","","6","","","","","","","","",""
"","","","","","single-stim-button","132","459651","0.0-2.0-25.4-0.4","5eecf88a4e531e0e897631df","A3","batch1","","964","tol_tohand","","","","tol_peg_1","964","964","0","[[0,0,0],[2,0],[1]]","5","[[1,0,0],[2,3],[0]]","5","0","","","","","","6","","","","","","","","",""
"","","","","","single-stim-button","133","460568","0.0-2.0-25.4-1.4","5eecf88a4e531e0e897631df","A3","batch1","","916","tol_toboard","","","","tol_peg_2","916","916","0","[[0,0,0],[2,3],[1]]","5","[[1,0,0],[2,3],[0]]","5","0","","","","","","6","","","","","","","","",""
"","","","","","single-stim-button","134","461329","0.0-2.0-25.5-0.5","5eecf88a4e531e0e897631df","A3","batch1","","759","tol_tohand","","","","tol_peg_3","759","759","0","[[0,0,0],[2,3],[0]]","6","[[1,0,0],[2,3],[0]]","5","0","","","","","","6","","","","","","","","",""
"","","","","","single-stim-button","135","462441","0.0-2.0-25.5-1.5","5eecf88a4e531e0e897631df","A3","batch1","","1110","tol_toboard","","","","tol_peg_1","1110","1110","0","[[1,0,0],[2,3],[0]]","6","[[1,0,0],[2,3],[0]]","5","0","","","","","","6","","","","","","","","",""
"","","","","","poldrack-single-stim","136","463443","0.0-2.0-26.0","5eecf88a4e531e0e897631df","A3","batch1","","-1","tol_feedback","","","true","","1000","1000","500","","","","","","-1","none","true","16481","30392","","","","","","","","","",""
"","","","","","html-button-response","137","464444","0.0-2.0-27.0","5eecf88a4e531e0e897631df","A3","batch1","","1000","tol_trial_num","<div class = centerbox><p class = center-block-text>problem <strong>7</strong> out of 25 problems</p></div>","0","","","","","","","","","","","","","","","","","","","","","","","","",""
"","","","","","single-stim-button","138","473861","0.0-2.0-28.0-0.0","5eecf88a4e531e0e897631df","A3","batch1","","9413","tol_tohand","","","","tol_peg_3","9413","9413","0","[[2,1,0],[0,0],[0]]","1","[[1,2,0],[3,0],[0]]","6","0","","","","","","5","","","","","","","","",""
"","","","","","single-stim-button","139","474835","0.0-2.0-28.0-1.0","5eecf88a4e531e0e897631df","A3","batch1","","973","tol_toboard","","","","tol_peg_2","973","973","0","[[2,1,0],[3,0],[0]]","1","[[1,2,0],[3,0],[0]]","6","0","","","","","","5","","","","","","","","",""
"","","","","","single-stim-button","140","476436","0.0-2.0-28.1-0.1","5eecf88a4e531e0e897631df","A3","batch1","","1598","tol_tohand","","","","tol_peg_1","1598","1598","0","[[2,0,0],[3,0],[0]]","2","[[1,2,0],[3,0],[0]]","6","0","","","","","","5","","","","","","","","",""
"","","","","","single-stim-button","141","477396","0.0-2.0-28.1-1.1","5eecf88a4e531e0e897631df","A3","batch1","","958","tol_toboard","","","","tol_peg_3","958","958","0","[[2,0,0],[3,0],[1]]","2","[[1,2,0],[3,0],[0]]","6","0","","","","","","5","","","","","","","","",""
"","","","","","single-stim-button","142","478768","0.0-2.0-28.2-0.2","5eecf88a4e531e0e897631df","A3","batch1","","1370","tol_tohand","","","","tol_peg_1","1370","1370","0","[[0,0,0],[3,0],[1]]","3","[[1,2,0],[3,0],[0]]","6","0","","","","","","5","","","","","","","","",""
"","","","","","single-stim-button","143","479802","0.0-2.0-28.2-1.2","5eecf88a4e531e0e897631df","A3","batch1","","1032","tol_toboard","","","","tol_peg_2","1032","1032","0","[[0,0,0],[3,2],[1]]","3","[[1,2,0],[3,0],[0]]","6","0","","","","","","5","","","","","","","","",""
"","","","","","single-stim-button","144","481312","0.0-2.0-28.3-0.3","5eecf88a4e531e0e897631df","A3","batch1","","1508","tol_tohand","","","","tol_peg_3","1508","1508","0","[[0,0,0],[3,2],[0]]","4","[[1,2,0],[3,0],[0]]","6","0","","","","","","5","","","","","","","","",""
"","","","","","single-stim-button","145","482010","0.0-2.0-28.3-1.3","5eecf88a4e531e0e897631df","A3","batch1","","695","tol_toboard","","","","tol_peg_1","695","695","0","[[1,0,0],[3,2],[0]]","4","[[1,2,0],[3,0],[0]]","6","0","","","","","","5","","","","","","","","",""
"","","","","","single-stim-button","146","482838","0.0-2.0-28.4-0.4","5eecf88a4e531e0e897631df","A3","batch1","","825","tol_tohand","","","","tol_peg_2","825","825","0","[[1,0,0],[3,0],[0]]","5","[[1,2,0],[3,0],[0]]","6","0","","","","","","5","","","","","","","","",""
"","","","","","single-stim-button","147","483873","0.0-2.0-28.4-1.4","5eecf88a4e531e0e897631df","A3","batch1","","1034","tol_toboard","","","","tol_peg_1","1034","1034","0","[[1,2,0],[3,0],[0]]","5","[[1,2,0],[3,0],[0]]","6","0","","","","","","5","","","","","","","","",""
"","","","","","poldrack-single-stim","148","484883","0.0-2.0-29.0","5eecf88a4e531e0e897631df","A3","batch1","","-1","tol_feedback","","","true","","1000","1000","500","","","","","","-1","none","true","9413","14714","","","","","","","","","",""
"","","","","","html-button-response","149","485642","0.0-2.0-30.0","5eecf88a4e531e0e897631df","A3","batch1","","757.0999999046326","tol_trial_num","<div class = centerbox><p class = center-block-text>problem <strong>8</strong> out of 25 problems</p></div>","0","","","","","","","","","","","","","","","","","","","","","","","","",""
"","","","","","single-stim-button","150","490861","0.0-2.0-31.0-0.0","5eecf88a4e531e0e897631df","A3","batch1","","5217","tol_tohand","","","","tol_peg_3","5217","5217","0","[[0,0,0],[2,3],[0]]","1","[[1,2,0],[3,0],[0]]","7","0","","","","","","4","","","","","","","","",""
"","","","","","single-stim-button","151","491935","0.0-2.0-31.0-1.0","5eecf88a4e531e0e897631df","A3","batch1","","1073","tol_toboard","","","","tol_peg_1","1073","1073","0","[[1,0,0],[2,3],[0]]","1","[[1,2,0],[3,0],[0]]","7","0","","","","","","4","","","","","","","","",""
"","","","","","single-stim-button","152","493354","0.0-2.0-31.1-0.1","5eecf88a4e531e0e897631df","A3","batch1","","1419","tol_tohand","","","","tol_peg_2","1419","1419","0","[[1,0,0],[2,0],[0]]","2","[[1,2,0],[3,0],[0]]","7","0","","","","","","4","","","","","","","","",""
"","","","","","single-stim-button","153","494214","0.0-2.0-31.1-1.1","5eecf88a4e531e0e897631df","A3","batch1","","859","tol_toboard","","","","tol_peg_3","859","859","0","[[1,0,0],[2,0],[3]]","2","[[1,2,0],[3,0],[0]]","7","0","","","","","","4","","","","","","","","",""
"","","","","","single-stim-button","154","495132","0.0-2.0-31.2-0.2","5eecf88a4e531e0e897631df","A3","batch1","","917","tol_tohand","","","","tol_peg_2","917","917","0","[[1,0,0],[0,0],[3]]","3","[[1,2,0],[3,0],[0]]","7","0","","","","","","4","","","","","","","","",""
"","","","","","single-stim-button","155","495922","0.0-2.0-31.2-1.2","5eecf88a4e531e0e897631df","A3","batch1","","788","tol_toboard","","","","tol_peg_1","788","788","0","[[1,2,0],[0,0],[3]]","3","[[1,2,0],[3,0],[0]]","7","0","","","","","","4","","","","","","","","",""
"","","","","","single-stim-button","156","496745","0.0-2.0-31.3-0.3","5eecf88a4e531e0e897631df","A3","batch1","","821","tol_tohand","","","","tol_peg_3","821","821","0","[[1,2,0],[0,0],[0]]","4","[[1,2,0],[3,0],[0]]","7","0","","","","","","4","","","","","","","","",""
"","","","","","single-stim-button","157","497539","0.0-2.0-31.3-1.3","5eecf88a4e531e0e897631df","A3","batch1","","792","tol_toboard","","","","tol_peg_2","792","792","0","[[1,2,0],[3,0],[0]]","4","[[1,2,0],[3,0],[0]]","7","0","","","","","","4","","","","","","","","",""
"","","","","","poldrack-single-stim","158","498541","0.0-2.0-32.0","5eecf88a4e531e0e897631df","A3","batch1","","-1","tol_feedback","","","true","","1000","1000","500","","","","","","-1","none","true","5217","8374","","","","","","","","","",""
"","","","","","html-button-response","159","499571","0.0-2.0-33.0","5eecf88a4e531e0e897631df","A3","batch1","","1028","tol_trial_num","<div class = centerbox><p class = center-block-text>problem <strong>9</strong> out of 25 problems</p></div>","0","","","","","","","","","","","","","","","","","","","","","","","","",""
"","","","","","single-stim-button","160","513177","0.0-2.0-34.0-0.0","5eecf88a4e531e0e897631df","A3","batch1","","13604","tol_tohand","","","","tol_peg_1","13604","13604","0","[[3,0,0],[0,0],[1]]","1","[[2,1,0],[3,0],[0]]","8","0","","","","","","6","","","","","","","","",""
"","","","","","single-stim-button","161","514196","0.0-2.0-34.0-1.0","5eecf88a4e531e0e897631df","A3","batch1","","1017","tol_toboard","","","","tol_peg_2","1017","1017","0","[[3,0,0],[2,0],[1]]","1","[[2,1,0],[3,0],[0]]","8","0","","","","","","6","","","","","","","","",""
"","","","","","single-stim-button","162","519202","0.0-2.0-34.1-0.1","5eecf88a4e531e0e897631df","A3","batch1","","5004","tol_tohand","","","","tol_peg_1","5004","5004","0","[[0,0,0],[2,0],[1]]","2","[[2,1,0],[3,0],[0]]","8","0","","","","","","6","","","","","","","","",""
"","","","","","single-stim-button","163","521954","0.0-2.0-34.1-1.1","5eecf88a4e531e0e897631df","A3","batch1","","2750","tol_toboard","","","","tol_peg_1","2750","2750","0","[[3,0,0],[2,0],[1]]","2","[[2,1,0],[3,0],[0]]","8","0","","","","","","6","","","","","","","","",""
"","","","","","single-stim-button","164","522782","0.0-2.0-34.2-0.2","5eecf88a4e531e0e897631df","A3","batch1","","826","tol_tohand","","","","tol_peg_3","826","826","0","[[3,0,0],[2,0],[0]]","3","[[2,1,0],[3,0],[0]]","8","0","","","","","","6","","","","","","","","",""
"","","","","","single-stim-button","165","523377","0.0-2.0-34.2-1.2","5eecf88a4e531e0e897631df","A3","batch1","","593","tol_toboard","","","","tol_peg_2","593","593","0","[[3,0,0],[2,1],[0]]","3","[[2,1,0],[3,0],[0]]","8","0","","","","","","6","","","","","","","","",""
"","","","","","single-stim-button","166","525259","0.0-2.0-34.3-0.3","5eecf88a4e531e0e897631df","A3","batch1","","1882","tol_tohand","","","","tol_peg_2","1882","1882","0","[[3,0,0],[2,0],[0]]","4","[[2,1,0],[3,0],[0]]","8","0","","","","","","6","","","","","","","","",""
"","","","","","single-stim-button","167","526047","0.0-2.0-34.3-1.3","5eecf88a4e531e0e897631df","A3","batch1","","786","tol_toboard","","","","tol_peg_1","786","786","0","[[3,1,0],[2,0],[0]]","4","[[2,1,0],[3,0],[0]]","8","0","","","","","","6","","","","","","","","",""
"","","","","","single-stim-button","168","526702","0.0-2.0-34.4-0.4","5eecf88a4e531e0e897631df","A3","batch1","","653","tol_tohand","","","","tol_peg_2","653","653","0","[[3,1,0],[0,0],[0]]","5","[[2,1,0],[3,0],[0]]","8","0","","","","","","6","","","","","","","","",""
"","","","","","single-stim-button","169","527574","0.0-2.0-34.4-1.4","5eecf88a4e531e0e897631df","A3","batch1","","870","tol_toboard","","","","tol_peg_3","870","870","0","[[3,1,0],[0,0],[2]]","5","[[2,1,0],[3,0],[0]]","8","0","","","","","","6","","","","","","","","",""
"","","","","","single-stim-button","170","532032","0.0-2.0-34.5-0.5","5eecf88a4e531e0e897631df","A3","batch1","","4455","tol_tohand","","","","tol_peg_1","4455","4455","0","[[3,0,0],[0,0],[2]]","6","[[2,1,0],[3,0],[0]]","8","0","","","","","","6","","","","","","","","",""
"","","","","","single-stim-button","171","532893","0.0-2.0-34.5-1.5","5eecf88a4e531e0e897631df","A3","batch1","","860","tol_toboard","","","","tol_peg_2","860","860","0","[[3,0,0],[1,0],[2]]","6","[[2,1,0],[3,0],[0]]","8","0","","","","","","6","","","","","","","","",""
"","","","","","single-stim-button","172","535131","0.0-2.0-34.6-0.6","5eecf88a4e531e0e897631df","A3","batch1","","2236","tol_tohand","","","","tol_peg_1","2236","2236","0","[[0,0,0],[1,0],[2]]","7","[[2,1,0],[3,0],[0]]","8","0","","","","","","6","","","","","","","","",""
"","","","","","single-stim-button","173","535909","0.0-2.0-34.6-1.6","5eecf88a4e531e0e897631df","A3","batch1","","776","tol_toboard","","","","tol_peg_2","776","776","0","[[0,0,0],[1,3],[2]]","7","[[2,1,0],[3,0],[0]]","8","0","","","","","","6","","","","","","","","",""
"","","","","","single-stim-button","174","536841","0.0-2.0-34.7-0.7","5eecf88a4e531e0e897631df","A3","batch1","","931","tol_tohand","","","","tol_peg_3","931","931","0","[[0,0,0],[1,3],[0]]","8","[[2,1,0],[3,0],[0]]","8","0","","","","","","6","","","","","","","","",""
"","","","","","single-stim-button","175","537622","0.0-2.0-34.7-1.7","5eecf88a4e531e0e897631df","A3","batch1","","780","tol_toboard","","","","tol_peg_1","780","780","0","[[2,0,0],[1,3],[0]]","8","[[2,1,0],[3,0],[0]]","8","0","","","","","","6","","","","","","","","",""
"","","","","","single-stim-button","176","538992","0.0-2.0-34.8-0.8","5eecf88a4e531e0e897631df","A3","batch1","","1368","tol_tohand","","","","tol_peg_2","1368","1368","0","[[2,0,0],[1,0],[0]]","9","[[2,1,0],[3,0],[0]]","8","0","","","","","","6","","","","","","","","",""
"","","","","","single-stim-button","177","540047","0.0-2.0-34.8-1.8","5eecf88a4e531e0e897631df","A3","batch1","","1053","tol_toboard","","","","tol_peg_3","1053","1053","0","[[2,0,0],[1,0],[3]]","9","[[2,1,0],[3,0],[0]]","8","0","","","","","","6","","","","","","","","",""
"","","","","","single-stim-button","178","540842","0.0-2.0-34.9-0.9","5eecf88a4e531e0e897631df","A3","batch1","","793","tol_tohand","","","","tol_peg_2","793","793","0","[[2,0,0],[0,0],[3]]","10","[[2,1,0],[3,0],[0]]","8","0","","","","","","6","","","","","","","","",""
"","","","","","single-stim-button","179","541822","0.0-2.0-34.9-1.9","5eecf88a4e531e0e897631df","A3","batch1","","979","tol_toboard","","","","tol_peg_1","979","979","0","[[2,1,0],[0,0],[3]]","10","[[2,1,0],[3,0],[0]]","8","0","","","","","","6","","","","","","","","",""
"","","","","","single-stim-button","180","542674","0.0-2.0-34.10-0.10","5eecf88a4e531e0e897631df","A3","batch1","","849","tol_tohand","","","","tol_peg_3","849","849","0","[[2,1,0],[0,0],[0]]","11","[[2,1,0],[3,0],[0]]","8","0","","","","","","6","","","","","","","","",""
"","","","","","single-stim-button","181","543490","0.0-2.0-34.10-1.10","5eecf88a4e531e0e897631df","A3","batch1","","814","tol_toboard","","","","tol_peg_2","814","814","0","[[2,1,0],[3,0],[0]]","11","[[2,1,0],[3,0],[0]]","8","0","","","","","","6","","","","","","","","",""
"","","","","","poldrack-single-stim","182","544493","0.0-2.0-35.0","5eecf88a4e531e0e897631df","A3","batch1","","-1","tol_feedback","","","true","","1000","1000","500","","","","","","-1","none","true","13604","32601","","","","","","","","","",""
"","","","","","html-button-response","183","545461","0.0-2.0-36.0","5eecf88a4e531e0e897631df","A3","batch1","","965.7000002861023","tol_trial_num","<div class = centerbox><p class = center-block-text>problem <strong>10</strong> out of 25 problems</p></div>","0","","","","","","","","","","","","","","","","","","","","","","","","",""
"","","","","","single-stim-button","184","557733","0.0-2.0-37.0-0.0","5eecf88a4e531e0e897631df","A3","batch1","","12270","tol_tohand","","","","tol_peg_3","12270","12270","0","[[3,0,0],[1,0],[0]]","1","[[3,0,0],[2,1],[0]]","9","0","","","","","","3","","","","","","","","",""
"","","","","","single-stim-button","185","558494","0.0-2.0-37.0-1.0","5eecf88a4e531e0e897631df","A3","batch1","","759","tol_toboard","","","","tol_peg_1","759","759","0","[[3,2,0],[1,0],[0]]","1","[[3,0,0],[2,1],[0]]","9","0","","","","","","3","","","","","","","","",""
"","","","","","single-stim-button","186","560143","0.0-2.0-37.1-0.1","5eecf88a4e531e0e897631df","A3","batch1","","1647","tol_tohand","","","","tol_peg_2","1647","1647","0","[[3,2,0],[0,0],[0]]","2","[[3,0,0],[2,1],[0]]","9","0","","","","","","3","","","","","","","","",""
"","","","","","single-stim-button","187","561213","0.0-2.0-37.1-1.1","5eecf88a4e531e0e897631df","A3","batch1","","1068","tol_toboard","","","","tol_peg_3","1068","1068","0","[[3,2,0],[0,0],[1]]","2","[[3,0,0],[2,1],[0]]","9","0","","","","","","3","","","","","","","","",""
"","","","","","single-stim-button","188","562397","0.0-2.0-37.2-0.2","5eecf88a4e531e0e897631df","A3","batch1","","1182","tol_tohand","","","","tol_peg_1","1182","1182","0","[[3,0,0],[0,0],[1]]","3","[[3,0,0],[2,1],[0]]","9","0","","","","","","3","","","","","","","","",""
"","","","","","single-stim-button","189","563326","0.0-2.0-37.2-1.2","5eecf88a4e531e0e897631df","A3","batch1","","927","tol_toboard","","","","tol_peg_2","927","927","0","[[3,0,0],[2,0],[1]]","3","[[3,0,0],[2,1],[0]]","9","0","","","","","","3","","","","","","","","",""
"","","","","","single-stim-button","190","564023","0.0-2.0-37.3-0.3","5eecf88a4e531e0e897631df","A3","batch1","","696","tol_tohand","","","","tol_peg_3","696","696","0","[[3,0,0],[2,0],[0]]","4","[[3,0,0],[2,1],[0]]","9","0","","","","","","3","","","","","","","","",""
"","","","","","single-stim-button","191","564939","0.0-2.0-37.3-1.3","5eecf88a4e531e0e897631df","A3","batch1","","915","tol_toboard","","","","tol_peg_2","915","915","0","[[3,0,0],[2,1],[0]]","4","[[3,0,0],[2,1],[0]]","9","0","","","","","","3","","","","","","","","",""
"","","","","","poldrack-single-stim","192","565951","0.0-2.0-38.0","5eecf88a4e531e0e897631df","A3","batch1","","-1","tol_feedback","","","true","","1000","1000","500","","","","","","-1","none","true","12270","15795","","","","","","","","","",""
"","","","","","html-button-response","193","566704","0.0-2.0-39.0","5eecf88a4e531e0e897631df","A3","batch1","","751.7999997138977","tol_trial_num","<div class = centerbox><p class = center-block-text>problem <strong>11</strong> out of 25 problems</p></div>","0","","","","","","","","","","","","","","","","","","","","","","","","",""
"","","","","","single-stim-button","194","570581","0.0-2.0-40.0-0.0","5eecf88a4e531e0e897631df","A3","batch1","","3875","tol_tohand","","","","tol_peg_2","3875","3875","0","[[1,2,0],[0,0],[0]]","1","[[2,0,0],[1,3],[0]]","10","0","","","","","","6","","","","","","","","",""
"","","","","","single-stim-button","195","571623","0.0-2.0-40.0-1.0","5eecf88a4e531e0e897631df","A3","batch1","","1040","tol_toboard","","","","tol_peg_3","1040","1040","0","[[1,2,0],[0,0],[3]]","1","[[2,0,0],[1,3],[0]]","10","0","","","","","","6","","","","","","","","",""
"","","","","","single-stim-button","196","576612","0.0-2.0-40.1-0.1","5eecf88a4e531e0e897631df","A3","batch1","","4987","tol_tohand","","","","tol_peg_3","4987","4987","0","[[1,2,0],[0,0],[0]]","2","[[2,0,0],[1,3],[0]]","10","0","","","","","","6","","","","","","","","",""
"","","","","","single-stim-button","197","577460","0.0-2.0-40.1-1.1","5eecf88a4e531e0e897631df","A3","batch1","","846","tol_toboard","","","","tol_peg_2","846","846","0","[[1,2,0],[3,0],[0]]","2","[[2,0,0],[1,3],[0]]","10","0","","","","","","6","","","","","","","","",""
"","","","","","single-stim-button","198","578637","0.0-2.0-40.2-0.2","5eecf88a4e531e0e897631df","A3","batch1","","1175","tol_tohand","","","","tol_peg_1","1175","1175","0","[[1,0,0],[3,0],[0]]","3","[[2,0,0],[1,3],[0]]","10","0","","","","","","6","","","","","","","","",""
"","","","","","single-stim-button","199","581415","0.0-2.0-40.2-1.2","5eecf88a4e531e0e897631df","A3","batch1","","2776","tol_toboard","","","","tol_peg_3","2776","2776","0","[[1,0,0],[3,0],[2]]","3","[[2,0,0],[1,3],[0]]","10","0","","","","","","6","","","","","","","","",""
"","","","","","single-stim-button","200","589240","0.0-2.0-40.3-0.3","5eecf88a4e531e0e897631df","A3","batch1","","7824","tol_tohand","","","","tol_peg_3","7824","7824","0","[[1,0,0],[3,0],[0]]","4","[[2,0,0],[1,3],[0]]","10","0","","","","","","6","","","","","","","","",""
"","","","","","single-stim-button","201","591123","0.0-2.0-40.3-1.3","5eecf88a4e531e0e897631df","A3","batch1","","1880","tol_toboard","","","","tol_peg_1","1880","1880","0","[[1,2,0],[3,0],[0]]","4","[[2,0,0],[1,3],[0]]","10","0","","","","","","6","","","","","","","","",""
"","","","","","single-stim-button","202","592006","0.0-2.0-40.4-0.4","5eecf88a4e531e0e897631df","A3","batch1","","881","tol_tohand","","","","tol_peg_2","881","881","0","[[1,2,0],[0,0],[0]]","5","[[2,0,0],[1,3],[0]]","10","0","","","","","","6","","","","","","","","",""
"","","","","","single-stim-button","203","593632","0.0-2.0-40.4-1.4","5eecf88a4e531e0e897631df","A3","batch1","","1624","tol_toboard","","","","tol_peg_3","1624","1624","0","[[1,2,0],[0,0],[3]]","5","[[2,0,0],[1,3],[0]]","10","0","","","","","","6","","","","","","","","",""
"","","","","","single-stim-button","204","595463","0.0-2.0-40.5-0.5","5eecf88a4e531e0e897631df","A3","batch1","","1828","tol_tohand","","","","tol_peg_1","1828","1828","0","[[1,0,0],[0,0],[3]]","6","[[2,0,0],[1,3],[0]]","10","0","","","","","","6","","","","","","","","",""
"","","","","","single-stim-button","205","597248","0.0-2.0-40.5-1.5","5eecf88a4e531e0e897631df","A3","batch1","","1783","tol_toboard","","","","tol_peg_2","1783","1783","0","[[1,0,0],[2,0],[3]]","6","[[2,0,0],[1,3],[0]]","10","0","","","","","","6","","","","","","","","",""
"","","","","","single-stim-button","206","602725","0.0-2.0-40.6-0.6","5eecf88a4e531e0e897631df","A3","batch1","","5474","tol_tohand","","","","tol_peg_3","5474","5474","0","[[1,0,0],[2,0],[0]]","7","[[2,0,0],[1,3],[0]]","10","0","","","","","","6","","","","","","","","",""
"","","","","","single-stim-button","207","603600","0.0-2.0-40.6-1.6","5eecf88a4e531e0e897631df","A3","batch1","","872","tol_toboard","","","","tol_peg_2","872","872","0","[[1,0,0],[2,3],[0]]","7","[[2,0,0],[1,3],[0]]","10","0","","","","","","6","","","","","","","","",""
"","","","","","single-stim-button","208","604626","0.0-2.0-40.7-0.7","5eecf88a4e531e0e897631df","A3","batch1","","1024","tol_tohand","","","","tol_peg_1","1024","1024","0","[[0,0,0],[2,3],[0]]","8","[[2,0,0],[1,3],[0]]","10","0","","","","","","6","","","","","","","","",""
"","","","","","single-stim-button","209","605346","0.0-2.0-40.7-1.7","5eecf88a4e531e0e897631df","A3","batch1","","718","tol_toboard","","","","tol_peg_3","718","718","0","[[0,0,0],[2,3],[1]]","8","[[2,0,0],[1,3],[0]]","10","0","","","","","","6","","","","","","","","",""
"","","","","","single-stim-button","210","607440","0.0-2.0-40.8-0.8","5eecf88a4e531e0e897631df","A3","batch1","","2093","tol_tohand","","","","tol_peg_2","2093","2093","0","[[0,0,0],[2,0],[1]]","9","[[2,0,0],[1,3],[0]]","10","0","","","","","","6","","","","","","","","",""
"","","","","","single-stim-button","211","609460","0.0-2.0-40.8-1.8","5eecf88a4e531e0e897631df","A3","batch1","","2018","tol_toboard","","","","tol_peg_1","2018","2018","0","[[3,0,0],[2,0],[1]]","9","[[2,0,0],[1,3],[0]]","10","0","","","","","","6","","","","","","","","",""
"","","","","","single-stim-button","212","611159","0.0-2.0-40.9-0.9","5eecf88a4e531e0e897631df","A3","batch1","","1698","tol_tohand","","","","tol_peg_2","1698","1698","0","[[3,0,0],[0,0],[1]]","10","[[2,0,0],[1,3],[0]]","10","0","","","","","","6","","","","","","","","",""
"","","","","","single-stim-button","213","612156","0.0-2.0-40.9-1.9","5eecf88a4e531e0e897631df","A3","batch1","","995","tol_toboard","","","","tol_peg_1","995","995","0","[[3,2,0],[0,0],[1]]","10","[[2,0,0],[1,3],[0]]","10","0","","","","","","6","","","","","","","","",""
"","","","","","single-stim-button","214","614240","0.0-2.0-40.10-0.10","5eecf88a4e531e0e897631df","A3","batch1","","2082","tol_tohand","","","","tol_peg_3","2082","2082","0","[[3,2,0],[0,0],[0]]","11","[[2,0,0],[1,3],[0]]","10","0","","","","","","6","","","","","","","","",""
"","","","","","single-stim-button","215","615520","0.0-2.0-40.10-1.10","5eecf88a4e531e0e897631df","A3","batch1","","1278","tol_toboard","","","","tol_peg_2","1278","1278","0","[[3,2,0],[1,0],[0]]","11","[[2,0,0],[1,3],[0]]","10","0","","","","","","6","","","","","","","","",""
"","","","","","single-stim-button","216","616235","0.0-2.0-40.11-0.11","5eecf88a4e531e0e897631df","A3","batch1","","713","tol_tohand","","","","tol_peg_1","713","713","0","[[3,0,0],[1,0],[0]]","12","[[2,0,0],[1,3],[0]]","10","0","","","","","","6","","","","","","","","",""
"","","","","","single-stim-button","217","617151","0.0-2.0-40.11-1.11","5eecf88a4e531e0e897631df","A3","batch1","","912","tol_toboard","","","","tol_peg_3","912","912","0","[[3,0,0],[1,0],[2]]","12","[[2,0,0],[1,3],[0]]","10","0","","","","","","6","","","","","","","","",""
"","","","","","single-stim-button","218","618128","0.0-2.0-40.12-0.12","5eecf88a4e531e0e897631df","A3","batch1","","976","tol_tohand","","","","tol_peg_1","976","976","0","[[0,0,0],[1,0],[2]]","13","[[2,0,0],[1,3],[0]]","10","0","","","","","","6","","","","","","","","",""
"","","","","","single-stim-button","219","618958","0.0-2.0-40.12-1.12","5eecf88a4e531e0e897631df","A3","batch1","","829","tol_toboard","","","","tol_peg_2","829","829","0","[[0,0,0],[1,3],[2]]","13","[[2,0,0],[1,3],[0]]","10","0","","","","","","6","","","","","","","","",""
"","","","","","single-stim-button","220","619772","0.0-2.0-40.13-0.13","5eecf88a4e531e0e897631df","A3","batch1","","812","tol_tohand","","","","tol_peg_3","812","812","0","[[0,0,0],[1,3],[0]]","14","[[2,0,0],[1,3],[0]]","10","0","","","","","","6","","","","","","","","",""
"","","","","","single-stim-button","221","620636","0.0-2.0-40.13-1.13","5eecf88a4e531e0e897631df","A3","batch1","","862","tol_toboard","","","","tol_peg_1","862","862","0","[[2,0,0],[1,3],[0]]","14","[[2,0,0],[1,3],[0]]","10","0","","","","","","6","","","","","","","","",""
"","","","","","poldrack-single-stim","222","621649","0.0-2.0-41.0","5eecf88a4e531e0e897631df","A3","batch1","","-1","tol_feedback","","","true","","1000","1000","500","","","","","","-1","none","true","3875","35442","","","","","","","","","",""
"","","","","","html-button-response","223","622602","0.0-2.0-42.0","5eecf88a4e531e0e897631df","A3","batch1","","951.5","tol_trial_num","<div class = centerbox><p class = center-block-text>problem <strong>12</strong> out of 25 problems</p></div>","0","","","","","","","","","","","","","","","","","","","","","","","","",""
"","","","","","single-stim-button","224","629112","0.0-2.0-43.0-0.0","5eecf88a4e531e0e897631df","A3","batch1","","6507","tol_tohand","","","","tol_peg_1","6507","6507","0","[[1,0,0],[3,0],[0]]","1","[[2,3,0],[0,0],[1]]","11","0","","","","","","4","","","","","","","","",""
"","","","","","single-stim-button","225","629919","0.0-2.0-43.0-1.0","5eecf88a4e531e0e897631df","A3","batch1","","805","tol_toboard","","","","tol_peg_2","805","805","0","[[1,0,0],[3,2],[0]]","1","[[2,3,0],[0,0],[1]]","11","0","","","","","","4","","","","","","","","",""
"","","","","","single-stim-button","226","631073","0.0-2.0-43.1-0.1","5eecf88a4e531e0e897631df","A3","batch1","","1152","tol_tohand","","","","tol_peg_1","1152","1152","0","[[0,0,0],[3,2],[0]]","2","[[2,3,0],[0,0],[1]]","11","0","","","","","","4","","","","","","","","",""
"","","","","","single-stim-button","227","632243","0.0-2.0-43.1-1.1","5eecf88a4e531e0e897631df","A3","batch1","","1170","tol_toboard","","","","tol_peg_3","1170","1170","0","[[0,0,0],[3,2],[1]]","2","[[2,3,0],[0,0],[1]]","11","0","","","","","","4","","","","","","","","",""
"","","","","","single-stim-button","228","633695","0.0-2.0-43.2-0.2","5eecf88a4e531e0e897631df","A3","batch1","","1450","tol_tohand","","","","tol_peg_2","1450","1450","0","[[0,0,0],[3,0],[1]]","3","[[2,3,0],[0,0],[1]]","11","0","","","","","","4","","","","","","","","",""
"","","","","","single-stim-button","229","634625","0.0-2.0-43.2-1.2","5eecf88a4e531e0e897631df","A3","batch1","","928","tol_toboard","","","","tol_peg_1","928","928","0","[[2,0,0],[3,0],[1]]","3","[[2,3,0],[0,0],[1]]","11","0","","","","","","4","","","","","","","","",""
"","","","","","single-stim-button","230","635567","0.0-2.0-43.3-0.3","5eecf88a4e531e0e897631df","A3","batch1","","940","tol_tohand","","","","tol_peg_2","940","940","0","[[2,0,0],[0,0],[1]]","4","[[2,3,0],[0,0],[1]]","11","0","","","","","","4","","","","","","","","",""
"","","","","","single-stim-button","231","636228","0.0-2.0-43.3-1.3","5eecf88a4e531e0e897631df","A3","batch1","","659","tol_toboard","","","","tol_peg_1","659","659","0","[[2,3,0],[0,0],[1]]","4","[[2,3,0],[0,0],[1]]","11","0","","","","","","4","","","","","","","","",""
"","","","","","poldrack-single-stim","232","637250","0.0-2.0-44.0","5eecf88a4e531e0e897631df","A3","batch1","","-1","tol_feedback","","","true","","1000","1000","500","","","","","","-1","none","true","6507","10049","","","","","","","","","",""
"","","","","","html-button-response","233","648032","0.0-2.0-45.0","5eecf88a4e531e0e897631df","A3","batch1","","10779.599999904633","tol_trial_num","<div class = centerbox><p class = center-block-text>problem <strong>13</strong> out of 25 problems</p></div>","0","","","","","","","","","","","","","","","","","","","","","","","","",""
"","","","","","single-stim-button","234","653561","0.0-2.0-46.0-0.0","5eecf88a4e531e0e897631df","A3","batch1","","5526","tol_tohand","","","","tol_peg_1","5526","5526","0","[[1,0,0],[3,0],[0]]","1","[[0,0,0],[2,3],[1]]","12","0","","","","","","4","","","","","","","","",""
"","","","","","single-stim-button","235","654342","0.0-2.0-46.0-1.0","5eecf88a4e531e0e897631df","A3","batch1","","780","tol_toboard","","","","tol_peg_2","780","780","0","[[1,0,0],[3,2],[0]]","1","[[0,0,0],[2,3],[1]]","12","0","","","","","","4","","","","","","","","",""
"","","","","","single-stim-button","236","655483","0.0-2.0-46.1-0.1","5eecf88a4e531e0e897631df","A3","batch1","","1138","tol_tohand","","","","tol_peg_1","1138","1138","0","[[0,0,0],[3,2],[0]]","2","[[0,0,0],[2,3],[1]]","12","0","","","","","","4","","","","","","","","",""
"","","","","","single-stim-button","237","656806","0.0-2.0-46.1-1.1","5eecf88a4e531e0e897631df","A3","batch1","","1321","tol_toboard","","","","tol_peg_3","1321","1321","0","[[0,0,0],[3,2],[1]]","2","[[0,0,0],[2,3],[1]]","12","0","","","","","","4","","","","","","","","",""
"","","","","","single-stim-button","238","657679","0.0-2.0-46.2-0.2","5eecf88a4e531e0e897631df","A3","batch1","","871","tol_tohand","","","","tol_peg_2","871","871","0","[[0,0,0],[3,0],[1]]","3","[[0,0,0],[2,3],[1]]","12","0","","","","","","4","","","","","","","","",""
"","","","","","single-stim-button","239","659033","0.0-2.0-46.2-1.2","5eecf88a4e531e0e897631df","A3","batch1","","1352","tol_toboard","","","","tol_peg_1","1352","1352","0","[[2,0,0],[3,0],[1]]","3","[[0,0,0],[2,3],[1]]","12","0","","","","","","4","","","","","","","","",""
"","","","","","single-stim-button","240","664989","0.0-2.0-46.3-0.3","5eecf88a4e531e0e897631df","A3","batch1","","5953","tol_tohand","","","","tol_peg_2","5953","5953","0","[[2,0,0],[0,0],[1]]","4","[[0,0,0],[2,3],[1]]","12","0","","","","","","4","","","","","","","","",""
"","","","","","single-stim-button","241","665792","0.0-2.0-46.3-1.3","5eecf88a4e531e0e897631df","A3","batch1","","801","tol_toboard","","","","tol_peg_1","801","801","0","[[2,3,0],[0,0],[1]]","4","[[0,0,0],[2,3],[1]]","12","0","","","","","","4","","","","","","","","",""
"","","","","","single-stim-button","242","667071","0.0-2.0-46.4-0.4","5eecf88a4e531e0e897631df","A3","batch1","","1278","tol_tohand","","","","tol_peg_3","1278","1278","0","[[2,3,0],[0,0],[0]]","5","[[0,0,0],[2,3],[1]]","12","0","","","","","","4","","","","","","","","",""
"","","","","","single-stim-button","243","667648","0.0-2.0-46.4-1.4","5eecf88a4e531e0e897631df","A3","batch1","","575","tol_toboard","","","","tol_peg_2","575","575","0","[[2,3,0],[1,0],[0]]","5","[[0,0,0],[2,3],[1]]","12","0","","","","","","4","","","","","","","","",""
"","","","","","single-stim-button","244","668532","0.0-2.0-46.5-0.5","5eecf88a4e531e0e897631df","A3","batch1","","881","tol_tohand","","","","tol_peg_1","881","881","0","[[2,0,0],[1,0],[0]]","6","[[0,0,0],[2,3],[1]]","12","0","","","","","","4","","","","","","","","",""
"","","","","","single-stim-button","245","669658","0.0-2.0-46.5-1.5","5eecf88a4e531e0e897631df","A3","batch1","","1124","tol_toboard","","","","tol_peg_3","1124","1124","0","[[2,0,0],[1,0],[3]]","6","[[0,0,0],[2,3],[1]]","12","0","","","","","","4","","","","","","","","",""
"","","","","","single-stim-button","246","673946","0.0-2.0-46.6-0.6","5eecf88a4e531e0e897631df","A3","batch1","","4285","tol_tohand","","","","tol_peg_2","4285","4285","0","[[2,0,0],[0,0],[3]]","7","[[0,0,0],[2,3],[1]]","12","0","","","","","","4","","","","","","","","",""
"","","","","","single-stim-button","247","676544","0.0-2.0-46.6-1.6","5eecf88a4e531e0e897631df","A3","batch1","","2596","tol_toboard","","","","tol_peg_2","2596","2596","0","[[2,0,0],[1,0],[3]]","7","[[0,0,0],[2,3],[1]]","12","0","","","","","","4","","","","","","","","",""
"","","","","","single-stim-button","248","677246","0.0-2.0-46.7-0.7","5eecf88a4e531e0e897631df","A3","batch1","","700","tol_tohand","","","","tol_peg_3","700","700","0","[[2,0,0],[1,0],[0]]","8","[[0,0,0],[2,3],[1]]","12","0","","","","","","4","","","","","","","","",""
"","","","","","single-stim-button","249","679711","0.0-2.0-46.7-1.7","5eecf88a4e531e0e897631df","A3","batch1","","2463","tol_toboard","","","","tol_peg_1","2463","2463","0","[[2,3,0],[1,0],[0]]","8","[[0,0,0],[2,3],[1]]","12","0","","","","","","4","","","","","","","","",""
"","","","","","single-stim-button","250","688176","0.0-2.0-46.8-0.8","5eecf88a4e531e0e897631df","A3","batch1","","8462","tol_tohand","","","","tol_peg_1","8462","8462","0","[[2,0,0],[1,0],[0]]","9","[[0,0,0],[2,3],[1]]","12","0","","","","","","4","","","","","","","","",""
"","","","","","single-stim-button","251","691173","0.0-2.0-46.8-1.8","5eecf88a4e531e0e897631df","A3","batch1","","2995","tol_toboard","","","","tol_peg_2","2995","2995","0","[[2,0,0],[1,3],[0]]","9","[[0,0,0],[2,3],[1]]","12","0","","","","","","4","","","","","","","","",""
"","","","","","single-stim-button","252","692017","0.0-2.0-46.9-0.9","5eecf88a4e531e0e897631df","A3","batch1","","843","tol_tohand","","","","tol_peg_1","843","843","0","[[0,0,0],[1,3],[0]]","10","[[0,0,0],[2,3],[1]]","12","0","","","","","","4","","","","","","","","",""
"","","","","","single-stim-button","253","693042","0.0-2.0-46.9-1.9","5eecf88a4e531e0e897631df","A3","batch1","","1023","tol_toboard","","","","tol_peg_3","1023","1023","0","[[0,0,0],[1,3],[2]]","10","[[0,0,0],[2,3],[1]]","12","0","","","","","","4","","","","","","","","",""
"","","","","","single-stim-button","254","693737","0.0-2.0-46.10-0.10","5eecf88a4e531e0e897631df","A3","batch1","","693","tol_tohand","","","","tol_peg_2","693","693","0","[[0,0,0],[1,0],[2]]","11","[[0,0,0],[2,3],[1]]","12","0","","","","","","4","","","","","","","","",""
"","","","","","single-stim-button","255","694713","0.0-2.0-46.10-1.10","5eecf88a4e531e0e897631df","A3","batch1","","974","tol_toboard","","","","tol_peg_1","974","974","0","[[3,0,0],[1,0],[2]]","11","[[0,0,0],[2,3],[1]]","12","0","","","","","","4","","","","","","","","",""
"","","","","","single-stim-button","256","695427","0.0-2.0-46.11-0.11","5eecf88a4e531e0e897631df","A3","batch1","","712","tol_tohand","","","","tol_peg_2","712","712","0","[[3,0,0],[0,0],[2]]","12","[[0,0,0],[2,3],[1]]","12","0","","","","","","4","","","","","","","","",""
"","","","","","single-stim-button","257","696539","0.0-2.0-46.11-1.11","5eecf88a4e531e0e897631df","A3","batch1","","1110","tol_toboard","","","","tol_peg_1","1110","1110","0","[[3,1,0],[0,0],[2]]","12","[[0,0,0],[2,3],[1]]","12","0","","","","","","4","","","","","","","","",""
"","","","","","single-stim-button","258","697380","0.0-2.0-46.12-0.12","5eecf88a4e531e0e897631df","A3","batch1","","839","tol_tohand","","","","tol_peg_3","839","839","0","[[3,1,0],[0,0],[0]]","13","[[0,0,0],[2,3],[1]]","12","0","","","","","","4","","","","","","","","",""
"","","","","","single-stim-button","259","698038","0.0-2.0-46.12-1.12","5eecf88a4e531e0e897631df","A3","batch1","","657","tol_toboard","","","","tol_peg_2","657","657","0","[[3,1,0],[2,0],[0]]","13","[[0,0,0],[2,3],[1]]","12","0","","","","","","4","","","","","","","","",""
"","","","","","single-stim-button","260","698784","0.0-2.0-46.13-0.13","5eecf88a4e531e0e897631df","A3","batch1","","744","tol_tohand","","","","tol_peg_1","744","744","0","[[3,0,0],[2,0],[0]]","14","[[0,0,0],[2,3],[1]]","12","0","","","","","","4","","","","","","","","",""
"","","","","","single-stim-button","261","699638","0.0-2.0-46.13-1.13","5eecf88a4e531e0e897631df","A3","batch1","","852","tol_toboard","","","","tol_peg_3","852","852","0","[[3,0,0],[2,0],[1]]","14","[[0,0,0],[2,3],[1]]","12","0","","","","","","4","","","","","","","","",""
"","","","","","single-stim-button","262","700631","0.0-2.0-46.14-0.14","5eecf88a4e531e0e897631df","A3","batch1","","991","tol_tohand","","","","tol_peg_1","991","991","0","[[0,0,0],[2,0],[1]]","15","[[0,0,0],[2,3],[1]]","12","0","","","","","","4","","","","","","","","",""
"","","","","","single-stim-button","263","701194","0.0-2.0-46.14-1.14","5eecf88a4e531e0e897631df","A3","batch1","","561","tol_toboard","","","","tol_peg_2","561","561","0","[[0,0,0],[2,3],[1]]","15","[[0,0,0],[2,3],[1]]","12","0","","","","","","4","","","","","","","","",""
"","","","","","poldrack-single-stim","264","702202","0.0-2.0-47.0","5eecf88a4e531e0e897631df","A3","batch1","","-1","tol_feedback","","","true","","1000","1000","500","","","","","","-1","none","true","5526","33916","","","","","","","","","",""
"","","","","","html-button-response","265","705029","0.0-2.0-48.0","5eecf88a4e531e0e897631df","A3","batch1","","2824.7000002861023","attention_check","<p class = block-text>How many balls are in your board<br></p>","1","true","","","","","","","","","","","","","","","","","","","","","","","",""
"","","","","","html-button-response","266","709466","0.0-2.0-49.0","5eecf88a4e531e0e897631df","A3","batch1","","4434.300000190735","tol_trial_num","<div class = centerbox><p class = center-block-text>problem <strong>14</strong> out of 25 problems</p></div>","0","","","","","","","","","","","","","","","","","","","","","","","","",""
"","","","","","single-stim-button","267","715562","0.0-2.0-50.0-0.0","5eecf88a4e531e0e897631df","A3","batch1","","6096","tol_tohand","","","","tol_peg_1","6096","6096","0","[[2,0,0],[3,0],[0]]","1","[[1,2,0],[3,0],[0]]","13","0","","","","","","4","","","","","","","","",""
"","","","","","single-stim-button","268","717447","0.0-2.0-50.0-1.0","5eecf88a4e531e0e897631df","A3","batch1","","1883","tol_toboard","","","","tol_peg_2","1883","1883","0","[[2,0,0],[3,1],[0]]","1","[[1,2,0],[3,0],[0]]","13","0","","","","","","4","","","","","","","","",""
"","","","","","single-stim-button","269","719158","0.0-2.0-50.1-0.1","5eecf88a4e531e0e897631df","A3","batch1","","1709","tol_tohand","","","","tol_peg_1","1709","1709","0","[[0,0,0],[3,1],[0]]","2","[[1,2,0],[3,0],[0]]","13","0","","","","","","4","","","","","","","","",""
"","","","","","single-stim-button","270","720082","0.0-2.0-50.1-1.1","5eecf88a4e531e0e897631df","A3","batch1","","923","tol_toboard","","","","tol_peg_3","923","923","0","[[0,0,0],[3,1],[2]]","2","[[1,2,0],[3,0],[0]]","13","0","","","","","","4","","","","","","","","",""
"","","","","","single-stim-button","271","720727","0.0-2.0-50.2-0.2","5eecf88a4e531e0e897631df","A3","batch1","","643","tol_tohand","","","","tol_peg_2","643","643","0","[[0,0,0],[3,0],[2]]","3","[[1,2,0],[3,0],[0]]","13","0","","","","","","4","","","","","","","","",""
"","","","","","single-stim-button","272","721687","0.0-2.0-50.2-1.2","5eecf88a4e531e0e897631df","A3","batch1","","959","tol_toboard","","","","tol_peg_1","959","959","0","[[1,0,0],[3,0],[2]]","3","[[1,2,0],[3,0],[0]]","13","0","","","","","","4","","","","","","","","",""
"","","","","","single-stim-button","273","722797","0.0-2.0-50.3-0.3","5eecf88a4e531e0e897631df","A3","batch1","","1109","tol_tohand","","","","tol_peg_3","1109","1109","0","[[1,0,0],[3,0],[0]]","4","[[1,2,0],[3,0],[0]]","13","0","","","","","","4","","","","","","","","",""
"","","","","","single-stim-button","274","723608","0.0-2.0-50.3-1.3","5eecf88a4e531e0e897631df","A3","batch1","","809","tol_toboard","","","","tol_peg_1","809","809","0","[[1,2,0],[3,0],[0]]","4","[[1,2,0],[3,0],[0]]","13","0","","","","","","4","","","","","","","","",""
"","","","","","poldrack-single-stim","275","724623","0.0-2.0-51.0","5eecf88a4e531e0e897631df","A3","batch1","","-1","tol_feedback","","","true","","1000","1000","500","","","","","","-1","none","true","6096","9557","","","","","","","","","",""
"","","","","","html-button-response","276","725918","0.0-2.0-52.0","5eecf88a4e531e0e897631df","A3","batch1","","1293.4000000953674","tol_trial_num","<div class = centerbox><p class = center-block-text>problem <strong>15</strong> out of 25 problems</p></div>","0","","","","","","","","","","","","","","","","","","","","","","","","",""
"","","","","","single-stim-button","277","731134","0.0-2.0-53.0-0.0","5eecf88a4e531e0e897631df","A3","batch1","","5215","tol_tohand","","","","tol_peg_1","5215","5215","0","[[1,0,0],[3,0],[0]]","1","[[2,0,0],[3,0],[1]]","14","0","","","","","","3","","","","","","","","",""
"","","","","","single-stim-button","278","731755","0.0-2.0-53.0-1.0","5eecf88a4e531e0e897631df","A3","batch1","","618","tol_toboard","","","","tol_peg_2","618","618","0","[[1,0,0],[3,2],[0]]","1","[[2,0,0],[3,0],[1]]","14","0","","","","","","3","","","","","","","","",""
"","","","","","single-stim-button","279","732505","0.0-2.0-53.1-0.1","5eecf88a4e531e0e897631df","A3","batch1","","748","tol_tohand","","","","tol_peg_1","748","748","0","[[0,0,0],[3,2],[0]]","2","[[2,0,0],[3,0],[1]]","14","0","","","","","","3","","","","","","","","",""
"","","","","","single-stim-button","280","733518","0.0-2.0-53.1-1.1","5eecf88a4e531e0e897631df","A3","batch1","","1013","tol_toboard","","","","tol_peg_3","1013","1013","0","[[0,0,0],[3,2],[1]]","2","[[2,0,0],[3,0],[1]]","14","0","","","","","","3","","","","","","","","",""
"","","","","","single-stim-button","281","734338","0.0-2.0-53.2-0.2","5eecf88a4e531e0e897631df","A3","batch1","","818","tol_tohand","","","","tol_peg_2","818","818","0","[[0,0,0],[3,0],[1]]","3","[[2,0,0],[3,0],[1]]","14","0","","","","","","3","","","","","","","","",""
"","","","","","single-stim-button","282","735214","0.0-2.0-53.2-1.2","5eecf88a4e531e0e897631df","A3","batch1","","874","tol_toboard","","","","tol_peg_1","874","874","0","[[2,0,0],[3,0],[1]]","3","[[2,0,0],[3,0],[1]]","14","0","","","","","","3","","","","","","","","",""
"","","","","","poldrack-single-stim","283","736222","0.0-2.0-54.0","5eecf88a4e531e0e897631df","A3","batch1","","-1","tol_feedback","","","true","","1000","1000","500","","","","","","-1","none","true","5215","6781","","","","","","","","","",""
"","","","","","html-button-response","284","737393","0.0-2.0-55.0","5eecf88a4e531e0e897631df","A3","batch1","","1169.0999999046326","tol_trial_num","<div class = centerbox><p class = center-block-text>problem <strong>16</strong> out of 25 problems</p></div>","0","","","","","","","","","","","","","","","","","","","","","","","","",""
"","","","","","single-stim-button","285","744907","0.0-2.0-56.0-0.0","5eecf88a4e531e0e897631df","A3","batch1","","7512","tol_tohand","","","","tol_peg_2","7512","7512","0","[[0,0,0],[2,0],[1]]","1","[[2,3,0],[1,0],[0]]","15","0","","","","","","7","","","","","","","","",""
"","","","","","single-stim-button","286","746247","0.0-2.0-56.0-1.0","5eecf88a4e531e0e897631df","A3","batch1","","1338","tol_toboard","","","","tol_peg_2","1338","1338","0","[[0,0,0],[2,3],[1]]","1","[[2,3,0],[1,0],[0]]","15","0","","","","","","7","","","","","","","","",""
"","","","","","single-stim-button","287","747352","0.0-2.0-56.1-0.1","5eecf88a4e531e0e897631df","A3","batch1","","1103","tol_tohand","","","","tol_peg_3","1103","1103","0","[[0,0,0],[2,3],[0]]","2","[[2,3,0],[1,0],[0]]","15","0","","","","","","7","","","","","","","","",""
"","","","","","single-stim-button","288","748382","0.0-2.0-56.1-1.1","5eecf88a4e531e0e897631df","A3","batch1","","1029","tol_toboard","","","","tol_peg_1","1029","1029","0","[[1,0,0],[2,3],[0]]","2","[[2,3,0],[1,0],[0]]","15","0","","","","","","7","","","","","","","","",""
"","","","","","single-stim-button","289","751415","0.0-2.0-56.2-0.2","5eecf88a4e531e0e897631df","A3","batch1","","3031","tol_tohand","","","","tol_peg_2","3031","3031","0","[[1,0,0],[2,0],[0]]","3","[[2,3,0],[1,0],[0]]","15","0","","","","","","7","","","","","","","","",""
"","","","","","single-stim-button","290","753532","0.0-2.0-56.2-1.2","5eecf88a4e531e0e897631df","A3","batch1","","2115","tol_toboard","","","","tol_peg_1","2115","2115","0","[[1,3,0],[2,0],[0]]","3","[[2,3,0],[1,0],[0]]","15","0","","","","","","7","","","","","","","","",""
"","","","","","single-stim-button","291","754416","0.0-2.0-56.3-0.3","5eecf88a4e531e0e897631df","A3","batch1","","882","tol_tohand","","","","tol_peg_2","882","882","0","[[1,3,0],[0,0],[0]]","4","[[2,3,0],[1,0],[0]]","15","0","","","","","","7","","","","","","","","",""
"","","","","","single-stim-button","292","755138","0.0-2.0-56.3-1.3","5eecf88a4e531e0e897631df","A3","batch1","","720","tol_toboard","","","","tol_peg_3","720","720","0","[[1,3,0],[0,0],[2]]","4","[[2,3,0],[1,0],[0]]","15","0","","","","","","7","","","","","","","","",""
"","","","","","single-stim-button","293","758377","0.0-2.0-56.4-0.4","5eecf88a4e531e0e897631df","A3","batch1","","3236","tol_tohand","","","","tol_peg_3","3236","3236","0","[[1,3,0],[0,0],[0]]","5","[[2,3,0],[1,0],[0]]","15","0","","","","","","7","","","","","","","","",""
"","","","","","single-stim-button","294","758980","0.0-2.0-56.4-1.4","5eecf88a4e531e0e897631df","A3","batch1","","600","tol_toboard","","","","tol_peg_2","600","600","0","[[1,3,0],[2,0],[0]]","5","[[2,3,0],[1,0],[0]]","15","0","","","","","","7","","","","","","","","",""
"","","","","","single-stim-button","295","759618","0.0-2.0-56.5-0.5","5eecf88a4e531e0e897631df","A3","batch1","","637","tol_tohand","","","","tol_peg_1","637","637","0","[[1,0,0],[2,0],[0]]","6","[[2,3,0],[1,0],[0]]","15","0","","","","","","7","","","","","","","","",""
"","","","","","single-stim-button","296","760437","0.0-2.0-56.5-1.5","5eecf88a4e531e0e897631df","A3","batch1","","818","tol_toboard","","","","tol_peg_3","818","818","0","[[1,0,0],[2,0],[3]]","6","[[2,3,0],[1,0],[0]]","15","0","","","","","","7","","","","","","","","",""
"","","","","","single-stim-button","297","763659","0.0-2.0-56.6-0.6","5eecf88a4e531e0e897631df","A3","batch1","","3221","tol_tohand","","","","tol_peg_3","3221","3221","0","[[1,0,0],[2,0],[0]]","7","[[2,3,0],[1,0],[0]]","15","0","","","","","","7","","","","","","","","",""
"","","","","","single-stim-button","298","764743","0.0-2.0-56.6-1.6","5eecf88a4e531e0e897631df","A3","batch1","","1082","tol_toboard","","","","tol_peg_1","1082","1082","0","[[1,3,0],[2,0],[0]]","7","[[2,3,0],[1,0],[0]]","15","0","","","","","","7","","","","","","","","",""
"","","","","","single-stim-button","299","765423","0.0-2.0-56.7-0.7","5eecf88a4e531e0e897631df","A3","batch1","","679","tol_tohand","","","","tol_peg_2","679","679","0","[[1,3,0],[0,0],[0]]","8","[[2,3,0],[1,0],[0]]","15","0","","","","","","7","","","","","","","","",""
"","","","","","single-stim-button","300","766028","0.0-2.0-56.7-1.7","5eecf88a4e531e0e897631df","A3","batch1","","603","tol_toboard","","","","tol_peg_3","603","603","0","[[1,3,0],[0,0],[2]]","8","[[2,3,0],[1,0],[0]]","15","0","","","","","","7","","","","","","","","",""
"","","","","","single-stim-button","301","766757","0.0-2.0-56.8-0.8","5eecf88a4e531e0e897631df","A3","batch1","","727","tol_tohand","","","","tol_peg_1","727","727","0","[[1,0,0],[0,0],[2]]","9","[[2,3,0],[1,0],[0]]","15","0","","","","","","7","","","","","","","","",""
"","","","","","single-stim-button","302","767650","0.0-2.0-56.8-1.8","5eecf88a4e531e0e897631df","A3","batch1","","890","tol_toboard","","","","tol_peg_2","890","890","0","[[1,0,0],[3,0],[2]]","9","[[2,3,0],[1,0],[0]]","15","0","","","","","","7","","","","","","","","",""
"","","","","","single-stim-button","303","768317","0.0-2.0-56.9-0.9","5eecf88a4e531e0e897631df","A3","batch1","","665","tol_tohand","","","","tol_peg_1","665","665","0","[[0,0,0],[3,0],[2]]","10","[[2,3,0],[1,0],[0]]","15","0","","","","","","7","","","","","","","","",""
"","","","","","single-stim-button","304","768984","0.0-2.0-56.9-1.9","5eecf88a4e531e0e897631df","A3","batch1","","665","tol_toboard","","","","tol_peg_2","665","665","0","[[0,0,0],[3,1],[2]]","10","[[2,3,0],[1,0],[0]]","15","0","","","","","","7","","","","","","","","",""
"","","","","","single-stim-button","305","769684","0.0-2.0-56.10-0.10","5eecf88a4e531e0e897631df","A3","batch1","","699","tol_tohand","","","","tol_peg_3","699","699","0","[[0,0,0],[3,1],[0]]","11","[[2,3,0],[1,0],[0]]","15","0","","","","","","7","","","","","","","","",""
"","","","","","single-stim-button","306","770401","0.0-2.0-56.10-1.10","5eecf88a4e531e0e897631df","A3","batch1","","715","tol_toboard","","","","tol_peg_1","715","715","0","[[2,0,0],[3,1],[0]]","11","[[2,3,0],[1,0],[0]]","15","0","","","","","","7","","","","","","","","",""
"","","","","","single-stim-button","307","771385","0.0-2.0-56.11-0.11","5eecf88a4e531e0e897631df","A3","batch1","","982","tol_tohand","","","","tol_peg_2","982","982","0","[[2,0,0],[3,0],[0]]","12","[[2,3,0],[1,0],[0]]","15","0","","","","","","7","","","","","","","","",""
"","","","","","single-stim-button","308","772110","0.0-2.0-56.11-1.11","5eecf88a4e531e0e897631df","A3","batch1","","723","tol_toboard","","","","tol_peg_3","723","723","0","[[2,0,0],[3,0],[1]]","12","[[2,3,0],[1,0],[0]]","15","0","","","","","","7","","","","","","","","",""
"","","","","","single-stim-button","309","772873","0.0-2.0-56.12-0.12","5eecf88a4e531e0e897631df","A3","batch1","","761","tol_tohand","","","","tol_peg_2","761","761","0","[[2,0,0],[0,0],[1]]","13","[[2,3,0],[1,0],[0]]","15","0","","","","","","7","","","","","","","","",""
"","","","","","single-stim-button","310","773543","0.0-2.0-56.12-1.12","5eecf88a4e531e0e897631df","A3","batch1","","668","tol_toboard","","","","tol_peg_1","668","668","0","[[2,3,0],[0,0],[1]]","13","[[2,3,0],[1,0],[0]]","15","0","","","","","","7","","","","","","","","",""
"","","","","","single-stim-button","311","775024","0.0-2.0-56.13-0.13","5eecf88a4e531e0e897631df","A3","batch1","","1479","tol_tohand","","","","tol_peg_3","1479","1479","0","[[2,3,0],[0,0],[0]]","14","[[2,3,0],[1,0],[0]]","15","0","","","","","","7","","","","","","","","",""
"","","","","","single-stim-button","312","775861","0.0-2.0-56.13-1.13","5eecf88a4e531e0e897631df","A3","batch1","","835","tol_toboard","","","","tol_peg_2","835","835","0","[[2,3,0],[1,0],[0]]","14","[[2,3,0],[1,0],[0]]","15","0","","","","","","7","","","","","","","","",""
"","","","","","poldrack-single-stim","313","776866","0.0-2.0-57.0","5eecf88a4e531e0e897631df","A3","batch1","","-1","tol_feedback","","","true","","1000","1000","500","","","","","","-1","none","true","7512","25614","","","","","","","","","",""
"","","","","","html-button-response","314","777913","0.0-2.0-58.0","5eecf88a4e531e0e897631df","A3","batch1","","1044.7000002861023","tol_trial_num","<div class = centerbox><p class = center-block-text>problem <strong>17</strong> out of 25 problems</p></div>","0","","","","","","","","","","","","","","","","","","","","","","","","",""
"","","","","","single-stim-button","315","780125","0.0-2.0-59.0-0.0","5eecf88a4e531e0e897631df","A3","batch1","","2210","tol_tohand","","","","tol_peg_1","2210","2210","0","[[1,0,0],[3,0],[0]]","1","[[3,1,0],[2,0],[0]]","16","0","","","","","","5","","","","","","","","",""
"","","","","","single-stim-button","316","782142","0.0-2.0-59.0-1.0","5eecf88a4e531e0e897631df","A3","batch1","","2015","tol_toboard","","","","tol_peg_3","2015","2015","0","[[1,0,0],[3,0],[2]]","1","[[3,1,0],[2,0],[0]]","16","0","","","","","","5","","","","","","","","",""
"","","","","","single-stim-button","317","784236","0.0-2.0-59.1-0.1","5eecf88a4e531e0e897631df","A3","batch1","","2092","tol_tohand","","","","tol_peg_1","2092","2092","0","[[0,0,0],[3,0],[2]]","2","[[3,1,0],[2,0],[0]]","16","0","","","","","","5","","","","","","","","",""
"","","","","","single-stim-button","318","785843","0.0-2.0-59.1-1.1","5eecf88a4e531e0e897631df","A3","batch1","","1605","tol_toboard","","","","tol_peg_1","1605","1605","0","[[1,0,0],[3,0],[2]]","2","[[3,1,0],[2,0],[0]]","16","0","","","","","","5","","","","","","","","",""
"","","","","","single-stim-button","319","790783","0.0-2.0-59.2-0.2","5eecf88a4e531e0e897631df","A3","batch1","","4939","tol_tohand","","","","tol_peg_3","4939","4939","0","[[1,0,0],[3,0],[0]]","3","[[3,1,0],[2,0],[0]]","16","0","","","","","","5","","","","","","","","",""
"","","","","","single-stim-button","320","792189","0.0-2.0-59.2-1.2","5eecf88a4e531e0e897631df","A3","batch1","","1405","tol_toboard","","","","tol_peg_2","1405","1405","0","[[1,0,0],[3,2],[0]]","3","[[3,1,0],[2,0],[0]]","16","0","","","","","","5","","","","","","","","",""
"","","","","","single-stim-button","321","792846","0.0-2.0-59.3-0.3","5eecf88a4e531e0e897631df","A3","batch1","","656","tol_tohand","","","","tol_peg_1","656","656","0","[[0,0,0],[3,2],[0]]","4","[[3,1,0],[2,0],[0]]","16","0","","","","","","5","","","","","","","","",""
"","","","","","single-stim-button","322","793695","0.0-2.0-59.3-1.3","5eecf88a4e531e0e897631df","A3","batch1","","847","tol_toboard","","","","tol_peg_3","847","847","0","[[0,0,0],[3,2],[1]]","4","[[3,1,0],[2,0],[0]]","16","0","","","","","","5","","","","","","","","",""
"","","","","","single-stim-button","323","794829","0.0-2.0-59.4-0.4","5eecf88a4e531e0e897631df","A3","batch1","","1133","tol_tohand","","","","tol_peg_2","1133","1133","0","[[0,0,0],[3,0],[1]]","5","[[3,1,0],[2,0],[0]]","16","0","","","","","","5","","","","","","","","",""
"","","","","","single-stim-button","324","795499","0.0-2.0-59.4-1.4","5eecf88a4e531e0e897631df","A3","batch1","","668","tol_toboard","","","","tol_peg_1","668","668","0","[[2,0,0],[3,0],[1]]","5","[[3,1,0],[2,0],[0]]","16","0","","","","","","5","","","","","","","","",""
"","","","","","single-stim-button","325","800826","0.0-2.0-59.5-0.5","5eecf88a4e531e0e897631df","A3","batch1","","5325","tol_tohand","","","","tol_peg_3","5325","5325","0","[[2,0,0],[3,0],[0]]","6","[[3,1,0],[2,0],[0]]","16","0","","","","","","5","","","","","","","","",""
"","","","","","single-stim-button","326","803213","0.0-2.0-59.5-1.5","5eecf88a4e531e0e897631df","A3","batch1","","2384","tol_toboard","","","","tol_peg_3","2384","2384","0","[[2,0,0],[3,0],[1]]","6","[[3,1,0],[2,0],[0]]","16","0","","","","","","5","","","","","","","","",""
"","","","","","single-stim-button","327","807107","0.0-2.0-59.6-0.6","5eecf88a4e531e0e897631df","A3","batch1","","3892","tol_tohand","","","","tol_peg_3","3892","3892","0","[[2,0,0],[3,0],[0]]","7","[[3,1,0],[2,0],[0]]","16","0","","","","","","5","","","","","","","","",""
"","","","","","single-stim-button","328","808510","0.0-2.0-59.6-1.6","5eecf88a4e531e0e897631df","A3","batch1","","1402","tol_toboard","","","","tol_peg_1","1402","1402","0","[[2,1,0],[3,0],[0]]","7","[[3,1,0],[2,0],[0]]","16","0","","","","","","5","","","","","","","","",""
"","","","","","single-stim-button","329","809255","0.0-2.0-59.7-0.7","5eecf88a4e531e0e897631df","A3","batch1","","744","tol_tohand","","","","tol_peg_2","744","744","0","[[2,1,0],[0,0],[0]]","8","[[3,1,0],[2,0],[0]]","16","0","","","","","","5","","","","","","","","",""
"","","","","","single-stim-button","330","809970","0.0-2.0-59.7-1.7","5eecf88a4e531e0e897631df","A3","batch1","","713","tol_toboard","","","","tol_peg_3","713","713","0","[[2,1,0],[0,0],[3]]","8","[[3,1,0],[2,0],[0]]","16","0","","","","","","5","","","","","","","","",""
"","","","","","single-stim-button","331","813405","0.0-2.0-59.8-0.8","5eecf88a4e531e0e897631df","A3","batch1","","3434","tol_tohand","","","","tol_peg_1","3434","3434","0","[[2,0,0],[0,0],[3]]","9","[[3,1,0],[2,0],[0]]","16","0","","","","","","5","","","","","","","","",""
"","","","","","single-stim-button","332","814299","0.0-2.0-59.8-1.8","5eecf88a4e531e0e897631df","A3","batch1","","892","tol_toboard","","","","tol_peg_2","892","892","0","[[2,0,0],[1,0],[3]]","9","[[3,1,0],[2,0],[0]]","16","0","","","","","","5","","","","","","","","",""
"","","","","","single-stim-button","333","814938","0.0-2.0-59.9-0.9","5eecf88a4e531e0e897631df","A3","batch1","","637","tol_tohand","","","","tol_peg_1","637","637","0","[[0,0,0],[1,0],[3]]","10","[[3,1,0],[2,0],[0]]","16","0","","","","","","5","","","","","","","","",""
"","","","","","single-stim-button","334","815560","0.0-2.0-59.9-1.9","5eecf88a4e531e0e897631df","A3","batch1","","620","tol_toboard","","","","tol_peg_2","620","620","0","[[0,0,0],[1,2],[3]]","10","[[3,1,0],[2,0],[0]]","16","0","","","","","","5","","","","","","","","",""
"","","","","","single-stim-button","335","816206","0.0-2.0-59.10-0.10","5eecf88a4e531e0e897631df","A3","batch1","","644","tol_tohand","","","","tol_peg_3","644","644","0","[[0,0,0],[1,2],[0]]","11","[[3,1,0],[2,0],[0]]","16","0","","","","","","5","","","","","","","","",""
"","","","","","single-stim-button","336","816947","0.0-2.0-59.10-1.10","5eecf88a4e531e0e897631df","A3","batch1","","740","tol_toboard","","","","tol_peg_1","740","740","0","[[3,0,0],[1,2],[0]]","11","[[3,1,0],[2,0],[0]]","16","0","","","","","","5","","","","","","","","",""
"","","","","","single-stim-button","337","818166","0.0-2.0-59.11-0.11","5eecf88a4e531e0e897631df","A3","batch1","","1216","tol_tohand","","","","tol_peg_2","1216","1216","0","[[3,0,0],[1,0],[0]]","12","[[3,1,0],[2,0],[0]]","16","0","","","","","","5","","","","","","","","",""
"","","","","","single-stim-button","338","819136","0.0-2.0-59.11-1.11","5eecf88a4e531e0e897631df","A3","batch1","","968","tol_toboard","","","","tol_peg_3","968","968","0","[[3,0,0],[1,0],[2]]","12","[[3,1,0],[2,0],[0]]","16","0","","","","","","5","","","","","","","","",""
"","","","","","single-stim-button","339","820098","0.0-2.0-59.12-0.12","5eecf88a4e531e0e897631df","A3","batch1","","960","tol_tohand","","","","tol_peg_2","960","960","0","[[3,0,0],[0,0],[2]]","13","[[3,1,0],[2,0],[0]]","16","0","","","","","","5","","","","","","","","",""
"","","","","","single-stim-button","340","821360","0.0-2.0-59.12-1.12","5eecf88a4e531e0e897631df","A3","batch1","","1259","tol_toboard","","","","tol_peg_1","1259","1259","0","[[3,1,0],[0,0],[2]]","13","[[3,1,0],[2,0],[0]]","16","0","","","","","","5","","","","","","","","",""
"","","","","","single-stim-button","341","823353","0.0-2.0-59.13-0.13","5eecf88a4e531e0e897631df","A3","batch1","","1991","tol_tohand","","","","tol_peg_3","1991","1991","0","[[3,1,0],[0,0],[0]]","14","[[3,1,0],[2,0],[0]]","16","0","","","","","","5","","","","","","","","",""
"","","","","","single-stim-button","342","824081","0.0-2.0-59.13-1.13","5eecf88a4e531e0e897631df","A3","batch1","","727","tol_toboard","","","","tol_peg_2","727","727","0","[[3,1,0],[2,0],[0]]","14","[[3,1,0],[2,0],[0]]","16","0","","","","","","5","","","","","","","","",""
"","","","","","poldrack-single-stim","343","825083","0.0-2.0-60.0","5eecf88a4e531e0e897631df","A3","batch1","","-1","tol_feedback","","","true","","1000","1000","500","","","","","","-1","none","true","2210","29873","","","","","","","","","",""
"","","","","","html-button-response","344","826075","0.0-2.0-61.0","5eecf88a4e531e0e897631df","A3","batch1","","990.4000000953674","tol_trial_num","<div class = centerbox><p class = center-block-text>problem <strong>18</strong> out of 25 problems</p></div>","0","","","","","","","","","","","","","","","","","","","","","","","","",""
"","","","","","single-stim-button","345","831277","0.0-2.0-62.0-0.0","5eecf88a4e531e0e897631df","A3","batch1","","5200","tol_tohand","","","","tol_peg_2","5200","5200","0","[[1,2,0],[0,0],[0]]","1","[[3,0,0],[2,0],[1]]","17","0","","","","","","5","","","","","","","","",""
"","","","","","single-stim-button","346","832346","0.0-2.0-62.0-1.0","5eecf88a4e531e0e897631df","A3","batch1","","1066","tol_toboard","","","","tol_peg_3","1066","1066","0","[[1,2,0],[0,0],[3]]","1","[[3,0,0],[2,0],[1]]","17","0","","","","","","5","","","","","","","","",""
"","","","","","single-stim-button","347","845486","0.0-2.0-62.1-0.1","5eecf88a4e531e0e897631df","A3","batch1","","13138","tol_tohand","","","","tol_peg_1","13138","13138","0","[[1,0,0],[0,0],[3]]","2","[[3,0,0],[2,0],[1]]","17","0","","","","","","5","","","","","","","","",""
"","","","","","single-stim-button","348","846523","0.0-2.0-62.1-1.1","5eecf88a4e531e0e897631df","A3","batch1","","1035","tol_toboard","","","","tol_peg_2","1035","1035","0","[[1,0,0],[2,0],[3]]","2","[[3,0,0],[2,0],[1]]","17","0","","","","","","5","","","","","","","","",""
"","","","","","single-stim-button","349","848558","0.0-2.0-62.2-0.2","5eecf88a4e531e0e897631df","A3","batch1","","2034","tol_tohand","","","","tol_peg_1","2034","2034","0","[[0,0,0],[2,0],[3]]","3","[[3,0,0],[2,0],[1]]","17","0","","","","","","5","","","","","","","","",""
