"success","timeout","failed_images","failed_audio","failed_video","trial_type","trial_index","time_elapsed","internal_node_id","subject_id","study_id","session_id","view_history","rt","task","stimulus","response","correct","mouse_click","stim_duration","block_duration","timing_post_trial","current_position","tol_num_moves_made","tol_target","tol_problem_id","tol_rt","key_press","possible_responses","tol_correct","preplanning","tol_rt_per_trial","tol_min_moves","answer","item","fiar_detect_rt","fiar_detect_correct","total_correct_fiar_detect","post_trial_gap","choices","spm_correct","spm_rt"
"true","false","[]","[]","[]","preload","0","2773","0.0-0.0","5ef16261c970f4526c7695eb","E1","batch5","","","","","","","","","","","","","","","","","","","","","","","","","","","","","",""
"true","","","","","fullscreen","1","63497","0.0-1.0-0.0","5ef16261c970f4526c7695eb","E1","batch5","","","","","","","","","","","","","","","","","","","","","","","","","","","","","",""
"true","","","","","fullscreen","2","66001","0.0-2.0-0.0","5ef16261c970f4526c7695eb","E1","batch5","","","","","","","","","","","","","","","","","","","","","","","","","","","","","",""
"","","","","","instructions","3","98202","0.0-2.0-1.0-0.0-0.0","5ef16261c970f4526c7695eb","E1","batch5","[{""page_index"":0,""viewing_time"":12413.300000011921},{""page_index"":1,""viewing_time"":2602.9000000059605},{""page_index"":2,""viewing_time"":2111.2999999821186},{""page_index"":3,""viewing_time"":8201.90000000596},{""page_index"":4,""viewing_time"":1396.300000011921},{""page_index"":5,""viewing_time"":3679.7999999821186},{""page_index"":6,""viewing_time"":1792.2000000178814}]","32198.600000023842","tol-instructions","","","","","","","","","","","","","","","","","","","","","","","","","","",""
"","","","","","html-button-response","4","98972","0.0-2.0-1.0-1.0-0.0","5ef16261c970f4526c7695eb","E1","batch5","","763.1999999880791","tol_enter_quiz","<p class=block-text> Let's answer a few questions <br>","0","","","","","","","","","","","","","","","","","","","","","","","","",""
"","","","","","html-button-response","5","104142","0.0-2.0-1.0-1.0-1.0","5ef16261c970f4526c7695eb","E1","batch5","","5163.5999999940395","tol_quiz","<p class = block-text>True or False: You can only move the ball on top of a peg. <br></p>","1","false","","","","","","","","","","","","","","","","","","","","","","","",""
"","","","","","html-button-response","6","105330","0.0-2.0-1.0-1.0-2.0","5ef16261c970f4526c7695eb","E1","batch5","","1181.9000000059605","tol_quiz_feedback","<p class = block-text>Incorrect. Remember, you can only move the ball on top of a peg.</p>","0","","","","","","","","","","","","","","","","","","","","","","","","",""
"","","","","","html-button-response","7","107490","0.0-2.0-1.0-1.0-3.0","5ef16261c970f4526c7695eb","E1","batch5","","2157.800000011921","tol_quiz","<p class = block-text>True or False: You should try to match your board with the target board with fewest moves possible. <br></p>","0","true","","","","","","","","","","","","","","","","","","","","","","","",""
"","","","","","html-button-response","8","108156","0.0-2.0-1.0-1.0-4.0","5ef16261c970f4526c7695eb","E1","batch5","","663.3000000119209","tol_quiz_feedback","<p class = block-text>Correct! </p>","0","","","","","","","","","","","","","","","","","","","","","","","","",""
"","","","","","html-button-response","9","109600","0.0-2.0-1.0-2.0-0.0","5ef16261c970f4526c7695eb","E1","batch5","","1440.4000000059605","","<p class = block-text>You made too many incorrect choices.</p><p class = block-text>You will now repeat the instructions and quiz</p>","0","","","","","","","","","","","","","","","","","","","","","","","","",""
"","","","","","instructions","10","113991","0.0-2.0-1.1-0.1-0.1","5ef16261c970f4526c7695eb","E1","batch5","[{""page_index"":0,""viewing_time"":1082.6000000238419},{""page_index"":1,""viewing_time"":400.7999999821186},{""page_index"":2,""viewing_time"":433.80000001192093},{""page_index"":3,""viewing_time"":464.2999999821186},{""page_index"":4,""viewing_time"":441.90000000596046},{""page_index"":5,""viewing_time"":424.2000000178814},{""page_index"":6,""viewing_time"":1141.199999988079}]","4389.200000017881","tol-instructions","","","","","","","","","","","","","","","","","","","","","","","","","","",""
"","","","","","html-button-response","11","114738","0.0-2.0-1.1-1.1-0.1","5ef16261c970f4526c7695eb","E1","batch5","","745.5","tol_enter_quiz","<p class=block-text> Let's answer a few questions <br>","0","","","","","","","","","","","","","","","","","","","","","","","","",""
"","","","","","html-button-response","12","116768","0.0-2.0-1.1-1.1-1.1","5ef16261c970f4526c7695eb","E1","batch5","","2027.3999999761581","tol_quiz","<p class = block-text>True or False: You can only move the ball on top of a peg. <br></p>","0","true","","","","","","","","","","","","","","","","","","","","","","","",""
"","","","","","html-button-response","13","117657","0.0-2.0-1.1-1.1-2.1","5ef16261c970f4526c7695eb","E1","batch5","","887.5999999940395","tol_quiz_feedback","<p class = block-text>Correct! You can only move the ball on top of a peg.</p>","0","","","","","","","","","","","","","","","","","","","","","","","","",""
"","","","","","html-button-response","14","124369","0.0-2.0-1.1-1.1-3.1","5ef16261c970f4526c7695eb","E1","batch5","","6709.5","tol_quiz","<p class = block-text>True or False: You should try to match your board with the target board with fewest moves possible. <br></p>","0","true","","","","","","","","","","","","","","","","","","","","","","","",""
"","","","","","html-button-response","15","125040","0.0-2.0-1.1-1.1-4.1","5ef16261c970f4526c7695eb","E1","batch5","","667.1999999880791","tol_quiz_feedback","<p class = block-text>Correct! </p>","0","","","","","","","","","","","","","","","","","","","","","","","","",""
"","","","","","html-button-response","16","126228","0.0-2.0-2.0","5ef16261c970f4526c7695eb","E1","batch5","","1186.2000000178814","","<p class=block-text> Now that you've understood the game, let's practice a few easier examples before we start!<br> <br>","0","","","","","","","","","","","","","","","","","","","","","","","","",""
"","","","","","single-stim-button","17","129082","0.0-2.0-3.0-0.0","5ef16261c970f4526c7695eb","E1","batch5","","2850","tol_practice","","","","tol_peg_2","2850","2850","0","[[1,2,0],[0,0],[0]]","1","[[1,2,0],[0,0],[3]]","practice","2850","","","","","","","","","","","","","","",""
"","","","","","single-stim-button","18","130360","0.0-2.0-3.0-1.0","5ef16261c970f4526c7695eb","E1","batch5","","1275","tol_practice","","","","tol_peg_3","1275","1275","0","[[1,2,0],[0,0],[3]]","1","[[1,2,0],[0,0],[3]]","practice","1275","","","","","","","","","","","","","","",""
"","","","","","poldrack-single-stim","19","131367","0.0-2.0-4.0","5ef16261c970f4526c7695eb","E1","batch5","","-1","tol_feedback","","","true","","1000","1000","500","","","","","","-1","none","true","","0","","","","","","","","","",""
"","","","","","single-stim-button","20","134240","0.0-2.0-5.0-0.0","5ef16261c970f4526c7695eb","E1","batch5","","2871","tol_practice","","","","tol_peg_1","2871","2871","0","[[1,0,0],[3,0],[0]]","2","[[0,0,0],[3,1],[2]]","practice","2871","","","","","","","","","","","","","","",""
"","","","","","single-stim-button","21","136808","0.0-2.0-5.0-1.0","5ef16261c970f4526c7695eb","E1","batch5","","2566","tol_practice","","","","tol_peg_3","2566","2566","0","[[1,0,0],[3,0],[2]]","2","[[0,0,0],[3,1],[2]]","practice","2566","","","","","","","","","","","","","","",""
"","","","","","single-stim-button","22","137587","0.0-2.0-5.1-0.1","5ef16261c970f4526c7695eb","E1","batch5","","777","tol_practice","","","","tol_peg_1","777","777","0","[[0,0,0],[3,0],[2]]","3","[[0,0,0],[3,1],[2]]","practice","777","","","","","","","","","","","","","","",""
"","","","","","single-stim-button","23","139044","0.0-2.0-5.1-1.1","5ef16261c970f4526c7695eb","E1","batch5","","1457","tol_practice","","","","tol_peg_2","1457","1457","0","[[0,0,0],[3,1],[2]]","3","[[0,0,0],[3,1],[2]]","practice","1457","","","","","","","","","","","","","","",""
"","","","","","poldrack-single-stim","24","140051","0.0-2.0-6.0","5ef16261c970f4526c7695eb","E1","batch5","","-1","tol_feedback","","","true","","1000","1000","500","","","","","","-1","none","true","","0","","","","","","","","","",""
"","","","","","single-stim-button","25","141576","0.0-2.0-7.0-0.0","5ef16261c970f4526c7695eb","E1","batch5","","1523","tol_practice","","","","tol_peg_2","1523","1523","0","[[1,2,0],[0,0],[0]]","4","[[1,0,0],[2,0],[3]]","practice","1523","","","","","","","","","","","","","","",""
"","","","","","single-stim-button","26","142362","0.0-2.0-7.0-1.0","5ef16261c970f4526c7695eb","E1","batch5","","785","tol_practice","","","","tol_peg_3","785","785","0","[[1,2,0],[0,0],[3]]","4","[[1,0,0],[2,0],[3]]","practice","785","","","","","","","","","","","","","","",""
"","","","","","single-stim-button","27","143298","0.0-2.0-7.1-0.1","5ef16261c970f4526c7695eb","E1","batch5","","935","tol_practice","","","","tol_peg_1","935","935","0","[[1,0,0],[0,0],[3]]","5","[[1,0,0],[2,0],[3]]","practice","935","","","","","","","","","","","","","","",""
"","","","","","single-stim-button","28","143942","0.0-2.0-7.1-1.1","5ef16261c970f4526c7695eb","E1","batch5","","642","tol_practice","","","","tol_peg_2","642","642","0","[[1,0,0],[2,0],[3]]","5","[[1,0,0],[2,0],[3]]","practice","642","","","","","","","","","","","","","","",""
"","","","","","poldrack-single-stim","29","144951","0.0-2.0-8.0","5ef16261c970f4526c7695eb","E1","batch5","","-1","tol_feedback","","","true","","1000","1000","500","","","","","","-1","none","true","","0","","","","","","","","","",""
"","","","","","html-button-response","30","150809","0.0-2.0-9.0","5ef16261c970f4526c7695eb","E1","batch5","","5856.5","tol_instruction","<div class = centerbox><p class = center-block-text>Great job! You are done with practice trials<br>You are about to start official trials.<br> <br> Problem <strong>1</strong> out of 25 problems</p></div>","0","","","","","","","","","","","","","","","","","","","","","","","","",""
"","","","","","single-stim-button","31","159069","0.0-2.0-10.0-0.0","5ef16261c970f4526c7695eb","E1","batch5","","7252","tol_tohand","","","","tol_peg_1","7252","7252","0","[[1,0,0],[3,0],[0]]","1","[[1,3,0],[2,0],[0]]","0","0","","","","","","3","","","","","","","","",""
"","","","","","single-stim-button","32","164988","0.0-2.0-10.0-1.0","5ef16261c970f4526c7695eb","E1","batch5","","5917","tol_toboard","","","","tol_peg_2","5917","5917","0","[[1,0,0],[3,2],[0]]","1","[[1,3,0],[2,0],[0]]","0","0","","","","","","3","","","","","","","","",""
"","","","","","single-stim-button","33","165817","0.0-2.0-10.1-0.1","5ef16261c970f4526c7695eb","E1","batch5","","828","tol_tohand","","","","tol_peg_1","828","828","0","[[0,0,0],[3,2],[0]]","2","[[1,3,0],[2,0],[0]]","0","0","","","","","","3","","","","","","","","",""
"","","","","","single-stim-button","34","167140","0.0-2.0-10.1-1.1","5ef16261c970f4526c7695eb","E1","batch5","","1321","tol_toboard","","","","tol_peg_1","1321","1321","0","[[1,0,0],[3,2],[0]]","2","[[1,3,0],[2,0],[0]]","0","0","","","","","","3","","","","","","","","",""
"","","","","","single-stim-button","35","169209","0.0-2.0-10.2-0.2","5ef16261c970f4526c7695eb","E1","batch5","","2068","tol_tohand","","","","tol_peg_2","2068","2068","0","[[1,0,0],[3,0],[0]]","3","[[1,3,0],[2,0],[0]]","0","0","","","","","","3","","","","","","","","",""
"","","","","","single-stim-button","36","171185","0.0-2.0-10.2-1.2","5ef16261c970f4526c7695eb","E1","batch5","","1975","tol_toboard","","","","tol_peg_3","1975","1975","0","[[1,0,0],[3,0],[2]]","3","[[1,3,0],[2,0],[0]]","0","0","","","","","","3","","","","","","","","",""
"","","","","","single-stim-button","37","172165","0.0-2.0-10.3-0.3","5ef16261c970f4526c7695eb","E1","batch5","","978","tol_tohand","","","","tol_peg_2","978","978","0","[[1,0,0],[0,0],[2]]","4","[[1,3,0],[2,0],[0]]","0","0","","","","","","3","","","","","","","","",""
"","","","","","single-stim-button","38","172853","0.0-2.0-10.3-1.3","5ef16261c970f4526c7695eb","E1","batch5","","687","tol_toboard","","","","tol_peg_1","687","687","0","[[1,3,0],[0,0],[2]]","4","[[1,3,0],[2,0],[0]]","0","0","","","","","","3","","","","","","","","",""
"","","","","","single-stim-button","39","175785","0.0-2.0-10.4-0.4","5ef16261c970f4526c7695eb","E1","batch5","","2931","tol_tohand","","","","tol_peg_3","2931","2931","0","[[1,3,0],[0,0],[0]]","5","[[1,3,0],[2,0],[0]]","0","0","","","","","","3","","","","","","","","",""
"","","","","","single-stim-button","40","176273","0.0-2.0-10.4-1.4","5ef16261c970f4526c7695eb","E1","batch5","","485","tol_toboard","","","","tol_peg_2","485","485","0","[[1,3,0],[2,0],[0]]","5","[[1,3,0],[2,0],[0]]","0","0","","","","","","3","","","","","","","","",""
"","","","","","poldrack-single-stim","41","177280","0.0-2.0-11.0","5ef16261c970f4526c7695eb","E1","batch5","","-1","tol_feedback","","","true","","1000","1000","500","","","","","","-1","none","true","7252","14057","","","","","","","","","",""
"","","","","","html-button-response","42","193082","0.0-2.0-12.0","5ef16261c970f4526c7695eb","E1","batch5","","15800.40000000596","tol_trial_num","<div class = centerbox><p class = center-block-text>problem <strong>2</strong> out of 25 problems</p></div>","0","","","","","","","","","","","","","","","","","","","","","","","","",""
"","","","","","single-stim-button","43","207130","0.0-2.0-13.0-0.0","5ef16261c970f4526c7695eb","E1","batch5","","14044","tol_tohand","","","","tol_peg_2","14044","14044","0","[[1,2,0],[0,0],[0]]","1","[[2,1,3],[0,0],[0]]","1","0","","","","","","5","","","","","","","","",""
"","","","","","single-stim-button","44","207802","0.0-2.0-13.0-1.0","5ef16261c970f4526c7695eb","E1","batch5","","671","tol_toboard","","","","tol_peg_3","671","671","0","[[1,2,0],[0,0],[3]]","1","[[2,1,3],[0,0],[0]]","1","0","","","","","","5","","","","","","","","",""
"","","","","","single-stim-button","45","210620","0.0-2.0-13.1-0.1","5ef16261c970f4526c7695eb","E1","batch5","","2816","tol_tohand","","","","tol_peg_1","2816","2816","0","[[1,0,0],[0,0],[3]]","2","[[2,1,3],[0,0],[0]]","1","0","","","","","","5","","","","","","","","",""
"","","","","","single-stim-button","46","211503","0.0-2.0-13.1-1.1","5ef16261c970f4526c7695eb","E1","batch5","","882","tol_toboard","","","","tol_peg_2","882","882","0","[[1,0,0],[2,0],[3]]","2","[[2,1,3],[0,0],[0]]","1","0","","","","","","5","","","","","","","","",""
"","","","","","single-stim-button","47","212674","0.0-2.0-13.2-0.2","5ef16261c970f4526c7695eb","E1","batch5","","1171","tol_tohand","","","","tol_peg_1","1171","1171","0","[[0,0,0],[2,0],[3]]","3","[[2,1,3],[0,0],[0]]","1","0","","","","","","5","","","","","","","","",""
"","","","","","single-stim-button","48","217384","0.0-2.0-13.2-1.2","5ef16261c970f4526c7695eb","E1","batch5","","4709","tol_toboard","","","","tol_peg_2","4709","4709","0","[[0,0,0],[2,1],[3]]","3","[[2,1,3],[0,0],[0]]","1","0","","","","","","5","","","","","","","","",""
"","","","","","single-stim-button","49","218668","0.0-2.0-13.3-0.3","5ef16261c970f4526c7695eb","E1","batch5","","1283","tol_tohand","","","","tol_peg_2","1283","1283","0","[[0,0,0],[2,0],[3]]","4","[[2,1,3],[0,0],[0]]","1","0","","","","","","5","","","","","","","","",""
"","","","","","single-stim-button","50","221610","0.0-2.0-13.3-1.3","5ef16261c970f4526c7695eb","E1","batch5","","2940","tol_toboard","","","","tol_peg_1","2940","2940","0","[[1,0,0],[2,0],[3]]","4","[[2,1,3],[0,0],[0]]","1","0","","","","","","5","","","","","","","","",""
"","","","","","single-stim-button","51","222463","0.0-2.0-13.4-0.4","5ef16261c970f4526c7695eb","E1","batch5","","852","tol_tohand","","","","tol_peg_3","852","852","0","[[1,0,0],[2,0],[0]]","5","[[2,1,3],[0,0],[0]]","1","0","","","","","","5","","","","","","","","",""
"","","","","","single-stim-button","52","222962","0.0-2.0-13.4-1.4","5ef16261c970f4526c7695eb","E1","batch5","","498","tol_toboard","","","","tol_peg_2","498","498","0","[[1,0,0],[2,3],[0]]","5","[[2,1,3],[0,0],[0]]","1","0","","","","","","5","","","","","","","","",""
"","","","","","single-stim-button","53","223868","0.0-2.0-13.5-0.5","5ef16261c970f4526c7695eb","E1","batch5","","904","tol_tohand","","","","tol_peg_1","904","904","0","[[0,0,0],[2,3],[0]]","6","[[2,1,3],[0,0],[0]]","1","0","","","","","","5","","","","","","","","",""
"","","","","","single-stim-button","54","224990","0.0-2.0-13.5-1.5","5ef16261c970f4526c7695eb","E1","batch5","","1121","tol_toboard","","","","tol_peg_3","1121","1121","0","[[0,0,0],[2,3],[1]]","6","[[2,1,3],[0,0],[0]]","1","0","","","","","","5","","","","","","","","",""
"","","","","","single-stim-button","55","232982","0.0-2.0-13.6-0.6","5ef16261c970f4526c7695eb","E1","batch5","","7990","tol_tohand","","","","tol_peg_2","7990","7990","0","[[0,0,0],[2,0],[1]]","7","[[2,1,3],[0,0],[0]]","1","0","","","","","","5","","","","","","","","",""
"","","","","","single-stim-button","56","238472","0.0-2.0-13.6-1.6","5ef16261c970f4526c7695eb","E1","batch5","","5488","tol_toboard","","","","tol_peg_2","5488","5488","0","[[0,0,0],[2,3],[1]]","7","[[2,1,3],[0,0],[0]]","1","0","","","","","","5","","","","","","","","",""
"","","","","","single-stim-button","57","242988","0.0-2.0-13.7-0.7","5ef16261c970f4526c7695eb","E1","batch5","","4514","tol_tohand","","","","tol_peg_2","4514","4514","0","[[0,0,0],[2,0],[1]]","8","[[2,1,3],[0,0],[0]]","1","0","","","","","","5","","","","","","","","",""
"","","","","","single-stim-button","58","243978","0.0-2.0-13.7-1.7","5ef16261c970f4526c7695eb","E1","batch5","","990","tol_toboard","","","","tol_peg_1","990","990","0","[[3,0,0],[2,0],[1]]","8","[[2,1,3],[0,0],[0]]","1","0","","","","","","5","","","","","","","","",""
"","","","","","single-stim-button","59","246456","0.0-2.0-13.8-0.8","5ef16261c970f4526c7695eb","E1","batch5","","2476","tol_tohand","","","","tol_peg_2","2476","2476","0","[[3,0,0],[0,0],[1]]","9","[[2,1,3],[0,0],[0]]","1","0","","","","","","5","","","","","","","","",""
"","","","","","single-stim-button","60","249532","0.0-2.0-13.8-1.8","5ef16261c970f4526c7695eb","E1","batch5","","3075","tol_toboard","","","","tol_peg_2","3075","3075","0","[[3,0,0],[2,0],[1]]","9","[[2,1,3],[0,0],[0]]","1","0","","","","","","5","","","","","","","","",""
"","","","","","single-stim-button","61","250086","0.0-2.0-13.9-0.9","5ef16261c970f4526c7695eb","E1","batch5","","552","tol_tohand","","","","tol_peg_3","552","552","0","[[3,0,0],[2,0],[0]]","10","[[2,1,3],[0,0],[0]]","1","0","","","","","","5","","","","","","","","",""
"","","","","","single-stim-button","62","250717","0.0-2.0-13.9-1.9","5ef16261c970f4526c7695eb","E1","batch5","","630","tol_toboard","","","","tol_peg_2","630","630","0","[[3,0,0],[2,1],[0]]","10","[[2,1,3],[0,0],[0]]","1","0","","","","","","5","","","","","","","","",""
"","","","","","single-stim-button","63","253906","0.0-2.0-13.10-0.10","5ef16261c970f4526c7695eb","E1","batch5","","3187","tol_tohand","","","","tol_peg_1","3187","3187","0","[[0,0,0],[2,1],[0]]","11","[[2,1,3],[0,0],[0]]","1","0","","","","","","5","","","","","","","","",""
"","","","","","single-stim-button","64","255166","0.0-2.0-13.10-1.10","5ef16261c970f4526c7695eb","E1","batch5","","1258","tol_toboard","","","","tol_peg_3","1258","1258","0","[[0,0,0],[2,1],[3]]","11","[[2,1,3],[0,0],[0]]","1","0","","","","","","5","","","","","","","","",""
"","","","","","single-stim-button","65","261693","0.0-2.0-13.11-0.11","5ef16261c970f4526c7695eb","E1","batch5","","6526","tol_tohand","","","","tol_peg_2","6526","6526","0","[[0,0,0],[2,0],[3]]","12","[[2,1,3],[0,0],[0]]","1","0","","","","","","5","","","","","","","","",""
"","","","","","single-stim-button","66","266966","0.0-2.0-13.11-1.11","5ef16261c970f4526c7695eb","E1","batch5","","5271","tol_toboard","","","","tol_peg_1","5271","5271","0","[[1,0,0],[2,0],[3]]","12","[[2,1,3],[0,0],[0]]","1","0","","","","","","5","","","","","","","","",""
"","","","","","single-stim-button","67","276793","0.0-2.0-13.12-0.12","5ef16261c970f4526c7695eb","E1","batch5","","9826","tol_tohand","","","","tol_peg_3","9826","9826","0","[[1,0,0],[2,0],[0]]","13","[[2,1,3],[0,0],[0]]","1","0","","","","","","5","","","","","","","","",""
"","","","","","single-stim-button","68","277652","0.0-2.0-13.12-1.12","5ef16261c970f4526c7695eb","E1","batch5","","857","tol_toboard","","","","tol_peg_1","857","857","0","[[1,3,0],[2,0],[0]]","13","[[2,1,3],[0,0],[0]]","1","0","","","","","","5","","","","","","","","",""
"","","","","","single-stim-button","69","280133","0.0-2.0-13.13-0.13","5ef16261c970f4526c7695eb","E1","batch5","","2481","tol_tohand","","","","tol_peg_2","2481","2481","0","[[1,3,0],[0,0],[0]]","14","[[2,1,3],[0,0],[0]]","1","0","","","","","","5","","","","","","","","",""
"","","","","","single-stim-button","70","280677","0.0-2.0-13.13-1.13","5ef16261c970f4526c7695eb","E1","batch5","","543","tol_toboard","","","","tol_peg_3","543","543","0","[[1,3,0],[0,0],[2]]","14","[[2,1,3],[0,0],[0]]","1","0","","","","","","5","","","","","","","","",""
"","","","","","single-stim-button","71","293555","0.0-2.0-13.14-0.14","5ef16261c970f4526c7695eb","E1","batch5","","12877","tol_tohand","","","","tol_peg_3","12877","12877","0","[[1,3,0],[0,0],[0]]","15","[[2,1,3],[0,0],[0]]","1","0","","","","","","5","","","","","","","","",""
"","","","","","single-stim-button","72","294155","0.0-2.0-13.14-1.14","5ef16261c970f4526c7695eb","E1","batch5","","599","tol_toboard","","","","tol_peg_2","599","599","0","[[1,3,0],[2,0],[0]]","15","[[2,1,3],[0,0],[0]]","1","0","","","","","","5","","","","","","","","",""
"","","","","","single-stim-button","73","300783","0.0-2.0-13.15-0.15","5ef16261c970f4526c7695eb","E1","batch5","","6626","tol_tohand","","","","tol_peg_2","6626","6626","0","[[1,3,0],[0,0],[0]]","16","[[2,1,3],[0,0],[0]]","1","0","","","","","","5","","","","","","","","",""
"","","","","","single-stim-button","74","302705","0.0-2.0-13.15-1.15","5ef16261c970f4526c7695eb","E1","batch5","","1920","tol_toboard","","","","tol_peg_3","1920","1920","0","[[1,3,0],[0,0],[2]]","16","[[2,1,3],[0,0],[0]]","1","0","","","","","","5","","","","","","","","",""
"","","","","","single-stim-button","75","303337","0.0-2.0-13.16-0.16","5ef16261c970f4526c7695eb","E1","batch5","","630","tol_tohand","","","","tol_peg_1","630","630","0","[[1,0,0],[0,0],[2]]","17","[[2,1,3],[0,0],[0]]","1","0","","","","","","5","","","","","","","","",""
"","","","","","single-stim-button","76","304091","0.0-2.0-13.16-1.16","5ef16261c970f4526c7695eb","E1","batch5","","752","tol_toboard","","","","tol_peg_2","752","752","0","[[1,0,0],[3,0],[2]]","17","[[2,1,3],[0,0],[0]]","1","0","","","","","","5","","","","","","","","",""
"","","","","","single-stim-button","77","306664","0.0-2.0-13.17-0.17","5ef16261c970f4526c7695eb","E1","batch5","","2572","tol_tohand","","","","tol_peg_3","2572","2572","0","[[1,0,0],[3,0],[0]]","18","[[2,1,3],[0,0],[0]]","1","0","","","","","","5","","","","","","","","",""
"","","","","","single-stim-button","78","307559","0.0-2.0-13.17-1.17","5ef16261c970f4526c7695eb","E1","batch5","","894","tol_toboard","","","","tol_peg_2","894","894","0","[[1,0,0],[3,2],[0]]","18","[[2,1,3],[0,0],[0]]","1","0","","","","","","5","","","","","","","","",""
"","","","","","single-stim-button","79","308946","0.0-2.0-13.18-0.18","5ef16261c970f4526c7695eb","E1","batch5","","1386","tol_tohand","","","","tol_peg_1","1386","1386","0","[[0,0,0],[3,2],[0]]","19","[[2,1,3],[0,0],[0]]","1","0","","","","","","5","","","","","","","","",""
"","","","","","single-stim-button","80","309565","0.0-2.0-13.18-1.18","5ef16261c970f4526c7695eb","E1","batch5","","617","tol_toboard","","","","tol_peg_3","617","617","0","[[0,0,0],[3,2],[1]]","19","[[2,1,3],[0,0],[0]]","1","0","","","","","","5","","","","","","","","",""
"","","","","","single-stim-button","81","310189","0.0-2.0-13.19-0.19","5ef16261c970f4526c7695eb","E1","batch5","","624","tol_tohand","","","","tol_peg_2","624","624","0","[[0,0,0],[3,0],[1]]","20","[[2,1,3],[0,0],[0]]","1","0","","","","","","5","","","","","","","","",""
"","","","","","single-stim-button","82","311049","0.0-2.0-13.19-1.19","5ef16261c970f4526c7695eb","E1","batch5","","859","tol_toboard","","","","tol_peg_1","859","859","0","[[2,0,0],[3,0],[1]]","20","[[2,1,3],[0,0],[0]]","1","0","","","","","","5","","","","","","","","",""
"","","","","","single-stim-button","83","311951","0.0-2.0-13.20-0.20","5ef16261c970f4526c7695eb","E1","batch5","","900","tol_tohand","","","","tol_peg_3","900","900","0","[[2,0,0],[3,0],[0]]","21","[[2,1,3],[0,0],[0]]","1","0","","","","","","5","","","","","","","","",""
"","","","","","single-stim-button","84","312729","0.0-2.0-13.20-1.20","5ef16261c970f4526c7695eb","E1","batch5","","776","tol_toboard","","","","tol_peg_1","776","776","0","[[2,1,0],[3,0],[0]]","21","[[2,1,3],[0,0],[0]]","1","0","","","","","","5","","","","","","","","",""
"","","","","","single-stim-button","85","313313","0.0-2.0-13.21-0.21","5ef16261c970f4526c7695eb","E1","batch5","","583","tol_tohand","","","","tol_peg_2","583","583","0","[[2,1,0],[0,0],[0]]","22","[[2,1,3],[0,0],[0]]","1","0","","","","","","5","","","","","","","","",""
"","","","","","single-stim-button","86","313963","0.0-2.0-13.21-1.21","5ef16261c970f4526c7695eb","E1","batch5","","648","tol_toboard","","","","tol_peg_1","648","648","0","[[2,1,3],[0,0],[0]]","22","[[2,1,3],[0,0],[0]]","1","0","","","","","","5","","","","","","","","",""
"","","","","","poldrack-single-stim","87","314978","0.0-2.0-14.0","5ef16261c970f4526c7695eb","E1","batch5","","-1","tol_feedback","","","true","","1000","1000","500","","","","","","-1","none","true","14044","84820","","","","","","","","","",""
"","","","","","html-button-response","88","318939","0.0-2.0-15.0","5ef16261c970f4526c7695eb","E1","batch5","","3958.9000000059605","tol_trial_num","<div class = centerbox><p class = center-block-text>problem <strong>3</strong> out of 25 problems</p></div>","0","","","","","","","","","","","","","","","","","","","","","","","","",""
"","","","","","single-stim-button","89","330021","0.0-2.0-16.0-0.0","5ef16261c970f4526c7695eb","E1","batch5","","11080","tol_tohand","","","","tol_peg_3","11080","11080","0","[[2,3,0],[0,0],[0]]","1","[[1,2,0],[3,0],[0]]","2","0","","","","","","4","","","","","","","","",""
"","","","","","single-stim-button","90","335899","0.0-2.0-16.0-1.0","5ef16261c970f4526c7695eb","E1","batch5","","5876","tol_toboard","","","","tol_peg_2","5876","5876","0","[[2,3,0],[1,0],[0]]","1","[[1,2,0],[3,0],[0]]","2","0","","","","","","4","","","","","","","","",""
"","","","","","single-stim-button","91","336656","0.0-2.0-16.1-0.1","5ef16261c970f4526c7695eb","E1","batch5","","756","tol_tohand","","","","tol_peg_1","756","756","0","[[2,0,0],[1,0],[0]]","2","[[1,2,0],[3,0],[0]]","2","0","","","","","","4","","","","","","","","",""
"","","","","","single-stim-button","92","339175","0.0-2.0-16.1-1.1","5ef16261c970f4526c7695eb","E1","batch5","","2517","tol_toboard","","","","tol_peg_3","2517","2517","0","[[2,0,0],[1,0],[3]]","2","[[1,2,0],[3,0],[0]]","2","0","","","","","","4","","","","","","","","",""
"","","","","","single-stim-button","93","339727","0.0-2.0-16.2-0.2","5ef16261c970f4526c7695eb","E1","batch5","","551","tol_tohand","","","","tol_peg_1","551","551","0","[[0,0,0],[1,0],[3]]","3","[[1,2,0],[3,0],[0]]","2","0","","","","","","4","","","","","","","","",""
"","","","","","single-stim-button","94","341602","0.0-2.0-16.2-1.2","5ef16261c970f4526c7695eb","E1","batch5","","1874","tol_toboard","","","","tol_peg_2","1874","1874","0","[[0,0,0],[1,2],[3]]","3","[[1,2,0],[3,0],[0]]","2","0","","","","","","4","","","","","","","","",""
"","","","","","single-stim-button","95","342814","0.0-2.0-16.3-0.3","5ef16261c970f4526c7695eb","E1","batch5","","1211","tol_tohand","","","","tol_peg_2","1211","1211","0","[[0,0,0],[1,0],[3]]","4","[[1,2,0],[3,0],[0]]","2","0","","","","","","4","","","","","","","","",""
"","","","","","single-stim-button","96","343816","0.0-2.0-16.3-1.3","5ef16261c970f4526c7695eb","E1","batch5","","1001","tol_toboard","","","","tol_peg_1","1001","1001","0","[[2,0,0],[1,0],[3]]","4","[[1,2,0],[3,0],[0]]","2","0","","","","","","4","","","","","","","","",""
"","","","","","single-stim-button","97","345320","0.0-2.0-16.4-0.4","5ef16261c970f4526c7695eb","E1","batch5","","1503","tol_tohand","","","","tol_peg_2","1503","1503","0","[[2,0,0],[0,0],[3]]","5","[[1,2,0],[3,0],[0]]","2","0","","","","","","4","","","","","","","","",""
"","","","","","single-stim-button","98","347708","0.0-2.0-16.4-1.4","5ef16261c970f4526c7695eb","E1","batch5","","2387","tol_toboard","","","","tol_peg_1","2387","2387","0","[[2,1,0],[0,0],[3]]","5","[[1,2,0],[3,0],[0]]","2","0","","","","","","4","","","","","","","","",""
"","","","","","single-stim-button","99","348302","0.0-2.0-16.5-0.5","5ef16261c970f4526c7695eb","E1","batch5","","593","tol_tohand","","","","tol_peg_3","593","593","0","[[2,1,0],[0,0],[0]]","6","[[1,2,0],[3,0],[0]]","2","0","","","","","","4","","","","","","","","",""
"","","","","","single-stim-button","100","348956","0.0-2.0-16.5-1.5","5ef16261c970f4526c7695eb","E1","batch5","","653","tol_toboard","","","","tol_peg_2","653","653","0","[[2,1,0],[3,0],[0]]","6","[[1,2,0],[3,0],[0]]","2","0","","","","","","4","","","","","","","","",""
"","","","","","single-stim-button","101","349998","0.0-2.0-16.6-0.6","5ef16261c970f4526c7695eb","E1","batch5","","1041","tol_tohand","","","","tol_peg_1","1041","1041","0","[[2,0,0],[3,0],[0]]","7","[[1,2,0],[3,0],[0]]","2","0","","","","","","4","","","","","","","","",""
"","","","","","single-stim-button","102","350696","0.0-2.0-16.6-1.6","5ef16261c970f4526c7695eb","E1","batch5","","697","tol_toboard","","","","tol_peg_3","697","697","0","[[2,0,0],[3,0],[1]]","7","[[1,2,0],[3,0],[0]]","2","0","","","","","","4","","","","","","","","",""
"","","","","","single-stim-button","103","356809","0.0-2.0-16.7-0.7","5ef16261c970f4526c7695eb","E1","batch5","","6112","tol_tohand","","","","tol_peg_1","6112","6112","0","[[0,0,0],[3,0],[1]]","8","[[1,2,0],[3,0],[0]]","2","0","","","","","","4","","","","","","","","",""
"","","","","","single-stim-button","104","358134","0.0-2.0-16.7-1.7","5ef16261c970f4526c7695eb","E1","batch5","","1324","tol_toboard","","","","tol_peg_2","1324","1324","0","[[0,0,0],[3,2],[1]]","8","[[1,2,0],[3,0],[0]]","2","0","","","","","","4","","","","","","","","",""
"","","","","","single-stim-button","105","358650","0.0-2.0-16.8-0.8","5ef16261c970f4526c7695eb","E1","batch5","","514","tol_tohand","","","","tol_peg_3","514","514","0","[[0,0,0],[3,2],[0]]","9","[[1,2,0],[3,0],[0]]","2","0","","","","","","4","","","","","","","","",""
"","","","","","single-stim-button","106","359468","0.0-2.0-16.8-1.8","5ef16261c970f4526c7695eb","E1","batch5","","818","tol_toboard","","","","tol_peg_1","818","818","0","[[1,0,0],[3,2],[0]]","9","[[1,2,0],[3,0],[0]]","2","0","","","","","","4","","","","","","","","",""
"","","","","","single-stim-button","107","362026","0.0-2.0-16.9-0.9","5ef16261c970f4526c7695eb","E1","batch5","","2557","tol_tohand","","","","tol_peg_2","2557","2557","0","[[1,0,0],[3,0],[0]]","10","[[1,2,0],[3,0],[0]]","2","0","","","","","","4","","","","","","","","",""
"","","","","","single-stim-button","108","362860","0.0-2.0-16.9-1.9","5ef16261c970f4526c7695eb","E1","batch5","","833","tol_toboard","","","","tol_peg_1","833","833","0","[[1,2,0],[3,0],[0]]","10","[[1,2,0],[3,0],[0]]","2","0","","","","","","4","","","","","","","","",""
"","","","","","poldrack-single-stim","109","363872","0.0-2.0-17.0","5ef16261c970f4526c7695eb","E1","batch5","","-1","tol_feedback","","","true","","1000","1000","500","","","","","","-1","none","true","11080","25918","","","","","","","","","",""
"","","","","","html-button-response","110","364564","0.0-2.0-18.0","5ef16261c970f4526c7695eb","E1","batch5","","690.6999999880791","tol_trial_num","<div class = centerbox><p class = center-block-text>problem <strong>4</strong> out of 25 problems</p></div>","0","","","","","","","","","","","","","","","","","","","","","","","","",""
"","","","","","single-stim-button","111","369097","0.0-2.0-19.0-0.0","5ef16261c970f4526c7695eb","E1","batch5","","4532","tol_tohand","","","","tol_peg_2","4532","4532","0","[[3,0,0],[2,0],[0]]","1","[[3,0,0],[1,0],[2]]","3","0","","","","","","3","","","","","","","","",""
"","","","","","single-stim-button","112","369764","0.0-2.0-19.0-1.0","5ef16261c970f4526c7695eb","E1","batch5","","666","tol_toboard","","","","tol_peg_1","666","666","0","[[3,1,0],[2,0],[0]]","1","[[3,0,0],[1,0],[2]]","3","0","","","","","","3","","","","","","","","",""
"","","","","","single-stim-button","113","370374","0.0-2.0-19.1-0.1","5ef16261c970f4526c7695eb","E1","batch5","","609","tol_tohand","","","","tol_peg_2","609","609","0","[[3,1,0],[0,0],[0]]","2","[[3,0,0],[1,0],[2]]","3","0","","","","","","3","","","","","","","","",""
"","","","","","single-stim-button","114","371048","0.0-2.0-19.1-1.1","5ef16261c970f4526c7695eb","E1","batch5","","673","tol_toboard","","","","tol_peg_3","673","673","0","[[3,1,0],[0,0],[2]]","2","[[3,0,0],[1,0],[2]]","3","0","","","","","","3","","","","","","","","",""
"","","","","","single-stim-button","115","371736","0.0-2.0-19.2-0.2","5ef16261c970f4526c7695eb","E1","batch5","","686","tol_tohand","","","","tol_peg_1","686","686","0","[[3,0,0],[0,0],[2]]","3","[[3,0,0],[1,0],[2]]","3","0","","","","","","3","","","","","","","","",""
"","","","","","single-stim-button","116","372238","0.0-2.0-19.2-1.2","5ef16261c970f4526c7695eb","E1","batch5","","501","tol_toboard","","","","tol_peg_2","501","501","0","[[3,0,0],[1,0],[2]]","3","[[3,0,0],[1,0],[2]]","3","0","","","","","","3","","","","","","","","",""
"","","","","","poldrack-single-stim","117","373245","0.0-2.0-20.0","5ef16261c970f4526c7695eb","E1","batch5","","-1","tol_feedback","","","true","","1000","1000","500","","","","","","-1","none","true","4532","5827","","","","","","","","","",""
"","","","","","html-button-response","118","373986","0.0-2.0-21.0","5ef16261c970f4526c7695eb","E1","batch5","","738.6999999880791","tol_trial_num","<div class = centerbox><p class = center-block-text>problem <strong>5</strong> out of 25 problems</p></div>","0","","","","","","","","","","","","","","","","","","","","","","","","",""
"","","","","","single-stim-button","119","381296","0.0-2.0-22.0-0.0","5ef16261c970f4526c7695eb","E1","batch5","","7308","tol_tohand","","","","tol_peg_3","7308","7308","0","[[1,0,0],[2,0],[0]]","1","[[0,0,0],[1,2],[3]]","4","0","","","","","","7","","","","","","","","",""
"","","","","","single-stim-button","120","381954","0.0-2.0-22.0-1.0","5ef16261c970f4526c7695eb","E1","batch5","","657","tol_toboard","","","","tol_peg_1","657","657","0","[[1,3,0],[2,0],[0]]","1","[[0,0,0],[1,2],[3]]","4","0","","","","","","7","","","","","","","","",""
"","","","","","single-stim-button","121","384222","0.0-2.0-22.1-0.1","5ef16261c970f4526c7695eb","E1","batch5","","2266","tol_tohand","","","","tol_peg_2","2266","2266","0","[[1,3,0],[0,0],[0]]","2","[[0,0,0],[1,2],[3]]","4","0","","","","","","7","","","","","","","","",""
"","","","","","single-stim-button","122","385582","0.0-2.0-22.1-1.1","5ef16261c970f4526c7695eb","E1","batch5","","1358","tol_toboard","","","","tol_peg_3","1358","1358","0","[[1,3,0],[0,0],[2]]","2","[[0,0,0],[1,2],[3]]","4","0","","","","","","7","","","","","","","","",""
"","","","","","single-stim-button","123","387242","0.0-2.0-22.2-0.2","5ef16261c970f4526c7695eb","E1","batch5","","1658","tol_tohand","","","","tol_peg_1","1658","1658","0","[[1,0,0],[0,0],[2]]","3","[[0,0,0],[1,2],[3]]","4","0","","","","","","7","","","","","","","","",""
"","","","","","single-stim-button","124","388148","0.0-2.0-22.2-1.2","5ef16261c970f4526c7695eb","E1","batch5","","904","tol_toboard","","","","tol_peg_2","904","904","0","[[1,0,0],[3,0],[2]]","3","[[0,0,0],[1,2],[3]]","4","0","","","","","","7","","","","","","","","",""
"","","","","","single-stim-button","125","388620","0.0-2.0-22.3-0.3","5ef16261c970f4526c7695eb","E1","batch5","","471","tol_tohand","","","","tol_peg_1","471","471","0","[[0,0,0],[3,0],[2]]","4","[[0,0,0],[1,2],[3]]","4","0","","","","","","7","","","","","","","","",""
"","","","","","single-stim-button","126","389906","0.0-2.0-22.3-1.3","5ef16261c970f4526c7695eb","E1","batch5","","1284","tol_toboard","","","","tol_peg_2","1284","1284","0","[[0,0,0],[3,1],[2]]","4","[[0,0,0],[1,2],[3]]","4","0","","","","","","7","","","","","","","","",""
"","","","","","single-stim-button","127","393090","0.0-2.0-22.4-0.4","5ef16261c970f4526c7695eb","E1","batch5","","3182","tol_tohand","","","","tol_peg_3","3182","3182","0","[[0,0,0],[3,1],[0]]","5","[[0,0,0],[1,2],[3]]","4","0","","","","","","7","","","","","","","","",""
"","","","","","single-stim-button","128","393912","0.0-2.0-22.4-1.4","5ef16261c970f4526c7695eb","E1","batch5","","820","tol_toboard","","","","tol_peg_1","820","820","0","[[2,0,0],[3,1],[0]]","5","[[0,0,0],[1,2],[3]]","4","0","","","","","","7","","","","","","","","",""
"","","","","","single-stim-button","129","395356","0.0-2.0-22.5-0.5","5ef16261c970f4526c7695eb","E1","batch5","","1442","tol_tohand","","","","tol_peg_2","1442","1442","0","[[2,0,0],[3,0],[0]]","6","[[0,0,0],[1,2],[3]]","4","0","","","","","","7","","","","","","","","",""
"","","","","","single-stim-button","130","396230","0.0-2.0-22.5-1.5","5ef16261c970f4526c7695eb","E1","batch5","","873","tol_toboard","","","","tol_peg_1","873","873","0","[[2,1,0],[3,0],[0]]","6","[[0,0,0],[1,2],[3]]","4","0","","","","","","7","","","","","","","","",""
"","","","","","single-stim-button","131","396976","0.0-2.0-22.6-0.6","5ef16261c970f4526c7695eb","E1","batch5","","744","tol_tohand","","","","tol_peg_2","744","744","0","[[2,1,0],[0,0],[0]]","7","[[0,0,0],[1,2],[3]]","4","0","","","","","","7","","","","","","","","",""
"","","","","","single-stim-button","132","398362","0.0-2.0-22.6-1.6","5ef16261c970f4526c7695eb","E1","batch5","","1384","tol_toboard","","","","tol_peg_3","1384","1384","0","[[2,1,0],[0,0],[3]]","7","[[0,0,0],[1,2],[3]]","4","0","","","","","","7","","","","","","","","",""
"","","","","","single-stim-button","133","400211","0.0-2.0-22.7-0.7","5ef16261c970f4526c7695eb","E1","batch5","","1849","tol_tohand","","","","tol_peg_1","1849","1849","0","[[2,0,0],[0,0],[3]]","8","[[0,0,0],[1,2],[3]]","4","0","","","","","","7","","","","","","","","",""
"","","","","","single-stim-button","134","400796","0.0-2.0-22.7-1.7","5ef16261c970f4526c7695eb","E1","batch5","","583","tol_toboard","","","","tol_peg_2","583","583","0","[[2,0,0],[1,0],[3]]","8","[[0,0,0],[1,2],[3]]","4","0","","","","","","7","","","","","","","","",""
"","","","","","single-stim-button","135","401149","0.0-2.0-22.8-0.8","5ef16261c970f4526c7695eb","E1","batch5","","352","tol_tohand","","","","tol_peg_1","352","352","0","[[0,0,0],[1,0],[3]]","9","[[0,0,0],[1,2],[3]]","4","0","","","","","","7","","","","","","","","",""
"","","","","","single-stim-button","136","401662","0.0-2.0-22.8-1.8","5ef16261c970f4526c7695eb","E1","batch5","","511","tol_toboard","","","","tol_peg_2","511","511","0","[[0,0,0],[1,2],[3]]","9","[[0,0,0],[1,2],[3]]","4","0","","","","","","7","","","","","","","","",""
"","","","","","poldrack-single-stim","137","402673","0.0-2.0-23.0","5ef16261c970f4526c7695eb","E1","batch5","","-1","tol_feedback","","","true","","1000","1000","500","","","","","","-1","none","true","7308","19272","","","","","","","","","",""
"","","","","","html-button-response","138","403326","0.0-2.0-24.0","5ef16261c970f4526c7695eb","E1","batch5","","651","tol_trial_num","<div class = centerbox><p class = center-block-text>problem <strong>6</strong> out of 25 problems</p></div>","0","","","","","","","","","","","","","","","","","","","","","","","","",""
"","","","","","single-stim-button","139","407700","0.0-2.0-25.0-0.0","5ef16261c970f4526c7695eb","E1","batch5","","4372","tol_tohand","","","","tol_peg_2","4372","4372","0","[[0,0,0],[1,0],[3]]","1","[[1,0,0],[2,3],[0]]","5","0","","","","","","6","","","","","","","","",""
"","","","","","single-stim-button","140","411358","0.0-2.0-25.0-1.0","5ef16261c970f4526c7695eb","E1","batch5","","3656","tol_toboard","","","","tol_peg_1","3656","3656","0","[[2,0,0],[1,0],[3]]","1","[[1,0,0],[2,3],[0]]","5","0","","","","","","6","","","","","","","","",""
"","","","","","single-stim-button","141","414721","0.0-2.0-25.1-0.1","5ef16261c970f4526c7695eb","E1","batch5","","3362","tol_tohand","","","","tol_peg_2","3362","3362","0","[[2,0,0],[0,0],[3]]","2","[[1,0,0],[2,3],[0]]","5","0","","","","","","6","","","","","","","","",""
"","","","","","single-stim-button","142","415723","0.0-2.0-25.1-1.1","5ef16261c970f4526c7695eb","E1","batch5","","1000","tol_toboard","","","","tol_peg_1","1000","1000","0","[[2,1,0],[0,0],[3]]","2","[[1,0,0],[2,3],[0]]","5","0","","","","","","6","","","","","","","","",""
"","","","","","single-stim-button","143","420902","0.0-2.0-25.2-0.2","5ef16261c970f4526c7695eb","E1","batch5","","5179","tol_tohand","","","","tol_peg_1","5179","5179","0","[[2,0,0],[0,0],[3]]","3","[[1,0,0],[2,3],[0]]","5","0","","","","","","6","","","","","","","","",""
"","","","","","single-stim-button","144","421385","0.0-2.0-25.2-1.2","5ef16261c970f4526c7695eb","E1","batch5","","481","tol_toboard","","","","tol_peg_2","481","481","0","[[2,0,0],[1,0],[3]]","3","[[1,0,0],[2,3],[0]]","5","0","","","","","","6","","","","","","","","",""
"","","","","","single-stim-button","145","425201","0.0-2.0-25.3-0.3","5ef16261c970f4526c7695eb","E1","batch5","","3815","tol_tohand","","","","tol_peg_3","3815","3815","0","[[2,0,0],[1,0],[0]]","4","[[1,0,0],[2,3],[0]]","5","0","","","","","","6","","","","","","","","",""
"","","","","","single-stim-button","146","426193","0.0-2.0-25.3-1.3","5ef16261c970f4526c7695eb","E1","batch5","","991","tol_toboard","","","","tol_peg_1","991","991","0","[[2,3,0],[1,0],[0]]","4","[[1,0,0],[2,3],[0]]","5","0","","","","","","6","","","","","","","","",""
"","","","","","single-stim-button","147","427941","0.0-2.0-25.4-0.4","5ef16261c970f4526c7695eb","E1","batch5","","1747","tol_tohand","","","","tol_peg_2","1747","1747","0","[[2,3,0],[0,0],[0]]","5","[[1,0,0],[2,3],[0]]","5","0","","","","","","6","","","","","","","","",""
"","","","","","single-stim-button","148","428631","0.0-2.0-25.4-1.4","5ef16261c970f4526c7695eb","E1","batch5","","688","tol_toboard","","","","tol_peg_3","688","688","0","[[2,3,0],[0,0],[1]]","5","[[1,0,0],[2,3],[0]]","5","0","","","","","","6","","","","","","","","",""
"","","","","","single-stim-button","149","429375","0.0-2.0-25.5-0.5","5ef16261c970f4526c7695eb","E1","batch5","","742","tol_tohand","","","","tol_peg_1","742","742","0","[[2,0,0],[0,0],[1]]","6","[[1,0,0],[2,3],[0]]","5","0","","","","","","6","","","","","","","","",""
"","","","","","single-stim-button","150","431292","0.0-2.0-25.5-1.5","5ef16261c970f4526c7695eb","E1","batch5","","1915","tol_toboard","","","","tol_peg_2","1915","1915","0","[[2,0,0],[3,0],[1]]","6","[[1,0,0],[2,3],[0]]","5","0","","","","","","6","","","","","","","","",""
"","","","","","single-stim-button","151","431777","0.0-2.0-25.6-0.6","5ef16261c970f4526c7695eb","E1","batch5","","485","tol_tohand","","","","tol_peg_1","485","485","0","[[0,0,0],[3,0],[1]]","7","[[1,0,0],[2,3],[0]]","5","0","","","","","","6","","","","","","","","",""
"","","","","","single-stim-button","152","432491","0.0-2.0-25.6-1.6","5ef16261c970f4526c7695eb","E1","batch5","","713","tol_toboard","","","","tol_peg_2","713","713","0","[[0,0,0],[3,2],[1]]","7","[[1,0,0],[2,3],[0]]","5","0","","","","","","6","","","","","","","","",""
"","","","","","single-stim-button","153","435491","0.0-2.0-25.7-0.7","5ef16261c970f4526c7695eb","E1","batch5","","2999","tol_tohand","","","","tol_peg_2","2999","2999","0","[[0,0,0],[3,0],[1]]","8","[[1,0,0],[2,3],[0]]","5","0","","","","","","6","","","","","","","","",""
"","","","","","single-stim-button","154","438373","0.0-2.0-25.7-1.7","5ef16261c970f4526c7695eb","E1","batch5","","2880","tol_toboard","","","","tol_peg_2","2880","2880","0","[[0,0,0],[3,2],[1]]","8","[[1,0,0],[2,3],[0]]","5","0","","","","","","6","","","","","","","","",""
"","","","","","single-stim-button","155","439127","0.0-2.0-25.8-0.8","5ef16261c970f4526c7695eb","E1","batch5","","752","tol_tohand","","","","tol_peg_3","752","752","0","[[0,0,0],[3,2],[0]]","9","[[1,0,0],[2,3],[0]]","5","0","","","","","","6","","","","","","","","",""
"","","","","","single-stim-button","156","439753","0.0-2.0-25.8-1.8","5ef16261c970f4526c7695eb","E1","batch5","","626","tol_toboard","","","","tol_peg_1","626","626","0","[[1,0,0],[3,2],[0]]","9","[[1,0,0],[2,3],[0]]","5","0","","","","","","6","","","","","","","","",""
"","","","","","single-stim-button","157","441561","0.0-2.0-25.9-0.9","5ef16261c970f4526c7695eb","E1","batch5","","1806","tol_tohand","","","","tol_peg_2","1806","1806","0","[[1,0,0],[3,0],[0]]","10","[[1,0,0],[2,3],[0]]","5","0","","","","","","6","","","","","","","","",""
"","","","","","single-stim-button","158","442380","0.0-2.0-25.9-1.9","5ef16261c970f4526c7695eb","E1","batch5","","817","tol_toboard","","","","tol_peg_3","817","817","0","[[1,0,0],[3,0],[2]]","10","[[1,0,0],[2,3],[0]]","5","0","","","","","","6","","","","","","","","",""
"","","","","","single-stim-button","159","444415","0.0-2.0-25.10-0.10","5ef16261c970f4526c7695eb","E1","batch5","","2034","tol_tohand","","","","tol_peg_2","2034","2034","0","[[1,0,0],[0,0],[2]]","11","[[1,0,0],[2,3],[0]]","5","0","","","","","","6","","","","","","","","",""
"","","","","","single-stim-button","160","444925","0.0-2.0-25.10-1.10","5ef16261c970f4526c7695eb","E1","batch5","","509","tol_toboard","","","","tol_peg_1","509","509","0","[[1,3,0],[0,0],[2]]","11","[[1,0,0],[2,3],[0]]","5","0","","","","","","6","","","","","","","","",""
"","","","","","single-stim-button","161","445903","0.0-2.0-25.11-0.11","5ef16261c970f4526c7695eb","E1","batch5","","977","tol_tohand","","","","tol_peg_3","977","977","0","[[1,3,0],[0,0],[0]]","12","[[1,0,0],[2,3],[0]]","5","0","","","","","","6","","","","","","","","",""
"","","","","","single-stim-button","162","446249","0.0-2.0-25.11-1.11","5ef16261c970f4526c7695eb","E1","batch5","","345","tol_toboard","","","","tol_peg_2","345","345","0","[[1,3,0],[2,0],[0]]","12","[[1,0,0],[2,3],[0]]","5","0","","","","","","6","","","","","","","","",""
"","","","","","single-stim-button","163","447203","0.0-2.0-25.12-0.12","5ef16261c970f4526c7695eb","E1","batch5","","952","tol_tohand","","","","tol_peg_1","952","952","0","[[1,0,0],[2,0],[0]]","13","[[1,0,0],[2,3],[0]]","5","0","","","","","","6","","","","","","","","",""
"","","","","","single-stim-button","164","447885","0.0-2.0-25.12-1.12","5ef16261c970f4526c7695eb","E1","batch5","","681","tol_toboard","","","","tol_peg_2","681","681","0","[[1,0,0],[2,3],[0]]","13","[[1,0,0],[2,3],[0]]","5","0","","","","","","6","","","","","","","","",""
"","","","","","poldrack-single-stim","165","448895","0.0-2.0-26.0","5ef16261c970f4526c7695eb","E1","batch5","","-1","tol_feedback","","","true","","1000","1000","500","","","","","","-1","none","true","4372","29222","","","","","","","","","",""
"","","","","","html-button-response","166","449637","0.0-2.0-27.0","5ef16261c970f4526c7695eb","E1","batch5","","740.5999999940395","tol_trial_num","<div class = centerbox><p class = center-block-text>problem <strong>7</strong> out of 25 problems</p></div>","0","","","","","","","","","","","","","","","","","","","","","","","","",""
"","","","","","single-stim-button","167","456545","0.0-2.0-28.0-0.0","5ef16261c970f4526c7695eb","E1","batch5","","6906","tol_tohand","","","","tol_peg_1","6906","6906","0","[[2,0,0],[0,0],[3]]","1","[[1,2,0],[3,0],[0]]","6","0","","","","","","5","","","","","","","","",""
"","","","","","single-stim-button","168","457354","0.0-2.0-28.0-1.0","5ef16261c970f4526c7695eb","E1","batch5","","808","tol_toboard","","","","tol_peg_2","808","808","0","[[2,0,0],[1,0],[3]]","1","[[1,2,0],[3,0],[0]]","6","0","","","","","","5","","","","","","","","",""
"","","","","","single-stim-button","169","458091","0.0-2.0-28.1-0.1","5ef16261c970f4526c7695eb","E1","batch5","","736","tol_tohand","","","","tol_peg_1","736","736","0","[[0,0,0],[1,0],[3]]","2","[[1,2,0],[3,0],[0]]","6","0","","","","","","5","","","","","","","","",""
"","","","","","single-stim-button","170","460993","0.0-2.0-28.1-1.1","5ef16261c970f4526c7695eb","E1","batch5","","2900","tol_toboard","","","","tol_peg_1","2900","2900","0","[[2,0,0],[1,0],[3]]","2","[[1,2,0],[3,0],[0]]","6","0","","","","","","5","","","","","","","","",""
"","","","","","single-stim-button","171","462131","0.0-2.0-28.2-0.2","5ef16261c970f4526c7695eb","E1","batch5","","1136","tol_tohand","","","","tol_peg_3","1136","1136","0","[[2,0,0],[1,0],[0]]","3","[[1,2,0],[3,0],[0]]","6","0","","","","","","5","","","","","","","","",""
"","","","","","single-stim-button","172","462693","0.0-2.0-28.2-1.2","5ef16261c970f4526c7695eb","E1","batch5","","560","tol_toboard","","","","tol_peg_2","560","560","0","[[2,0,0],[1,3],[0]]","3","[[1,2,0],[3,0],[0]]","6","0","","","","","","5","","","","","","","","",""
"","","","","","single-stim-button","173","464453","0.0-2.0-28.3-0.3","5ef16261c970f4526c7695eb","E1","batch5","","1758","tol_tohand","","","","tol_peg_1","1758","1758","0","[[0,0,0],[1,3],[0]]","4","[[1,2,0],[3,0],[0]]","6","0","","","","","","5","","","","","","","","",""
"","","","","","single-stim-button","174","465140","0.0-2.0-28.3-1.3","5ef16261c970f4526c7695eb","E1","batch5","","686","tol_toboard","","","","tol_peg_3","686","686","0","[[0,0,0],[1,3],[2]]","4","[[1,2,0],[3,0],[0]]","6","0","","","","","","5","","","","","","","","",""
"","","","","","single-stim-button","175","467762","0.0-2.0-28.4-0.4","5ef16261c970f4526c7695eb","E1","batch5","","2621","tol_tohand","","","","tol_peg_2","2621","2621","0","[[0,0,0],[1,0],[2]]","5","[[1,2,0],[3,0],[0]]","6","0","","","","","","5","","","","","","","","",""
"","","","","","single-stim-button","176","468584","0.0-2.0-28.4-1.4","5ef16261c970f4526c7695eb","E1","batch5","","821","tol_toboard","","","","tol_peg_1","821","821","0","[[3,0,0],[1,0],[2]]","5","[[1,2,0],[3,0],[0]]","6","0","","","","","","5","","","","","","","","",""
"","","","","","single-stim-button","177","474098","0.0-2.0-28.5-0.5","5ef16261c970f4526c7695eb","E1","batch5","","5513","tol_tohand","","","","tol_peg_1","5513","5513","0","[[0,0,0],[1,0],[2]]","6","[[1,2,0],[3,0],[0]]","6","0","","","","","","5","","","","","","","","",""
"","","","","","single-stim-button","178","475427","0.0-2.0-28.5-1.5","5ef16261c970f4526c7695eb","E1","batch5","","1327","tol_toboard","","","","tol_peg_2","1327","1327","0","[[0,0,0],[1,3],[2]]","6","[[1,2,0],[3,0],[0]]","6","0","","","","","","5","","","","","","","","",""
"","","","","","single-stim-button","179","477582","0.0-2.0-28.6-0.6","5ef16261c970f4526c7695eb","E1","batch5","","2154","tol_tohand","","","","tol_peg_3","2154","2154","0","[[0,0,0],[1,3],[0]]","7","[[1,2,0],[3,0],[0]]","6","0","","","","","","5","","","","","","","","",""
"","","","","","single-stim-button","180","478239","0.0-2.0-28.6-1.6","5ef16261c970f4526c7695eb","E1","batch5","","656","tol_toboard","","","","tol_peg_1","656","656","0","[[2,0,0],[1,3],[0]]","7","[[1,2,0],[3,0],[0]]","6","0","","","","","","5","","","","","","","","",""
"","","","","","single-stim-button","181","478648","0.0-2.0-28.7-0.7","5ef16261c970f4526c7695eb","E1","batch5","","407","tol_tohand","","","","tol_peg_2","407","407","0","[[2,0,0],[1,0],[0]]","8","[[1,2,0],[3,0],[0]]","6","0","","","","","","5","","","","","","","","",""
"","","","","","single-stim-button","182","479350","0.0-2.0-28.7-1.7","5ef16261c970f4526c7695eb","E1","batch5","","700","tol_toboard","","","","tol_peg_3","700","700","0","[[2,0,0],[1,0],[3]]","8","[[1,2,0],[3,0],[0]]","6","0","","","","","","5","","","","","","","","",""
"","","","","","single-stim-button","183","481161","0.0-2.0-28.8-0.8","5ef16261c970f4526c7695eb","E1","batch5","","1811","tol_tohand","","","","tol_peg_2","1811","1811","0","[[2,0,0],[0,0],[3]]","9","[[1,2,0],[3,0],[0]]","6","0","","","","","","5","","","","","","","","",""
"","","","","","single-stim-button","184","481843","0.0-2.0-28.8-1.8","5ef16261c970f4526c7695eb","E1","batch5","","681","tol_toboard","","","","tol_peg_1","681","681","0","[[2,1,0],[0,0],[3]]","9","[[1,2,0],[3,0],[0]]","6","0","","","","","","5","","","","","","","","",""
"","","","","","single-stim-button","185","484625","0.0-2.0-28.9-0.9","5ef16261c970f4526c7695eb","E1","batch5","","2780","tol_tohand","","","","tol_peg_1","2780","2780","0","[[2,0,0],[0,0],[3]]","10","[[1,2,0],[3,0],[0]]","6","0","","","","","","5","","","","","","","","",""
"","","","","","single-stim-button","186","485197","0.0-2.0-28.9-1.9","5ef16261c970f4526c7695eb","E1","batch5","","570","tol_toboard","","","","tol_peg_2","570","570","0","[[2,0,0],[1,0],[3]]","10","[[1,2,0],[3,0],[0]]","6","0","","","","","","5","","","","","","","","",""
"","","","","","single-stim-button","187","490612","0.0-2.0-28.10-0.10","5ef16261c970f4526c7695eb","E1","batch5","","5414","tol_tohand","","","","tol_peg_3","5414","5414","0","[[2,0,0],[1,0],[0]]","11","[[1,2,0],[3,0],[0]]","6","0","","","","","","5","","","","","","","","",""
"","","","","","single-stim-button","188","491198","0.0-2.0-28.10-1.10","5ef16261c970f4526c7695eb","E1","batch5","","584","tol_toboard","","","","tol_peg_1","584","584","0","[[2,3,0],[1,0],[0]]","11","[[1,2,0],[3,0],[0]]","6","0","","","","","","5","","","","","","","","",""
"","","","","","single-stim-button","189","491678","0.0-2.0-28.11-0.11","5ef16261c970f4526c7695eb","E1","batch5","","479","tol_tohand","","","","tol_peg_2","479","479","0","[[2,3,0],[0,0],[0]]","12","[[1,2,0],[3,0],[0]]","6","0","","","","","","5","","","","","","","","",""
"","","","","","single-stim-button","190","492168","0.0-2.0-28.11-1.11","5ef16261c970f4526c7695eb","E1","batch5","","488","tol_toboard","","","","tol_peg_3","488","488","0","[[2,3,0],[0,0],[1]]","12","[[1,2,0],[3,0],[0]]","6","0","","","","","","5","","","","","","","","",""
"","","","","","single-stim-button","191","494474","0.0-2.0-28.12-0.12","5ef16261c970f4526c7695eb","E1","batch5","","2304","tol_tohand","","","","tol_peg_1","2304","2304","0","[[2,0,0],[0,0],[1]]","13","[[1,2,0],[3,0],[0]]","6","0","","","","","","5","","","","","","","","",""
"","","","","","single-stim-button","192","495186","0.0-2.0-28.12-1.12","5ef16261c970f4526c7695eb","E1","batch5","","710","tol_toboard","","","","tol_peg_2","710","710","0","[[2,0,0],[3,0],[1]]","13","[[1,2,0],[3,0],[0]]","6","0","","","","","","5","","","","","","","","",""
"","","","","","single-stim-button","193","495596","0.0-2.0-28.13-0.13","5ef16261c970f4526c7695eb","E1","batch5","","409","tol_tohand","","","","tol_peg_1","409","409","0","[[0,0,0],[3,0],[1]]","14","[[1,2,0],[3,0],[0]]","6","0","","","","","","5","","","","","","","","",""
"","","","","","single-stim-button","194","496302","0.0-2.0-28.13-1.13","5ef16261c970f4526c7695eb","E1","batch5","","704","tol_toboard","","","","tol_peg_2","704","704","0","[[0,0,0],[3,2],[1]]","14","[[1,2,0],[3,0],[0]]","6","0","","","","","","5","","","","","","","","",""
"","","","","","single-stim-button","195","496790","0.0-2.0-28.14-0.14","5ef16261c970f4526c7695eb","E1","batch5","","486","tol_tohand","","","","tol_peg_3","486","486","0","[[0,0,0],[3,2],[0]]","15","[[1,2,0],[3,0],[0]]","6","0","","","","","","5","","","","","","","","",""
"","","","","","single-stim-button","196","497452","0.0-2.0-28.14-1.14","5ef16261c970f4526c7695eb","E1","batch5","","661","tol_toboard","","","","tol_peg_1","661","661","0","[[1,0,0],[3,2],[0]]","15","[[1,2,0],[3,0],[0]]","6","0","","","","","","5","","","","","","","","",""
"","","","","","single-stim-button","197","498246","0.0-2.0-28.15-0.15","5ef16261c970f4526c7695eb","E1","batch5","","792","tol_tohand","","","","tol_peg_2","792","792","0","[[1,0,0],[3,0],[0]]","16","[[1,2,0],[3,0],[0]]","6","0","","","","","","5","","","","","","","","",""
"","","","","","single-stim-button","198","499168","0.0-2.0-28.15-1.15","5ef16261c970f4526c7695eb","E1","batch5","","921","tol_toboard","","","","tol_peg_1","921","921","0","[[1,2,0],[3,0],[0]]","16","[[1,2,0],[3,0],[0]]","6","0","","","","","","5","","","","","","","","",""
"","","","","","poldrack-single-stim","199","500175","0.0-2.0-29.0","5ef16261c970f4526c7695eb","E1","batch5","","-1","tol_feedback","","","true","","1000","1000","500","","","","","","-1","none","true","6906","35706","","","","","","","","","",""
"","","","","","html-button-response","200","501027","0.0-2.0-30.0","5ef16261c970f4526c7695eb","E1","batch5","","851","tol_trial_num","<div class = centerbox><p class = center-block-text>problem <strong>8</strong> out of 25 problems</p></div>","0","","","","","","","","","","","","","","","","","","","","","","","","",""
"","","","","","single-stim-button","201","511869","0.0-2.0-31.0-0.0","5ef16261c970f4526c7695eb","E1","batch5","","10839","tol_tohand","","","","tol_peg_3","10839","10839","0","[[0,0,0],[2,3],[0]]","1","[[1,2,0],[3,0],[0]]","7","0","","","","","","4","","","","","","","","",""
"","","","","","single-stim-button","202","513137","0.0-2.0-31.0-1.0","5ef16261c970f4526c7695eb","E1","batch5","","1266","tol_toboard","","","","tol_peg_1","1266","1266","0","[[1,0,0],[2,3],[0]]","1","[[1,2,0],[3,0],[0]]","7","0","","","","","","4","","","","","","","","",""
"","","","","","single-stim-button","203","514019","0.0-2.0-31.1-0.1","5ef16261c970f4526c7695eb","E1","batch5","","880","tol_tohand","","","","tol_peg_2","880","880","0","[[1,0,0],[2,0],[0]]","2","[[1,2,0],[3,0],[0]]","7","0","","","","","","4","","","","","","","","",""
"","","","","","single-stim-button","204","514767","0.0-2.0-31.1-1.1","5ef16261c970f4526c7695eb","E1","batch5","","746","tol_toboard","","","","tol_peg_3","746","746","0","[[1,0,0],[2,0],[3]]","2","[[1,2,0],[3,0],[0]]","7","0","","","","","","4","","","","","","","","",""
"","","","","","single-stim-button","205","515193","0.0-2.0-31.2-0.2","5ef16261c970f4526c7695eb","E1","batch5","","424","tol_tohand","","","","tol_peg_2","424","424","0","[[1,0,0],[0,0],[3]]","3","[[1,2,0],[3,0],[0]]","7","0","","","","","","4","","","","","","","","",""
"","","","","","single-stim-button","206","516259","0.0-2.0-31.2-1.2","5ef16261c970f4526c7695eb","E1","batch5","","1064","tol_toboard","","","","tol_peg_1","1064","1064","0","[[1,2,0],[0,0],[3]]","3","[[1,2,0],[3,0],[0]]","7","0","","","","","","4","","","","","","","","",""
"","","","","","single-stim-button","207","517037","0.0-2.0-31.3-0.3","5ef16261c970f4526c7695eb","E1","batch5","","777","tol_tohand","","","","tol_peg_3","777","777","0","[[1,2,0],[0,0],[0]]","4","[[1,2,0],[3,0],[0]]","7","0","","","","","","4","","","","","","","","",""
"","","","","","single-stim-button","208","517503","0.0-2.0-31.3-1.3","5ef16261c970f4526c7695eb","E1","batch5","","464","tol_toboard","","","","tol_peg_2","464","464","0","[[1,2,0],[3,0],[0]]","4","[[1,2,0],[3,0],[0]]","7","0","","","","","","4","","","","","","","","",""
"","","","","","poldrack-single-stim","209","518510","0.0-2.0-32.0","5ef16261c970f4526c7695eb","E1","batch5","","-1","tol_feedback","","","true","","1000","1000","500","","","","","","-1","none","true","10839","12920","","","","","","","","","",""
"","","","","","html-button-response","210","519267","0.0-2.0-33.0","5ef16261c970f4526c7695eb","E1","batch5","","755.1999999880791","tol_trial_num","<div class = centerbox><p class = center-block-text>problem <strong>9</strong> out of 25 problems</p></div>","0","","","","","","","","","","","","","","","","","","","","","","","","",""
"","","","","","single-stim-button","211","528424","0.0-2.0-34.0-0.0","5ef16261c970f4526c7695eb","E1","batch5","","9156","tol_tohand","","","","tol_peg_1","9156","9156","0","[[3,0,0],[0,0],[1]]","1","[[2,1,0],[3,0],[0]]","8","0","","","","","","6","","","","","","","","",""
"","","","","","single-stim-button","212","530836","0.0-2.0-34.0-1.0","5ef16261c970f4526c7695eb","E1","batch5","","2410","tol_toboard","","","","tol_peg_2","2410","2410","0","[[3,0,0],[2,0],[1]]","1","[[2,1,0],[3,0],[0]]","8","0","","","","","","6","","","","","","","","",""
"","","","","","single-stim-button","213","540946","0.0-2.0-34.1-0.1","5ef16261c970f4526c7695eb","E1","batch5","","10108","tol_tohand","","","","tol_peg_1","10108","10108","0","[[0,0,0],[2,0],[1]]","2","[[2,1,0],[3,0],[0]]","8","0","","","","","","6","","","","","","","","",""
"","","","","","single-stim-button","214","546572","0.0-2.0-34.1-1.1","5ef16261c970f4526c7695eb","E1","batch5","","5625","tol_toboard","","","","tol_peg_1","5625","5625","0","[[3,0,0],[2,0],[1]]","2","[[2,1,0],[3,0],[0]]","8","0","","","","","","6","","","","","","","","",""
"","","","","","single-stim-button","215","549817","0.0-2.0-34.2-0.2","5ef16261c970f4526c7695eb","E1","batch5","","3242","tol_tohand","","","","tol_peg_3","3242","3242","0","[[3,0,0],[2,0],[0]]","3","[[2,1,0],[3,0],[0]]","8","0","","","","","","6","","","","","","","","",""
"","","","","","single-stim-button","216","550522","0.0-2.0-34.2-1.2","5ef16261c970f4526c7695eb","E1","batch5","","704","tol_toboard","","","","tol_peg_1","704","704","0","[[3,1,0],[2,0],[0]]","3","[[2,1,0],[3,0],[0]]","8","0","","","","","","6","","","","","","","","",""
"","","","","","single-stim-button","217","551082","0.0-2.0-34.3-0.3","5ef16261c970f4526c7695eb","E1","batch5","","559","tol_tohand","","","","tol_peg_2","559","559","0","[[3,1,0],[0,0],[0]]","4","[[2,1,0],[3,0],[0]]","8","0","","","","","","6","","","","","","","","",""
"","","","","","single-stim-button","218","551612","0.0-2.0-34.3-1.3","5ef16261c970f4526c7695eb","E1","batch5","","528","tol_toboard","","","","tol_peg_3","528","528","0","[[3,1,0],[0,0],[2]]","4","[[2,1,0],[3,0],[0]]","8","0","","","","","","6","","","","","","","","",""
"","","","","","single-stim-button","219","553576","0.0-2.0-34.4-0.4","5ef16261c970f4526c7695eb","E1","batch5","","1964","tol_tohand","","","","tol_peg_1","1964","1964","0","[[3,0,0],[0,0],[2]]","5","[[2,1,0],[3,0],[0]]","8","0","","","","","","6","","","","","","","","",""
"","","","","","single-stim-button","220","557782","0.0-2.0-34.4-1.4","5ef16261c970f4526c7695eb","E1","batch5","","4205","tol_toboard","","","","tol_peg_2","4205","4205","0","[[3,0,0],[1,0],[2]]","5","[[2,1,0],[3,0],[0]]","8","0","","","","","","6","","","","","","","","",""
"","","","","","single-stim-button","221","558480","0.0-2.0-34.5-0.5","5ef16261c970f4526c7695eb","E1","batch5","","697","tol_tohand","","","","tol_peg_1","697","697","0","[[0,0,0],[1,0],[2]]","6","[[2,1,0],[3,0],[0]]","8","0","","","","","","6","","","","","","","","",""
"","","","","","single-stim-button","222","559294","0.0-2.0-34.5-1.5","5ef16261c970f4526c7695eb","E1","batch5","","813","tol_toboard","","","","tol_peg_2","813","813","0","[[0,0,0],[1,3],[2]]","6","[[2,1,0],[3,0],[0]]","8","0","","","","","","6","","","","","","","","",""
"","","","","","single-stim-button","223","559848","0.0-2.0-34.6-0.6","5ef16261c970f4526c7695eb","E1","batch5","","553","tol_tohand","","","","tol_peg_3","553","553","0","[[0,0,0],[1,3],[0]]","7","[[2,1,0],[3,0],[0]]","8","0","","","","","","6","","","","","","","","",""
"","","","","","single-stim-button","224","560826","0.0-2.0-34.6-1.6","5ef16261c970f4526c7695eb","E1","batch5","","977","tol_toboard","","","","tol_peg_1","977","977","0","[[2,0,0],[1,3],[0]]","7","[[2,1,0],[3,0],[0]]","8","0","","","","","","6","","","","","","","","",""
"","","","","","single-stim-button","225","561524","0.0-2.0-34.7-0.7","5ef16261c970f4526c7695eb","E1","batch5","","696","tol_tohand","","","","tol_peg_2","696","696","0","[[2,0,0],[1,0],[0]]","8","[[2,1,0],[3,0],[0]]","8","0","","","","","","6","","","","","","","","",""
"","","","","","single-stim-button","226","562455","0.0-2.0-34.7-1.7","5ef16261c970f4526c7695eb","E1","batch5","","929","tol_toboard","","","","tol_peg_3","929","929","0","[[2,0,0],[1,0],[3]]","8","[[2,1,0],[3,0],[0]]","8","0","","","","","","6","","","","","","","","",""
"","","","","","single-stim-button","227","562848","0.0-2.0-34.8-0.8","5ef16261c970f4526c7695eb","E1","batch5","","392","tol_tohand","","","","tol_peg_2","392","392","0","[[2,0,0],[0,0],[3]]","9","[[2,1,0],[3,0],[0]]","8","0","","","","","","6","","","","","","","","",""
"","","","","","single-stim-button","228","563444","0.0-2.0-34.8-1.8","5ef16261c970f4526c7695eb","E1","batch5","","595","tol_toboard","","","","tol_peg_1","595","595","0","[[2,1,0],[0,0],[3]]","9","[[2,1,0],[3,0],[0]]","8","0","","","","","","6","","","","","","","","",""
"","","","","","single-stim-button","229","564376","0.0-2.0-34.9-0.9","5ef16261c970f4526c7695eb","E1","batch5","","930","tol_tohand","","","","tol_peg_3","930","930","0","[[2,1,0],[0,0],[0]]","10","[[2,1,0],[3,0],[0]]","8","0","","","","","","6","","","","","","","","",""
"","","","","","single-stim-button","230","564808","0.0-2.0-34.9-1.9","5ef16261c970f4526c7695eb","E1","batch5","","430","tol_toboard","","","","tol_peg_2","430","430","0","[[2,1,0],[3,0],[0]]","10","[[2,1,0],[3,0],[0]]","8","0","","","","","","6","","","","","","","","",""
"","","","","","poldrack-single-stim","231","565816","0.0-2.0-35.0","5ef16261c970f4526c7695eb","E1","batch5","","-1","tol_feedback","","","true","","1000","1000","500","","","","","","-1","none","true","9156","28297","","","","","","","","","",""
"","","","","","html-button-response","232","566324","0.0-2.0-36.0","5ef16261c970f4526c7695eb","E1","batch5","","505.90000000596046","tol_trial_num","<div class = centerbox><p class = center-block-text>problem <strong>10</strong> out of 25 problems</p></div>","0","","","","","","","","","","","","","","","","","","","","","","","","",""
"","","","","","single-stim-button","233","576416","0.0-2.0-37.0-0.0","5ef16261c970f4526c7695eb","E1","batch5","","10090","tol_tohand","","","","tol_peg_2","10090","10090","0","[[3,0,0],[0,0],[2]]","1","[[3,0,0],[2,1],[0]]","9","0","","","","","","3","","","","","","","","",""
"","","","","","single-stim-button","234","577042","0.0-2.0-37.0-1.0","5ef16261c970f4526c7695eb","E1","batch5","","624","tol_toboard","","","","tol_peg_1","624","624","0","[[3,1,0],[0,0],[2]]","1","[[3,0,0],[2,1],[0]]","9","0","","","","","","3","","","","","","","","",""
"","","","","","single-stim-button","235","577722","0.0-2.0-37.1-0.1","5ef16261c970f4526c7695eb","E1","batch5","","680","tol_tohand","","","","tol_peg_3","680","680","0","[[3,1,0],[0,0],[0]]","2","[[3,0,0],[2,1],[0]]","9","0","","","","","","3","","","","","","","","",""
"","","","","","single-stim-button","236","578508","0.0-2.0-37.1-1.1","5ef16261c970f4526c7695eb","E1","batch5","","785","tol_toboard","","","","tol_peg_2","785","785","0","[[3,1,0],[2,0],[0]]","2","[[3,0,0],[2,1],[0]]","9","0","","","","","","3","","","","","","","","",""
"","","","","","single-stim-button","237","578998","0.0-2.0-37.2-0.2","5ef16261c970f4526c7695eb","E1","batch5","","488","tol_tohand","","","","tol_peg_1","488","488","0","[[3,0,0],[2,0],[0]]","3","[[3,0,0],[2,1],[0]]","9","0","","","","","","3","","","","","","","","",""
"","","","","","single-stim-button","238","579576","0.0-2.0-37.2-1.2","5ef16261c970f4526c7695eb","E1","batch5","","576","tol_toboard","","","","tol_peg_2","576","576","0","[[3,0,0],[2,1],[0]]","3","[[3,0,0],[2,1],[0]]","9","0","","","","","","3","","","","","","","","",""
"","","","","","poldrack-single-stim","239","580580","0.0-2.0-38.0","5ef16261c970f4526c7695eb","E1","batch5","","-1","tol_feedback","","","true","","1000","1000","500","","","","","","-1","none","true","10090","11258","","","","","","","","","",""
"","","","","","html-button-response","240","581222","0.0-2.0-39.0","5ef16261c970f4526c7695eb","E1","batch5","","640.1999999880791","tol_trial_num","<div class = centerbox><p class = center-block-text>problem <strong>11</strong> out of 25 problems</p></div>","0","","","","","","","","","","","","","","","","","","","","","","","","",""
"","","","","","single-stim-button","241","583790","0.0-2.0-40.0-0.0","5ef16261c970f4526c7695eb","E1","batch5","","2566","tol_tohand","","","","tol_peg_2","2566","2566","0","[[1,2,0],[0,0],[0]]","1","[[2,0,0],[1,3],[0]]","10","0","","","","","","6","","","","","","","","",""
"","","","","","single-stim-button","242","585566","0.0-2.0-40.0-1.0","5ef16261c970f4526c7695eb","E1","batch5","","1774","tol_toboard","","","","tol_peg_3","1774","1774","0","[[1,2,0],[0,0],[3]]","1","[[2,0,0],[1,3],[0]]","10","0","","","","","","6","","","","","","","","",""
"","","","","","single-stim-button","243","588820","0.0-2.0-40.1-0.1","5ef16261c970f4526c7695eb","E1","batch5","","3252","tol_tohand","","","","tol_peg_3","3252","3252","0","[[1,2,0],[0,0],[0]]","2","[[2,0,0],[1,3],[0]]","10","0","","","","","","6","","","","","","","","",""
"","","","","","single-stim-button","244","589350","0.0-2.0-40.1-1.1","5ef16261c970f4526c7695eb","E1","batch5","","528","tol_toboard","","","","tol_peg_2","528","528","0","[[1,2,0],[3,0],[0]]","2","[[2,0,0],[1,3],[0]]","10","0","","","","","","6","","","","","","","","",""
"","","","","","single-stim-button","245","589812","0.0-2.0-40.2-0.2","5ef16261c970f4526c7695eb","E1","batch5","","460","tol_tohand","","","","tol_peg_1","460","460","0","[[1,0,0],[3,0],[0]]","3","[[2,0,0],[1,3],[0]]","10","0","","","","","","6","","","","","","","","",""
"","","","","","single-stim-button","246","590548","0.0-2.0-40.2-1.2","5ef16261c970f4526c7695eb","E1","batch5","","734","tol_toboard","","","","tol_peg_3","734","734","0","[[1,0,0],[3,0],[2]]","3","[[2,0,0],[1,3],[0]]","10","0","","","","","","6","","","","","","","","",""
"","","","","","single-stim-button","247","592610","0.0-2.0-40.3-0.3","5ef16261c970f4526c7695eb","E1","batch5","","2060","tol_tohand","","","","tol_peg_2","2060","2060","0","[[1,0,0],[0,0],[2]]","4","[[2,0,0],[1,3],[0]]","10","0","","","","","","6","","","","","","","","",""
"","","","","","single-stim-button","248","593780","0.0-2.0-40.3-1.3","5ef16261c970f4526c7695eb","E1","batch5","","1168","tol_toboard","","","","tol_peg_1","1168","1168","0","[[1,3,0],[0,0],[2]]","4","[[2,0,0],[1,3],[0]]","10","0","","","","","","6","","","","","","","","",""
"","","","","","single-stim-button","249","596612","0.0-2.0-40.4-0.4","5ef16261c970f4526c7695eb","E1","batch5","","2830","tol_tohand","","","","tol_peg_1","2830","2830","0","[[1,0,0],[0,0],[2]]","5","[[2,0,0],[1,3],[0]]","10","0","","","","","","6","","","","","","","","",""
"","","","","","single-stim-button","250","597326","0.0-2.0-40.4-1.4","5ef16261c970f4526c7695eb","E1","batch5","","712","tol_toboard","","","","tol_peg_2","712","712","0","[[1,0,0],[3,0],[2]]","5","[[2,0,0],[1,3],[0]]","10","0","","","","","","6","","","","","","","","",""
"","","","","","single-stim-button","251","597673","0.0-2.0-40.5-0.5","5ef16261c970f4526c7695eb","E1","batch5","","346","tol_tohand","","","","tol_peg_1","346","346","0","[[0,0,0],[3,0],[2]]","6","[[2,0,0],[1,3],[0]]","10","0","","","","","","6","","","","","","","","",""
"","","","","","single-stim-button","252","598204","0.0-2.0-40.5-1.5","5ef16261c970f4526c7695eb","E1","batch5","","529","tol_toboard","","","","tol_peg_2","529","529","0","[[0,0,0],[3,1],[2]]","6","[[2,0,0],[1,3],[0]]","10","0","","","","","","6","","","","","","","","",""
"","","","","","single-stim-button","253","598997","0.0-2.0-40.6-0.6","5ef16261c970f4526c7695eb","E1","batch5","","792","tol_tohand","","","","tol_peg_3","792","792","0","[[0,0,0],[3,1],[0]]","7","[[2,0,0],[1,3],[0]]","10","0","","","","","","6","","","","","","","","",""
"","","","","","single-stim-button","254","599784","0.0-2.0-40.6-1.6","5ef16261c970f4526c7695eb","E1","batch5","","785","tol_toboard","","","","tol_peg_1","785","785","0","[[2,0,0],[3,1],[0]]","7","[[2,0,0],[1,3],[0]]","10","0","","","","","","6","","","","","","","","",""
"","","","","","single-stim-button","255","600383","0.0-2.0-40.7-0.7","5ef16261c970f4526c7695eb","E1","batch5","","598","tol_tohand","","","","tol_peg_2","598","598","0","[[2,0,0],[3,0],[0]]","8","[[2,0,0],[1,3],[0]]","10","0","","","","","","6","","","","","","","","",""
"","","","","","single-stim-button","256","600898","0.0-2.0-40.7-1.7","5ef16261c970f4526c7695eb","E1","batch5","","513","tol_toboard","","","","tol_peg_3","513","513","0","[[2,0,0],[3,0],[1]]","8","[[2,0,0],[1,3],[0]]","10","0","","","","","","6","","","","","","","","",""
"","","","","","single-stim-button","257","601292","0.0-2.0-40.8-0.8","5ef16261c970f4526c7695eb","E1","batch5","","392","tol_tohand","","","","tol_peg_2","392","392","0","[[2,0,0],[0,0],[1]]","9","[[2,0,0],[1,3],[0]]","10","0","","","","","","6","","","","","","","","",""
"","","","","","single-stim-button","258","604960","0.0-2.0-40.8-1.8","5ef16261c970f4526c7695eb","E1","batch5","","3666","tol_toboard","","","","tol_peg_2","3666","3666","0","[[2,0,0],[3,0],[1]]","9","[[2,0,0],[1,3],[0]]","10","0","","","","","","6","","","","","","","","",""
"","","","","","single-stim-button","259","605962","0.0-2.0-40.9-0.9","5ef16261c970f4526c7695eb","E1","batch5","","1000","tol_tohand","","","","tol_peg_2","1000","1000","0","[[2,0,0],[0,0],[1]]","10","[[2,0,0],[1,3],[0]]","10","0","","","","","","6","","","","","","","","",""
"","","","","","single-stim-button","260","607250","0.0-2.0-40.9-1.9","5ef16261c970f4526c7695eb","E1","batch5","","1286","tol_toboard","","","","tol_peg_1","1286","1286","0","[[2,3,0],[0,0],[1]]","10","[[2,0,0],[1,3],[0]]","10","0","","","","","","6","","","","","","","","",""
"","","","","","single-stim-button","261","607860","0.0-2.0-40.10-0.10","5ef16261c970f4526c7695eb","E1","batch5","","608","tol_tohand","","","","tol_peg_3","608","608","0","[[2,3,0],[0,0],[0]]","11","[[2,0,0],[1,3],[0]]","10","0","","","","","","6","","","","","","","","",""
"","","","","","single-stim-button","262","608363","0.0-2.0-40.10-1.10","5ef16261c970f4526c7695eb","E1","batch5","","501","tol_toboard","","","","tol_peg_2","501","501","0","[[2,3,0],[1,0],[0]]","11","[[2,0,0],[1,3],[0]]","10","0","","","","","","6","","","","","","","","",""
"","","","","","single-stim-button","263","608870","0.0-2.0-40.11-0.11","5ef16261c970f4526c7695eb","E1","batch5","","506","tol_tohand","","","","tol_peg_1","506","506","0","[[2,0,0],[1,0],[0]]","12","[[2,0,0],[1,3],[0]]","10","0","","","","","","6","","","","","","","","",""
"","","","","","single-stim-button","264","609462","0.0-2.0-40.11-1.11","5ef16261c970f4526c7695eb","E1","batch5","","592","tol_toboard","","","","tol_peg_2","592","592","0","[[2,0,0],[1,3],[0]]","12","[[2,0,0],[1,3],[0]]","10","0","","","","","","6","","","","","","","","",""
"","","","","","poldrack-single-stim","265","610469","0.0-2.0-41.0","5ef16261c970f4526c7695eb","E1","batch5","","-1","tol_feedback","","","true","","1000","1000","500","","","","","","-1","none","true","2566","15410","","","","","","","","","",""
"","","","","","html-button-response","266","696224","0.0-2.0-42.0","5ef16261c970f4526c7695eb","E1","batch5","","85754.09999999404","tol_trial_num","<div class = centerbox><p class = center-block-text>problem <strong>12</strong> out of 25 problems</p></div>","0","","","","","","","","","","","","","","","","","","","","","","","","",""
"","","","","","single-stim-button","267","701333","0.0-2.0-43.0-0.0","5ef16261c970f4526c7695eb","E1","batch5","","5106","tol_tohand","","","","tol_peg_1","5106","5106","0","[[1,0,0],[3,0],[0]]","1","[[2,3,0],[0,0],[1]]","11","0","","","","","","4","","","","","","","","",""
"","","","","","single-stim-button","268","701892","0.0-2.0-43.0-1.0","5ef16261c970f4526c7695eb","E1","batch5","","558","tol_toboard","","","","tol_peg_2","558","558","0","[[1,0,0],[3,2],[0]]","1","[[2,3,0],[0,0],[1]]","11","0","","","","","","4","","","","","","","","",""
"","","","","","single-stim-button","269","702346","0.0-2.0-43.1-0.1","5ef16261c970f4526c7695eb","E1","batch5","","453","tol_tohand","","","","tol_peg_1","453","453","0","[[0,0,0],[3,2],[0]]","2","[[2,3,0],[0,0],[1]]","11","0","","","","","","4","","","","","","","","",""
"","","","","","single-stim-button","270","703020","0.0-2.0-43.1-1.1","5ef16261c970f4526c7695eb","E1","batch5","","673","tol_toboard","","","","tol_peg_3","673","673","0","[[0,0,0],[3,2],[1]]","2","[[2,3,0],[0,0],[1]]","11","0","","","","","","4","","","","","","","","",""
"","","","","","single-stim-button","271","704976","0.0-2.0-43.2-0.2","5ef16261c970f4526c7695eb","E1","batch5","","1955","tol_tohand","","","","tol_peg_2","1955","1955","0","[[0,0,0],[3,0],[1]]","3","[[2,3,0],[0,0],[1]]","11","0","","","","","","4","","","","","","","","",""
"","","","","","single-stim-button","272","705522","0.0-2.0-43.2-1.2","5ef16261c970f4526c7695eb","E1","batch5","","545","tol_toboard","","","","tol_peg_1","545","545","0","[[2,0,0],[3,0],[1]]","3","[[2,3,0],[0,0],[1]]","11","0","","","","","","4","","","","","","","","",""
"","","","","","single-stim-button","273","706034","0.0-2.0-43.3-0.3","5ef16261c970f4526c7695eb","E1","batch5","","511","tol_tohand","","","","tol_peg_2","511","511","0","[[2,0,0],[0,0],[1]]","4","[[2,3,0],[0,0],[1]]","11","0","","","","","","4","","","","","","","","",""
"","","","","","single-stim-button","274","706504","0.0-2.0-43.3-1.3","5ef16261c970f4526c7695eb","E1","batch5","","469","tol_toboard","","","","tol_peg_1","469","469","0","[[2,3,0],[0,0],[1]]","4","[[2,3,0],[0,0],[1]]","11","0","","","","","","4","","","","","","","","",""
"","","","","","poldrack-single-stim","275","707511","0.0-2.0-44.0","5ef16261c970f4526c7695eb","E1","batch5","","-1","tol_feedback","","","true","","1000","1000","500","","","","","","-1","none","true","5106","8025","","","","","","","","","",""
"","","","","","html-button-response","276","708140","0.0-2.0-45.0","5ef16261c970f4526c7695eb","E1","batch5","","627.2999999821186","tol_trial_num","<div class = centerbox><p class = center-block-text>problem <strong>13</strong> out of 25 problems</p></div>","0","","","","","","","","","","","","","","","","","","","","","","","","",""
"","","","","","single-stim-button","277","714716","0.0-2.0-46.0-0.0","5ef16261c970f4526c7695eb","E1","batch5","","6575","tol_tohand","","","","tol_peg_1","6575","6575","0","[[1,0,0],[3,0],[0]]","1","[[0,0,0],[2,3],[1]]","12","0","","","","","","4","","","","","","","","",""
"","","","","","single-stim-button","278","715292","0.0-2.0-46.0-1.0","5ef16261c970f4526c7695eb","E1","batch5","","575","tol_toboard","","","","tol_peg_2","575","575","0","[[1,0,0],[3,2],[0]]","1","[[0,0,0],[2,3],[1]]","12","0","","","","","","4","","","","","","","","",""
"","","","","","single-stim-button","279","715775","0.0-2.0-46.1-0.1","5ef16261c970f4526c7695eb","E1","batch5","","481","tol_tohand","","","","tol_peg_1","481","481","0","[[0,0,0],[3,2],[0]]","2","[[0,0,0],[2,3],[1]]","12","0","","","","","","4","","","","","","","","",""
"","","","","","single-stim-button","280","716555","0.0-2.0-46.1-1.1","5ef16261c970f4526c7695eb","E1","batch5","","778","tol_toboard","","","","tol_peg_3","778","778","0","[[0,0,0],[3,2],[1]]","2","[[0,0,0],[2,3],[1]]","12","0","","","","","","4","","","","","","","","",""
"","","","","","single-stim-button","281","722145","0.0-2.0-46.2-0.2","5ef16261c970f4526c7695eb","E1","batch5","","5589","tol_tohand","","","","tol_peg_3","5589","5589","0","[[0,0,0],[3,2],[0]]","3","[[0,0,0],[2,3],[1]]","12","0","","","","","","4","","","","","","","","",""
"","","","","","single-stim-button","282","722755","0.0-2.0-46.2-1.2","5ef16261c970f4526c7695eb","E1","batch5","","609","tol_toboard","","","","tol_peg_1","609","609","0","[[1,0,0],[3,2],[0]]","3","[[0,0,0],[2,3],[1]]","12","0","","","","","","4","","","","","","","","",""
"","","","","","single-stim-button","283","723520","0.0-2.0-46.3-0.3","5ef16261c970f4526c7695eb","E1","batch5","","763","tol_tohand","","","","tol_peg_2","763","763","0","[[1,0,0],[3,0],[0]]","4","[[0,0,0],[2,3],[1]]","12","0","","","","","","4","","","","","","","","",""
"","","","","","single-stim-button","284","724042","0.0-2.0-46.3-1.3","5ef16261c970f4526c7695eb","E1","batch5","","521","tol_toboard","","","","tol_peg_3","521","521","0","[[1,0,0],[3,0],[2]]","4","[[0,0,0],[2,3],[1]]","12","0","","","","","","4","","","","","","","","",""
"","","","","","single-stim-button","285","729768","0.0-2.0-46.4-0.4","5ef16261c970f4526c7695eb","E1","batch5","","5724","tol_tohand","","","","tol_peg_2","5724","5724","0","[[1,0,0],[0,0],[2]]","5","[[0,0,0],[2,3],[1]]","12","0","","","","","","4","","","","","","","","",""
"","","","","","single-stim-button","286","730378","0.0-2.0-46.4-1.4","5ef16261c970f4526c7695eb","E1","batch5","","608","tol_toboard","","","","tol_peg_1","608","608","0","[[1,3,0],[0,0],[2]]","5","[[0,0,0],[2,3],[1]]","12","0","","","","","","4","","","","","","","","",""
"","","","","","single-stim-button","287","731044","0.0-2.0-46.5-0.5","5ef16261c970f4526c7695eb","E1","batch5","","664","tol_tohand","","","","tol_peg_3","664","664","0","[[1,3,0],[0,0],[0]]","6","[[0,0,0],[2,3],[1]]","12","0","","","","","","4","","","","","","","","",""
"","","","","","single-stim-button","288","731718","0.0-2.0-46.5-1.5","5ef16261c970f4526c7695eb","E1","batch5","","673","tol_toboard","","","","tol_peg_2","673","673","0","[[1,3,0],[2,0],[0]]","6","[[0,0,0],[2,3],[1]]","12","0","","","","","","4","","","","","","","","",""
"","","","","","single-stim-button","289","732418","0.0-2.0-46.6-0.6","5ef16261c970f4526c7695eb","E1","batch5","","698","tol_tohand","","","","tol_peg_1","698","698","0","[[1,0,0],[2,0],[0]]","7","[[0,0,0],[2,3],[1]]","12","0","","","","","","4","","","","","","","","",""
"","","","","","single-stim-button","290","733132","0.0-2.0-46.6-1.6","5ef16261c970f4526c7695eb","E1","batch5","","712","tol_toboard","","","","tol_peg_2","712","712","0","[[1,0,0],[2,3],[0]]","7","[[0,0,0],[2,3],[1]]","12","0","","","","","","4","","","","","","","","",""
"","","","","","single-stim-button","291","733550","0.0-2.0-46.7-0.7","5ef16261c970f4526c7695eb","E1","batch5","","416","tol_tohand","","","","tol_peg_1","416","416","0","[[0,0,0],[2,3],[0]]","8","[[0,0,0],[2,3],[1]]","12","0","","","","","","4","","","","","","","","",""
"","","","","","single-stim-button","292","734248","0.0-2.0-46.7-1.7","5ef16261c970f4526c7695eb","E1","batch5","","696","tol_toboard","","","","tol_peg_3","696","696","0","[[0,0,0],[2,3],[1]]","8","[[0,0,0],[2,3],[1]]","12","0","","","","","","4","","","","","","","","",""
"","","","","","poldrack-single-stim","293","735263","0.0-2.0-47.0","5ef16261c970f4526c7695eb","E1","batch5","","-1","tol_feedback","","","true","","1000","1000","500","","","","","","-1","none","true","6575","20910","","","","","","","","","",""
"","","","","","html-button-response","294","740678","0.0-2.0-48.0","5ef16261c970f4526c7695eb","E1","batch5","","5413","attention_check","<p class = block-text>How many balls are in your board<br></p>","1","true","","","","","","","","","","","","","","","","","","","","","","","",""
"","","","","","html-button-response","295","741914","0.0-2.0-49.0","5ef16261c970f4526c7695eb","E1","batch5","","1233","tol_trial_num","<div class = centerbox><p class = center-block-text>problem <strong>14</strong> out of 25 problems</p></div>","0","","","","","","","","","","","","","","","","","","","","","","","","",""
"","","","","","single-stim-button","296","749126","0.0-2.0-50.0-0.0","5ef16261c970f4526c7695eb","E1","batch5","","7210","tol_tohand","","","","tol_peg_1","7210","7210","0","[[2,0,0],[3,0],[0]]","1","[[1,2,0],[3,0],[0]]","13","0","","","","","","4","","","","","","","","",""
"","","","","","single-stim-button","297","754046","0.0-2.0-50.0-1.0","5ef16261c970f4526c7695eb","E1","batch5","","4918","tol_toboard","","","","tol_peg_3","4918","4918","0","[[2,0,0],[3,0],[1]]","1","[[1,2,0],[3,0],[0]]","13","0","","","","","","4","","","","","","","","",""
"","","","","","single-stim-button","298","754827","0.0-2.0-50.1-0.1","5ef16261c970f4526c7695eb","E1","batch5","","780","tol_tohand","","","","tol_peg_1","780","780","0","[[0,0,0],[3,0],[1]]","2","[[1,2,0],[3,0],[0]]","13","0","","","","","","4","","","","","","","","",""
"","","","","","single-stim-button","299","755476","0.0-2.0-50.1-1.1","5ef16261c970f4526c7695eb","E1","batch5","","647","tol_toboard","","","","tol_peg_2","647","647","0","[[0,0,0],[3,2],[1]]","2","[[1,2,0],[3,0],[0]]","13","0","","","","","","4","","","","","","","","",""
"","","","","","single-stim-button","300","755942","0.0-2.0-50.2-0.2","5ef16261c970f4526c7695eb","E1","batch5","","464","tol_tohand","","","","tol_peg_3","464","464","0","[[0,0,0],[3,2],[0]]","3","[[1,2,0],[3,0],[0]]","13","0","","","","","","4","","","","","","","","",""
"","","","","","single-stim-button","301","756776","0.0-2.0-50.2-1.2","5ef16261c970f4526c7695eb","E1","batch5","","833","tol_toboard","","","","tol_peg_1","833","833","0","[[1,0,0],[3,2],[0]]","3","[[1,2,0],[3,0],[0]]","13","0","","","","","","4","","","","","","","","",""
"","","","","","single-stim-button","302","757281","0.0-2.0-50.3-0.3","5ef16261c970f4526c7695eb","E1","batch5","","503","tol_tohand","","","","tol_peg_2","503","503","0","[[1,0,0],[3,0],[0]]","4","[[1,2,0],[3,0],[0]]","13","0","","","","","","4","","","","","","","","",""
"","","","","","single-stim-button","303","757719","0.0-2.0-50.3-1.3","5ef16261c970f4526c7695eb","E1","batch5","","437","tol_toboard","","","","tol_peg_1","437","437","0","[[1,2,0],[3,0],[0]]","4","[[1,2,0],[3,0],[0]]","13","0","","","","","","4","","","","","","","","",""
"","","","","","poldrack-single-stim","304","758725","0.0-2.0-51.0","5ef16261c970f4526c7695eb","E1","batch5","","-1","tol_feedback","","","true","","1000","1000","500","","","","","","-1","none","true","7210","8957","","","","","","","","","",""
"","","","","","html-button-response","305","759305","0.0-2.0-52.0","5ef16261c970f4526c7695eb","E1","batch5","","578.5","tol_trial_num","<div class = centerbox><p class = center-block-text>problem <strong>15</strong> out of 25 problems</p></div>","0","","","","","","","","","","","","","","","","","","","","","","","","",""
"","","","","","single-stim-button","306","765657","0.0-2.0-53.0-0.0","5ef16261c970f4526c7695eb","E1","batch5","","6350","tol_tohand","","","","tol_peg_2","6350","6350","0","[[1,2,0],[0,0],[0]]","1","[[2,0,0],[3,0],[1]]","14","0","","","","","","3","","","","","","","","",""
"","","","","","single-stim-button","307","766375","0.0-2.0-53.0-1.0","5ef16261c970f4526c7695eb","E1","batch5","","717","tol_toboard","","","","tol_peg_3","717","717","0","[[1,2,0],[0,0],[3]]","1","[[2,0,0],[3,0],[1]]","14","0","","","","","","3","","","","","","","","",""
"","","","","","single-stim-button","308","770763","0.0-2.0-53.1-0.1","5ef16261c970f4526c7695eb","E1","batch5","","4387","tol_tohand","","","","tol_peg_1","4387","4387","0","[[1,0,0],[0,0],[3]]","2","[[2,0,0],[3,0],[1]]","14","0","","","","","","3","","","","","","","","",""
"","","","","","single-stim-button","309","771538","0.0-2.0-53.1-1.1","5ef16261c970f4526c7695eb","E1","batch5","","773","tol_toboard","","","","tol_peg_2","773","773","0","[[1,0,0],[2,0],[3]]","2","[[2,0,0],[3,0],[1]]","14","0","","","","","","3","","","","","","","","",""
"","","","","","single-stim-button","310","776287","0.0-2.0-53.2-0.2","5ef16261c970f4526c7695eb","E1","batch5","","4749","tol_tohand","","","","tol_peg_1","4749","4749","0","[[0,0,0],[2,0],[3]]","3","[[2,0,0],[3,0],[1]]","14","0","","","","","","3","","","","","","","","",""
"","","","","","single-stim-button","311","780661","0.0-2.0-53.2-1.2","5ef16261c970f4526c7695eb","E1","batch5","","4372","tol_toboard","","","","tol_peg_1","4372","4372","0","[[1,0,0],[2,0],[3]]","3","[[2,0,0],[3,0],[1]]","14","0","","","","","","3","","","","","","","","",""
"","","","","","single-stim-button","312","781223","0.0-2.0-53.3-0.3","5ef16261c970f4526c7695eb","E1","batch5","","561","tol_tohand","","","","tol_peg_3","561","561","0","[[1,0,0],[2,0],[0]]","4","[[2,0,0],[3,0],[1]]","14","0","","","","","","3","","","","","","","","",""
"","","","","","single-stim-button","313","781957","0.0-2.0-53.3-1.3","5ef16261c970f4526c7695eb","E1","batch5","","733","tol_toboard","","","","tol_peg_2","733","733","0","[[1,0,0],[2,3],[0]]","4","[[2,0,0],[3,0],[1]]","14","0","","","","","","3","","","","","","","","",""
"","","","","","single-stim-button","314","782445","0.0-2.0-53.4-0.4","5ef16261c970f4526c7695eb","E1","batch5","","487","tol_tohand","","","","tol_peg_1","487","487","0","[[0,0,0],[2,3],[0]]","5","[[2,0,0],[3,0],[1]]","14","0","","","","","","3","","","","","","","","",""
"","","","","","single-stim-button","315","783207","0.0-2.0-53.4-1.4","5ef16261c970f4526c7695eb","E1","batch5","","760","tol_toboard","","","","tol_peg_3","760","760","0","[[0,0,0],[2,3],[1]]","5","[[2,0,0],[3,0],[1]]","14","0","","","","","","3","","","","","","","","",""
"","","","","","single-stim-button","316","787281","0.0-2.0-53.5-0.5","5ef16261c970f4526c7695eb","E1","batch5","","4073","tol_tohand","","","","tol_peg_2","4073","4073","0","[[0,0,0],[2,0],[1]]","6","[[2,0,0],[3,0],[1]]","14","0","","","","","","3","","","","","","","","",""
"","","","","","single-stim-button","317","788007","0.0-2.0-53.5-1.5","5ef16261c970f4526c7695eb","E1","batch5","","725","tol_toboard","","","","tol_peg_1","725","725","0","[[3,0,0],[2,0],[1]]","6","[[2,0,0],[3,0],[1]]","14","0","","","","","","3","","","","","","","","",""
"","","","","","single-stim-button","318","789339","0.0-2.0-53.6-0.6","5ef16261c970f4526c7695eb","E1","batch5","","1331","tol_tohand","","","","tol_peg_2","1331","1331","0","[[3,0,0],[0,0],[1]]","7","[[2,0,0],[3,0],[1]]","14","0","","","","","","3","","","","","","","","",""
"","","","","","single-stim-button","319","790508","0.0-2.0-53.6-1.6","5ef16261c970f4526c7695eb","E1","batch5","","1168","tol_toboard","","","","tol_peg_1","1168","1168","0","[[3,2,0],[0,0],[1]]","7","[[2,0,0],[3,0],[1]]","14","0","","","","","","3","","","","","","","","",""
"","","","","","single-stim-button","320","791311","0.0-2.0-53.7-0.7","5ef16261c970f4526c7695eb","E1","batch5","","802","tol_tohand","","","","tol_peg_3","802","802","0","[[3,2,0],[0,0],[0]]","8","[[2,0,0],[3,0],[1]]","14","0","","","","","","3","","","","","","","","",""
"","","","","","single-stim-button","321","792459","0.0-2.0-53.7-1.7","5ef16261c970f4526c7695eb","E1","batch5","","1146","tol_toboard","","","","tol_peg_2","1146","1146","0","[[3,2,0],[1,0],[0]]","8","[[2,0,0],[3,0],[1]]","14","0","","","","","","3","","","","","","","","",""
"","","","","","single-stim-button","322","798933","0.0-2.0-53.8-0.8","5ef16261c970f4526c7695eb","E1","batch5","","6473","tol_tohand","","","","tol_peg_1","6473","6473","0","[[3,0,0],[1,0],[0]]","9","[[2,0,0],[3,0],[1]]","14","0","","","","","","3","","","","","","","","",""
"","","","","","single-stim-button","323","799479","0.0-2.0-53.8-1.8","5ef16261c970f4526c7695eb","E1","batch5","","544","tol_toboard","","","","tol_peg_2","544","544","0","[[3,0,0],[1,2],[0]]","9","[[2,0,0],[3,0],[1]]","14","0","","","","","","3","","","","","","","","",""
"","","","","","single-stim-button","324","800429","0.0-2.0-53.9-0.9","5ef16261c970f4526c7695eb","E1","batch5","","949","tol_tohand","","","","tol_peg_1","949","949","0","[[0,0,0],[1,2],[0]]","10","[[2,0,0],[3,0],[1]]","14","0","","","","","","3","","","","","","","","",""
"","","","","","single-stim-button","325","801151","0.0-2.0-53.9-1.9","5ef16261c970f4526c7695eb","E1","batch5","","720","tol_toboard","","","","tol_peg_3","720","720","0","[[0,0,0],[1,2],[3]]","10","[[2,0,0],[3,0],[1]]","14","0","","","","","","3","","","","","","","","",""
"","","","","","single-stim-button","326","801793","0.0-2.0-53.10-0.10","5ef16261c970f4526c7695eb","E1","batch5","","641","tol_tohand","","","","tol_peg_2","641","641","0","[[0,0,0],[1,0],[3]]","11","[[2,0,0],[3,0],[1]]","14","0","","","","","","3","","","","","","","","",""
"","","","","","single-stim-button","327","802465","0.0-2.0-53.10-1.10","5ef16261c970f4526c7695eb","E1","batch5","","670","tol_toboard","","","","tol_peg_1","670","670","0","[[2,0,0],[1,0],[3]]","11","[[2,0,0],[3,0],[1]]","14","0","","","","","","3","","","","","","","","",""
"","","","","","single-stim-button","328","807117","0.0-2.0-53.11-0.11","5ef16261c970f4526c7695eb","E1","batch5","","4650","tol_tohand","","","","tol_peg_2","4650","4650","0","[[2,0,0],[0,0],[3]]","12","[[2,0,0],[3,0],[1]]","14","0","","","","","","3","","","","","","","","",""
"","","","","","single-stim-button","329","807723","0.0-2.0-53.11-1.11","5ef16261c970f4526c7695eb","E1","batch5","","604","tol_toboard","","","","tol_peg_1","604","604","0","[[2,1,0],[0,0],[3]]","12","[[2,0,0],[3,0],[1]]","14","0","","","","","","3","","","","","","","","",""
"","","","","","single-stim-button","330","808387","0.0-2.0-53.12-0.12","5ef16261c970f4526c7695eb","E1","batch5","","662","tol_tohand","","","","tol_peg_3","662","662","0","[[2,1,0],[0,0],[0]]","13","[[2,0,0],[3,0],[1]]","14","0","","","","","","3","","","","","","","","",""
"","","","","","single-stim-button","331","808941","0.0-2.0-53.12-1.12","5ef16261c970f4526c7695eb","E1","batch5","","553","tol_toboard","","","","tol_peg_2","553","553","0","[[2,1,0],[3,0],[0]]","13","[[2,0,0],[3,0],[1]]","14","0","","","","","","3","","","","","","","","",""
"","","","","","single-stim-button","332","809399","0.0-2.0-53.13-0.13","5ef16261c970f4526c7695eb","E1","batch5","","456","tol_tohand","","","","tol_peg_1","456","456","0","[[2,0,0],[3,0],[0]]","14","[[2,0,0],[3,0],[1]]","14","0","","","","","","3","","","","","","","","",""
"","","","","","single-stim-button","333","810039","0.0-2.0-53.13-1.13","5ef16261c970f4526c7695eb","E1","batch5","","638","tol_toboard","","","","tol_peg_3","638","638","0","[[2,0,0],[3,0],[1]]","14","[[2,0,0],[3,0],[1]]","14","0","","","","","","3","","","","","","","","",""
"","","","","","poldrack-single-stim","334","811043","0.0-2.0-54.0","5ef16261c970f4526c7695eb","E1","batch5","","-1","tol_feedback","","","true","","1000","1000","500","","","","","","-1","none","true","6350","36571","","","","","","","","","",""
"","","","","","html-button-response","335","811714","0.0-2.0-55.0","5ef16261c970f4526c7695eb","E1","batch5","","669.2999999821186","tol_trial_num","<div class = centerbox><p class = center-block-text>problem <strong>16</strong> out of 25 problems</p></div>","0","","","","","","","","","","","","","","","","","","","","","","","","",""
"","","","","","single-stim-button","336","820142","0.0-2.0-56.0-0.0","5ef16261c970f4526c7695eb","E1","batch5","","8427","tol_tohand","","","","tol_peg_3","8427","8427","0","[[0,0,0],[2,3],[0]]","1","[[2,3,0],[1,0],[0]]","15","0","","","","","","7","","","","","","","","",""
"","","","","","single-stim-button","337","821289","0.0-2.0-56.0-1.0","5ef16261c970f4526c7695eb","E1","batch5","","1145","tol_toboard","","","","tol_peg_1","1145","1145","0","[[1,0,0],[2,3],[0]]","1","[[2,3,0],[1,0],[0]]","15","0","","","","","","7","","","","","","","","",""
"","","","","","single-stim-button","338","822836","0.0-2.0-56.1-0.1","5ef16261c970f4526c7695eb","E1","batch5","","1547","tol_tohand","","","","tol_peg_2","1547","1547","0","[[1,0,0],[2,0],[0]]","2","[[2,3,0],[1,0],[0]]","15","0","","","","","","7","","","","","","","","",""
"","","","","","single-stim-button","339","823886","0.0-2.0-56.1-1.1","5ef16261c970f4526c7695eb","E1","batch5","","1049","tol_toboard","","","","tol_peg_3","1049","1049","0","[[1,0,0],[2,0],[3]]","2","[[2,3,0],[1,0],[0]]","15","0","","","","","","7","","","","","","","","",""
"","","","","","single-stim-button","340","828862","0.0-2.0-56.2-0.2","5ef16261c970f4526c7695eb","E1","batch5","","4975","tol_tohand","","","","tol_peg_2","4975","4975","0","[[1,0,0],[0,0],[3]]","3","[[2,3,0],[1,0],[0]]","15","0","","","","","","7","","","","","","","","",""
"","","","","","single-stim-button","341","830036","0.0-2.0-56.2-1.2","5ef16261c970f4526c7695eb","E1","batch5","","1173","tol_toboard","","","","tol_peg_1","1173","1173","0","[[1,2,0],[0,0],[3]]","3","[[2,3,0],[1,0],[0]]","15","0","","","","","","7","","","","","","","","",""
"","","","","","single-stim-button","342","830607","0.0-2.0-56.3-0.3","5ef16261c970f4526c7695eb","E1","batch5","","569","tol_tohand","","","","tol_peg_3","569","569","0","[[1,2,0],[0,0],[0]]","4","[[2,3,0],[1,0],[0]]","15","0","","","","","","7","","","","","","","","",""
"","","","","","single-stim-button","343","831030","0.0-2.0-56.3-1.3","5ef16261c970f4526c7695eb","E1","batch5","","423","tol_toboard","","","","tol_peg_2","423","423","0","[[1,2,0],[3,0],[0]]","4","[[2,3,0],[1,0],[0]]","15","0","","","","","","7","","","","","","","","",""
"","","","","","single-stim-button","344","831936","0.0-2.0-56.4-0.4","5ef16261c970f4526c7695eb","E1","batch5","","905","tol_tohand","","","","tol_peg_1","905","905","0","[[1,0,0],[3,0],[0]]","5","[[2,3,0],[1,0],[0]]","15","0","","","","","","7","","","","","","","","",""
"","","","","","single-stim-button","345","832842","0.0-2.0-56.4-1.4","5ef16261c970f4526c7695eb","E1","batch5","","905","tol_toboard","","","","tol_peg_2","905","905","0","[[1,0,0],[3,2],[0]]","5","[[2,3,0],[1,0],[0]]","15","0","","","","","","7","","","","","","","","",""
"","","","","","single-stim-button","346","833537","0.0-2.0-56.5-0.5","5ef16261c970f4526c7695eb","E1","batch5","","693","tol_tohand","","","","tol_peg_1","693","693","0","[[0,0,0],[3,2],[0]]","6","[[2,3,0],[1,0],[0]]","15","0","","","","","","7","","","","","","","","",""
"","","","","","single-stim-button","347","834354","0.0-2.0-56.5-1.5","5ef16261c970f4526c7695eb","E1","batch5","","817","tol_toboard","","","","tol_peg_3","817","817","0","[[0,0,0],[3,2],[1]]","6","[[2,3,0],[1,0],[0]]","15","0","","","","","","7","","","","","","","","",""
"","","","","","single-stim-button","348","834867","0.0-2.0-56.6-0.6","5ef16261c970f4526c7695eb","E1","batch5","","511","tol_tohand","","","","tol_peg_2","511","511","0","[[0,0,0],[3,0],[1]]","7","[[2,3,0],[1,0],[0]]","15","0","","","","","","7","","","","","","","","",""
"","","","","","single-stim-button","349","835612","0.0-2.0-56.6-1.6","5ef16261c970f4526c7695eb","E1","batch5","","745","tol_toboard","","","","tol_peg_1","745","745","0","[[2,0,0],[3,0],[1]]","7","[[2,3,0],[1,0],[0]]","15","0","","","","","","7","","","","","","","","",""
"","","","","","single-stim-button","350","836470","0.0-2.0-56.7-0.7","5ef16261c970f4526c7695eb","E1","batch5","","857","tol_tohand","","","","tol_peg_2","857","857","0","[[2,0,0],[0,0],[1]]","8","[[2,3,0],[1,0],[0]]","15","0","","","","","","7","","","","","","","","",""
"","","","","","single-stim-button","351","837137","0.0-2.0-56.7-1.7","5ef16261c970f4526c7695eb","E1","batch5","","665","tol_toboard","","","","tol_peg_1","665","665","0","[[2,3,0],[0,0],[1]]","8","[[2,3,0],[1,0],[0]]","15","0","","","","","","7","","","","","","","","",""
"","","","","","single-stim-button","352","837958","0.0-2.0-56.8-0.8","5ef16261c970f4526c7695eb","E1","batch5","","820","tol_tohand","","","","tol_peg_3","820","820","0","[[2,3,0],[0,0],[0]]","9","[[2,3,0],[1,0],[0]]","15","0","","","","","","7","","","","","","","","",""
"","","","","","single-stim-button","353","838417","0.0-2.0-56.8-1.8","5ef16261c970f4526c7695eb","E1","batch5","","457","tol_toboard","","","","tol_peg_2","457","457","0","[[2,3,0],[1,0],[0]]","9","[[2,3,0],[1,0],[0]]","15","0","","","","","","7","","","","","","","","",""
"","","","","","poldrack-single-stim","354","839425","0.0-2.0-57.0","5ef16261c970f4526c7695eb","E1","batch5","","-1","tol_feedback","","","true","","1000","1000","500","","","","","","-1","none","true","8427","19304","","","","","","","","","",""
