"success","timeout","failed_images","failed_audio","failed_video","trial_type","trial_index","time_elapsed","internal_node_id","subject_id","study_id","session_id","view_history","rt","stimulus","response","task","correct","answer","item","fiar_detect_rt","fiar_detect_correct","total_correct_fiar_detect","post_trial_gap","choices","mouse_click","stim_duration","block_duration","timing_post_trial","current_position","tol_num_moves_made","tol_target","tol_problem_id","tol_rt","key_press","possible_responses","tol_correct","preplanning","tol_rt_per_trial","tol_min_moves","spm_correct","spm_rt"
"true","false","[]","[]","[]","preload","0","5843","0.0-0.0","5ef4b8cf1f15df0ae9c7a706","C3","batch3","","","","","","","","","","","","","","","","","","","","","","","","","","","","","",""
"true","","","","","fullscreen","1","40778","0.0-1.0-0.0","5ef4b8cf1f15df0ae9c7a706","C3","batch3","","","","","","","","","","","","","","","","","","","","","","","","","","","","","",""
"true","","","","","fullscreen","2","43160","0.0-2.0-0.0","5ef4b8cf1f15df0ae9c7a706","C3","batch3","","","","","","","","","","","","","","","","","","","","","","","","","","","","","",""
"","","","","","instructions","3","55349","0.0-2.0-1.0-0.0","5ef4b8cf1f15df0ae9c7a706","C3","batch3","[{""page_index"":0,""viewing_time"":9018.89999999851},{""page_index"":1,""viewing_time"":3167.5}]","12187.10000000149","","","","","","","","","","","","","","","","","","","","","","","","","","","",""
"","","","","","html-button-response","4","56567","0.0-2.0-1.0-1.0-0.0","5ef4b8cf1f15df0ae9c7a706","C3","batch3","","1214.5","<p class=block-text> Let's answer a few questions <br>","0","pattern_enter_quiz","","","","","","","","","","","","","","","","","","","","","","","","",""
"","","","","","html-button-response","5","59252","0.0-2.0-1.0-1.0-1.0","5ef4b8cf1f15df0ae9c7a706","C3","batch3","","2682.10000000149","<p class = block-text>True or False: You will have as much time as you want to make each choice. <br></p>","1","pattern_quiz","true","","","","","","","","","","","","","","","","","","","","","","","",""
"","","","","","html-button-response","6","60180","0.0-2.0-1.0-1.0-2.0","5ef4b8cf1f15df0ae9c7a706","C3","batch3","","925.1000000014901","<p class = block-text>Correct! You should make your choice <strong> as fast as you can</strong>.</p>","0","pattern_quiz_feedback","","","","","","","","","","","","","","","","","","","","","","","","",""
"","","","","","html-button-response","7","63204","0.0-2.0-1.0-1.0-3.0","5ef4b8cf1f15df0ae9c7a706","C3","batch3","","3021.5","<p class = block-text>True or False: You will look for 4 pieces in black or white color connected in a row either horizontally, vertically or diagonally. <br></p>","0","pattern_quiz","true","","","","","","","","","","","","","","","","","","","","","","","",""
"","","","","","html-button-response","8","63988","0.0-2.0-1.0-1.0-4.0","5ef4b8cf1f15df0ae9c7a706","C3","batch3","","782.1000000014901","<p class = block-text>Correct! </p>","0","pattern_quiz_feedback","","","","","","","","","","","","","","","","","","","","","","","","",""
"","","","","","html-button-response","9","65241","0.0-2.0-2.0","5ef4b8cf1f15df0ae9c7a706","C3","batch3","","1248.6999999955297","<p class=block-text> Now that you've understood the game, let's do a few practice trials before we start!<br> <br>","0","pattern_enter_practice","","","","","","","","","","","","","","","","","","","","","","","","",""
"","","","","","image-keyboard-response","10","67461","0.0-2.0-3.0-0.0","5ef4b8cf1f15df0ae9c7a706","C3","batch3","","2213.9000000059605","stim/prac_no_16_1.png","j","pattern_practice","true","j","","","","","","","","","","","","","","","","","","","","","","",""
"","","","","","html-keyboard-response","11","68483","0.0-2.0-3.0-1.0","5ef4b8cf1f15df0ae9c7a706","C3","batch3","","null","<p style=""font-size:30px;color:green;"">Correct!</p>","null","pattern_feedback","","","","","","","","","","","","","","","","","","","","","","","","",""
"","","","","","image-keyboard-response","12","69901","0.0-2.0-3.0-0.1","5ef4b8cf1f15df0ae9c7a706","C3","batch3","","1416.6999999955297","stim/prac_no_18_1.png","j","pattern_practice","true","j","","","","","","","","","","","","","","","","","","","","","","",""
"","","","","","html-keyboard-response","13","70918","0.0-2.0-3.0-1.1","5ef4b8cf1f15df0ae9c7a706","C3","batch3","","null","<p style=""font-size:30px;color:green;"">Correct!</p>","null","pattern_feedback","","","","","","","","","","","","","","","","","","","","","","","","",""
"","","","","","image-keyboard-response","14","72079","0.0-2.0-3.0-0.2","5ef4b8cf1f15df0ae9c7a706","C3","batch3","","1157.6000000014901","stim/prac_yes_18_hor_w1.png","f","pattern_practice","true","f","","","","","","","","","","","","","","","","","","","","","","",""
"","","","","","html-keyboard-response","15","73100","0.0-2.0-3.0-1.2","5ef4b8cf1f15df0ae9c7a706","C3","batch3","","null","<p style=""font-size:30px;color:green;"">Correct!</p>","null","pattern_feedback","","","","","","","","","","","","","","","","","","","","","","","","",""
"","","","","","image-keyboard-response","16","74072","0.0-2.0-3.0-0.3","5ef4b8cf1f15df0ae9c7a706","C3","batch3","","969.1999999955297","stim/prac_yes_16_ver_w1.png","f","pattern_practice","true","f","","","","","","","","","","","","","","","","","","","","","","",""
"","","","","","html-keyboard-response","17","75083","0.0-2.0-3.0-1.3","5ef4b8cf1f15df0ae9c7a706","C3","batch3","","null","<p style=""font-size:30px;color:green;"">Correct!</p>","null","pattern_feedback","","","","","","","","","","","","","","","","","","","","","","","","",""
"","","","","","image-keyboard-response","18","76854","0.0-2.0-3.0-0.4","5ef4b8cf1f15df0ae9c7a706","C3","batch3","","1768.8999999985099","stim/prac_yes_20_dia_b1.png","f","pattern_practice","true","f","","","","","","","","","","","","","","","","","","","","","","",""
"","","","","","html-keyboard-response","19","77866","0.0-2.0-3.0-1.4","5ef4b8cf1f15df0ae9c7a706","C3","batch3","","null","<p style=""font-size:30px;color:green;"">Correct!</p>","null","pattern_feedback","","","","","","","","","","","","","","","","","","","","","","","","",""
"","","","","","html-button-response","20","80599","0.0-2.0-4.0","5ef4b8cf1f15df0ae9c7a706","C3","batch3","","2729.39999999851","<p class=block-text> Good job! You are done with practice trials!<br>
        You responded correctly on 100% of the trials.<br>
        Press the button below to start official trials. Now you won't see any feedback about your response</p>","0","pattern_enter_official_trials","","","","","","","","","","","","","","","","","","","","","","","","",""
"","","","","","html-keyboard-response","21","81410","0.0-2.0-5.0-0.0","5ef4b8cf1f15df0ae9c7a706","C3","batch3","","null","<p class=block-text>Trial 1 out of 78</p>","null","pattern_show_trial_num","","","","","","","","","","","","","","","","","","","","","","","","",""
"","","","","","image-keyboard-response","22","82829","0.0-2.0-5.0-1.0","5ef4b8cf1f15df0ae9c7a706","C3","batch3","","1417.5","stim/no_15_1_w.png","j","pattern_response","true","j","pattern_03","1417.5","true","1","","","","","","","","","","","","","","","","","","",""
"","","","","","html-keyboard-response","23","84149","0.0-2.0-5.0-0.1","5ef4b8cf1f15df0ae9c7a706","C3","batch3","","null","<p class=block-text>Trial 2 out of 78</p>","null","pattern_show_trial_num","","","","","","","","","","","","","","","","","","","","","","","","",""
"","","","","","image-keyboard-response","24","85010","0.0-2.0-5.0-1.1","5ef4b8cf1f15df0ae9c7a706","C3","batch3","","858.5","stim/yes_37_hor_w1_w.png","f","pattern_response","true","f","pattern_60","858.5","true","2","","","","","","","","","","","","","","","","","","",""
"","","","","","html-keyboard-response","25","86321","0.0-2.0-5.0-0.2","5ef4b8cf1f15df0ae9c7a706","C3","batch3","","null","<p class=block-text>Trial 3 out of 78</p>","null","pattern_show_trial_num","","","","","","","","","","","","","","","","","","","","","","","","",""
"","","","","","image-keyboard-response","26","88011","0.0-2.0-5.0-1.2","5ef4b8cf1f15df0ae9c7a706","C3","batch3","","1689","stim/yes_26_dia_w2_w.png","f","pattern_response","true","f","pattern_50","1689","true","3","","","","","","","","","","","","","","","","","","",""
"","","","","","html-keyboard-response","27","89340","0.0-2.0-5.0-0.3","5ef4b8cf1f15df0ae9c7a706","C3","batch3","","null","<p class=block-text>Trial 4 out of 78</p>","null","pattern_show_trial_num","","","","","","","","","","","","","","","","","","","","","","","","",""
"","","","","","image-keyboard-response","28","91041","0.0-2.0-5.0-1.3","5ef4b8cf1f15df0ae9c7a706","C3","batch3","","1699.0999999940395","stim/no_22_1_b.png","j","pattern_response","true","j","pattern_07","1699.0999999940395","true","4","","","","","","","","","","","","","","","","","","",""
"","","","","","html-keyboard-response","29","92355","0.0-2.0-5.0-0.4","5ef4b8cf1f15df0ae9c7a706","C3","batch3","","null","<p class=block-text>Trial 5 out of 78</p>","null","pattern_show_trial_num","","","","","","","","","","","","","","","","","","","","","","","","",""
"","","","","","image-keyboard-response","30","94067","0.0-2.0-5.0-1.4","5ef4b8cf1f15df0ae9c7a706","C3","batch3","","1708.8999999985099","stim/yes_44_ver_w1_w.png","j","pattern_response","false","f","pattern_66","1708.8999999985099","false","4","","","","","","","","","","","","","","","","","","",""
"","","","","","html-keyboard-response","31","95388","0.0-2.0-5.0-0.5","5ef4b8cf1f15df0ae9c7a706","C3","batch3","","null","<p class=block-text>Trial 6 out of 78</p>","null","pattern_show_trial_num","","","","","","","","","","","","","","","","","","","","","","","","",""
"","","","","","image-keyboard-response","32","97172","0.0-2.0-5.0-1.5","5ef4b8cf1f15df0ae9c7a706","C3","batch3","","1782.6999999955297","stim/no_47_1_b.png","j","pattern_response","true","j","pattern_27","1782.6999999955297","true","5","","","","","","","","","","","","","","","","","","",""
"","","","","","html-keyboard-response","33","98488","0.0-2.0-5.0-0.6","5ef4b8cf1f15df0ae9c7a706","C3","batch3","","null","<p class=block-text>Trial 7 out of 78</p>","null","pattern_show_trial_num","","","","","","","","","","","","","","","","","","","","","","","","",""
"","","","","","image-keyboard-response","34","100587","0.0-2.0-5.0-1.6","5ef4b8cf1f15df0ae9c7a706","C3","batch3","","2097.60000000149","stim/no_45_1_w.png","j","pattern_response","true","j","pattern_25","2097.60000000149","true","6","","","","","","","","","","","","","","","","","","",""
"","","","","","html-keyboard-response","35","101903","0.0-2.0-5.0-0.7","5ef4b8cf1f15df0ae9c7a706","C3","batch3","","null","<p class=block-text>Trial 8 out of 78</p>","null","pattern_show_trial_num","","","","","","","","","","","","","","","","","","","","","","","","",""
"","","","","","image-keyboard-response","36","103629","0.0-2.0-5.0-1.7","5ef4b8cf1f15df0ae9c7a706","C3","batch3","","1722.8999999985099","stim/no_28_2.png","j","pattern_response","true","j","pattern_11","1722.8999999985099","true","7","","","","","","","","","","","","","","","","","","",""
"","","","","","html-keyboard-response","37","104952","0.0-2.0-5.0-0.8","5ef4b8cf1f15df0ae9c7a706","C3","batch3","","null","<p class=block-text>Trial 9 out of 78</p>","null","pattern_show_trial_num","","","","","","","","","","","","","","","","","","","","","","","","",""
"","","","","","image-keyboard-response","38","106741","0.0-2.0-5.0-1.8","5ef4b8cf1f15df0ae9c7a706","C3","batch3","","1786.9000000059605","stim/no_36_1_b.png","j","pattern_response","true","j","pattern_17","1786.9000000059605","true","8","","","","","","","","","","","","","","","","","","",""
"","","","","","html-keyboard-response","39","108068","0.0-2.0-5.0-0.9","5ef4b8cf1f15df0ae9c7a706","C3","batch3","","null","<p class=block-text>Trial 10 out of 78</p>","null","pattern_show_trial_num","","","","","","","","","","","","","","","","","","","","","","","","",""
"","","","","","image-keyboard-response","40","109351","0.0-2.0-5.0-1.9","5ef4b8cf1f15df0ae9c7a706","C3","batch3","","1279.5","stim/yes_58_dia_w1_w.png","f","pattern_response","true","f","pattern_76","1279.5","true","9","","","","","","","","","","","","","","","","","","",""
"","","","","","html-keyboard-response","41","110667","0.0-2.0-5.0-0.10","5ef4b8cf1f15df0ae9c7a706","C3","batch3","","null","<p class=block-text>Trial 11 out of 78</p>","null","pattern_show_trial_num","","","","","","","","","","","","","","","","","","","","","","","","",""
"","","","","","image-keyboard-response","42","112658","0.0-2.0-5.0-1.10","5ef4b8cf1f15df0ae9c7a706","C3","batch3","","1987.7999999970198","stim/no_49_2_b.png","j","pattern_response","true","j","pattern_29","1987.7999999970198","true","10","","","","","","","","","","","","","","","","","","",""
"","","","","","html-keyboard-response","43","113975","0.0-2.0-5.0-0.11","5ef4b8cf1f15df0ae9c7a706","C3","batch3","","null","<p class=block-text>Trial 12 out of 78</p>","null","pattern_show_trial_num","","","","","","","","","","","","","","","","","","","","","","","","",""
"","","","","","image-keyboard-response","44","116357","0.0-2.0-5.0-1.11","5ef4b8cf1f15df0ae9c7a706","C3","batch3","","2379.2000000029802","stim/no_58_1_w.png","j","pattern_response","true","j","pattern_35","2379.2000000029802","true","11","","","","","","","","","","","","","","","","","","",""
"","","","","","html-keyboard-response","45","117682","0.0-2.0-5.0-0.12","5ef4b8cf1f15df0ae9c7a706","C3","batch3","","null","<p class=block-text>Trial 13 out of 78</p>","null","pattern_show_trial_num","","","","","","","","","","","","","","","","","","","","","","","","",""
"","","","","","image-keyboard-response","46","118550","0.0-2.0-5.0-1.12","5ef4b8cf1f15df0ae9c7a706","C3","batch3","","865.8000000044703","stim/no_12_1.png","j","pattern_response","true","j","pattern_01","865.8000000044703","true","12","","","","","","","","","","","","","","","","","","",""
"","","","","","html-keyboard-response","47","119864","0.0-2.0-5.0-0.13","5ef4b8cf1f15df0ae9c7a706","C3","batch3","","null","<p class=block-text>Trial 14 out of 78</p>","null","pattern_show_trial_num","","","","","","","","","","","","","","","","","","","","","","","","",""
"","","","","","image-keyboard-response","48","122222","0.0-2.0-5.0-1.13","5ef4b8cf1f15df0ae9c7a706","C3","batch3","","2354","stim/no_33_1_b.png","j","pattern_response","true","j","pattern_15","2354","true","13","","","","","","","","","","","","","","","","","","",""
"","","","","","html-keyboard-response","49","123545","0.0-2.0-5.0-0.14","5ef4b8cf1f15df0ae9c7a706","C3","batch3","","null","<p class=block-text>Trial 15 out of 78</p>","null","pattern_show_trial_num","","","","","","","","","","","","","","","","","","","","","","","","",""
"","","","","","image-keyboard-response","50","124243","0.0-2.0-5.0-1.14","5ef4b8cf1f15df0ae9c7a706","C3","batch3","","696.3999999985099","stim/yes_12_hor_w1_w.png","f","pattern_response","true","f","pattern_42","696.3999999985099","true","14","","","","","","","","","","","","","","","","","","",""
"","","","","","html-keyboard-response","51","125561","0.0-2.0-5.0-0.15","5ef4b8cf1f15df0ae9c7a706","C3","batch3","","null","<p class=block-text>Trial 16 out of 78</p>","null","pattern_show_trial_num","","","","","","","","","","","","","","","","","","","","","","","","",""
"","","","","","image-keyboard-response","52","127278","0.0-2.0-5.0-1.15","5ef4b8cf1f15df0ae9c7a706","C3","batch3","","1716.1999999955297","stim/no_25_1_b.png","j","pattern_response","true","j","pattern_09","1716.1999999955297","true","15","","","","","","","","","","","","","","","","","","",""
"","","","","","html-keyboard-response","53","128593","0.0-2.0-5.0-0.16","5ef4b8cf1f15df0ae9c7a706","C3","batch3","","null","<p class=block-text>Trial 17 out of 78</p>","null","pattern_show_trial_num","","","","","","","","","","","","","","","","","","","","","","","","",""
"","","","","","image-keyboard-response","54","130356","0.0-2.0-5.0-1.16","5ef4b8cf1f15df0ae9c7a706","C3","batch3","","1758.8999999985099","stim/yes_53_ver_b1_b.png","j","pattern_response","false","f","pattern_74","1758.8999999985099","false","15","","","","","","","","","","","","","","","","","","",""
"","","","","","html-keyboard-response","55","131676","0.0-2.0-5.0-0.17","5ef4b8cf1f15df0ae9c7a706","C3","batch3","","null","<p class=block-text>Trial 18 out of 78</p>","null","pattern_show_trial_num","","","","","","","","","","","","","","","","","","","","","","","","",""
"","","","","","image-keyboard-response","56","133918","0.0-2.0-5.0-1.17","5ef4b8cf1f15df0ae9c7a706","C3","batch3","","2239.9000000059605","stim/no_51_1.png","f","pattern_response","false","j","pattern_31","2239.9000000059605","false","15","","","","","","","","","","","","","","","","","","",""
"","","","","","html-keyboard-response","57","135241","0.0-2.0-5.0-0.18","5ef4b8cf1f15df0ae9c7a706","C3","batch3","","null","<p class=block-text>Trial 19 out of 78</p>","null","pattern_show_trial_num","","","","","","","","","","","","","","","","","","","","","","","","",""
"","","","","","image-keyboard-response","58","136377","0.0-2.0-5.0-1.18","5ef4b8cf1f15df0ae9c7a706","C3","batch3","","1131.8999999985099","stim/yes_17_ver_b1_b.png","f","pattern_response","true","f","pattern_46","1131.8999999985099","true","16","","","","","","","","","","","","","","","","","","",""
"","","","","","html-keyboard-response","59","137691","0.0-2.0-5.0-0.19","5ef4b8cf1f15df0ae9c7a706","C3","batch3","","null","<p class=block-text>Trial 20 out of 78</p>","null","pattern_show_trial_num","","","","","","","","","","","","","","","","","","","","","","","","",""
"","","","","","image-keyboard-response","60","139349","0.0-2.0-5.0-1.19","5ef4b8cf1f15df0ae9c7a706","C3","batch3","","1656","stim/no_30_1_b.png","j","pattern_response","true","j","pattern_13","1656","true","17","","","","","","","","","","","","","","","","","","",""
"","","","","","html-keyboard-response","61","140674","0.0-2.0-5.0-0.20","5ef4b8cf1f15df0ae9c7a706","C3","batch3","","null","<p class=block-text>Trial 21 out of 78</p>","null","pattern_show_trial_num","","","","","","","","","","","","","","","","","","","","","","","","",""
"","","","","","image-keyboard-response","62","141659","0.0-2.0-5.0-1.20","5ef4b8cf1f15df0ae9c7a706","C3","batch3","","982.2000000029802","stim/no_18_1_b.png","j","pattern_response","true","j","pattern_05","982.2000000029802","true","18","","","","","","","","","","","","","","","","","","",""
"","","","","","html-keyboard-response","63","142973","0.0-2.0-5.0-0.21","5ef4b8cf1f15df0ae9c7a706","C3","batch3","","null","<p class=block-text>Trial 22 out of 78</p>","null","pattern_show_trial_num","","","","","","","","","","","","","","","","","","","","","","","","",""
"","","","","","image-keyboard-response","64","144772","0.0-2.0-5.0-1.21","5ef4b8cf1f15df0ae9c7a706","C3","batch3","","1796.6999999955297","stim/yes_51_dia_b1.png","f","pattern_response","true","f","pattern_72","1796.6999999955297","true","19","","","","","","","","","","","","","","","","","","",""
"","","","","","html-keyboard-response","65","146088","0.0-2.0-5.0-0.22","5ef4b8cf1f15df0ae9c7a706","C3","batch3","","null","<p class=block-text>Trial 23 out of 78</p>","null","pattern_show_trial_num","","","","","","","","","","","","","","","","","","","","","","","","",""
"","","","","","image-keyboard-response","66","147117","0.0-2.0-5.0-1.22","5ef4b8cf1f15df0ae9c7a706","C3","batch3","","1026.3999999985099","stim/yes_36_ver_w1_w.png","f","pattern_response","true","f","pattern_58","1026.3999999985099","true","20","","","","","","","","","","","","","","","","","","",""
"","","","","","html-keyboard-response","67","148438","0.0-2.0-5.0-0.23","5ef4b8cf1f15df0ae9c7a706","C3","batch3","","null","<p class=block-text>Trial 24 out of 78</p>","null","pattern_show_trial_num","","","","","","","","","","","","","","","","","","","","","","","","",""
"","","","","","image-keyboard-response","68","150318","0.0-2.0-5.0-1.23","5ef4b8cf1f15df0ae9c7a706","C3","batch3","","1877.5999999940395","stim/no_43_2_b.png","j","pattern_response","true","j","pattern_23","1877.5999999940395","true","21","","","","","","","","","","","","","","","","","","",""
"","","","","","html-keyboard-response","69","151636","0.0-2.0-5.0-0.24","5ef4b8cf1f15df0ae9c7a706","C3","batch3","","null","<p class=block-text>Trial 25 out of 78</p>","null","pattern_show_trial_num","","","","","","","","","","","","","","","","","","","","","","","","",""
"","","","","","image-keyboard-response","70","153105","0.0-2.0-5.0-1.24","5ef4b8cf1f15df0ae9c7a706","C3","batch3","","1466.3999999985099","stim/yes_30_ver_b1_b.png","f","pattern_response","true","f","pattern_54","1466.3999999985099","true","22","","","","","","","","","","","","","","","","","","",""
"","","","","","html-keyboard-response","71","154418","0.0-2.0-5.0-0.25","5ef4b8cf1f15df0ae9c7a706","C3","batch3","","null","<p class=block-text>Trial 26 out of 78</p>","null","pattern_show_trial_num","","","","","","","","","","","","","","","","","","","","","","","","",""
"","","","","","image-keyboard-response","72","156285","0.0-2.0-5.0-1.25","5ef4b8cf1f15df0ae9c7a706","C3","batch3","","1863.3999999985099","stim/yes_70_ver_b1.png","f","pattern_response","true","f","pattern_80","1863.3999999985099","true","23","","","","","","","","","","","","","","","","","","",""
"","","","","","html-keyboard-response","73","157601","0.0-2.0-5.0-0.26","5ef4b8cf1f15df0ae9c7a706","C3","batch3","","null","<p class=block-text>Trial 27 out of 78</p>","null","pattern_show_trial_num","","","","","","","","","","","","","","","","","","","","","","","","",""
"","","","","","image-keyboard-response","74","159721","0.0-2.0-5.0-1.26","5ef4b8cf1f15df0ae9c7a706","C3","batch3","","2117.2999999970198","stim/yes_42_dia_w1_w.png","f","pattern_response","true","f","pattern_64","2117.2999999970198","true","24","","","","","","","","","","","","","","","","","","",""
"","","","","","html-keyboard-response","75","161049","0.0-2.0-5.0-0.27","5ef4b8cf1f15df0ae9c7a706","C3","batch3","","null","<p class=block-text>Trial 28 out of 78</p>","null","pattern_show_trial_num","","","","","","","","","","","","","","","","","","","","","","","","",""
"","","","","","image-keyboard-response","76","162856","0.0-2.0-5.0-1.27","5ef4b8cf1f15df0ae9c7a706","C3","batch3","","1803.6000000014901","stim/no_39_1_w.png","j","pattern_response","true","j","pattern_21","1803.6000000014901","true","25","","","","","","","","","","","","","","","","","","",""
"","","","","","html-keyboard-response","77","164182","0.0-2.0-5.0-0.28","5ef4b8cf1f15df0ae9c7a706","C3","batch3","","null","<p class=block-text>Trial 29 out of 78</p>","null","pattern_show_trial_num","","","","","","","","","","","","","","","","","","","","","","","","",""
"","","","","","image-keyboard-response","78","165067","0.0-2.0-5.0-1.28","5ef4b8cf1f15df0ae9c7a706","C3","batch3","","881.7000000029802","stim/yes_15_dia_b1u_b.png","f","pattern_response","true","f","pattern_44","881.7000000029802","true","26","","","","","","","","","","","","","","","","","","",""
"","","","","","html-keyboard-response","79","166382","0.0-2.0-5.0-0.29","5ef4b8cf1f15df0ae9c7a706","C3","batch3","","null","<p class=block-text>Trial 30 out of 78</p>","null","pattern_show_trial_num","","","","","","","","","","","","","","","","","","","","","","","","",""
"","","","","","image-keyboard-response","80","169080","0.0-2.0-5.0-1.29","5ef4b8cf1f15df0ae9c7a706","C3","batch3","","2695.8000000044703","stim/no_67_1.png","j","pattern_response","true","j","pattern_39","2695.8000000044703","true","27","","","","","","","","","","","","","","","","","","",""
"","","","","","html-keyboard-response","81","170396","0.0-2.0-5.0-0.30","5ef4b8cf1f15df0ae9c7a706","C3","batch3","","null","<p class=block-text>Trial 31 out of 78</p>","null","pattern_show_trial_num","","","","","","","","","","","","","","","","","","","","","","","","",""
"","","","","","image-keyboard-response","82","171190","0.0-2.0-5.0-1.30","5ef4b8cf1f15df0ae9c7a706","C3","batch3","","790.1000000014901","stim/yes_39_hor_w1_w.png","f","pattern_response","true","f","pattern_62","790.1000000014901","true","28","","","","","","","","","","","","","","","","","","",""
"","","","","","html-keyboard-response","83","172513","0.0-2.0-5.0-0.31","5ef4b8cf1f15df0ae9c7a706","C3","batch3","","null","<p class=block-text>Trial 32 out of 78</p>","null","pattern_show_trial_num","","","","","","","","","","","","","","","","","","","","","","","","",""
"","","","","","image-keyboard-response","84","173732","0.0-2.0-5.0-1.31","5ef4b8cf1f15df0ae9c7a706","C3","batch3","","1218.7999999970198","stim/yes_49_hor_w1_b.png","f","pattern_response","true","f","pattern_70","1218.7999999970198","true","29","","","","","","","","","","","","","","","","","","",""
"","","","","","html-keyboard-response","85","175062","0.0-2.0-5.0-0.32","5ef4b8cf1f15df0ae9c7a706","C3","batch3","","null","<p class=block-text>Trial 33 out of 78</p>","null","pattern_show_trial_num","","","","","","","","","","","","","","","","","","","","","","","","",""
"","","","","","image-keyboard-response","86","177268","0.0-2.0-5.0-1.32","5ef4b8cf1f15df0ae9c7a706","C3","batch3","","2205.7000000029802","stim/yes_29_hor_b1_b.png","f","pattern_response","true","f","pattern_52","2205.7000000029802","true","30","","","","","","","","","","","","","","","","","","",""
"","","","","","html-keyboard-response","87","178591","0.0-2.0-5.0-0.33","5ef4b8cf1f15df0ae9c7a706","C3","batch3","","null","<p class=block-text>Trial 34 out of 78</p>","null","pattern_show_trial_num","","","","","","","","","","","","","","","","","","","","","","","","",""
"","","","","","image-keyboard-response","88","181138","0.0-2.0-5.0-1.33","5ef4b8cf1f15df0ae9c7a706","C3","batch3","","2543.2999999970198","stim/no_37_2_w.png","j","pattern_response","true","j","pattern_19","2543.2999999970198","true","31","","","","","","","","","","","","","","","","","","",""
"","","","","","html-keyboard-response","89","182456","0.0-2.0-5.0-0.34","5ef4b8cf1f15df0ae9c7a706","C3","batch3","","null","<p class=block-text>Trial 35 out of 78</p>","null","pattern_show_trial_num","","","","","","","","","","","","","","","","","","","","","","","","",""
"","","","","","image-keyboard-response","90","185498","0.0-2.0-5.0-1.34","5ef4b8cf1f15df0ae9c7a706","C3","batch3","","3038.89999999851","stim/no_53_1_b.png","j","pattern_response","true","j","pattern_33","3038.89999999851","true","32","","","","","","","","","","","","","","","","","","",""
"","","","","","html-keyboard-response","91","186821","0.0-2.0-5.0-0.35","5ef4b8cf1f15df0ae9c7a706","C3","batch3","","null","<p class=block-text>Trial 36 out of 78</p>","null","pattern_show_trial_num","","","","","","","","","","","","","","","","","","","","","","","","",""
"","","","","","image-keyboard-response","92","189466","0.0-2.0-5.0-1.35","5ef4b8cf1f15df0ae9c7a706","C3","batch3","","2641.4000000059605","stim/yes_63_dia_b1.png","j","pattern_response","false","f","pattern_78","2641.4000000059605","false","32","","","","","","","","","","","","","","","","","","",""
"","","","","","html-keyboard-response","93","190787","0.0-2.0-5.0-0.36","5ef4b8cf1f15df0ae9c7a706","C3","batch3","","null","<p class=block-text>Trial 37 out of 78</p>","null","pattern_show_trial_num","","","","","","","","","","","","","","","","","","","","","","","","",""
"","","","","","image-keyboard-response","94","191726","0.0-2.0-5.0-1.36","5ef4b8cf1f15df0ae9c7a706","C3","batch3","","935.2000000029802","stim/yes_33_dia_w1_w.png","f","pattern_response","true","f","pattern_56","935.2000000029802","true","33","","","","","","","","","","","","","","","","","","",""
"","","","","","html-keyboard-response","95","193053","0.0-2.0-5.0-0.37","5ef4b8cf1f15df0ae9c7a706","C3","batch3","","null","<p class=block-text>Trial 38 out of 78</p>","null","pattern_show_trial_num","","","","","","","","","","","","","","","","","","","","","","","","",""
"","","","","","image-keyboard-response","96","194547","0.0-2.0-5.0-1.37","5ef4b8cf1f15df0ae9c7a706","C3","batch3","","1491.7000000029802","stim/yes_23_ver_b1.png","f","pattern_response","true","f","pattern_48","1491.7000000029802","true","34","","","","","","","","","","","","","","","","","","",""
"","","","","","html-keyboard-response","97","195869","0.0-2.0-5.0-0.38","5ef4b8cf1f15df0ae9c7a706","C3","batch3","","null","<p class=block-text>Trial 39 out of 78</p>","null","pattern_show_trial_num","","","","","","","","","","","","","","","","","","","","","","","","",""
"","","","","","image-keyboard-response","98","197272","0.0-2.0-5.0-1.38","5ef4b8cf1f15df0ae9c7a706","C3","batch3","","1400.7999999970198","stim/yes_46_ver_b1_b.png","f","pattern_response","true","f","pattern_68","1400.7999999970198","true","35","","","","","","","","","","","","","","","","","","",""
"","","","","","image-keyboard-response","99","199876","0.0-2.0-6.0","5ef4b8cf1f15df0ae9c7a706","C3","batch3","","2087.5","stim/empty_board.png","j","attention_check","true","j","","","","","500","[""f"",""j""]","","","","","","","","","","","","","","","","",""
"","","","","","html-keyboard-response","100","200683","0.0-2.0-7.0-0.0","5ef4b8cf1f15df0ae9c7a706","C3","batch3","","null","<p class=block-text>Trial 40 out of 78</p>","null","pattern_show_trial_num","","","","","","","","","","","","","","","","","","","","","","","","",""
"","","","","","image-keyboard-response","101","201470","0.0-2.0-7.0-1.0","5ef4b8cf1f15df0ae9c7a706","C3","batch3","","783.5","stim/yes_14_hor_b1_w.png","f","pattern_response","true","f","pattern_43","783.5","true","36","","","","","","","","","","","","","","","","","","",""
"","","","","","html-keyboard-response","102","202799","0.0-2.0-7.0-0.1","5ef4b8cf1f15df0ae9c7a706","C3","batch3","","null","<p class=block-text>Trial 41 out of 78</p>","null","pattern_show_trial_num","","","","","","","","","","","","","","","","","","","","","","","","",""
"","","","","","image-keyboard-response","103","203810","0.0-2.0-7.0-1.1","5ef4b8cf1f15df0ae9c7a706","C3","batch3","","1009.1000000014901","stim/yes_55_hor_w1_w.png","f","pattern_response","true","f","pattern_75","1009.1000000014901","true","37","","","","","","","","","","","","","","","","","","",""
"","","","","","html-keyboard-response","104","205132","0.0-2.0-7.0-0.2","5ef4b8cf1f15df0ae9c7a706","C3","batch3","","null","<p class=block-text>Trial 42 out of 78</p>","null","pattern_show_trial_num","","","","","","","","","","","","","","","","","","","","","","","","",""
"","","","","","image-keyboard-response","105","207232","0.0-2.0-7.0-1.2","5ef4b8cf1f15df0ae9c7a706","C3","batch3","","2098.2999999970198","stim/no_44_1.png","j","pattern_response","true","j","pattern_24","2098.2999999970198","true","38","","","","","","","","","","","","","","","","","","",""
"","","","","","html-keyboard-response","106","208548","0.0-2.0-7.0-0.3","5ef4b8cf1f15df0ae9c7a706","C3","batch3","","null","<p class=block-text>Trial 43 out of 78</p>","null","pattern_show_trial_num","","","","","","","","","","","","","","","","","","","","","","","","",""
"","","","","","image-keyboard-response","107","210949","0.0-2.0-7.0-1.3","5ef4b8cf1f15df0ae9c7a706","C3","batch3","","2397.1999999955297","stim/yes_40_dia_b1_b.png","j","pattern_response","false","f","pattern_63","2397.1999999955297","false","38","","","","","","","","","","","","","","","","","","",""
"","","","","","html-keyboard-response","108","212263","0.0-2.0-7.0-0.4","5ef4b8cf1f15df0ae9c7a706","C3","batch3","","null","<p class=block-text>Trial 44 out of 78</p>","null","pattern_show_trial_num","","","","","","","","","","","","","","","","","","","","","","","","",""
"","","","","","image-keyboard-response","109","214007","0.0-2.0-7.0-1.4","5ef4b8cf1f15df0ae9c7a706","C3","batch3","","1740.3999999985099","stim/no_32_1_w.png","j","pattern_response","true","j","pattern_14","1740.3999999985099","true","39","","","","","","","","","","","","","","","","","","",""
"","","","","","html-keyboard-response","110","215329","0.0-2.0-7.0-0.5","5ef4b8cf1f15df0ae9c7a706","C3","batch3","","null","<p class=block-text>Trial 45 out of 78</p>","null","pattern_show_trial_num","","","","","","","","","","","","","","","","","","","","","","","","",""
"","","","","","image-keyboard-response","111","216862","0.0-2.0-7.0-1.5","5ef4b8cf1f15df0ae9c7a706","C3","batch3","","1530.2000000029802","stim/yes_45_hor_b2_b.png","f","pattern_response","true","f","pattern_67","1530.2000000029802","true","40","","","","","","","","","","","","","","","","","","",""
"","","","","","html-keyboard-response","112","218178","0.0-2.0-7.0-0.6","5ef4b8cf1f15df0ae9c7a706","C3","batch3","","null","<p class=block-text>Trial 46 out of 78</p>","null","pattern_show_trial_num","","","","","","","","","","","","","","","","","","","","","","","","",""
"","","","","","image-keyboard-response","113","219957","0.0-2.0-7.0-1.6","5ef4b8cf1f15df0ae9c7a706","C3","batch3","","1769.7000000029802","stim/no_42_1_w.png","j","pattern_response","true","j","pattern_22","1769.7000000029802","true","41","","","","","","","","","","","","","","","","","","",""
"","","","","","html-keyboard-response","114","221276","0.0-2.0-7.0-0.7","5ef4b8cf1f15df0ae9c7a706","C3","batch3","","null","<p class=block-text>Trial 47 out of 78</p>","null","pattern_show_trial_num","","","","","","","","","","","","","","","","","","","","","","","","",""
"","","","","","image-keyboard-response","115","223219","0.0-2.0-7.0-1.7","5ef4b8cf1f15df0ae9c7a706","C3","batch3","","1940.5","stim/no_36_2_w.png","j","pattern_response","true","j","pattern_18","1940.5","true","42","","","","","","","","","","","","","","","","","","",""
"","","","","","html-keyboard-response","116","224542","0.0-2.0-7.0-0.8","5ef4b8cf1f15df0ae9c7a706","C3","batch3","","null","<p class=block-text>Trial 48 out of 78</p>","null","pattern_show_trial_num","","","","","","","","","","","","","","","","","","","","","","","","",""
"","","","","","image-keyboard-response","117","226611","0.0-2.0-7.0-1.8","5ef4b8cf1f15df0ae9c7a706","C3","batch3","","2065.7000000029802","stim/no_62_1_w.png","j","pattern_response","true","j","pattern_36","2065.7000000029802","true","43","","","","","","","","","","","","","","","","","","",""
"","","","","","html-keyboard-response","118","227922","0.0-2.0-7.0-0.9","5ef4b8cf1f15df0ae9c7a706","C3","batch3","","null","<p class=block-text>Trial 49 out of 78</p>","null","pattern_show_trial_num","","","","","","","","","","","","","","","","","","","","","","","","",""
"","","","","","image-keyboard-response","119","228818","0.0-2.0-7.0-1.9","5ef4b8cf1f15df0ae9c7a706","C3","batch3","","893.1999999955297","stim/yes_25_hor_b1_b.png","f","pattern_response","true","f","pattern_49","893.1999999955297","true","44","","","","","","","","","","","","","","","","","","",""
"","","","","","html-keyboard-response","120","230143","0.0-2.0-7.0-0.10","5ef4b8cf1f15df0ae9c7a706","C3","batch3","","null","<p class=block-text>Trial 50 out of 78</p>","null","pattern_show_trial_num","","","","","","","","","","","","","","","","","","","","","","","","",""
"","","","","","image-keyboard-response","121","230988","0.0-2.0-7.0-1.10","5ef4b8cf1f15df0ae9c7a706","C3","batch3","","841.9000000059605","stim/yes_43_ver_w1_w.png","f","pattern_response","true","f","pattern_65","841.9000000059605","true","45","","","","","","","","","","","","","","","","","","",""
"","","","","","html-keyboard-response","122","232305","0.0-2.0-7.0-0.11","5ef4b8cf1f15df0ae9c7a706","C3","batch3","","null","<p class=block-text>Trial 51 out of 78</p>","null","pattern_show_trial_num","","","","","","","","","","","","","","","","","","","","","","","","",""
"","","","","","image-keyboard-response","123","234861","0.0-2.0-7.0-1.11","5ef4b8cf1f15df0ae9c7a706","C3","batch3","","2553.2999999970198","stim/no_65_1_b.png","j","pattern_response","true","j","pattern_38","2553.2999999970198","true","46","","","","","","","","","","","","","","","","","","",""
"","","","","","html-keyboard-response","124","236188","0.0-2.0-7.0-0.12","5ef4b8cf1f15df0ae9c7a706","C3","batch3","","null","<p class=block-text>Trial 52 out of 78</p>","null","pattern_show_trial_num","","","","","","","","","","","","","","","","","","","","","","","","",""
"","","","","","image-keyboard-response","125","237045","0.0-2.0-7.0-1.12","5ef4b8cf1f15df0ae9c7a706","C3","batch3","","853.1000000014901","stim/yes_67_hor_b1.png","f","pattern_response","true","f","pattern_79","853.1000000014901","true","47","","","","","","","","","","","","","","","","","","",""
"","","","","","html-keyboard-response","126","238373","0.0-2.0-7.0-0.13","5ef4b8cf1f15df0ae9c7a706","C3","batch3","","null","<p class=block-text>Trial 53 out of 78</p>","null","pattern_show_trial_num","","","","","","","","","","","","","","","","","","","","","","","","",""
"","","","","","image-keyboard-response","127","240248","0.0-2.0-7.0-1.13","5ef4b8cf1f15df0ae9c7a706","C3","batch3","","1871.8999999985099","stim/yes_35_dia_b1.png","j","pattern_response","false","f","pattern_57","1871.8999999985099","false","47","","","","","","","","","","","","","","","","","","",""
"","","","","","html-keyboard-response","128","241573","0.0-2.0-7.0-0.14","5ef4b8cf1f15df0ae9c7a706","C3","batch3","","null","<p class=block-text>Trial 54 out of 78</p>","null","pattern_show_trial_num","","","","","","","","","","","","","","","","","","","","","","","","",""
"","","","","","image-keyboard-response","129","242759","0.0-2.0-7.0-1.14","5ef4b8cf1f15df0ae9c7a706","C3","batch3","","1184.1000000014901","stim/no_20_1_w.png","j","pattern_response","true","j","pattern_06","1184.1000000014901","true","48","","","","","","","","","","","","","","","","","","",""
"","","","","","html-keyboard-response","130","244089","0.0-2.0-7.0-0.15","5ef4b8cf1f15df0ae9c7a706","C3","batch3","","null","<p class=block-text>Trial 55 out of 78</p>","null","pattern_show_trial_num","","","","","","","","","","","","","","","","","","","","","","","","",""
"","","","","","image-keyboard-response","131","245692","0.0-2.0-7.0-1.15","5ef4b8cf1f15df0ae9c7a706","C3","batch3","","1600.7999999970198","stim/yes_52_ver_w1.png","f","pattern_response","true","f","pattern_73","1600.7999999970198","true","49","","","","","","","","","","","","","","","","","","",""
"","","","","","html-keyboard-response","132","247021","0.0-2.0-7.0-0.16","5ef4b8cf1f15df0ae9c7a706","C3","batch3","","null","<p class=block-text>Trial 56 out of 78</p>","null","pattern_show_trial_num","","","","","","","","","","","","","","","","","","","","","","","","",""
"","","","","","image-keyboard-response","133","249321","0.0-2.0-7.0-1.16","5ef4b8cf1f15df0ae9c7a706","C3","batch3","","2295.39999999851","stim/no_38_1_b.png","j","pattern_response","true","j","pattern_20","2295.39999999851","true","50","","","","","","","","","","","","","","","","","","",""
"","","","","","html-keyboard-response","134","250636","0.0-2.0-7.0-0.17","5ef4b8cf1f15df0ae9c7a706","C3","batch3","","null","<p class=block-text>Trial 57 out of 78</p>","null","pattern_show_trial_num","","","","","","","","","","","","","","","","","","","","","","","","",""
"","","","","","image-keyboard-response","135","251848","0.0-2.0-7.0-1.17","5ef4b8cf1f15df0ae9c7a706","C3","batch3","","1209.2000000029802","stim/yes_17_dia_w1.png","f","pattern_response","true","f","pattern_45","1209.2000000029802","true","51","","","","","","","","","","","","","","","","","","",""
"","","","","","html-keyboard-response","136","253169","0.0-2.0-7.0-0.18","5ef4b8cf1f15df0ae9c7a706","C3","batch3","","null","<p class=block-text>Trial 58 out of 78</p>","null","pattern_show_trial_num","","","","","","","","","","","","","","","","","","","","","","","","",""
"","","","","","image-keyboard-response","137","255721","0.0-2.0-7.0-1.18","5ef4b8cf1f15df0ae9c7a706","C3","batch3","","2549","stim/no_50_1.png","j","pattern_response","true","j","pattern_30","2549","true","52","","","","","","","","","","","","","","","","","","",""
"","","","","","html-keyboard-response","138","257050","0.0-2.0-7.0-0.19","5ef4b8cf1f15df0ae9c7a706","C3","batch3","","null","<p class=block-text>Trial 59 out of 78</p>","null","pattern_show_trial_num","","","","","","","","","","","","","","","","","","","","","","","","",""
"","","","","","image-keyboard-response","139","258789","0.0-2.0-7.0-1.19","5ef4b8cf1f15df0ae9c7a706","C3","batch3","","1735.7000000029802","stim/yes_31_hor_b1.png","f","pattern_response","true","f","pattern_55","1735.7000000029802","true","53","","","","","","","","","","","","","","","","","","",""
"","","","","","html-keyboard-response","140","260117","0.0-2.0-7.0-0.20","5ef4b8cf1f15df0ae9c7a706","C3","batch3","","null","<p class=block-text>Trial 60 out of 78</p>","null","pattern_show_trial_num","","","","","","","","","","","","","","","","","","","","","","","","",""
"","","","","","image-keyboard-response","141","261850","0.0-2.0-7.0-1.20","5ef4b8cf1f15df0ae9c7a706","C3","batch3","","1730.5","stim/no_23_1.png","j","pattern_response","true","j","pattern_08","1730.5","true","54","","","","","","","","","","","","","","","","","","",""
"","","","","","html-keyboard-response","142","263165","0.0-2.0-7.0-0.21","5ef4b8cf1f15df0ae9c7a706","C3","batch3","","null","<p class=block-text>Trial 61 out of 78</p>","null","pattern_show_trial_num","","","","","","","","","","","","","","","","","","","","","","","","",""
"","","","","","image-keyboard-response","143","264127","0.0-2.0-7.0-1.21","5ef4b8cf1f15df0ae9c7a706","C3","batch3","","958.3999999985099","stim/yes_28_ver_b1.png","f","pattern_response","true","f","pattern_51","958.3999999985099","true","55","","","","","","","","","","","","","","","","","","",""
"","","","","","html-keyboard-response","144","265448","0.0-2.0-7.0-0.22","5ef4b8cf1f15df0ae9c7a706","C3","batch3","","null","<p class=block-text>Trial 62 out of 78</p>","null","pattern_show_trial_num","","","","","","","","","","","","","","","","","","","","","","","","",""
"","","","","","image-keyboard-response","145","267166","0.0-2.0-7.0-1.22","5ef4b8cf1f15df0ae9c7a706","C3","batch3","","1715.2000000029802","stim/yes_38_hor_b1_b.png","f","pattern_response","true","f","pattern_61","1715.2000000029802","true","56","","","","","","","","","","","","","","","","","","",""
"","","","","","html-keyboard-response","146","268480","0.0-2.0-7.0-0.23","5ef4b8cf1f15df0ae9c7a706","C3","batch3","","null","<p class=block-text>Trial 63 out of 78</p>","null","pattern_show_trial_num","","","","","","","","","","","","","","","","","","","","","","","","",""
"","","","","","image-keyboard-response","147","269977","0.0-2.0-7.0-1.23","5ef4b8cf1f15df0ae9c7a706","C3","batch3","","1493.6000000014901","stim/no_26_1_w.png","j","pattern_response","true","j","pattern_10","1493.6000000014901","true","57","","","","","","","","","","","","","","","","","","",""
"","","","","","html-keyboard-response","148","271295","0.0-2.0-7.0-0.24","5ef4b8cf1f15df0ae9c7a706","C3","batch3","","null","<p class=block-text>Trial 64 out of 78</p>","null","pattern_show_trial_num","","","","","","","","","","","","","","","","","","","","","","","","",""
"","","","","","image-keyboard-response","149","272437","0.0-2.0-7.0-1.24","5ef4b8cf1f15df0ae9c7a706","C3","batch3","","1139.1000000014901","stim/no_17_1_w.png","j","pattern_response","true","j","pattern_04","1139.1000000014901","true","58","","","","","","","","","","","","","","","","","","",""
"","","","","","html-keyboard-response","150","273761","0.0-2.0-7.0-0.25","5ef4b8cf1f15df0ae9c7a706","C3","batch3","","null","<p class=block-text>Trial 65 out of 78</p>","null","pattern_show_trial_num","","","","","","","","","","","","","","","","","","","","","","","","",""
"","","","","","image-keyboard-response","151","276357","0.0-2.0-7.0-1.25","5ef4b8cf1f15df0ae9c7a706","C3","batch3","","2593.0999999940395","stim/yes_50_dia_w1.png","j","pattern_response","false","f","pattern_71","2593.0999999940395","false","58","","","","","","","","","","","","","","","","","","",""
"","","","","","html-keyboard-response","152","277677","0.0-2.0-7.0-0.26","5ef4b8cf1f15df0ae9c7a706","C3","batch3","","null","<p class=block-text>Trial 66 out of 78</p>","null","pattern_show_trial_num","","","","","","","","","","","","","","","","","","","","","","","","",""
"","","","","","image-keyboard-response","153","280460","0.0-2.0-7.0-1.26","5ef4b8cf1f15df0ae9c7a706","C3","batch3","","2779.2000000029802","stim/no_34_1_b.png","j","pattern_response","true","j","pattern_16","2779.2000000029802","true","59","","","","","","","","","","","","","","","","","","",""
"","","","","","html-keyboard-response","154","281775","0.0-2.0-7.0-0.27","5ef4b8cf1f15df0ae9c7a706","C3","batch3","","null","<p class=block-text>Trial 67 out of 78</p>","null","pattern_show_trial_num","","","","","","","","","","","","","","","","","","","","","","","","",""
"","","","","","image-keyboard-response","155","284481","0.0-2.0-7.0-1.27","5ef4b8cf1f15df0ae9c7a706","C3","batch3","","2702.0999999940395","stim/no_48_1_w.png","j","pattern_response","true","j","pattern_28","2702.0999999940395","true","60","","","","","","","","","","","","","","","","","","",""
"","","","","","html-keyboard-response","156","285807","0.0-2.0-7.0-0.28","5ef4b8cf1f15df0ae9c7a706","C3","batch3","","null","<p class=block-text>Trial 68 out of 78</p>","null","pattern_show_trial_num","","","","","","","","","","","","","","","","","","","","","","","","",""
"","","","","","image-keyboard-response","157","288601","0.0-2.0-7.0-1.28","5ef4b8cf1f15df0ae9c7a706","C3","batch3","","2789.6999999955297","stim/yes_48_dia_w1_w.png","j","pattern_response","false","f","pattern_69","2789.6999999955297","false","60","","","","","","","","","","","","","","","","","","",""
"","","","","","html-keyboard-response","158","289922","0.0-2.0-7.0-0.29","5ef4b8cf1f15df0ae9c7a706","C3","batch3","","null","<p class=block-text>Trial 69 out of 78</p>","null","pattern_show_trial_num","","","","","","","","","","","","","","","","","","","","","","","","",""
"","","","","","image-keyboard-response","159","290880","0.0-2.0-7.0-1.29","5ef4b8cf1f15df0ae9c7a706","C3","batch3","","953.7999999970198","stim/yes_22_ver_w1.png","f","pattern_response","true","f","pattern_47","953.7999999970198","true","61","","","","","","","","","","","","","","","","","","",""
"","","","","","html-keyboard-response","160","292205","0.0-2.0-7.0-0.30","5ef4b8cf1f15df0ae9c7a706","C3","batch3","","null","<p class=block-text>Trial 70 out of 78</p>","null","pattern_show_trial_num","","","","","","","","","","","","","","","","","","","","","","","","",""
"","","","","","image-keyboard-response","161","292904","0.0-2.0-7.0-1.30","5ef4b8cf1f15df0ae9c7a706","C3","batch3","","696","stim/no_13_2_b.png","j","pattern_response","true","j","pattern_02","696","true","62","","","","","","","","","","","","","","","","","","",""
"","","","","","html-keyboard-response","162","294218","0.0-2.0-7.0-0.31","5ef4b8cf1f15df0ae9c7a706","C3","batch3","","null","<p class=block-text>Trial 71 out of 78</p>","null","pattern_show_trial_num","","","","","","","","","","","","","","","","","","","","","","","","",""
"","","","","","image-keyboard-response","163","295715","0.0-2.0-7.0-1.31","5ef4b8cf1f15df0ae9c7a706","C3","batch3","","1494.2999999970198","stim/yes_37_dia_w1.png","f","pattern_response","true","f","pattern_59","1494.2999999970198","true","63","","","","","","","","","","","","","","","","","","",""
"","","","","","html-keyboard-response","164","297036","0.0-2.0-7.0-0.32","5ef4b8cf1f15df0ae9c7a706","C3","batch3","","null","<p class=block-text>Trial 72 out of 78</p>","null","pattern_show_trial_num","","","","","","","","","","","","","","","","","","","","","","","","",""
"","","","","","image-keyboard-response","165","299852","0.0-2.0-7.0-1.32","5ef4b8cf1f15df0ae9c7a706","C3","batch3","","2820.60000000149","stim/no_55_1_w.png","j","pattern_response","true","j","pattern_34","2820.60000000149","true","64","","","","","","","","","","","","","","","","","","",""
"","","","","","html-keyboard-response","166","301178","0.0-2.0-7.0-0.33","5ef4b8cf1f15df0ae9c7a706","C3","batch3","","null","<p class=block-text>Trial 73 out of 78</p>","null","pattern_show_trial_num","","","","","","","","","","","","","","","","","","","","","","","","",""
"","","","","","image-keyboard-response","167","303241","0.0-2.0-7.0-1.33","5ef4b8cf1f15df0ae9c7a706","C3","batch3","","2059.6999999955297","stim/no_29_1_b.png","j","pattern_response","true","j","pattern_12","2059.6999999955297","true","65","","","","","","","","","","","","","","","","","","",""
"","","","","","html-keyboard-response","168","304559","0.0-2.0-7.0-0.34","5ef4b8cf1f15df0ae9c7a706","C3","batch3","","null","<p class=block-text>Trial 74 out of 78</p>","null","pattern_show_trial_num","","","","","","","","","","","","","","","","","","","","","","","","",""
"","","","","","image-keyboard-response","169","307300","0.0-2.0-7.0-1.34","5ef4b8cf1f15df0ae9c7a706","C3","batch3","","2737.5","stim/no_46_1_b.png","j","pattern_response","true","j","pattern_26","2737.5","true","66","","","","","","","","","","","","","","","","","","",""
"","","","","","html-keyboard-response","170","308625","0.0-2.0-7.0-0.35","5ef4b8cf1f15df0ae9c7a706","C3","batch3","","null","<p class=block-text>Trial 75 out of 78</p>","null","pattern_show_trial_num","","","","","","","","","","","","","","","","","","","","","","","","",""
"","","","","","image-keyboard-response","171","309830","0.0-2.0-7.0-1.35","5ef4b8cf1f15df0ae9c7a706","C3","batch3","","1201.5","stim/yes_60_ver_b1_b.png","f","pattern_response","true","f","pattern_77","1201.5","true","67","","","","","","","","","","","","","","","","","","",""
"","","","","","html-keyboard-response","172","311158","0.0-2.0-7.0-0.36","5ef4b8cf1f15df0ae9c7a706","C3","batch3","","null","<p class=block-text>Trial 76 out of 78</p>","null","pattern_show_trial_num","","","","","","","","","","","","","","","","","","","","","","","","",""
"","","","","","image-keyboard-response","173","312777","0.0-2.0-7.0-1.36","5ef4b8cf1f15df0ae9c7a706","C3","batch3","","1617","stim/yes_29_ver_w1.png","f","pattern_response","true","f","pattern_53","1617","true","68","","","","","","","","","","","","","","","","","","",""
"","","","","","html-keyboard-response","174","314106","0.0-2.0-7.0-0.37","5ef4b8cf1f15df0ae9c7a706","C3","batch3","","null","<p class=block-text>Trial 77 out of 78</p>","null","pattern_show_trial_num","","","","","","","","","","","","","","","","","","","","","","","","",""
"","","","","","image-keyboard-response","175","316679","0.0-2.0-7.0-1.37","5ef4b8cf1f15df0ae9c7a706","C3","batch3","","2571.3000000044703","stim/no_70_2.png","j","pattern_response","true","j","pattern_40","2571.3000000044703","true","69","","","","","","","","","","","","","","","","","","",""
"","","","","","html-keyboard-response","176","318005","0.0-2.0-7.0-0.38","5ef4b8cf1f15df0ae9c7a706","C3","batch3","","null","<p class=block-text>Trial 78 out of 78</p>","null","pattern_show_trial_num","","","","","","","","","","","","","","","","","","","","","","","","",""
"","","","","","image-keyboard-response","177","320516","0.0-2.0-7.0-1.38","5ef4b8cf1f15df0ae9c7a706","C3","batch3","","2506.8000000044703","stim/no_52_1.png","j","pattern_response","true","j","pattern_32","2506.8000000044703","true","70","","","","","","","","","","","","","","","","","","",""
"","","","","","html-button-response","178","325029","0.0-2.0-8.0","5ef4b8cf1f15df0ae9c7a706","C3","batch3","","4003.2000000029802","<p class = block-text>This concludes the 4-in-a-row detection game.Thank you for your responses!<br>
            You responded correctly on 90% of the trials.<br>
            When you are ready, press ""Continue"" button to continue </p>","0","","","","","","","","","","","","","","","","","","","","","","","","","",""
"true","","","","","fullscreen","179","466450","0.0-3.0-0.0","5ef4b8cf1f15df0ae9c7a706","C3","batch3","","","","","","","","","","","","","","","","","","","","","","","","","","","","","",""
"","","","","","instructions","180","563030","0.0-3.0-1.0-0.0-0.0","5ef4b8cf1f15df0ae9c7a706","C3","batch3","[{""page_index"":0,""viewing_time"":64008.79999999702},{""page_index"":1,""viewing_time"":8466},{""page_index"":2,""viewing_time"":2829.3000000044703},{""page_index"":3,""viewing_time"":8624.69999999553},{""page_index"":4,""viewing_time"":2066.2000000029802},{""page_index"":5,""viewing_time"":8286.5},{""page_index"":6,""viewing_time"":2296.6999999955297}]","96578.60000000149","","","tol-instructions","","","","","","","","","","","","","","","","","","","","","","","","",""
"","","","","","html-button-response","181","564221","0.0-3.0-1.0-1.0-0.0","5ef4b8cf1f15df0ae9c7a706","C3","batch3","","1189.1999999955297","<p class=block-text> Let's answer a few questions <br>","0","tol_enter_quiz","","","","","","","","","","","","","","","","","","","","","","","","",""
"","","","","","html-button-response","182","566720","0.0-3.0-1.0-1.0-1.0","5ef4b8cf1f15df0ae9c7a706","C3","batch3","","2496.1999999955297","<p class = block-text>True or False: You can only move the ball on top of a peg. <br></p>","0","tol_quiz","true","","","","","","","","","","","","","","","","","","","","","","","",""
"","","","","","html-button-response","183","568086","0.0-3.0-1.0-1.0-2.0","5ef4b8cf1f15df0ae9c7a706","C3","batch3","","1363.5","<p class = block-text>Correct! You can only move the ball on top of a peg.</p>","0","tol_quiz_feedback","","","","","","","","","","","","","","","","","","","","","","","","",""
"","","","","","html-button-response","184","570653","0.0-3.0-1.0-1.0-3.0","5ef4b8cf1f15df0ae9c7a706","C3","batch3","","2565.10000000149","<p class = block-text>True or False: You should try to match your board with the target board with fewest moves possible. <br></p>","0","tol_quiz","true","","","","","","","","","","","","","","","","","","","","","","","",""
"","","","","","html-button-response","185","571604","0.0-3.0-1.0-1.0-4.0","5ef4b8cf1f15df0ae9c7a706","C3","batch3","","948.2999999970198","<p class = block-text>Correct! </p>","0","tol_quiz_feedback","","","","","","","","","","","","","","","","","","","","","","","","",""
"","","","","","html-button-response","186","573118","0.0-3.0-2.0","5ef4b8cf1f15df0ae9c7a706","C3","batch3","","1511.1000000014901","<p class=block-text> Now that you've understood the game, let's practice a few easier examples before we start!<br> <br>","0","","","","","","","","","","","","","","","","","","","","","","","","","",""
"","","","","","single-stim-button","187","577852","0.0-3.0-3.0-0.0","5ef4b8cf1f15df0ae9c7a706","C3","batch3","","4729","","","tol_practice","","","","","","","","","tol_peg_2","4729","4729","0","[[1,2,0],[0,0],[0]]","1","[[1,2,0],[0,0],[3]]","practice","4729","","","","","","","",""
"","","","","","single-stim-button","188","579948","0.0-3.0-3.0-1.0","5ef4b8cf1f15df0ae9c7a706","C3","batch3","","2094","","","tol_practice","","","","","","","","","tol_peg_3","2094","2094","0","[[1,2,0],[0,0],[3]]","1","[[1,2,0],[0,0],[3]]","practice","2094","","","","","","","",""
"","","","","","poldrack-single-stim","189","580961","0.0-3.0-4.0","5ef4b8cf1f15df0ae9c7a706","C3","batch3","","-1","","","tol_feedback","true","","","","","","","","","1000","1000","500","","","","","","-1","none","true","","0","","",""
"","","","","","single-stim-button","190","608785","0.0-3.0-5.0-0.0","5ef4b8cf1f15df0ae9c7a706","C3","batch3","","27822","","","tol_practice","","","","","","","","","tol_peg_1","27822","27822","0","[[1,0,0],[3,0],[0]]","2","[[0,0,0],[3,1],[2]]","practice","27822","","","","","","","",""
"","","","","","single-stim-button","191","610361","0.0-3.0-5.0-1.0","5ef4b8cf1f15df0ae9c7a706","C3","batch3","","1574","","","tol_practice","","","","","","","","","tol_peg_3","1574","1574","0","[[1,0,0],[3,0],[2]]","2","[[0,0,0],[3,1],[2]]","practice","1574","","","","","","","",""
"","","","","","single-stim-button","192","611419","0.0-3.0-5.1-0.1","5ef4b8cf1f15df0ae9c7a706","C3","batch3","","1056","","","tol_practice","","","","","","","","","tol_peg_1","1056","1056","0","[[0,0,0],[3,0],[2]]","3","[[0,0,0],[3,1],[2]]","practice","1056","","","","","","","",""
"","","","","","single-stim-button","193","612218","0.0-3.0-5.1-1.1","5ef4b8cf1f15df0ae9c7a706","C3","batch3","","797","","","tol_practice","","","","","","","","","tol_peg_2","797","797","0","[[0,0,0],[3,1],[2]]","3","[[0,0,0],[3,1],[2]]","practice","797","","","","","","","",""
"","","","","","poldrack-single-stim","194","613222","0.0-3.0-6.0","5ef4b8cf1f15df0ae9c7a706","C3","batch3","","-1","","","tol_feedback","true","","","","","","","","","1000","1000","500","","","","","","-1","none","true","","0","","",""
"","","","","","single-stim-button","195","615810","0.0-3.0-7.0-0.0","5ef4b8cf1f15df0ae9c7a706","C3","batch3","","2588","","","tol_practice","","","","","","","","","tol_peg_2","2588","2588","0","[[1,2,0],[0,0],[0]]","4","[[1,0,0],[2,0],[3]]","practice","2588","","","","","","","",""
"","","","","","single-stim-button","196","616373","0.0-3.0-7.0-1.0","5ef4b8cf1f15df0ae9c7a706","C3","batch3","","560","","","tol_practice","","","","","","","","","tol_peg_2","560","560","0","[[1,2,0],[3,0],[0]]","4","[[1,0,0],[2,0],[3]]","practice","560","","","","","","","",""
"","","","","","single-stim-button","197","617287","0.0-3.0-7.1-0.1","5ef4b8cf1f15df0ae9c7a706","C3","batch3","","912","","","tol_practice","","","","","","","","","tol_peg_2","912","912","0","[[1,2,0],[0,0],[0]]","5","[[1,0,0],[2,0],[3]]","practice","912","","","","","","","",""
"","","","","","single-stim-button","198","617394","0.0-3.0-7.1-1.1","5ef4b8cf1f15df0ae9c7a706","C3","batch3","","106","","","tol_practice","","","","","","","","","tol_peg_2","106","106","0","[[1,2,0],[3,0],[0]]","5","[[1,0,0],[2,0],[3]]","practice","106","","","","","","","",""
"","","","","","single-stim-button","199","620303","0.0-3.0-7.2-0.2","5ef4b8cf1f15df0ae9c7a706","C3","batch3","","2906","","","tol_practice","","","","","","","","","tol_peg_2","2906","2906","0","[[1,2,0],[0,0],[0]]","6","[[1,0,0],[2,0],[3]]","practice","2906","","","","","","","",""
"","","","","","single-stim-button","200","621195","0.0-3.0-7.2-1.2","5ef4b8cf1f15df0ae9c7a706","C3","batch3","","890","","","tol_practice","","","","","","","","","tol_peg_3","890","890","0","[[1,2,0],[0,0],[3]]","6","[[1,0,0],[2,0],[3]]","practice","890","","","","","","","",""
"","","","","","single-stim-button","201","622318","0.0-3.0-7.3-0.3","5ef4b8cf1f15df0ae9c7a706","C3","batch3","","1121","","","tol_practice","","","","","","","","","tol_peg_1","1121","1121","0","[[1,0,0],[0,0],[3]]","7","[[1,0,0],[2,0],[3]]","practice","1121","","","","","","","",""
"","","","","","single-stim-button","202","623283","0.0-3.0-7.3-1.3","5ef4b8cf1f15df0ae9c7a706","C3","batch3","","963","","","tol_practice","","","","","","","","","tol_peg_2","963","963","0","[[1,0,0],[2,0],[3]]","7","[[1,0,0],[2,0],[3]]","practice","963","","","","","","","",""
"","","","","","poldrack-single-stim","203","624287","0.0-3.0-8.0","5ef4b8cf1f15df0ae9c7a706","C3","batch3","","-1","","","tol_feedback","true","","","","","","","","","1000","1000","500","","","","","","-1","none","true","","0","","",""
"","","","","","html-button-response","204","625882","0.0-3.0-9.0","5ef4b8cf1f15df0ae9c7a706","C3","batch3","","1593.5","<div class = centerbox><p class = center-block-text>Great job! You are done with practice trials<br>You are about to start official trials.<br> <br> Problem <strong>1</strong> out of 25 problems</p></div>","0","tol_instruction","","","","","","","","","","","","","","","","","","","","","","","","",""
"","","","","","single-stim-button","205","634212","0.0-3.0-10.0-0.0","5ef4b8cf1f15df0ae9c7a706","C3","batch3","","7327","","","tol_tohand","","","","","","","","","tol_peg_2","7327","7327","0","[[1,2,0],[0,0],[0]]","1","[[1,3,0],[2,0],[0]]","0","0","","","","","","3","",""
"","","","","","single-stim-button","206","635306","0.0-3.0-10.0-1.0","5ef4b8cf1f15df0ae9c7a706","C3","batch3","","1092","","","tol_toboard","","","","","","","","","tol_peg_3","1092","1092","0","[[1,2,0],[0,0],[3]]","1","[[1,3,0],[2,0],[0]]","0","0","","","","","","3","",""
"","","","","","single-stim-button","207","636170","0.0-3.0-10.1-0.1","5ef4b8cf1f15df0ae9c7a706","C3","batch3","","861","","","tol_tohand","","","","","","","","","tol_peg_1","861","861","0","[[1,0,0],[0,0],[3]]","2","[[1,3,0],[2,0],[0]]","0","0","","","","","","3","",""
"","","","","","single-stim-button","208","636998","0.0-3.0-10.1-1.1","5ef4b8cf1f15df0ae9c7a706","C3","batch3","","826","","","tol_toboard","","","","","","","","","tol_peg_2","826","826","0","[[1,0,0],[2,0],[3]]","2","[[1,3,0],[2,0],[0]]","0","0","","","","","","3","",""
"","","","","","single-stim-button","209","637962","0.0-3.0-10.2-0.2","5ef4b8cf1f15df0ae9c7a706","C3","batch3","","962","","","tol_tohand","","","","","","","","","tol_peg_3","962","962","0","[[1,0,0],[2,0],[0]]","3","[[1,3,0],[2,0],[0]]","0","0","","","","","","3","",""
"","","","","","single-stim-button","210","638855","0.0-3.0-10.2-1.2","5ef4b8cf1f15df0ae9c7a706","C3","batch3","","891","","","tol_toboard","","","","","","","","","tol_peg_1","891","891","0","[[1,3,0],[2,0],[0]]","3","[[1,3,0],[2,0],[0]]","0","0","","","","","","3","",""
"","","","","","poldrack-single-stim","211","639860","0.0-3.0-11.0","5ef4b8cf1f15df0ae9c7a706","C3","batch3","","-1","","","tol_feedback","true","","","","","","","","","1000","1000","500","","","","","","-1","none","true","7327","9150","","",""
"","","","","","html-button-response","212","640921","0.0-3.0-12.0","5ef4b8cf1f15df0ae9c7a706","C3","batch3","","1059.6000000014901","<div class = centerbox><p class = center-block-text>problem <strong>2</strong> out of 25 problems</p></div>","0","tol_trial_num","","","","","","","","","","","","","","","","","","","","","","","","",""
"","","","","","single-stim-button","213","645694","0.0-3.0-13.0-0.0","5ef4b8cf1f15df0ae9c7a706","C3","batch3","","4771","","","tol_tohand","","","","","","","","","tol_peg_1","4771","4771","0","[[1,0,0],[3,0],[0]]","1","[[2,1,3],[0,0],[0]]","1","0","","","","","","5","",""
"","","","","","single-stim-button","214","648394","0.0-3.0-13.0-1.0","5ef4b8cf1f15df0ae9c7a706","C3","batch3","","2697","","","tol_toboard","","","","","","","","","tol_peg_3","2697","2697","0","[[1,0,0],[3,0],[2]]","1","[[2,1,3],[0,0],[0]]","1","0","","","","","","5","",""
"","","","","","single-stim-button","215","652375","0.0-3.0-13.1-0.1","5ef4b8cf1f15df0ae9c7a706","C3","batch3","","3978","","","tol_tohand","","","","","","","","","tol_peg_1","3978","3978","0","[[0,0,0],[3,0],[2]]","2","[[2,1,3],[0,0],[0]]","1","0","","","","","","5","",""
"","","","","","single-stim-button","216","652706","0.0-3.0-13.1-1.1","5ef4b8cf1f15df0ae9c7a706","C3","batch3","","329","","","tol_toboard","","","","","","","","","tol_peg_1","329","329","0","[[1,0,0],[3,0],[2]]","2","[[2,1,3],[0,0],[0]]","1","0","","","","","","5","",""
"","","","","","single-stim-button","217","652916","0.0-3.0-13.2-0.2","5ef4b8cf1f15df0ae9c7a706","C3","batch3","","208","","","tol_tohand","","","","","","","","","tol_peg_1","208","208","0","[[0,0,0],[3,0],[2]]","3","[[2,1,3],[0,0],[0]]","1","0","","","","","","5","",""
"","","","","","single-stim-button","218","653887","0.0-3.0-13.2-1.2","5ef4b8cf1f15df0ae9c7a706","C3","batch3","","969","","","tol_toboard","","","","","","","","","tol_peg_2","969","969","0","[[0,0,0],[3,1],[2]]","3","[[2,1,3],[0,0],[0]]","1","0","","","","","","5","",""
"","","","","","single-stim-button","219","654917","0.0-3.0-13.3-0.3","5ef4b8cf1f15df0ae9c7a706","C3","batch3","","1027","","","tol_tohand","","","","","","","","","tol_peg_3","1027","1027","0","[[0,0,0],[3,1],[0]]","4","[[2,1,3],[0,0],[0]]","1","0","","","","","","5","",""
"","","","","","single-stim-button","220","656025","0.0-3.0-13.3-1.3","5ef4b8cf1f15df0ae9c7a706","C3","batch3","","1106","","","tol_toboard","","","","","","","","","tol_peg_1","1106","1106","0","[[2,0,0],[3,1],[0]]","4","[[2,1,3],[0,0],[0]]","1","0","","","","","","5","",""
"","","","","","single-stim-button","221","656810","0.0-3.0-13.4-0.4","5ef4b8cf1f15df0ae9c7a706","C3","batch3","","783","","","tol_tohand","","","","","","","","","tol_peg_2","783","783","0","[[2,0,0],[3,0],[0]]","5","[[2,1,3],[0,0],[0]]","1","0","","","","","","5","",""
"","","","","","single-stim-button","222","657768","0.0-3.0-13.4-1.4","5ef4b8cf1f15df0ae9c7a706","C3","batch3","","956","","","tol_toboard","","","","","","","","","tol_peg_1","956","956","0","[[2,1,0],[3,0],[0]]","5","[[2,1,3],[0,0],[0]]","1","0","","","","","","5","",""
"","","","","","single-stim-button","223","658582","0.0-3.0-13.5-0.5","5ef4b8cf1f15df0ae9c7a706","C3","batch3","","812","","","tol_tohand","","","","","","","","","tol_peg_2","812","812","0","[[2,1,0],[0,0],[0]]","6","[[2,1,3],[0,0],[0]]","1","0","","","","","","5","",""
"","","","","","single-stim-button","224","659690","0.0-3.0-13.5-1.5","5ef4b8cf1f15df0ae9c7a706","C3","batch3","","1106","","","tol_toboard","","","","","","","","","tol_peg_1","1106","1106","0","[[2,1,3],[0,0],[0]]","6","[[2,1,3],[0,0],[0]]","1","0","","","","","","5","",""
"","","","","","poldrack-single-stim","225","660701","0.0-3.0-14.0","5ef4b8cf1f15df0ae9c7a706","C3","batch3","","-1","","","tol_feedback","true","","","","","","","","","1000","1000","500","","","","","","-1","none","true","4771","11579","","",""
"","","","","","html-button-response","226","661516","0.0-3.0-15.0","5ef4b8cf1f15df0ae9c7a706","C3","batch3","","813.9000000059605","<div class = centerbox><p class = center-block-text>problem <strong>3</strong> out of 25 problems</p></div>","0","tol_trial_num","","","","","","","","","","","","","","","","","","","","","","","","",""
"","","","","","single-stim-button","227","663880","0.0-3.0-16.0-0.0","5ef4b8cf1f15df0ae9c7a706","C3","batch3","","2363","","","tol_tohand","","","","","","","","","tol_peg_1","2363","2363","0","[[2,0,0],[0,0],[1]]","1","[[1,2,0],[3,0],[0]]","2","0","","","","","","4","",""
"","","","","","single-stim-button","228","665263","0.0-3.0-16.0-1.0","5ef4b8cf1f15df0ae9c7a706","C3","batch3","","1381","","","tol_toboard","","","","","","","","","tol_peg_2","1381","1381","0","[[2,0,0],[3,0],[1]]","1","[[1,2,0],[3,0],[0]]","2","0","","","","","","4","",""
"","","","","","single-stim-button","229","666371","0.0-3.0-16.1-0.1","5ef4b8cf1f15df0ae9c7a706","C3","batch3","","1107","","","tol_tohand","","","","","","","","","tol_peg_1","1107","1107","0","[[0,0,0],[3,0],[1]]","2","[[1,2,0],[3,0],[0]]","2","0","","","","","","4","",""
"","","","","","single-stim-button","230","667732","0.0-3.0-16.1-1.1","5ef4b8cf1f15df0ae9c7a706","C3","batch3","","1359","","","tol_toboard","","","","","","","","","tol_peg_2","1359","1359","0","[[0,0,0],[3,2],[1]]","2","[[1,2,0],[3,0],[0]]","2","0","","","","","","4","",""
"","","","","","single-stim-button","231","668445","0.0-3.0-16.2-0.2","5ef4b8cf1f15df0ae9c7a706","C3","batch3","","711","","","tol_tohand","","","","","","","","","tol_peg_3","711","711","0","[[0,0,0],[3,2],[0]]","3","[[1,2,0],[3,0],[0]]","2","0","","","","","","4","",""
"","","","","","single-stim-button","232","669589","0.0-3.0-16.2-1.2","5ef4b8cf1f15df0ae9c7a706","C3","batch3","","1143","","","tol_toboard","","","","","","","","","tol_peg_1","1143","1143","0","[[1,0,0],[3,2],[0]]","3","[[1,2,0],[3,0],[0]]","2","0","","","","","","4","",""
"","","","","","single-stim-button","233","670885","0.0-3.0-16.3-0.3","5ef4b8cf1f15df0ae9c7a706","C3","batch3","","1294","","","tol_tohand","","","","","","","","","tol_peg_2","1294","1294","0","[[1,0,0],[3,0],[0]]","4","[[1,2,0],[3,0],[0]]","2","0","","","","","","4","",""
"","","","","","single-stim-button","234","671627","0.0-3.0-16.3-1.3","5ef4b8cf1f15df0ae9c7a706","C3","batch3","","740","","","tol_toboard","","","","","","","","","tol_peg_1","740","740","0","[[1,2,0],[3,0],[0]]","4","[[1,2,0],[3,0],[0]]","2","0","","","","","","4","",""
"","","","","","poldrack-single-stim","235","672631","0.0-3.0-17.0","5ef4b8cf1f15df0ae9c7a706","C3","batch3","","-1","","","tol_feedback","true","","","","","","","","","1000","1000","500","","","","","","-1","none","true","2363","5475","","",""
"","","","","","html-button-response","236","673743","0.0-3.0-18.0","5ef4b8cf1f15df0ae9c7a706","C3","batch3","","1110.0999999940395","<div class = centerbox><p class = center-block-text>problem <strong>4</strong> out of 25 problems</p></div>","0","tol_trial_num","","","","","","","","","","","","","","","","","","","","","","","","",""
"","","","","","single-stim-button","237","679186","0.0-3.0-19.0-0.0","5ef4b8cf1f15df0ae9c7a706","C3","batch3","","5441","","","tol_tohand","","","","","","","","","tol_peg_2","5441","5441","0","[[3,0,0],[2,0],[0]]","1","[[3,0,0],[1,0],[2]]","3","0","","","","","","3","",""
"","","","","","single-stim-button","238","680425","0.0-3.0-19.0-1.0","5ef4b8cf1f15df0ae9c7a706","C3","batch3","","1236","","","tol_toboard","","","","","","","","","tol_peg_3","1236","1236","0","[[3,0,0],[2,0],[1]]","1","[[3,0,0],[1,0],[2]]","3","0","","","","","","3","",""
"","","","","","single-stim-button","239","681166","0.0-3.0-19.1-0.1","5ef4b8cf1f15df0ae9c7a706","C3","batch3","","739","","","tol_tohand","","","","","","","","","tol_peg_2","739","739","0","[[3,0,0],[0,0],[1]]","2","[[3,0,0],[1,0],[2]]","3","0","","","","","","3","",""
"","","","","","single-stim-button","240","682095","0.0-3.0-19.1-1.1","5ef4b8cf1f15df0ae9c7a706","C3","batch3","","927","","","tol_toboard","","","","","","","","","tol_peg_1","927","927","0","[[3,2,0],[0,0],[1]]","2","[[3,0,0],[1,0],[2]]","3","0","","","","","","3","",""
"","","","","","single-stim-button","241","683240","0.0-3.0-19.2-0.2","5ef4b8cf1f15df0ae9c7a706","C3","batch3","","1143","","","tol_tohand","","","","","","","","","tol_peg_3","1143","1143","0","[[3,2,0],[0,0],[0]]","3","[[3,0,0],[1,0],[2]]","3","0","","","","","","3","",""
"","","","","","single-stim-button","242","684211","0.0-3.0-19.2-1.2","5ef4b8cf1f15df0ae9c7a706","C3","batch3","","969","","","tol_toboard","","","","","","","","","tol_peg_2","969","969","0","[[3,2,0],[1,0],[0]]","3","[[3,0,0],[1,0],[2]]","3","0","","","","","","3","",""
"","","","","","single-stim-button","243","684929","0.0-3.0-19.3-0.3","5ef4b8cf1f15df0ae9c7a706","C3","batch3","","717","","","tol_tohand","","","","","","","","","tol_peg_1","717","717","0","[[3,0,0],[1,0],[0]]","4","[[3,0,0],[1,0],[2]]","3","0","","","","","","3","",""
"","","","","","single-stim-button","244","686314","0.0-3.0-19.3-1.3","5ef4b8cf1f15df0ae9c7a706","C3","batch3","","1384","","","tol_toboard","","","","","","","","","tol_peg_3","1384","1384","0","[[3,0,0],[1,0],[2]]","4","[[3,0,0],[1,0],[2]]","3","0","","","","","","3","",""
"","","","","","poldrack-single-stim","245","687317","0.0-3.0-20.0","5ef4b8cf1f15df0ae9c7a706","C3","batch3","","-1","","","tol_feedback","true","","","","","","","","","1000","1000","500","","","","","","-1","none","true","5441","8040","","",""
"","","","","","html-button-response","246","688336","0.0-3.0-21.0","5ef4b8cf1f15df0ae9c7a706","C3","batch3","","1017.8999999985099","<div class = centerbox><p class = center-block-text>problem <strong>5</strong> out of 25 problems</p></div>","0","tol_trial_num","","","","","","","","","","","","","","","","","","","","","","","","",""
"","","","","","single-stim-button","247","697529","0.0-3.0-22.0-0.0","5ef4b8cf1f15df0ae9c7a706","C3","batch3","","9191","","","tol_tohand","","","","","","","","","tol_peg_3","9191","9191","0","[[1,0,0],[2,0],[0]]","1","[[0,0,0],[1,2],[3]]","4","0","","","","","","7","",""
"","","","","","single-stim-button","248","702770","0.0-3.0-22.0-1.0","5ef4b8cf1f15df0ae9c7a706","C3","batch3","","5240","","","tol_toboard","","","","","","","","","tol_peg_2","5240","5240","0","[[1,0,0],[2,3],[0]]","1","[[0,0,0],[1,2],[3]]","4","0","","","","","","7","",""
"","","","","","single-stim-button","249","703489","0.0-3.0-22.1-0.1","5ef4b8cf1f15df0ae9c7a706","C3","batch3","","718","","","tol_tohand","","","","","","","","","tol_peg_1","718","718","0","[[0,0,0],[2,3],[0]]","2","[[0,0,0],[1,2],[3]]","4","0","","","","","","7","",""
"","","","","","single-stim-button","250","704694","0.0-3.0-22.1-1.1","5ef4b8cf1f15df0ae9c7a706","C3","batch3","","1203","","","tol_toboard","","","","","","","","","tol_peg_3","1203","1203","0","[[0,0,0],[2,3],[1]]","2","[[0,0,0],[1,2],[3]]","4","0","","","","","","7","",""
"","","","","","single-stim-button","251","705932","0.0-3.0-22.2-0.2","5ef4b8cf1f15df0ae9c7a706","C3","batch3","","1234","","","tol_tohand","","","","","","","","","tol_peg_2","1234","1234","0","[[0,0,0],[2,0],[1]]","3","[[0,0,0],[1,2],[3]]","4","0","","","","","","7","",""
"","","","","","single-stim-button","252","706926","0.0-3.0-22.2-1.2","5ef4b8cf1f15df0ae9c7a706","C3","batch3","","991","","","tol_toboard","","","","","","","","","tol_peg_1","991","991","0","[[3,0,0],[2,0],[1]]","3","[[0,0,0],[1,2],[3]]","4","0","","","","","","7","",""
"","","","","","single-stim-button","253","709835","0.0-3.0-22.3-0.3","5ef4b8cf1f15df0ae9c7a706","C3","batch3","","2906","","","tol_tohand","","","","","","","","","tol_peg_2","2906","2906","0","[[3,0,0],[0,0],[1]]","4","[[0,0,0],[1,2],[3]]","4","0","","","","","","7","",""
"","","","","","single-stim-button","254","710663","0.0-3.0-22.3-1.3","5ef4b8cf1f15df0ae9c7a706","C3","batch3","","826","","","tol_toboard","","","","","","","","","tol_peg_1","826","826","0","[[3,2,0],[0,0],[1]]","4","[[0,0,0],[1,2],[3]]","4","0","","","","","","7","",""
"","","","","","single-stim-button","255","711425","0.0-3.0-22.4-0.4","5ef4b8cf1f15df0ae9c7a706","C3","batch3","","761","","","tol_tohand","","","","","","","","","tol_peg_3","761","761","0","[[3,2,0],[0,0],[0]]","5","[[0,0,0],[1,2],[3]]","4","0","","","","","","7","",""
"","","","","","single-stim-button","256","712354","0.0-3.0-22.4-1.4","5ef4b8cf1f15df0ae9c7a706","C3","batch3","","926","","","tol_toboard","","","","","","","","","tol_peg_2","926","926","0","[[3,2,0],[1,0],[0]]","5","[[0,0,0],[1,2],[3]]","4","0","","","","","","7","",""
"","","","","","single-stim-button","257","713060","0.0-3.0-22.5-0.5","5ef4b8cf1f15df0ae9c7a706","C3","batch3","","704","","","tol_tohand","","","","","","","","","tol_peg_1","704","704","0","[[3,0,0],[1,0],[0]]","6","[[0,0,0],[1,2],[3]]","4","0","","","","","","7","",""
"","","","","","single-stim-button","258","714197","0.0-3.0-22.5-1.5","5ef4b8cf1f15df0ae9c7a706","C3","batch3","","1136","","","tol_toboard","","","","","","","","","tol_peg_2","1136","1136","0","[[3,0,0],[1,2],[0]]","6","[[0,0,0],[1,2],[3]]","4","0","","","","","","7","",""
"","","","","","single-stim-button","259","714938","0.0-3.0-22.6-0.6","5ef4b8cf1f15df0ae9c7a706","C3","batch3","","739","","","tol_tohand","","","","","","","","","tol_peg_1","739","739","0","[[0,0,0],[1,2],[0]]","7","[[0,0,0],[1,2],[3]]","4","0","","","","","","7","",""
"","","","","","single-stim-button","260","715760","0.0-3.0-22.6-1.6","5ef4b8cf1f15df0ae9c7a706","C3","batch3","","820","","","tol_toboard","","","","","","","","","tol_peg_3","820","820","0","[[0,0,0],[1,2],[3]]","7","[[0,0,0],[1,2],[3]]","4","0","","","","","","7","",""
"","","","","","poldrack-single-stim","261","716762","0.0-3.0-23.0","5ef4b8cf1f15df0ae9c7a706","C3","batch3","","-1","","","tol_feedback","true","","","","","","","","","1000","1000","500","","","","","","-1","none","true","9191","16253","","",""
"","","","","","html-button-response","262","717717","0.0-3.0-24.0","5ef4b8cf1f15df0ae9c7a706","C3","batch3","","953.2999999970198","<div class = centerbox><p class = center-block-text>problem <strong>6</strong> out of 25 problems</p></div>","0","tol_trial_num","","","","","","","","","","","","","","","","","","","","","","","","",""
"","","","","","single-stim-button","263","726003","0.0-3.0-25.0-0.0","5ef4b8cf1f15df0ae9c7a706","C3","batch3","","8283","","","tol_tohand","","","","","","","","","tol_peg_3","8283","8283","0","[[0,0,0],[1,2],[0]]","1","[[1,0,0],[2,3],[0]]","5","0","","","","","","6","",""
"","","","","","single-stim-button","264","727315","0.0-3.0-25.0-1.0","5ef4b8cf1f15df0ae9c7a706","C3","batch3","","1311","","","tol_toboard","","","","","","","","","tol_peg_1","1311","1311","0","[[3,0,0],[1,2],[0]]","1","[[1,0,0],[2,3],[0]]","5","0","","","","","","6","",""
"","","","","","single-stim-button","265","728071","0.0-3.0-25.1-0.1","5ef4b8cf1f15df0ae9c7a706","C3","batch3","","753","","","tol_tohand","","","","","","","","","tol_peg_2","753","753","0","[[3,0,0],[1,0],[0]]","2","[[1,0,0],[2,3],[0]]","5","0","","","","","","6","",""
"","","","","","single-stim-button","266","728978","0.0-3.0-25.1-1.1","5ef4b8cf1f15df0ae9c7a706","C3","batch3","","905","","","tol_toboard","","","","","","","","","tol_peg_3","905","905","0","[[3,0,0],[1,0],[2]]","2","[[1,0,0],[2,3],[0]]","5","0","","","","","","6","",""
"","","","","","single-stim-button","267","737530","0.0-3.0-25.2-0.2","5ef4b8cf1f15df0ae9c7a706","C3","batch3","","8550","","","tol_tohand","","","","","","","","","tol_peg_1","8550","8550","0","[[0,0,0],[1,0],[2]]","3","[[1,0,0],[2,3],[0]]","5","0","","","","","","6","",""
"","","","","","single-stim-button","268","740475","0.0-3.0-25.2-1.2","5ef4b8cf1f15df0ae9c7a706","C3","batch3","","2944","","","tol_toboard","","","","","","","","","tol_peg_2","2944","2944","0","[[0,0,0],[1,3],[2]]","3","[[1,0,0],[2,3],[0]]","5","0","","","","","","6","",""
"","","","","","single-stim-button","269","741266","0.0-3.0-25.3-0.3","5ef4b8cf1f15df0ae9c7a706","C3","batch3","","791","","","tol_tohand","","","","","","","","","tol_peg_3","791","791","0","[[0,0,0],[1,3],[0]]","4","[[1,0,0],[2,3],[0]]","5","0","","","","","","6","",""
"","","","","","single-stim-button","270","742312","0.0-3.0-25.3-1.3","5ef4b8cf1f15df0ae9c7a706","C3","batch3","","1045","","","tol_toboard","","","","","","","","","tol_peg_1","1045","1045","0","[[2,0,0],[1,3],[0]]","4","[[1,0,0],[2,3],[0]]","5","0","","","","","","6","",""
"","","","","","single-stim-button","271","743658","0.0-3.0-25.4-0.4","5ef4b8cf1f15df0ae9c7a706","C3","batch3","","1345","","","tol_tohand","","","","","","","","","tol_peg_2","1345","1345","0","[[2,0,0],[1,0],[0]]","5","[[1,0,0],[2,3],[0]]","5","0","","","","","","6","",""
"","","","","","single-stim-button","272","746077","0.0-3.0-25.4-1.4","5ef4b8cf1f15df0ae9c7a706","C3","batch3","","2417","","","tol_toboard","","","","","","","","","tol_peg_1","2417","2417","0","[[2,3,0],[1,0],[0]]","5","[[1,0,0],[2,3],[0]]","5","0","","","","","","6","",""
"","","","","","single-stim-button","273","746898","0.0-3.0-25.5-0.5","5ef4b8cf1f15df0ae9c7a706","C3","batch3","","818","","","tol_tohand","","","","","","","","","tol_peg_2","818","818","0","[[2,3,0],[0,0],[0]]","6","[[1,0,0],[2,3],[0]]","5","0","","","","","","6","",""
"","","","","","single-stim-button","274","747661","0.0-3.0-25.5-1.5","5ef4b8cf1f15df0ae9c7a706","C3","batch3","","761","","","tol_toboard","","","","","","","","","tol_peg_3","761","761","0","[[2,3,0],[0,0],[1]]","6","[[1,0,0],[2,3],[0]]","5","0","","","","","","6","",""
"","","","","","single-stim-button","275","749195","0.0-3.0-25.6-0.6","5ef4b8cf1f15df0ae9c7a706","C3","batch3","","1532","","","tol_tohand","","","","","","","","","tol_peg_1","1532","1532","0","[[2,0,0],[0,0],[1]]","7","[[1,0,0],[2,3],[0]]","5","0","","","","","","6","",""
"","","","","","single-stim-button","276","751966","0.0-3.0-25.6-1.6","5ef4b8cf1f15df0ae9c7a706","C3","batch3","","2769","","","tol_toboard","","","","","","","","","tol_peg_2","2769","2769","0","[[2,0,0],[3,0],[1]]","7","[[1,0,0],[2,3],[0]]","5","0","","","","","","6","",""
"","","","","","single-stim-button","277","752679","0.0-3.0-25.7-0.7","5ef4b8cf1f15df0ae9c7a706","C3","batch3","","710","","","tol_tohand","","","","","","","","","tol_peg_1","710","710","0","[[0,0,0],[3,0],[1]]","8","[[1,0,0],[2,3],[0]]","5","0","","","","","","6","",""
"","","","","","single-stim-button","278","753377","0.0-3.0-25.7-1.7","5ef4b8cf1f15df0ae9c7a706","C3","batch3","","696","","","tol_toboard","","","","","","","","","tol_peg_2","696","696","0","[[0,0,0],[3,2],[1]]","8","[[1,0,0],[2,3],[0]]","5","0","","","","","","6","",""
"","","","","","single-stim-button","279","754025","0.0-3.0-25.8-0.8","5ef4b8cf1f15df0ae9c7a706","C3","batch3","","646","","","tol_tohand","","","","","","","","","tol_peg_3","646","646","0","[[0,0,0],[3,2],[0]]","9","[[1,0,0],[2,3],[0]]","5","0","","","","","","6","",""
"","","","","","single-stim-button","280","754911","0.0-3.0-25.8-1.8","5ef4b8cf1f15df0ae9c7a706","C3","batch3","","884","","","tol_toboard","","","","","","","","","tol_peg_1","884","884","0","[[1,0,0],[3,2],[0]]","9","[[1,0,0],[2,3],[0]]","5","0","","","","","","6","",""
"","","","","","single-stim-button","281","755674","0.0-3.0-25.9-0.9","5ef4b8cf1f15df0ae9c7a706","C3","batch3","","761","","","tol_tohand","","","","","","","","","tol_peg_2","761","761","0","[[1,0,0],[3,0],[0]]","10","[[1,0,0],[2,3],[0]]","5","0","","","","","","6","",""
"","","","","","single-stim-button","282","756480","0.0-3.0-25.9-1.9","5ef4b8cf1f15df0ae9c7a706","C3","batch3","","804","","","tol_toboard","","","","","","","","","tol_peg_3","804","804","0","[[1,0,0],[3,0],[2]]","10","[[1,0,0],[2,3],[0]]","5","0","","","","","","6","",""
"","","","","","single-stim-button","283","757258","0.0-3.0-25.10-0.10","5ef4b8cf1f15df0ae9c7a706","C3","batch3","","775","","","tol_tohand","","","","","","","","","tol_peg_2","775","775","0","[[1,0,0],[0,0],[2]]","11","[[1,0,0],[2,3],[0]]","5","0","","","","","","6","",""
"","","","","","single-stim-button","284","757985","0.0-3.0-25.10-1.10","5ef4b8cf1f15df0ae9c7a706","C3","batch3","","725","","","tol_toboard","","","","","","","","","tol_peg_1","725","725","0","[[1,3,0],[0,0],[2]]","11","[[1,0,0],[2,3],[0]]","5","0","","","","","","6","",""
"","","","","","single-stim-button","285","758645","0.0-3.0-25.11-0.11","5ef4b8cf1f15df0ae9c7a706","C3","batch3","","659","","","tol_tohand","","","","","","","","","tol_peg_3","659","659","0","[[1,3,0],[0,0],[0]]","12","[[1,0,0],[2,3],[0]]","5","0","","","","","","6","",""
"","","","","","single-stim-button","286","759453","0.0-3.0-25.11-1.11","5ef4b8cf1f15df0ae9c7a706","C3","batch3","","808","","","tol_toboard","","","","","","","","","tol_peg_2","808","808","0","[[1,3,0],[2,0],[0]]","12","[[1,0,0],[2,3],[0]]","5","0","","","","","","6","",""
"","","","","","single-stim-button","287","760108","0.0-3.0-25.12-0.12","5ef4b8cf1f15df0ae9c7a706","C3","batch3","","653","","","tol_tohand","","","","","","","","","tol_peg_1","653","653","0","[[1,0,0],[2,0],[0]]","13","[[1,0,0],[2,3],[0]]","5","0","","","","","","6","",""
"","","","","","single-stim-button","288","761203","0.0-3.0-25.12-1.12","5ef4b8cf1f15df0ae9c7a706","C3","batch3","","1093","","","tol_toboard","","","","","","","","","tol_peg_2","1093","1093","0","[[1,0,0],[2,3],[0]]","13","[[1,0,0],[2,3],[0]]","5","0","","","","","","6","",""
"","","","","","poldrack-single-stim","289","762206","0.0-3.0-26.0","5ef4b8cf1f15df0ae9c7a706","C3","batch3","","-1","","","tol_feedback","true","","","","","","","","","1000","1000","500","","","","","","-1","none","true","8283","26276","","",""
"","","","","","html-button-response","290","763211","0.0-3.0-27.0","5ef4b8cf1f15df0ae9c7a706","C3","batch3","","1002.5","<div class = centerbox><p class = center-block-text>problem <strong>7</strong> out of 25 problems</p></div>","0","tol_trial_num","","","","","","","","","","","","","","","","","","","","","","","","",""
"","","","","","single-stim-button","291","768827","0.0-3.0-28.0-0.0","5ef4b8cf1f15df0ae9c7a706","C3","batch3","","5614","","","tol_tohand","","","","","","","","","tol_peg_1","5614","5614","0","[[2,0,0],[0,0],[3]]","1","[[1,2,0],[3,0],[0]]","6","0","","","","","","5","",""
"","","","","","single-stim-button","292","770554","0.0-3.0-28.0-1.0","5ef4b8cf1f15df0ae9c7a706","C3","batch3","","1725","","","tol_toboard","","","","","","","","","tol_peg_2","1725","1725","0","[[2,0,0],[1,0],[3]]","1","[[1,2,0],[3,0],[0]]","6","0","","","","","","5","",""
"","","","","","single-stim-button","293","771440","0.0-3.0-28.1-0.1","5ef4b8cf1f15df0ae9c7a706","C3","batch3","","883","","","tol_tohand","","","","","","","","","tol_peg_1","883","883","0","[[0,0,0],[1,0],[3]]","2","[[1,2,0],[3,0],[0]]","6","0","","","","","","5","",""
"","","","","","single-stim-button","294","772354","0.0-3.0-28.1-1.1","5ef4b8cf1f15df0ae9c7a706","C3","batch3","","912","","","tol_toboard","","","","","","","","","tol_peg_2","912","912","0","[[0,0,0],[1,2],[3]]","2","[[1,2,0],[3,0],[0]]","6","0","","","","","","5","",""
"","","","","","single-stim-button","295","773319","0.0-3.0-28.2-0.2","5ef4b8cf1f15df0ae9c7a706","C3","batch3","","963","","","tol_tohand","","","","","","","","","tol_peg_3","963","963","0","[[0,0,0],[1,2],[0]]","3","[[1,2,0],[3,0],[0]]","6","0","","","","","","5","",""
"","","","","","single-stim-button","296","774600","0.0-3.0-28.2-1.2","5ef4b8cf1f15df0ae9c7a706","C3","batch3","","1279","","","tol_toboard","","","","","","","","","tol_peg_1","1279","1279","0","[[3,0,0],[1,2],[0]]","3","[[1,2,0],[3,0],[0]]","6","0","","","","","","5","",""
"","","","","","single-stim-button","297","775457","0.0-3.0-28.3-0.3","5ef4b8cf1f15df0ae9c7a706","C3","batch3","","855","","","tol_tohand","","","","","","","","","tol_peg_2","855","855","0","[[3,0,0],[1,0],[0]]","4","[[1,2,0],[3,0],[0]]","6","0","","","","","","5","",""
"","","","","","single-stim-button","298","776399","0.0-3.0-28.3-1.3","5ef4b8cf1f15df0ae9c7a706","C3","batch3","","941","","","tol_toboard","","","","","","","","","tol_peg_3","941","941","0","[[3,0,0],[1,0],[2]]","4","[[1,2,0],[3,0],[0]]","6","0","","","","","","5","",""
"","","","","","single-stim-button","299","777911","0.0-3.0-28.4-0.4","5ef4b8cf1f15df0ae9c7a706","C3","batch3","","1510","","","tol_tohand","","","","","","","","","tol_peg_1","1510","1510","0","[[0,0,0],[1,0],[2]]","5","[[1,2,0],[3,0],[0]]","6","0","","","","","","5","",""
"","","","","","single-stim-button","300","781274","0.0-3.0-28.4-1.4","5ef4b8cf1f15df0ae9c7a706","C3","batch3","","3361","","","tol_toboard","","","","","","","","","tol_peg_1","3361","3361","0","[[3,0,0],[1,0],[2]]","5","[[1,2,0],[3,0],[0]]","6","0","","","","","","5","",""
"","","","","","single-stim-button","301","787227","0.0-3.0-28.5-0.5","5ef4b8cf1f15df0ae9c7a706","C3","batch3","","5951","","","tol_tohand","","","","","","","","","tol_peg_3","5951","5951","0","[[3,0,0],[1,0],[0]]","6","[[1,2,0],[3,0],[0]]","6","0","","","","","","5","",""
"","","","","","single-stim-button","302","788131","0.0-3.0-28.5-1.5","5ef4b8cf1f15df0ae9c7a706","C3","batch3","","903","","","tol_toboard","","","","","","","","","tol_peg_1","903","903","0","[[3,2,0],[1,0],[0]]","6","[[1,2,0],[3,0],[0]]","6","0","","","","","","5","",""
"","","","","","single-stim-button","303","788723","0.0-3.0-28.6-0.6","5ef4b8cf1f15df0ae9c7a706","C3","batch3","","591","","","tol_tohand","","","","","","","","","tol_peg_2","591","591","0","[[3,2,0],[0,0],[0]]","7","[[1,2,0],[3,0],[0]]","6","0","","","","","","5","",""
"","","","","","single-stim-button","304","789615","0.0-3.0-28.6-1.6","5ef4b8cf1f15df0ae9c7a706","C3","batch3","","890","","","tol_toboard","","","","","","","","","tol_peg_3","890","890","0","[[3,2,0],[0,0],[1]]","7","[[1,2,0],[3,0],[0]]","6","0","","","","","","5","",""
"","","","","","single-stim-button","305","790689","0.0-3.0-28.7-0.7","5ef4b8cf1f15df0ae9c7a706","C3","batch3","","1074","","","tol_tohand","","","","","","","","","tol_peg_1","1074","1074","0","[[3,0,0],[0,0],[1]]","8","[[1,2,0],[3,0],[0]]","6","0","","","","","","5","",""
"","","","","","single-stim-button","306","791538","0.0-3.0-28.7-1.7","5ef4b8cf1f15df0ae9c7a706","C3","batch3","","846","","","tol_toboard","","","","","","","","","tol_peg_2","846","846","0","[[3,0,0],[2,0],[1]]","8","[[1,2,0],[3,0],[0]]","6","0","","","","","","5","",""
"","","","","","single-stim-button","307","792266","0.0-3.0-28.8-0.8","5ef4b8cf1f15df0ae9c7a706","C3","batch3","","726","","","tol_tohand","","","","","","","","","tol_peg_1","726","726","0","[[0,0,0],[2,0],[1]]","9","[[1,2,0],[3,0],[0]]","6","0","","","","","","5","",""
"","","","","","single-stim-button","308","793043","0.0-3.0-28.8-1.8","5ef4b8cf1f15df0ae9c7a706","C3","batch3","","775","","","tol_toboard","","","","","","","","","tol_peg_2","775","775","0","[[0,0,0],[2,3],[1]]","9","[[1,2,0],[3,0],[0]]","6","0","","","","","","5","",""
"","","","","","single-stim-button","309","793785","0.0-3.0-28.9-0.9","5ef4b8cf1f15df0ae9c7a706","C3","batch3","","739","","","tol_tohand","","","","","","","","","tol_peg_3","739","739","0","[[0,0,0],[2,3],[0]]","10","[[1,2,0],[3,0],[0]]","6","0","","","","","","5","",""
"","","","","","single-stim-button","310","794994","0.0-3.0-28.9-1.9","5ef4b8cf1f15df0ae9c7a706","C3","batch3","","1207","","","tol_toboard","","","","","","","","","tol_peg_1","1207","1207","0","[[1,0,0],[2,3],[0]]","10","[[1,2,0],[3,0],[0]]","6","0","","","","","","5","",""
"","","","","","single-stim-button","311","795829","0.0-3.0-28.10-0.10","5ef4b8cf1f15df0ae9c7a706","C3","batch3","","834","","","tol_tohand","","","","","","","","","tol_peg_2","834","834","0","[[1,0,0],[2,0],[0]]","11","[[1,2,0],[3,0],[0]]","6","0","","","","","","5","",""
"","","","","","single-stim-button","312","796592","0.0-3.0-28.10-1.10","5ef4b8cf1f15df0ae9c7a706","C3","batch3","","761","","","tol_toboard","","","","","","","","","tol_peg_3","761","761","0","[[1,0,0],[2,0],[3]]","11","[[1,2,0],[3,0],[0]]","6","0","","","","","","5","",""
"","","","","","single-stim-button","313","797276","0.0-3.0-28.11-0.11","5ef4b8cf1f15df0ae9c7a706","C3","batch3","","682","","","tol_tohand","","","","","","","","","tol_peg_2","682","682","0","[[1,0,0],[0,0],[3]]","12","[[1,2,0],[3,0],[0]]","6","0","","","","","","5","",""
"","","","","","single-stim-button","314","798327","0.0-3.0-28.11-1.11","5ef4b8cf1f15df0ae9c7a706","C3","batch3","","1049","","","tol_toboard","","","","","","","","","tol_peg_1","1049","1049","0","[[1,2,0],[0,0],[3]]","12","[[1,2,0],[3,0],[0]]","6","0","","","","","","5","",""
"","","","","","single-stim-button","315","799090","0.0-3.0-28.12-0.12","5ef4b8cf1f15df0ae9c7a706","C3","batch3","","761","","","tol_tohand","","","","","","","","","tol_peg_3","761","761","0","[[1,2,0],[0,0],[0]]","13","[[1,2,0],[3,0],[0]]","6","0","","","","","","5","",""
"","","","","","single-stim-button","316","800134","0.0-3.0-28.12-1.12","5ef4b8cf1f15df0ae9c7a706","C3","batch3","","1042","","","tol_toboard","","","","","","","","","tol_peg_2","1042","1042","0","[[1,2,0],[3,0],[0]]","13","[[1,2,0],[3,0],[0]]","6","0","","","","","","5","",""
"","","","","","poldrack-single-stim","317","801138","0.0-3.0-29.0","5ef4b8cf1f15df0ae9c7a706","C3","batch3","","-1","","","tol_feedback","true","","","","","","","","","1000","1000","500","","","","","","-1","none","true","5614","21183","","",""
"","","","","","html-button-response","318","802062","0.0-3.0-30.0","5ef4b8cf1f15df0ae9c7a706","C3","batch3","","922.3999999985099","<div class = centerbox><p class = center-block-text>problem <strong>8</strong> out of 25 problems</p></div>","0","tol_trial_num","","","","","","","","","","","","","","","","","","","","","","","","",""
"","","","","","single-stim-button","319","806038","0.0-3.0-31.0-0.0","5ef4b8cf1f15df0ae9c7a706","C3","batch3","","3974","","","tol_tohand","","","","","","","","","tol_peg_3","3974","3974","0","[[0,0,0],[2,3],[0]]","1","[[1,2,0],[3,0],[0]]","7","0","","","","","","4","",""
"","","","","","single-stim-button","320","807297","0.0-3.0-31.0-1.0","5ef4b8cf1f15df0ae9c7a706","C3","batch3","","1257","","","tol_toboard","","","","","","","","","tol_peg_1","1257","1257","0","[[1,0,0],[2,3],[0]]","1","[[1,2,0],[3,0],[0]]","7","0","","","","","","4","",""
"","","","","","single-stim-button","321","808233","0.0-3.0-31.1-0.1","5ef4b8cf1f15df0ae9c7a706","C3","batch3","","934","","","tol_tohand","","","","","","","","","tol_peg_2","934","934","0","[[1,0,0],[2,0],[0]]","2","[[1,2,0],[3,0],[0]]","7","0","","","","","","4","",""
"","","","","","single-stim-button","322","809082","0.0-3.0-31.1-1.1","5ef4b8cf1f15df0ae9c7a706","C3","batch3","","847","","","tol_toboard","","","","","","","","","tol_peg_3","847","847","0","[[1,0,0],[2,0],[3]]","2","[[1,2,0],[3,0],[0]]","7","0","","","","","","4","",""
"","","","","","single-stim-button","323","809773","0.0-3.0-31.2-0.2","5ef4b8cf1f15df0ae9c7a706","C3","batch3","","689","","","tol_tohand","","","","","","","","","tol_peg_2","689","689","0","[[1,0,0],[0,0],[3]]","3","[[1,2,0],[3,0],[0]]","7","0","","","","","","4","",""
"","","","","","single-stim-button","324","810752","0.0-3.0-31.2-1.2","5ef4b8cf1f15df0ae9c7a706","C3","batch3","","977","","","tol_toboard","","","","","","","","","tol_peg_1","977","977","0","[[1,2,0],[0,0],[3]]","3","[[1,2,0],[3,0],[0]]","7","0","","","","","","4","",""
"","","","","","single-stim-button","325","811588","0.0-3.0-31.3-0.3","5ef4b8cf1f15df0ae9c7a706","C3","batch3","","834","","","tol_tohand","","","","","","","","","tol_peg_3","834","834","0","[[1,2,0],[0,0],[0]]","4","[[1,2,0],[3,0],[0]]","7","0","","","","","","4","",""
"","","","","","single-stim-button","326","812622","0.0-3.0-31.3-1.3","5ef4b8cf1f15df0ae9c7a706","C3","batch3","","1032","","","tol_toboard","","","","","","","","","tol_peg_2","1032","1032","0","[[1,2,0],[3,0],[0]]","4","[[1,2,0],[3,0],[0]]","7","0","","","","","","4","",""
"","","","","","poldrack-single-stim","327","813623","0.0-3.0-32.0","5ef4b8cf1f15df0ae9c7a706","C3","batch3","","-1","","","tol_feedback","true","","","","","","","","","1000","1000","500","","","","","","-1","none","true","3974","6431","","",""
"","","","","","html-button-response","328","814716","0.0-3.0-33.0","5ef4b8cf1f15df0ae9c7a706","C3","batch3","","1091.8999999985099","<div class = centerbox><p class = center-block-text>problem <strong>9</strong> out of 25 problems</p></div>","0","tol_trial_num","","","","","","","","","","","","","","","","","","","","","","","","",""
"","","","","","single-stim-button","329","818297","0.0-3.0-34.0-0.0","5ef4b8cf1f15df0ae9c7a706","C3","batch3","","3579","","","tol_tohand","","","","","","","","","tol_peg_1","3579","3579","0","[[3,0,0],[0,0],[1]]","1","[[2,1,0],[3,0],[0]]","8","0","","","","","","6","",""
"","","","","","single-stim-button","330","823106","0.0-3.0-34.0-1.0","5ef4b8cf1f15df0ae9c7a706","C3","batch3","","4806","","","tol_toboard","","","","","","","","","tol_peg_2","4806","4806","0","[[3,0,0],[2,0],[1]]","1","[[2,1,0],[3,0],[0]]","8","0","","","","","","6","",""
"","","","","","single-stim-button","331","824689","0.0-3.0-34.1-0.1","5ef4b8cf1f15df0ae9c7a706","C3","batch3","","1581","","","tol_tohand","","","","","","","","","tol_peg_3","1581","1581","0","[[3,0,0],[2,0],[0]]","2","[[2,1,0],[3,0],[0]]","8","0","","","","","","6","",""
"","","","","","single-stim-button","332","826741","0.0-3.0-34.1-1.1","5ef4b8cf1f15df0ae9c7a706","C3","batch3","","2050","","","tol_toboard","","","","","","","","","tol_peg_1","2050","2050","0","[[3,1,0],[2,0],[0]]","2","[[2,1,0],[3,0],[0]]","8","0","","","","","","6","",""
"","","","","","single-stim-button","333","827439","0.0-3.0-34.2-0.2","5ef4b8cf1f15df0ae9c7a706","C3","batch3","","696","","","tol_tohand","","","","","","","","","tol_peg_2","696","696","0","[[3,1,0],[0,0],[0]]","3","[[2,1,0],[3,0],[0]]","8","0","","","","","","6","",""
"","","","","","single-stim-button","334","828468","0.0-3.0-34.2-1.2","5ef4b8cf1f15df0ae9c7a706","C3","batch3","","1028","","","tol_toboard","","","","","","","","","tol_peg_3","1028","1028","0","[[3,1,0],[0,0],[2]]","3","[[2,1,0],[3,0],[0]]","8","0","","","","","","6","",""
"","","","","","single-stim-button","335","829390","0.0-3.0-34.3-0.3","5ef4b8cf1f15df0ae9c7a706","C3","batch3","","919","","","tol_tohand","","","","","","","","","tol_peg_1","919","919","0","[[3,0,0],[0,0],[2]]","4","[[2,1,0],[3,0],[0]]","8","0","","","","","","6","",""
"","","","","","single-stim-button","336","830909","0.0-3.0-34.3-1.3","5ef4b8cf1f15df0ae9c7a706","C3","batch3","","1517","","","tol_toboard","","","","","","","","","tol_peg_2","1517","1517","0","[[3,0,0],[1,0],[2]]","4","[[2,1,0],[3,0],[0]]","8","0","","","","","","6","",""
"","","","","","single-stim-button","337","831830","0.0-3.0-34.4-0.4","5ef4b8cf1f15df0ae9c7a706","C3","batch3","","919","","","tol_tohand","","","","","","","","","tol_peg_1","919","919","0","[[0,0,0],[1,0],[2]]","5","[[2,1,0],[3,0],[0]]","8","0","","","","","","6","",""
"","","","","","single-stim-button","338","836214","0.0-3.0-34.4-1.4","5ef4b8cf1f15df0ae9c7a706","C3","batch3","","4382","","","tol_toboard","","","","","","","","","tol_peg_2","4382","4382","0","[[0,0,0],[1,3],[2]]","5","[[2,1,0],[3,0],[0]]","8","0","","","","","","6","",""
"","","","","","single-stim-button","339","837056","0.0-3.0-34.5-0.5","5ef4b8cf1f15df0ae9c7a706","C3","batch3","","840","","","tol_tohand","","","","","","","","","tol_peg_3","840","840","0","[[0,0,0],[1,3],[0]]","6","[[2,1,0],[3,0],[0]]","8","0","","","","","","6","",""
"","","","","","single-stim-button","340","838273","0.0-3.0-34.5-1.5","5ef4b8cf1f15df0ae9c7a706","C3","batch3","","1215","","","tol_toboard","","","","","","","","","tol_peg_1","1215","1215","0","[[2,0,0],[1,3],[0]]","6","[[2,1,0],[3,0],[0]]","8","0","","","","","","6","",""
"","","","","","single-stim-button","341","839324","0.0-3.0-34.6-0.6","5ef4b8cf1f15df0ae9c7a706","C3","batch3","","1049","","","tol_tohand","","","","","","","","","tol_peg_2","1049","1049","0","[[2,0,0],[1,0],[0]]","7","[[2,1,0],[3,0],[0]]","8","0","","","","","","6","",""
"","","","","","single-stim-button","342","840267","0.0-3.0-34.6-1.6","5ef4b8cf1f15df0ae9c7a706","C3","batch3","","941","","","tol_toboard","","","","","","","","","tol_peg_3","941","941","0","[[2,0,0],[1,0],[3]]","7","[[2,1,0],[3,0],[0]]","8","0","","","","","","6","",""
"","","","","","single-stim-button","343","840922","0.0-3.0-34.7-0.7","5ef4b8cf1f15df0ae9c7a706","C3","batch3","","652","","","tol_tohand","","","","","","","","","tol_peg_2","652","652","0","[[2,0,0],[0,0],[3]]","8","[[2,1,0],[3,0],[0]]","8","0","","","","","","6","",""
"","","","","","single-stim-button","344","841592","0.0-3.0-34.7-1.7","5ef4b8cf1f15df0ae9c7a706","C3","batch3","","668","","","tol_toboard","","","","","","","","","tol_peg_1","668","668","0","[[2,1,0],[0,0],[3]]","8","[[2,1,0],[3,0],[0]]","8","0","","","","","","6","",""
"","","","","","single-stim-button","345","842312","0.0-3.0-34.8-0.8","5ef4b8cf1f15df0ae9c7a706","C3","batch3","","718","","","tol_tohand","","","","","","","","","tol_peg_3","718","718","0","[[2,1,0],[0,0],[0]]","9","[[2,1,0],[3,0],[0]]","8","0","","","","","","6","",""
"","","","","","single-stim-button","346","843305","0.0-3.0-34.8-1.8","5ef4b8cf1f15df0ae9c7a706","C3","batch3","","991","","","tol_toboard","","","","","","","","","tol_peg_2","991","991","0","[[2,1,0],[3,0],[0]]","9","[[2,1,0],[3,0],[0]]","8","0","","","","","","6","",""
"","","","","","poldrack-single-stim","347","844315","0.0-3.0-35.0","5ef4b8cf1f15df0ae9c7a706","C3","batch3","","-1","","","tol_feedback","true","","","","","","","","","1000","1000","500","","","","","","-1","none","true","3579","10953","","",""
"","","","","","html-button-response","348","845212","0.0-3.0-36.0","5ef4b8cf1f15df0ae9c7a706","C3","batch3","","895.7999999970198","<div class = centerbox><p class = center-block-text>problem <strong>10</strong> out of 25 problems</p></div>","0","tol_trial_num","","","","","","","","","","","","","","","","","","","","","","","","",""
