"success","timeout","failed_images","failed_audio","failed_video","trial_type","trial_index","time_elapsed","internal_node_id","subject_id","study_id","session_id","view_history","rt","stimulus","response","task","correct","answer","item","fiar_detect_rt","fiar_detect_correct","total_correct_fiar_detect","post_trial_gap","choices","mouse_click","stim_duration","block_duration","timing_post_trial","current_position","tol_num_moves_made","tol_target","tol_problem_id","tol_rt","key_press","possible_responses","tol_correct","preplanning","tol_rt_per_trial","tol_min_moves","spm_correct","spm_rt"
"true","false","[]","[]","[]","preload","0","1147","0.0-0.0","5ef8e0fc2ce3c6644665e347","A3","batch1","","","","","","","","","","","","","","","","","","","","","","","","","","","","","",""
"true","","","","","fullscreen","1","15573","0.0-1.0-0.0","5ef8e0fc2ce3c6644665e347","A3","batch1","","","","","","","","","","","","","","","","","","","","","","","","","","","","","",""
"true","","","","","fullscreen","2","20341","0.0-2.0-0.0","5ef8e0fc2ce3c6644665e347","A3","batch1","","","","","","","","","","","","","","","","","","","","","","","","","","","","","",""
"","","","","","instructions","3","47780","0.0-2.0-1.0-0.0","5ef8e0fc2ce3c6644665e347","A3","batch1","[{""page_index"":0,""viewing_time"":17684.89999999851},{""page_index"":1,""viewing_time"":9751.60000000149}]","27436.89999999851","","","","","","","","","","","","","","","","","","","","","","","","","","","",""
"","","","","","html-button-response","4","48780","0.0-2.0-1.0-1.0-0.0","5ef8e0fc2ce3c6644665e347","A3","batch1","","998.5999999977648","<p class=block-text> Let's answer a few questions <br>","0","pattern_enter_quiz","","","","","","","","","","","","","","","","","","","","","","","","",""
"","","","","","html-button-response","5","55153","0.0-2.0-1.0-1.0-1.0","5ef8e0fc2ce3c6644665e347","A3","batch1","","6370.400000002235","<p class = block-text>True or False: You will have as much time as you want to make each choice. <br></p>","1","pattern_quiz","true","","","","","","","","","","","","","","","","","","","","","","","",""
"","","","","","html-button-response","6","57675","0.0-2.0-1.0-1.0-2.0","5ef8e0fc2ce3c6644665e347","A3","batch1","","2520.5","<p class = block-text>Correct! You should make your choice <strong> as fast as you can</strong>.</p>","0","pattern_quiz_feedback","","","","","","","","","","","","","","","","","","","","","","","","",""
"","","","","","html-button-response","7","65875","0.0-2.0-1.0-1.0-3.0","5ef8e0fc2ce3c6644665e347","A3","batch1","","8198.400000002235","<p class = block-text>True or False: You will look for 4 pieces in black or white color connected in a row either horizontally, vertically or diagonally. <br></p>","0","pattern_quiz","true","","","","","","","","","","","","","","","","","","","","","","","",""
"","","","","","html-button-response","8","66455","0.0-2.0-1.0-1.0-4.0","5ef8e0fc2ce3c6644665e347","A3","batch1","","577.5","<p class = block-text>Correct! </p>","0","pattern_quiz_feedback","","","","","","","","","","","","","","","","","","","","","","","","",""
"","","","","","html-button-response","9","67991","0.0-2.0-2.0","5ef8e0fc2ce3c6644665e347","A3","batch1","","1533.5","<p class=block-text> Now that you've understood the game, let's do a few practice trials before we start!<br> <br>","0","pattern_enter_practice","","","","","","","","","","","","","","","","","","","","","","","","",""
"","","","","","image-keyboard-response","10","69933","0.0-2.0-3.0-0.0","5ef8e0fc2ce3c6644665e347","A3","batch1","","1936.0999999977648","stim/prac_no_18_1.png","j","pattern_practice","true","j","","","","","","","","","","","","","","","","","","","","","","",""
"","","","","","html-keyboard-response","11","70957","0.0-2.0-3.0-1.0","5ef8e0fc2ce3c6644665e347","A3","batch1","","null","<p style=""font-size:30px;color:green;"">Correct!</p>","null","pattern_feedback","","","","","","","","","","","","","","","","","","","","","","","","",""
"","","","","","image-keyboard-response","12","72241","0.0-2.0-3.0-0.1","5ef8e0fc2ce3c6644665e347","A3","batch1","","1281.7000000029802","stim/prac_no_16_1.png","f","pattern_practice","false","j","","","","","","","","","","","","","","","","","","","","","","",""
"","","","","","html-keyboard-response","13","73255","0.0-2.0-3.0-1.1","5ef8e0fc2ce3c6644665e347","A3","batch1","","null","<p style=""font-size:30px;color:red;"">Wrong.</p>","null","pattern_feedback","","","","","","","","","","","","","","","","","","","","","","","","",""
"","","","","","image-keyboard-response","14","74146","0.0-2.0-3.0-0.2","5ef8e0fc2ce3c6644665e347","A3","batch1","","890.1000000014901","stim/prac_yes_16_ver_w1.png","f","pattern_practice","true","f","","","","","","","","","","","","","","","","","","","","","","",""
"","","","","","html-keyboard-response","15","75173","0.0-2.0-3.0-1.2","5ef8e0fc2ce3c6644665e347","A3","batch1","","null","<p style=""font-size:30px;color:green;"">Correct!</p>","null","pattern_feedback","","","","","","","","","","","","","","","","","","","","","","","","",""
"","","","","","image-keyboard-response","16","76167","0.0-2.0-3.0-0.3","5ef8e0fc2ce3c6644665e347","A3","batch1","","992","stim/prac_yes_20_dia_b1.png","f","pattern_practice","true","f","","","","","","","","","","","","","","","","","","","","","","",""
"","","","","","html-keyboard-response","17","77186","0.0-2.0-3.0-1.3","5ef8e0fc2ce3c6644665e347","A3","batch1","","null","<p style=""font-size:30px;color:green;"">Correct!</p>","null","pattern_feedback","","","","","","","","","","","","","","","","","","","","","","","","",""
"","","","","","image-keyboard-response","18","78751","0.0-2.0-3.0-0.4","5ef8e0fc2ce3c6644665e347","A3","batch1","","1562.699999999255","stim/prac_yes_18_hor_w1.png","f","pattern_practice","true","f","","","","","","","","","","","","","","","","","","","","","","",""
"","","","","","html-keyboard-response","19","79767","0.0-2.0-3.0-1.4","5ef8e0fc2ce3c6644665e347","A3","batch1","","null","<p style=""font-size:30px;color:green;"">Correct!</p>","null","pattern_feedback","","","","","","","","","","","","","","","","","","","","","","","","",""
"","","","","","html-button-response","20","84334","0.0-2.0-4.0","5ef8e0fc2ce3c6644665e347","A3","batch1","","4565.699999999255","<p class=block-text> Good job! You are done with practice trials!<br>
        You responded correctly on 80% of the trials.<br>
        Press the button below to start official trials. Now you won't see any feedback about your response</p>","0","pattern_enter_official_trials","","","","","","","","","","","","","","","","","","","","","","","","",""
"","","","","","html-keyboard-response","21","85148","0.0-2.0-5.0-0.0","5ef8e0fc2ce3c6644665e347","A3","batch1","","null","<p class=block-text>Trial 1 out of 78</p>","null","pattern_show_trial_num","","","","","","","","","","","","","","","","","","","","","","","","",""
"","","","","","image-keyboard-response","22","86909","0.0-2.0-5.0-1.0","5ef8e0fc2ce3c6644665e347","A3","batch1","","1758.2999999970198","stim/no_12_1.png","j","pattern_response","true","j","pattern_01","1758.2999999970198","true","1","","","","","","","","","","","","","","","","","","",""
"","","","","","html-keyboard-response","23","88228","0.0-2.0-5.0-0.1","5ef8e0fc2ce3c6644665e347","A3","batch1","","null","<p class=block-text>Trial 2 out of 78</p>","null","pattern_show_trial_num","","","","","","","","","","","","","","","","","","","","","","","","",""
"","","","","","image-keyboard-response","24","90509","0.0-2.0-5.0-1.1","5ef8e0fc2ce3c6644665e347","A3","batch1","","2279.7999999970198","stim/no_37_2_w.png","j","pattern_response","true","j","pattern_19","2279.7999999970198","true","2","","","","","","","","","","","","","","","","","","",""
"","","","","","html-keyboard-response","25","91812","0.0-2.0-5.0-0.2","5ef8e0fc2ce3c6644665e347","A3","batch1","","null","<p class=block-text>Trial 3 out of 78</p>","null","pattern_show_trial_num","","","","","","","","","","","","","","","","","","","","","","","","",""
"","","","","","image-keyboard-response","26","92628","0.0-2.0-5.0-1.2","5ef8e0fc2ce3c6644665e347","A3","batch1","","815.1999999992549","stim/yes_17_ver_b1_b.png","f","pattern_response","true","f","pattern_46","815.1999999992549","true","3","","","","","","","","","","","","","","","","","","",""
"","","","","","html-keyboard-response","27","93937","0.0-2.0-5.0-0.3","5ef8e0fc2ce3c6644665e347","A3","batch1","","null","<p class=block-text>Trial 4 out of 78</p>","null","pattern_show_trial_num","","","","","","","","","","","","","","","","","","","","","","","","",""
"","","","","","image-keyboard-response","28","97836","0.0-2.0-5.0-1.3","5ef8e0fc2ce3c6644665e347","A3","batch1","","3897.199999999255","stim/no_53_1_b.png","j","pattern_response","true","j","pattern_33","3897.199999999255","true","4","","","","","","","","","","","","","","","","","","",""
"","","","","","html-keyboard-response","29","99147","0.0-2.0-5.0-0.4","5ef8e0fc2ce3c6644665e347","A3","batch1","","null","<p class=block-text>Trial 5 out of 78</p>","null","pattern_show_trial_num","","","","","","","","","","","","","","","","","","","","","","","","",""
"","","","","","image-keyboard-response","30","101794","0.0-2.0-5.0-1.4","5ef8e0fc2ce3c6644665e347","A3","batch1","","2644.800000000745","stim/no_25_1_b.png","j","pattern_response","true","j","pattern_09","2644.800000000745","true","5","","","","","","","","","","","","","","","","","","",""
"","","","","","html-keyboard-response","31","103106","0.0-2.0-5.0-0.5","5ef8e0fc2ce3c6644665e347","A3","batch1","","null","<p class=block-text>Trial 6 out of 78</p>","null","pattern_show_trial_num","","","","","","","","","","","","","","","","","","","","","","","","",""
"","","","","","image-keyboard-response","32","104553","0.0-2.0-5.0-1.5","5ef8e0fc2ce3c6644665e347","A3","batch1","","1443.9000000022352","stim/yes_49_hor_w1_b.png","f","pattern_response","true","f","pattern_70","1443.9000000022352","true","6","","","","","","","","","","","","","","","","","","",""
"","","","","","html-keyboard-response","33","105860","0.0-2.0-5.0-0.6","5ef8e0fc2ce3c6644665e347","A3","batch1","","null","<p class=block-text>Trial 7 out of 78</p>","null","pattern_show_trial_num","","","","","","","","","","","","","","","","","","","","","","","","",""
"","","","","","image-keyboard-response","34","110567","0.0-2.0-5.0-1.6","5ef8e0fc2ce3c6644665e347","A3","batch1","","4704.699999999255","stim/no_67_1.png","j","pattern_response","true","j","pattern_39","4704.699999999255","true","7","","","","","","","","","","","","","","","","","","",""
"","","","","","html-keyboard-response","35","111871","0.0-2.0-5.0-0.7","5ef8e0fc2ce3c6644665e347","A3","batch1","","null","<p class=block-text>Trial 8 out of 78</p>","null","pattern_show_trial_num","","","","","","","","","","","","","","","","","","","","","","","","",""
"","","","","","image-keyboard-response","36","112875","0.0-2.0-5.0-1.7","5ef8e0fc2ce3c6644665e347","A3","batch1","","1001.3000000007451","stim/yes_23_ver_b1.png","f","pattern_response","true","f","pattern_48","1001.3000000007451","true","8","","","","","","","","","","","","","","","","","","",""
"","","","","","html-keyboard-response","37","114191","0.0-2.0-5.0-0.8","5ef8e0fc2ce3c6644665e347","A3","batch1","","null","<p class=block-text>Trial 9 out of 78</p>","null","pattern_show_trial_num","","","","","","","","","","","","","","","","","","","","","","","","",""
"","","","","","image-keyboard-response","38","116505","0.0-2.0-5.0-1.8","5ef8e0fc2ce3c6644665e347","A3","batch1","","2311.5","stim/yes_42_dia_w1_w.png","f","pattern_response","true","f","pattern_64","2311.5","true","9","","","","","","","","","","","","","","","","","","",""
"","","","","","html-keyboard-response","39","117818","0.0-2.0-5.0-0.9","5ef8e0fc2ce3c6644665e347","A3","batch1","","null","<p class=block-text>Trial 10 out of 78</p>","null","pattern_show_trial_num","","","","","","","","","","","","","","","","","","","","","","","","",""
"","","","","","image-keyboard-response","40","120285","0.0-2.0-5.0-1.9","5ef8e0fc2ce3c6644665e347","A3","batch1","","2465.099999997765","stim/no_33_1_b.png","j","pattern_response","true","j","pattern_15","2465.099999997765","true","10","","","","","","","","","","","","","","","","","","",""
"","","","","","html-keyboard-response","41","121608","0.0-2.0-5.0-0.10","5ef8e0fc2ce3c6644665e347","A3","batch1","","null","<p class=block-text>Trial 11 out of 78</p>","null","pattern_show_trial_num","","","","","","","","","","","","","","","","","","","","","","","","",""
"","","","","","image-keyboard-response","42","125881","0.0-2.0-5.0-1.10","5ef8e0fc2ce3c6644665e347","A3","batch1","","4270.60000000149","stim/yes_63_dia_b1.png","f","pattern_response","true","f","pattern_78","4270.60000000149","true","11","","","","","","","","","","","","","","","","","","",""
"","","","","","html-keyboard-response","43","127196","0.0-2.0-5.0-0.11","5ef8e0fc2ce3c6644665e347","A3","batch1","","null","<p class=block-text>Trial 12 out of 78</p>","null","pattern_show_trial_num","","","","","","","","","","","","","","","","","","","","","","","","",""
"","","","","","image-keyboard-response","44","127966","0.0-2.0-5.0-1.11","5ef8e0fc2ce3c6644665e347","A3","batch1","","767.6000000014901","stim/yes_36_ver_w1_w.png","f","pattern_response","true","f","pattern_58","767.6000000014901","true","12","","","","","","","","","","","","","","","","","","",""
"","","","","","html-keyboard-response","45","129271","0.0-2.0-5.0-0.12","5ef8e0fc2ce3c6644665e347","A3","batch1","","null","<p class=block-text>Trial 13 out of 78</p>","null","pattern_show_trial_num","","","","","","","","","","","","","","","","","","","","","","","","",""
"","","","","","image-keyboard-response","46","132538","0.0-2.0-5.0-1.12","5ef8e0fc2ce3c6644665e347","A3","batch1","","3266.099999997765","stim/no_47_1_b.png","j","pattern_response","true","j","pattern_27","3266.099999997765","true","13","","","","","","","","","","","","","","","","","","",""
"","","","","","html-keyboard-response","47","133853","0.0-2.0-5.0-0.13","5ef8e0fc2ce3c6644665e347","A3","batch1","","null","<p class=block-text>Trial 14 out of 78</p>","null","pattern_show_trial_num","","","","","","","","","","","","","","","","","","","","","","","","",""
"","","","","","image-keyboard-response","48","135510","0.0-2.0-5.0-1.13","5ef8e0fc2ce3c6644665e347","A3","batch1","","1654.800000000745","stim/no_18_1_b.png","j","pattern_response","true","j","pattern_05","1654.800000000745","true","14","","","","","","","","","","","","","","","","","","",""
"","","","","","html-keyboard-response","49","136825","0.0-2.0-5.0-0.14","5ef8e0fc2ce3c6644665e347","A3","batch1","","null","<p class=block-text>Trial 15 out of 78</p>","null","pattern_show_trial_num","","","","","","","","","","","","","","","","","","","","","","","","",""
"","","","","","image-keyboard-response","50","138483","0.0-2.0-5.0-1.14","5ef8e0fc2ce3c6644665e347","A3","batch1","","1655.9000000022352","stim/yes_53_ver_b1_b.png","f","pattern_response","true","f","pattern_74","1655.9000000022352","true","15","","","","","","","","","","","","","","","","","","",""
"","","","","","html-keyboard-response","51","139799","0.0-2.0-5.0-0.15","5ef8e0fc2ce3c6644665e347","A3","batch1","","null","<p class=block-text>Trial 16 out of 78</p>","null","pattern_show_trial_num","","","","","","","","","","","","","","","","","","","","","","","","",""
"","","","","","image-keyboard-response","52","141238","0.0-2.0-5.0-1.15","5ef8e0fc2ce3c6644665e347","A3","batch1","","1438","stim/no_22_1_b.png","j","pattern_response","true","j","pattern_07","1438","true","16","","","","","","","","","","","","","","","","","","",""
"","","","","","html-keyboard-response","53","142543","0.0-2.0-5.0-0.16","5ef8e0fc2ce3c6644665e347","A3","batch1","","null","<p class=block-text>Trial 17 out of 78</p>","null","pattern_show_trial_num","","","","","","","","","","","","","","","","","","","","","","","","",""
"","","","","","image-keyboard-response","54","143793","0.0-2.0-5.0-1.16","5ef8e0fc2ce3c6644665e347","A3","batch1","","1248.1000000014901","stim/yes_37_hor_w1_w.png","f","pattern_response","true","f","pattern_60","1248.1000000014901","true","17","","","","","","","","","","","","","","","","","","",""
"","","","","","html-keyboard-response","55","145107","0.0-2.0-5.0-0.17","5ef8e0fc2ce3c6644665e347","A3","batch1","","null","<p class=block-text>Trial 18 out of 78</p>","null","pattern_show_trial_num","","","","","","","","","","","","","","","","","","","","","","","","",""
"","","","","","image-keyboard-response","56","147888","0.0-2.0-5.0-1.17","5ef8e0fc2ce3c6644665e347","A3","batch1","","2779.400000002235","stim/no_45_1_w.png","j","pattern_response","true","j","pattern_25","2779.400000002235","true","18","","","","","","","","","","","","","","","","","","",""
"","","","","","html-keyboard-response","57","149206","0.0-2.0-5.0-0.18","5ef8e0fc2ce3c6644665e347","A3","batch1","","null","<p class=block-text>Trial 19 out of 78</p>","null","pattern_show_trial_num","","","","","","","","","","","","","","","","","","","","","","","","",""
"","","","","","image-keyboard-response","58","149831","0.0-2.0-5.0-1.18","5ef8e0fc2ce3c6644665e347","A3","batch1","","623.5","stim/yes_12_hor_w1_w.png","f","pattern_response","true","f","pattern_42","623.5","true","19","","","","","","","","","","","","","","","","","","",""
"","","","","","html-keyboard-response","59","151136","0.0-2.0-5.0-0.19","5ef8e0fc2ce3c6644665e347","A3","batch1","","null","<p class=block-text>Trial 20 out of 78</p>","null","pattern_show_trial_num","","","","","","","","","","","","","","","","","","","","","","","","",""
"","","","","","image-keyboard-response","60","151976","0.0-2.0-5.0-1.19","5ef8e0fc2ce3c6644665e347","A3","batch1","","831.6000000014901","stim/yes_39_hor_w1_w.png","f","pattern_response","true","f","pattern_62","831.6000000014901","true","20","","","","","","","","","","","","","","","","","","",""
"","","","","","html-keyboard-response","61","153286","0.0-2.0-5.0-0.20","5ef8e0fc2ce3c6644665e347","A3","batch1","","null","<p class=block-text>Trial 21 out of 78</p>","null","pattern_show_trial_num","","","","","","","","","","","","","","","","","","","","","","","","",""
"","","","","","image-keyboard-response","62","154040","0.0-2.0-5.0-1.20","5ef8e0fc2ce3c6644665e347","A3","batch1","","751.5","stim/yes_44_ver_w1_w.png","f","pattern_response","true","f","pattern_66","751.5","true","21","","","","","","","","","","","","","","","","","","",""
"","","","","","html-keyboard-response","63","155342","0.0-2.0-5.0-0.21","5ef8e0fc2ce3c6644665e347","A3","batch1","","null","<p class=block-text>Trial 22 out of 78</p>","null","pattern_show_trial_num","","","","","","","","","","","","","","","","","","","","","","","","",""
"","","","","","image-keyboard-response","64","158853","0.0-2.0-5.0-1.21","5ef8e0fc2ce3c6644665e347","A3","batch1","","3510.699999999255","stim/no_51_1.png","j","pattern_response","true","j","pattern_31","3510.699999999255","true","22","","","","","","","","","","","","","","","","","","",""
"","","","","","html-keyboard-response","65","160161","0.0-2.0-5.0-0.22","5ef8e0fc2ce3c6644665e347","A3","batch1","","null","<p class=block-text>Trial 23 out of 78</p>","null","pattern_show_trial_num","","","","","","","","","","","","","","","","","","","","","","","","",""
"","","","","","image-keyboard-response","66","161162","0.0-2.0-5.0-1.22","5ef8e0fc2ce3c6644665e347","A3","batch1","","998.3000000007451","stim/no_36_1_b.png","f","pattern_response","false","j","pattern_17","998.3000000007451","false","22","","","","","","","","","","","","","","","","","","",""
"","","","","","html-keyboard-response","67","162471","0.0-2.0-5.0-0.23","5ef8e0fc2ce3c6644665e347","A3","batch1","","null","<p class=block-text>Trial 24 out of 78</p>","null","pattern_show_trial_num","","","","","","","","","","","","","","","","","","","","","","","","",""
"","","","","","image-keyboard-response","68","163371","0.0-2.0-5.0-1.23","5ef8e0fc2ce3c6644665e347","A3","batch1","","897.5","stim/yes_26_dia_w2_w.png","f","pattern_response","true","f","pattern_50","897.5","true","23","","","","","","","","","","","","","","","","","","",""
"","","","","","html-keyboard-response","69","164680","0.0-2.0-5.0-0.24","5ef8e0fc2ce3c6644665e347","A3","batch1","","null","<p class=block-text>Trial 25 out of 78</p>","null","pattern_show_trial_num","","","","","","","","","","","","","","","","","","","","","","","","",""
"","","","","","image-keyboard-response","70","167851","0.0-2.0-5.0-1.24","5ef8e0fc2ce3c6644665e347","A3","batch1","","3169.699999999255","stim/no_43_2_b.png","j","pattern_response","true","j","pattern_23","3169.699999999255","true","24","","","","","","","","","","","","","","","","","","",""
"","","","","","html-keyboard-response","71","169161","0.0-2.0-5.0-0.25","5ef8e0fc2ce3c6644665e347","A3","batch1","","null","<p class=block-text>Trial 26 out of 78</p>","null","pattern_show_trial_num","","","","","","","","","","","","","","","","","","","","","","","","",""
"","","","","","image-keyboard-response","72","172024","0.0-2.0-5.0-1.25","5ef8e0fc2ce3c6644665e347","A3","batch1","","2860.5","stim/yes_51_dia_b1.png","j","pattern_response","false","f","pattern_72","2860.5","false","24","","","","","","","","","","","","","","","","","","",""
"","","","","","html-keyboard-response","73","173334","0.0-2.0-5.0-0.26","5ef8e0fc2ce3c6644665e347","A3","batch1","","null","<p class=block-text>Trial 27 out of 78</p>","null","pattern_show_trial_num","","","","","","","","","","","","","","","","","","","","","","","","",""
"","","","","","image-keyboard-response","74","174169","0.0-2.0-5.0-1.26","5ef8e0fc2ce3c6644665e347","A3","batch1","","833.1000000014901","stim/yes_70_ver_b1.png","f","pattern_response","true","f","pattern_80","833.1000000014901","true","25","","","","","","","","","","","","","","","","","","",""
"","","","","","html-keyboard-response","75","175471","0.0-2.0-5.0-0.27","5ef8e0fc2ce3c6644665e347","A3","batch1","","null","<p class=block-text>Trial 28 out of 78</p>","null","pattern_show_trial_num","","","","","","","","","","","","","","","","","","","","","","","","",""
"","","","","","image-keyboard-response","76","176505","0.0-2.0-5.0-1.27","5ef8e0fc2ce3c6644665e347","A3","batch1","","1031.8999999985099","stim/yes_33_dia_w1_w.png","f","pattern_response","true","f","pattern_56","1031.8999999985099","true","26","","","","","","","","","","","","","","","","","","",""
"","","","","","html-keyboard-response","77","177821","0.0-2.0-5.0-0.28","5ef8e0fc2ce3c6644665e347","A3","batch1","","null","<p class=block-text>Trial 29 out of 78</p>","null","pattern_show_trial_num","","","","","","","","","","","","","","","","","","","","","","","","",""
"","","","","","image-keyboard-response","78","180654","0.0-2.0-5.0-1.28","5ef8e0fc2ce3c6644665e347","A3","batch1","","2830.800000000745","stim/no_49_2_b.png","j","pattern_response","true","j","pattern_29","2830.800000000745","true","27","","","","","","","","","","","","","","","","","","",""
"","","","","","html-keyboard-response","79","181970","0.0-2.0-5.0-0.29","5ef8e0fc2ce3c6644665e347","A3","batch1","","null","<p class=block-text>Trial 30 out of 78</p>","null","pattern_show_trial_num","","","","","","","","","","","","","","","","","","","","","","","","",""
"","","","","","image-keyboard-response","80","184927","0.0-2.0-5.0-1.29","5ef8e0fc2ce3c6644665e347","A3","batch1","","2953.89999999851","stim/no_58_1_w.png","j","pattern_response","true","j","pattern_35","2953.89999999851","true","28","","","","","","","","","","","","","","","","","","",""
"","","","","","html-keyboard-response","81","186228","0.0-2.0-5.0-0.30","5ef8e0fc2ce3c6644665e347","A3","batch1","","null","<p class=block-text>Trial 31 out of 78</p>","null","pattern_show_trial_num","","","","","","","","","","","","","","","","","","","","","","","","",""
"","","","","","image-keyboard-response","82","187851","0.0-2.0-5.0-1.30","5ef8e0fc2ce3c6644665e347","A3","batch1","","1621","stim/no_15_1_w.png","j","pattern_response","true","j","pattern_03","1621","true","29","","","","","","","","","","","","","","","","","","",""
"","","","","","html-keyboard-response","83","189161","0.0-2.0-5.0-0.31","5ef8e0fc2ce3c6644665e347","A3","batch1","","null","<p class=block-text>Trial 32 out of 78</p>","null","pattern_show_trial_num","","","","","","","","","","","","","","","","","","","","","","","","",""
"","","","","","image-keyboard-response","84","190303","0.0-2.0-5.0-1.31","5ef8e0fc2ce3c6644665e347","A3","batch1","","1139.800000000745","stim/yes_29_hor_b1_b.png","f","pattern_response","true","f","pattern_52","1139.800000000745","true","30","","","","","","","","","","","","","","","","","","",""
"","","","","","html-keyboard-response","85","191616","0.0-2.0-5.0-0.32","5ef8e0fc2ce3c6644665e347","A3","batch1","","null","<p class=block-text>Trial 33 out of 78</p>","null","pattern_show_trial_num","","","","","","","","","","","","","","","","","","","","","","","","",""
"","","","","","image-keyboard-response","86","193420","0.0-2.0-5.0-1.32","5ef8e0fc2ce3c6644665e347","A3","batch1","","1802.4000000022352","stim/no_28_2.png","j","pattern_response","true","j","pattern_11","1802.4000000022352","true","31","","","","","","","","","","","","","","","","","","",""
"","","","","","html-keyboard-response","87","194726","0.0-2.0-5.0-0.33","5ef8e0fc2ce3c6644665e347","A3","batch1","","null","<p class=block-text>Trial 34 out of 78</p>","null","pattern_show_trial_num","","","","","","","","","","","","","","","","","","","","","","","","",""
"","","","","","image-keyboard-response","88","195510","0.0-2.0-5.0-1.33","5ef8e0fc2ce3c6644665e347","A3","batch1","","781.8999999985099","stim/yes_15_dia_b1u_b.png","f","pattern_response","true","f","pattern_44","781.8999999985099","true","32","","","","","","","","","","","","","","","","","","",""
"","","","","","html-keyboard-response","89","196828","0.0-2.0-5.0-0.34","5ef8e0fc2ce3c6644665e347","A3","batch1","","null","<p class=block-text>Trial 35 out of 78</p>","null","pattern_show_trial_num","","","","","","","","","","","","","","","","","","","","","","","","",""
"","","","","","image-keyboard-response","90","199900","0.0-2.0-5.0-1.34","5ef8e0fc2ce3c6644665e347","A3","batch1","","3070","stim/yes_58_dia_w1_w.png","j","pattern_response","false","f","pattern_76","3070","false","32","","","","","","","","","","","","","","","","","","",""
"","","","","","html-keyboard-response","91","201208","0.0-2.0-5.0-0.35","5ef8e0fc2ce3c6644665e347","A3","batch1","","null","<p class=block-text>Trial 36 out of 78</p>","null","pattern_show_trial_num","","","","","","","","","","","","","","","","","","","","","","","","",""
"","","","","","image-keyboard-response","92","203976","0.0-2.0-5.0-1.35","5ef8e0fc2ce3c6644665e347","A3","batch1","","2766","stim/no_39_1_w.png","j","pattern_response","true","j","pattern_21","2766","true","33","","","","","","","","","","","","","","","","","","",""
"","","","","","html-keyboard-response","93","205289","0.0-2.0-5.0-0.36","5ef8e0fc2ce3c6644665e347","A3","batch1","","null","<p class=block-text>Trial 37 out of 78</p>","null","pattern_show_trial_num","","","","","","","","","","","","","","","","","","","","","","","","",""
"","","","","","image-keyboard-response","94","206020","0.0-2.0-5.0-1.36","5ef8e0fc2ce3c6644665e347","A3","batch1","","728.8000000007451","stim/yes_30_ver_b1_b.png","f","pattern_response","true","f","pattern_54","728.8000000007451","true","34","","","","","","","","","","","","","","","","","","",""
"","","","","","html-keyboard-response","95","207331","0.0-2.0-5.0-0.37","5ef8e0fc2ce3c6644665e347","A3","batch1","","null","<p class=block-text>Trial 38 out of 78</p>","null","pattern_show_trial_num","","","","","","","","","","","","","","","","","","","","","","","","",""
"","","","","","image-keyboard-response","96","208240","0.0-2.0-5.0-1.37","5ef8e0fc2ce3c6644665e347","A3","batch1","","907.7000000029802","stim/yes_46_ver_b1_b.png","f","pattern_response","true","f","pattern_68","907.7000000029802","true","35","","","","","","","","","","","","","","","","","","",""
"","","","","","html-keyboard-response","97","209541","0.0-2.0-5.0-0.38","5ef8e0fc2ce3c6644665e347","A3","batch1","","null","<p class=block-text>Trial 39 out of 78</p>","null","pattern_show_trial_num","","","","","","","","","","","","","","","","","","","","","","","","",""
"","","","","","image-keyboard-response","98","211363","0.0-2.0-5.0-1.38","5ef8e0fc2ce3c6644665e347","A3","batch1","","1819.8999999985099","stim/no_30_1_b.png","j","pattern_response","true","j","pattern_13","1819.8999999985099","true","36","","","","","","","","","","","","","","","","","","",""
"","","","","","image-keyboard-response","99","213358","0.0-2.0-6.0","5ef8e0fc2ce3c6644665e347","A3","batch1","","1491.699999999255","stim/empty_board.png","j","attention_check","true","j","","","","","500","[""f"",""j""]","","","","","","","","","","","","","","","","",""
"","","","","","html-keyboard-response","100","214170","0.0-2.0-7.0-0.0","5ef8e0fc2ce3c6644665e347","A3","batch1","","null","<p class=block-text>Trial 40 out of 78</p>","null","pattern_show_trial_num","","","","","","","","","","","","","","","","","","","","","","","","",""
"","","","","","image-keyboard-response","101","216371","0.0-2.0-7.0-1.0","5ef8e0fc2ce3c6644665e347","A3","batch1","","2198.5","stim/no_34_1_b.png","j","pattern_response","true","j","pattern_16","2198.5","true","37","","","","","","","","","","","","","","","","","","",""
"","","","","","html-keyboard-response","102","217678","0.0-2.0-7.0-0.1","5ef8e0fc2ce3c6644665e347","A3","batch1","","null","<p class=block-text>Trial 41 out of 78</p>","null","pattern_show_trial_num","","","","","","","","","","","","","","","","","","","","","","","","",""
"","","","","","image-keyboard-response","103","218659","0.0-2.0-7.0-1.1","5ef8e0fc2ce3c6644665e347","A3","batch1","","979","stim/yes_55_hor_w1_w.png","f","pattern_response","true","f","pattern_75","979","true","38","","","","","","","","","","","","","","","","","","",""
"","","","","","html-keyboard-response","104","219968","0.0-2.0-7.0-0.2","5ef8e0fc2ce3c6644665e347","A3","batch1","","null","<p class=block-text>Trial 42 out of 78</p>","null","pattern_show_trial_num","","","","","","","","","","","","","","","","","","","","","","","","",""
"","","","","","image-keyboard-response","105","221267","0.0-2.0-7.0-1.2","5ef8e0fc2ce3c6644665e347","A3","batch1","","1298","stim/yes_38_hor_b1_b.png","j","pattern_response","false","f","pattern_61","1298","false","38","","","","","","","","","","","","","","","","","","",""
"","","","","","html-keyboard-response","106","222571","0.0-2.0-7.0-0.3","5ef8e0fc2ce3c6644665e347","A3","batch1","","null","<p class=block-text>Trial 43 out of 78</p>","null","pattern_show_trial_num","","","","","","","","","","","","","","","","","","","","","","","","",""
"","","","","","image-keyboard-response","107","224172","0.0-2.0-7.0-1.3","5ef8e0fc2ce3c6644665e347","A3","batch1","","1598.800000000745","stim/no_13_2_b.png","j","pattern_response","true","j","pattern_02","1598.800000000745","true","39","","","","","","","","","","","","","","","","","","",""
"","","","","","html-keyboard-response","108","225474","0.0-2.0-7.0-0.4","5ef8e0fc2ce3c6644665e347","A3","batch1","","null","<p class=block-text>Trial 44 out of 78</p>","null","pattern_show_trial_num","","","","","","","","","","","","","","","","","","","","","","","","",""
"","","","","","image-keyboard-response","109","227732","0.0-2.0-7.0-1.4","5ef8e0fc2ce3c6644665e347","A3","batch1","","2256.099999997765","stim/no_48_1_w.png","j","pattern_response","true","j","pattern_28","2256.099999997765","true","40","","","","","","","","","","","","","","","","","","",""
"","","","","","html-keyboard-response","110","229048","0.0-2.0-7.0-0.5","5ef8e0fc2ce3c6644665e347","A3","batch1","","null","<p class=block-text>Trial 45 out of 78</p>","null","pattern_show_trial_num","","","","","","","","","","","","","","","","","","","","","","","","",""
"","","","","","image-keyboard-response","111","230015","0.0-2.0-7.0-1.5","5ef8e0fc2ce3c6644665e347","A3","batch1","","964.3000000007451","stim/yes_67_hor_b1.png","f","pattern_response","true","f","pattern_79","964.3000000007451","true","41","","","","","","","","","","","","","","","","","","",""
"","","","","","html-keyboard-response","112","231323","0.0-2.0-7.0-0.6","5ef8e0fc2ce3c6644665e347","A3","batch1","","null","<p class=block-text>Trial 46 out of 78</p>","null","pattern_show_trial_num","","","","","","","","","","","","","","","","","","","","","","","","",""
"","","","","","image-keyboard-response","113","232308","0.0-2.0-7.0-1.6","5ef8e0fc2ce3c6644665e347","A3","batch1","","983","stim/yes_45_hor_b2_b.png","f","pattern_response","true","f","pattern_67","983","true","42","","","","","","","","","","","","","","","","","","",""
"","","","","","html-keyboard-response","114","233615","0.0-2.0-7.0-0.7","5ef8e0fc2ce3c6644665e347","A3","batch1","","null","<p class=block-text>Trial 47 out of 78</p>","null","pattern_show_trial_num","","","","","","","","","","","","","","","","","","","","","","","","",""
"","","","","","image-keyboard-response","115","235020","0.0-2.0-7.0-1.7","5ef8e0fc2ce3c6644665e347","A3","batch1","","1402.699999999255","stim/yes_35_dia_b1.png","j","pattern_response","false","f","pattern_57","1402.699999999255","false","42","","","","","","","","","","","","","","","","","","",""
"","","","","","html-keyboard-response","116","236328","0.0-2.0-7.0-0.8","5ef8e0fc2ce3c6644665e347","A3","batch1","","null","<p class=block-text>Trial 48 out of 78</p>","null","pattern_show_trial_num","","","","","","","","","","","","","","","","","","","","","","","","",""
"","","","","","image-keyboard-response","117","238653","0.0-2.0-7.0-1.8","5ef8e0fc2ce3c6644665e347","A3","batch1","","2323","stim/yes_50_dia_w1.png","j","pattern_response","false","f","pattern_71","2323","false","42","","","","","","","","","","","","","","","","","","",""
"","","","","","html-keyboard-response","118","239969","0.0-2.0-7.0-0.9","5ef8e0fc2ce3c6644665e347","A3","batch1","","null","<p class=block-text>Trial 49 out of 78</p>","null","pattern_show_trial_num","","","","","","","","","","","","","","","","","","","","","","","","",""
"","","","","","image-keyboard-response","119","240858","0.0-2.0-7.0-1.9","5ef8e0fc2ce3c6644665e347","A3","batch1","","886.3999999985099","stim/yes_22_ver_w1.png","f","pattern_response","true","f","pattern_47","886.3999999985099","true","43","","","","","","","","","","","","","","","","","","",""
"","","","","","html-keyboard-response","120","242168","0.0-2.0-7.0-0.10","5ef8e0fc2ce3c6644665e347","A3","batch1","","null","<p class=block-text>Trial 50 out of 78</p>","null","pattern_show_trial_num","","","","","","","","","","","","","","","","","","","","","","","","",""
"","","","","","image-keyboard-response","121","243357","0.0-2.0-7.0-1.10","5ef8e0fc2ce3c6644665e347","A3","batch1","","1187.300000000745","stim/no_36_2_w.png","f","pattern_response","false","j","pattern_18","1187.300000000745","false","43","","","","","","","","","","","","","","","","","","",""
"","","","","","html-keyboard-response","122","244672","0.0-2.0-7.0-0.11","5ef8e0fc2ce3c6644665e347","A3","batch1","","null","<p class=block-text>Trial 51 out of 78</p>","null","pattern_show_trial_num","","","","","","","","","","","","","","","","","","","","","","","","",""
"","","","","","image-keyboard-response","123","246982","0.0-2.0-7.0-1.11","5ef8e0fc2ce3c6644665e347","A3","batch1","","2308.10000000149","stim/yes_37_dia_w1.png","j","pattern_response","false","f","pattern_59","2308.10000000149","false","43","","","","","","","","","","","","","","","","","","",""
"","","","","","html-keyboard-response","124","248296","0.0-2.0-7.0-0.12","5ef8e0fc2ce3c6644665e347","A3","batch1","","null","<p class=block-text>Trial 52 out of 78</p>","null","pattern_show_trial_num","","","","","","","","","","","","","","","","","","","","","","","","",""
"","","","","","image-keyboard-response","125","250136","0.0-2.0-7.0-1.12","5ef8e0fc2ce3c6644665e347","A3","batch1","","1837.699999999255","stim/yes_40_dia_b1_b.png","f","pattern_response","true","f","pattern_63","1837.699999999255","true","44","","","","","","","","","","","","","","","","","","",""
"","","","","","html-keyboard-response","126","251457","0.0-2.0-7.0-0.13","5ef8e0fc2ce3c6644665e347","A3","batch1","","null","<p class=block-text>Trial 53 out of 78</p>","null","pattern_show_trial_num","","","","","","","","","","","","","","","","","","","","","","","","",""
"","","","","","image-keyboard-response","127","253247","0.0-2.0-7.0-1.13","5ef8e0fc2ce3c6644665e347","A3","batch1","","1787.4000000022352","stim/yes_29_ver_w1.png","f","pattern_response","true","f","pattern_53","1787.4000000022352","true","45","","","","","","","","","","","","","","","","","","",""
"","","","","","html-keyboard-response","128","254551","0.0-2.0-7.0-0.14","5ef8e0fc2ce3c6644665e347","A3","batch1","","null","<p class=block-text>Trial 54 out of 78</p>","null","pattern_show_trial_num","","","","","","","","","","","","","","","","","","","","","","","","",""
"","","","","","image-keyboard-response","129","257527","0.0-2.0-7.0-1.14","5ef8e0fc2ce3c6644665e347","A3","batch1","","2974","stim/no_44_1.png","j","pattern_response","true","j","pattern_24","2974","true","46","","","","","","","","","","","","","","","","","","",""
"","","","","","html-keyboard-response","130","258846","0.0-2.0-7.0-0.15","5ef8e0fc2ce3c6644665e347","A3","batch1","","null","<p class=block-text>Trial 55 out of 78</p>","null","pattern_show_trial_num","","","","","","","","","","","","","","","","","","","","","","","","",""
"","","","","","image-keyboard-response","131","261148","0.0-2.0-7.0-1.15","5ef8e0fc2ce3c6644665e347","A3","batch1","","2299.7000000029802","stim/no_46_1_b.png","j","pattern_response","true","j","pattern_26","2299.7000000029802","true","47","","","","","","","","","","","","","","","","","","",""
"","","","","","html-keyboard-response","132","262461","0.0-2.0-7.0-0.16","5ef8e0fc2ce3c6644665e347","A3","batch1","","null","<p class=block-text>Trial 56 out of 78</p>","null","pattern_show_trial_num","","","","","","","","","","","","","","","","","","","","","","","","",""
"","","","","","image-keyboard-response","133","263420","0.0-2.0-7.0-1.16","5ef8e0fc2ce3c6644665e347","A3","batch1","","957.5","stim/yes_28_ver_b1.png","f","pattern_response","true","f","pattern_51","957.5","true","48","","","","","","","","","","","","","","","","","","",""
"","","","","","html-keyboard-response","134","264737","0.0-2.0-7.0-0.17","5ef8e0fc2ce3c6644665e347","A3","batch1","","null","<p class=block-text>Trial 57 out of 78</p>","null","pattern_show_trial_num","","","","","","","","","","","","","","","","","","","","","","","","",""
"","","","","","image-keyboard-response","135","266187","0.0-2.0-7.0-1.17","5ef8e0fc2ce3c6644665e347","A3","batch1","","1448.3999999985099","stim/yes_31_hor_b1.png","f","pattern_response","true","f","pattern_55","1448.3999999985099","true","49","","","","","","","","","","","","","","","","","","",""
"","","","","","html-keyboard-response","136","267492","0.0-2.0-7.0-0.18","5ef8e0fc2ce3c6644665e347","A3","batch1","","null","<p class=block-text>Trial 58 out of 78</p>","null","pattern_show_trial_num","","","","","","","","","","","","","","","","","","","","","","","","",""
"","","","","","image-keyboard-response","137","268645","0.0-2.0-7.0-1.18","5ef8e0fc2ce3c6644665e347","A3","batch1","","1151.199999999255","stim/yes_43_ver_w1_w.png","f","pattern_response","true","f","pattern_65","1151.199999999255","true","50","","","","","","","","","","","","","","","","","","",""
"","","","","","html-keyboard-response","138","269964","0.0-2.0-7.0-0.19","5ef8e0fc2ce3c6644665e347","A3","batch1","","null","<p class=block-text>Trial 59 out of 78</p>","null","pattern_show_trial_num","","","","","","","","","","","","","","","","","","","","","","","","",""
"","","","","","image-keyboard-response","139","271571","0.0-2.0-7.0-1.19","5ef8e0fc2ce3c6644665e347","A3","batch1","","1605.7999999970198","stim/no_26_1_w.png","j","pattern_response","true","j","pattern_10","1605.7999999970198","true","51","","","","","","","","","","","","","","","","","","",""
"","","","","","html-keyboard-response","140","272883","0.0-2.0-7.0-0.20","5ef8e0fc2ce3c6644665e347","A3","batch1","","null","<p class=block-text>Trial 60 out of 78</p>","null","pattern_show_trial_num","","","","","","","","","","","","","","","","","","","","","","","","",""
"","","","","","image-keyboard-response","141","273630","0.0-2.0-7.0-1.20","5ef8e0fc2ce3c6644665e347","A3","batch1","","745.5","stim/yes_14_hor_b1_w.png","f","pattern_response","true","f","pattern_43","745.5","true","52","","","","","","","","","","","","","","","","","","",""
"","","","","","html-keyboard-response","142","274944","0.0-2.0-7.0-0.21","5ef8e0fc2ce3c6644665e347","A3","batch1","","null","<p class=block-text>Trial 61 out of 78</p>","null","pattern_show_trial_num","","","","","","","","","","","","","","","","","","","","","","","","",""
"","","","","","image-keyboard-response","143","275938","0.0-2.0-7.0-1.21","5ef8e0fc2ce3c6644665e347","A3","batch1","","992.1000000014901","stim/no_17_1_w.png","j","pattern_response","true","j","pattern_04","992.1000000014901","true","53","","","","","","","","","","","","","","","","","","",""
"","","","","","html-keyboard-response","144","277247","0.0-2.0-7.0-0.22","5ef8e0fc2ce3c6644665e347","A3","batch1","","null","<p class=block-text>Trial 62 out of 78</p>","null","pattern_show_trial_num","","","","","","","","","","","","","","","","","","","","","","","","",""
"","","","","","image-keyboard-response","145","280802","0.0-2.0-7.0-1.22","5ef8e0fc2ce3c6644665e347","A3","batch1","","3553.199999999255","stim/no_70_2.png","j","pattern_response","true","j","pattern_40","3553.199999999255","true","54","","","","","","","","","","","","","","","","","","",""
"","","","","","html-keyboard-response","146","282113","0.0-2.0-7.0-0.23","5ef8e0fc2ce3c6644665e347","A3","batch1","","null","<p class=block-text>Trial 63 out of 78</p>","null","pattern_show_trial_num","","","","","","","","","","","","","","","","","","","","","","","","",""
"","","","","","image-keyboard-response","147","285755","0.0-2.0-7.0-1.23","5ef8e0fc2ce3c6644665e347","A3","batch1","","3638.89999999851","stim/no_65_1_b.png","j","pattern_response","true","j","pattern_38","3638.89999999851","true","55","","","","","","","","","","","","","","","","","","",""
"","","","","","html-keyboard-response","148","287069","0.0-2.0-7.0-0.24","5ef8e0fc2ce3c6644665e347","A3","batch1","","null","<p class=block-text>Trial 64 out of 78</p>","null","pattern_show_trial_num","","","","","","","","","","","","","","","","","","","","","","","","",""
"","","","","","image-keyboard-response","149","289854","0.0-2.0-7.0-1.24","5ef8e0fc2ce3c6644665e347","A3","batch1","","2782.900000002235","stim/no_38_1_b.png","j","pattern_response","true","j","pattern_20","2782.900000002235","true","56","","","","","","","","","","","","","","","","","","",""
"","","","","","html-keyboard-response","150","291166","0.0-2.0-7.0-0.25","5ef8e0fc2ce3c6644665e347","A3","batch1","","null","<p class=block-text>Trial 65 out of 78</p>","null","pattern_show_trial_num","","","","","","","","","","","","","","","","","","","","","","","","",""
"","","","","","image-keyboard-response","151","294666","0.0-2.0-7.0-1.25","5ef8e0fc2ce3c6644665e347","A3","batch1","","3497.60000000149","stim/yes_52_ver_w1.png","j","pattern_response","false","f","pattern_73","3497.60000000149","false","56","","","","","","","","","","","","","","","","","","",""
"","","","","","html-keyboard-response","152","295977","0.0-2.0-7.0-0.26","5ef8e0fc2ce3c6644665e347","A3","batch1","","null","<p class=block-text>Trial 66 out of 78</p>","null","pattern_show_trial_num","","","","","","","","","","","","","","","","","","","","","","","","",""
"","","","","","image-keyboard-response","153","297401","0.0-2.0-7.0-1.26","5ef8e0fc2ce3c6644665e347","A3","batch1","","1422.5999999977648","stim/yes_60_ver_b1_b.png","f","pattern_response","true","f","pattern_77","1422.5999999977648","true","57","","","","","","","","","","","","","","","","","","",""
"","","","","","html-keyboard-response","154","298719","0.0-2.0-7.0-0.27","5ef8e0fc2ce3c6644665e347","A3","batch1","","null","<p class=block-text>Trial 67 out of 78</p>","null","pattern_show_trial_num","","","","","","","","","","","","","","","","","","","","","","","","",""
"","","","","","image-keyboard-response","155","300321","0.0-2.0-7.0-1.27","5ef8e0fc2ce3c6644665e347","A3","batch1","","1600.8999999985099","stim/no_20_1_w.png","j","pattern_response","true","j","pattern_06","1600.8999999985099","true","58","","","","","","","","","","","","","","","","","","",""
"","","","","","html-keyboard-response","156","301640","0.0-2.0-7.0-0.28","5ef8e0fc2ce3c6644665e347","A3","batch1","","null","<p class=block-text>Trial 68 out of 78</p>","null","pattern_show_trial_num","","","","","","","","","","","","","","","","","","","","","","","","",""
"","","","","","image-keyboard-response","157","302680","0.0-2.0-7.0-1.28","5ef8e0fc2ce3c6644665e347","A3","batch1","","1037.6000000014901","stim/yes_17_dia_w1.png","f","pattern_response","true","f","pattern_45","1037.6000000014901","true","59","","","","","","","","","","","","","","","","","","",""
"","","","","","html-keyboard-response","158","303989","0.0-2.0-7.0-0.29","5ef8e0fc2ce3c6644665e347","A3","batch1","","null","<p class=block-text>Trial 69 out of 78</p>","null","pattern_show_trial_num","","","","","","","","","","","","","","","","","","","","","","","","",""
"","","","","","image-keyboard-response","159","305391","0.0-2.0-7.0-1.29","5ef8e0fc2ce3c6644665e347","A3","batch1","","1400.1000000014901","stim/no_23_1.png","j","pattern_response","true","j","pattern_08","1400.1000000014901","true","60","","","","","","","","","","","","","","","","","","",""
"","","","","","html-keyboard-response","160","306715","0.0-2.0-7.0-0.30","5ef8e0fc2ce3c6644665e347","A3","batch1","","null","<p class=block-text>Trial 70 out of 78</p>","null","pattern_show_trial_num","","","","","","","","","","","","","","","","","","","","","","","","",""
"","","","","","image-keyboard-response","161","310186","0.0-2.0-7.0-1.30","5ef8e0fc2ce3c6644665e347","A3","batch1","","3469.300000000745","stim/no_62_1_w.png","j","pattern_response","true","j","pattern_36","3469.300000000745","true","61","","","","","","","","","","","","","","","","","","",""
"","","","","","html-keyboard-response","162","311503","0.0-2.0-7.0-0.31","5ef8e0fc2ce3c6644665e347","A3","batch1","","null","<p class=block-text>Trial 71 out of 78</p>","null","pattern_show_trial_num","","","","","","","","","","","","","","","","","","","","","","","","",""
"","","","","","image-keyboard-response","163","314361","0.0-2.0-7.0-1.31","5ef8e0fc2ce3c6644665e347","A3","batch1","","2855.5","stim/yes_48_dia_w1_w.png","j","pattern_response","false","f","pattern_69","2855.5","false","61","","","","","","","","","","","","","","","","","","",""
"","","","","","html-keyboard-response","164","315678","0.0-2.0-7.0-0.32","5ef8e0fc2ce3c6644665e347","A3","batch1","","null","<p class=block-text>Trial 72 out of 78</p>","null","pattern_show_trial_num","","","","","","","","","","","","","","","","","","","","","","","","",""
"","","","","","image-keyboard-response","165","318063","0.0-2.0-7.0-1.32","5ef8e0fc2ce3c6644665e347","A3","batch1","","2383.10000000149","stim/no_52_1.png","j","pattern_response","true","j","pattern_32","2383.10000000149","true","62","","","","","","","","","","","","","","","","","","",""
"","","","","","html-keyboard-response","166","319386","0.0-2.0-7.0-0.33","5ef8e0fc2ce3c6644665e347","A3","batch1","","null","<p class=block-text>Trial 73 out of 78</p>","null","pattern_show_trial_num","","","","","","","","","","","","","","","","","","","","","","","","",""
"","","","","","image-keyboard-response","167","321013","0.0-2.0-7.0-1.33","5ef8e0fc2ce3c6644665e347","A3","batch1","","1624","stim/no_32_1_w.png","j","pattern_response","true","j","pattern_14","1624","true","63","","","","","","","","","","","","","","","","","","",""
"","","","","","html-keyboard-response","168","322325","0.0-2.0-7.0-0.34","5ef8e0fc2ce3c6644665e347","A3","batch1","","null","<p class=block-text>Trial 74 out of 78</p>","null","pattern_show_trial_num","","","","","","","","","","","","","","","","","","","","","","","","",""
"","","","","","image-keyboard-response","169","325004","0.0-2.0-7.0-1.34","5ef8e0fc2ce3c6644665e347","A3","batch1","","2677.300000000745","stim/no_42_1_w.png","j","pattern_response","true","j","pattern_22","2677.300000000745","true","64","","","","","","","","","","","","","","","","","","",""
"","","","","","html-keyboard-response","170","326310","0.0-2.0-7.0-0.35","5ef8e0fc2ce3c6644665e347","A3","batch1","","null","<p class=block-text>Trial 75 out of 78</p>","null","pattern_show_trial_num","","","","","","","","","","","","","","","","","","","","","","","","",""
"","","","","","image-keyboard-response","171","327222","0.0-2.0-7.0-1.35","5ef8e0fc2ce3c6644665e347","A3","batch1","","909","stim/yes_25_hor_b1_b.png","f","pattern_response","true","f","pattern_49","909","true","65","","","","","","","","","","","","","","","","","","",""
"","","","","","html-keyboard-response","172","328538","0.0-2.0-7.0-0.36","5ef8e0fc2ce3c6644665e347","A3","batch1","","null","<p class=block-text>Trial 76 out of 78</p>","null","pattern_show_trial_num","","","","","","","","","","","","","","","","","","","","","","","","",""
"","","","","","image-keyboard-response","173","330447","0.0-2.0-7.0-1.36","5ef8e0fc2ce3c6644665e347","A3","batch1","","1907.8999999985099","stim/no_55_1_w.png","j","pattern_response","true","j","pattern_34","1907.8999999985099","true","66","","","","","","","","","","","","","","","","","","",""
"","","","","","html-keyboard-response","174","331763","0.0-2.0-7.0-0.37","5ef8e0fc2ce3c6644665e347","A3","batch1","","null","<p class=block-text>Trial 77 out of 78</p>","null","pattern_show_trial_num","","","","","","","","","","","","","","","","","","","","","","","","",""
"","","","","","image-keyboard-response","175","333518","0.0-2.0-7.0-1.37","5ef8e0fc2ce3c6644665e347","A3","batch1","","1752.6000000014901","stim/no_29_1_b.png","j","pattern_response","true","j","pattern_12","1752.6000000014901","true","67","","","","","","","","","","","","","","","","","","",""
"","","","","","html-keyboard-response","176","334830","0.0-2.0-7.0-0.38","5ef8e0fc2ce3c6644665e347","A3","batch1","","null","<p class=block-text>Trial 78 out of 78</p>","null","pattern_show_trial_num","","","","","","","","","","","","","","","","","","","","","","","","",""
"","","","","","image-keyboard-response","177","337940","0.0-2.0-7.0-1.38","5ef8e0fc2ce3c6644665e347","A3","batch1","","3108.300000000745","stim/no_50_1.png","j","pattern_response","true","j","pattern_30","3108.300000000745","true","68","","","","","","","","","","","","","","","","","","",""
"","","","","","html-button-response","178","343390","0.0-2.0-8.0","5ef8e0fc2ce3c6644665e347","A3","batch1","","4947.39999999851","<p class = block-text>This concludes the 4-in-a-row detection game.Thank you for your responses!<br>
            You responded correctly on 87% of the trials.<br>
            When you are ready, press ""Continue"" button to continue </p>","0","","","","","","","","","","","","","","","","","","","","","","","","","",""
"true","","","","","fullscreen","179","346015","0.0-3.0-0.0","5ef8e0fc2ce3c6644665e347","A3","batch1","","","","","","","","","","","","","","","","","","","","","","","","","","","","","",""
"","","","","","instructions","180","438005","0.0-3.0-1.0-0.0-0.0","5ef8e0fc2ce3c6644665e347","A3","batch1","[{""page_index"":0,""viewing_time"":23860},{""page_index"":1,""viewing_time"":15558.89999999851},{""page_index"":2,""viewing_time"":10563.10000000149},{""page_index"":3,""viewing_time"":15769},{""page_index"":4,""viewing_time"":5212.60000000149},{""page_index"":5,""viewing_time"":13304.199999999255},{""page_index"":6,""viewing_time"":7721.300000000745}]","91989.39999999851","","","tol-instructions","","","","","","","","","","","","","","","","","","","","","","","","",""
"","","","","","html-button-response","181","439106","0.0-3.0-1.0-1.0-0.0","5ef8e0fc2ce3c6644665e347","A3","batch1","","1100","<p class=block-text> Let's answer a few questions <br>","0","tol_enter_quiz","","","","","","","","","","","","","","","","","","","","","","","","",""
"","","","","","html-button-response","182","458449","0.0-3.0-1.0-1.0-1.0","5ef8e0fc2ce3c6644665e347","A3","batch1","","19341.800000000745","<p class = block-text>True or False: You can only move the ball on top of a peg. <br></p>","1","tol_quiz","false","","","","","","","","","","","","","","","","","","","","","","","",""
"","","","","","html-button-response","183","461109","0.0-3.0-1.0-1.0-2.0","5ef8e0fc2ce3c6644665e347","A3","batch1","","2658.099999997765","<p class = block-text>Incorrect. Remember, you can only move the ball on top of a peg.</p>","0","tol_quiz_feedback","","","","","","","","","","","","","","","","","","","","","","","","",""
"","","","","","html-button-response","184","467010","0.0-3.0-1.0-1.0-3.0","5ef8e0fc2ce3c6644665e347","A3","batch1","","5899.89999999851","<p class = block-text>True or False: You should try to match your board with the target board with fewest moves possible. <br></p>","0","tol_quiz","true","","","","","","","","","","","","","","","","","","","","","","","",""
"","","","","","html-button-response","185","467553","0.0-3.0-1.0-1.0-4.0","5ef8e0fc2ce3c6644665e347","A3","batch1","","541.3999999985099","<p class = block-text>Correct! </p>","0","tol_quiz_feedback","","","","","","","","","","","","","","","","","","","","","","","","",""
"","","","","","html-button-response","186","469431","0.0-3.0-1.0-2.0-0.0","5ef8e0fc2ce3c6644665e347","A3","batch1","","1876.4000000022352","<p class = block-text>You made too many incorrect choices.</p><p class = block-text>You will now repeat the instructions and quiz</p>","0","","","","","","","","","","","","","","","","","","","","","","","","","",""
"","","","","","instructions","187","498491","0.0-3.0-1.1-0.1-0.1","5ef8e0fc2ce3c6644665e347","A3","batch1","[{""page_index"":0,""viewing_time"":2137.199999999255},{""page_index"":1,""viewing_time"":1022.1999999992549},{""page_index"":0,""viewing_time"":5857},{""page_index"":1,""viewing_time"":1942.5},{""page_index"":2,""viewing_time"":1782.5},{""page_index"":3,""viewing_time"":4422.300000000745},{""page_index"":4,""viewing_time"":5842.199999999255},{""page_index"":5,""viewing_time"":4891.699999999255},{""page_index"":6,""viewing_time"":1160.800000000745}]","29058.599999997765","","","tol-instructions","","","","","","","","","","","","","","","","","","","","","","","","",""
"","","","","","html-button-response","188","499324","0.0-3.0-1.1-1.1-0.1","5ef8e0fc2ce3c6644665e347","A3","batch1","","832.1999999992549","<p class=block-text> Let's answer a few questions <br>","0","tol_enter_quiz","","","","","","","","","","","","","","","","","","","","","","","","",""
"","","","","","html-button-response","189","503883","0.0-3.0-1.1-1.1-1.1","5ef8e0fc2ce3c6644665e347","A3","batch1","","4557.599999997765","<p class = block-text>True or False: You can only move the ball on top of a peg. <br></p>","0","tol_quiz","true","","","","","","","","","","","","","","","","","","","","","","","",""
"","","","","","html-button-response","190","504673","0.0-3.0-1.1-1.1-2.1","5ef8e0fc2ce3c6644665e347","A3","batch1","","788.5","<p class = block-text>Correct! You can only move the ball on top of a peg.</p>","0","tol_quiz_feedback","","","","","","","","","","","","","","","","","","","","","","","","",""
"","","","","","html-button-response","191","507218","0.0-3.0-1.1-1.1-3.1","5ef8e0fc2ce3c6644665e347","A3","batch1","","2543.199999999255","<p class = block-text>True or False: You should try to match your board with the target board with fewest moves possible. <br></p>","0","tol_quiz","true","","","","","","","","","","","","","","","","","","","","","","","",""
"","","","","","html-button-response","192","507718","0.0-3.0-1.1-1.1-4.1","5ef8e0fc2ce3c6644665e347","A3","batch1","","499","<p class = block-text>Correct! </p>","0","tol_quiz_feedback","","","","","","","","","","","","","","","","","","","","","","","","",""
"","","","","","html-button-response","193","509820","0.0-3.0-2.0","5ef8e0fc2ce3c6644665e347","A3","batch1","","2100.599999997765","<p class=block-text> Now that you've understood the game, let's practice a few easier examples before we start!<br> <br>","0","","","","","","","","","","","","","","","","","","","","","","","","","",""
"","","","","","single-stim-button","194","511926","0.0-3.0-3.0-0.0","5ef8e0fc2ce3c6644665e347","A3","batch1","","2101","","","tol_practice","","","","","","","","","tol_peg_2","2101","2101","0","[[1,2,0],[0,0],[0]]","1","[[1,2,0],[0,0],[3]]","practice","2101","","","","","","","",""
"","","","","","single-stim-button","195","512676","0.0-3.0-3.0-1.0","5ef8e0fc2ce3c6644665e347","A3","batch1","","748","","","tol_practice","","","","","","","","","tol_peg_3","748","748","0","[[1,2,0],[0,0],[3]]","1","[[1,2,0],[0,0],[3]]","practice","748","","","","","","","",""
"","","","","","poldrack-single-stim","196","513679","0.0-3.0-4.0","5ef8e0fc2ce3c6644665e347","A3","batch1","","-1","","","tol_feedback","true","","","","","","","","","1000","1000","500","","","","","","-1","none","true","","0","","",""
"","","","","","single-stim-button","197","522215","0.0-3.0-5.0-0.0","5ef8e0fc2ce3c6644665e347","A3","batch1","","8535","","","tol_practice","","","","","","","","","tol_peg_1","8535","8535","0","[[1,0,0],[3,0],[0]]","2","[[0,0,0],[3,1],[2]]","practice","8535","","","","","","","",""
"","","","","","single-stim-button","198","523063","0.0-3.0-5.0-1.0","5ef8e0fc2ce3c6644665e347","A3","batch1","","847","","","tol_practice","","","","","","","","","tol_peg_2","847","847","0","[[1,0,0],[3,2],[0]]","2","[[0,0,0],[3,1],[2]]","practice","847","","","","","","","",""
"","","","","","single-stim-button","199","527499","0.0-3.0-5.1-0.1","5ef8e0fc2ce3c6644665e347","A3","batch1","","4435","","","tol_practice","","","","","","","","","tol_peg_2","4435","4435","0","[[1,0,0],[3,0],[0]]","3","[[0,0,0],[3,1],[2]]","practice","4435","","","","","","","",""
"","","","","","single-stim-button","200","528245","0.0-3.0-5.1-1.1","5ef8e0fc2ce3c6644665e347","A3","batch1","","745","","","tol_practice","","","","","","","","","tol_peg_3","745","745","0","[[1,0,0],[3,0],[2]]","3","[[0,0,0],[3,1],[2]]","practice","745","","","","","","","",""
"","","","","","single-stim-button","201","529166","0.0-3.0-5.2-0.2","5ef8e0fc2ce3c6644665e347","A3","batch1","","920","","","tol_practice","","","","","","","","","tol_peg_1","920","920","0","[[0,0,0],[3,0],[2]]","4","[[0,0,0],[3,1],[2]]","practice","920","","","","","","","",""
"","","","","","single-stim-button","202","530058","0.0-3.0-5.2-1.2","5ef8e0fc2ce3c6644665e347","A3","batch1","","890","","","tol_practice","","","","","","","","","tol_peg_2","890","890","0","[[0,0,0],[3,1],[2]]","4","[[0,0,0],[3,1],[2]]","practice","890","","","","","","","",""
"","","","","","poldrack-single-stim","203","531069","0.0-3.0-6.0","5ef8e0fc2ce3c6644665e347","A3","batch1","","-1","","","tol_feedback","true","","","","","","","","","1000","1000","500","","","","","","-1","none","true","","0","","",""
"","","","","","single-stim-button","204","534182","0.0-3.0-7.0-0.0","5ef8e0fc2ce3c6644665e347","A3","batch1","","3111","","","tol_practice","","","","","","","","","tol_peg_2","3111","3111","0","[[1,2,0],[0,0],[0]]","5","[[1,0,0],[2,0],[3]]","practice","3111","","","","","","","",""
"","","","","","single-stim-button","205","534762","0.0-3.0-7.0-1.0","5ef8e0fc2ce3c6644665e347","A3","batch1","","579","","","tol_practice","","","","","","","","","tol_peg_3","579","579","0","[[1,2,0],[0,0],[3]]","5","[[1,0,0],[2,0],[3]]","practice","579","","","","","","","",""
"","","","","","single-stim-button","206","535675","0.0-3.0-7.1-0.1","5ef8e0fc2ce3c6644665e347","A3","batch1","","912","","","tol_practice","","","","","","","","","tol_peg_1","912","912","0","[[1,0,0],[0,0],[3]]","6","[[1,0,0],[2,0],[3]]","practice","912","","","","","","","",""
"","","","","","single-stim-button","207","536299","0.0-3.0-7.1-1.1","5ef8e0fc2ce3c6644665e347","A3","batch1","","623","","","tol_practice","","","","","","","","","tol_peg_2","623","623","0","[[1,0,0],[2,0],[3]]","6","[[1,0,0],[2,0],[3]]","practice","623","","","","","","","",""
"","","","","","poldrack-single-stim","208","537301","0.0-3.0-8.0","5ef8e0fc2ce3c6644665e347","A3","batch1","","-1","","","tol_feedback","true","","","","","","","","","1000","1000","500","","","","","","-1","none","true","","0","","",""
"","","","","","html-button-response","209","539784","0.0-3.0-9.0","5ef8e0fc2ce3c6644665e347","A3","batch1","","2482.199999999255","<div class = centerbox><p class = center-block-text>Great job! You are done with practice trials<br>You are about to start official trials.<br> <br> Problem <strong>1</strong> out of 25 problems</p></div>","0","tol_instruction","","","","","","","","","","","","","","","","","","","","","","","","",""
"","","","","","single-stim-button","210","545822","0.0-3.0-10.0-0.0","5ef8e0fc2ce3c6644665e347","A3","batch1","","5027","","","tol_tohand","","","","","","","","","tol_peg_1","5027","5027","0","[[1,0,0],[3,0],[0]]","1","[[1,3,0],[2,0],[0]]","0","0","","","","","","3","",""
"","","","","","single-stim-button","211","546482","0.0-3.0-10.0-1.0","5ef8e0fc2ce3c6644665e347","A3","batch1","","658","","","tol_toboard","","","","","","","","","tol_peg_3","658","658","0","[[1,0,0],[3,0],[2]]","1","[[1,3,0],[2,0],[0]]","0","0","","","","","","3","",""
"","","","","","single-stim-button","212","547019","0.0-3.0-10.1-0.1","5ef8e0fc2ce3c6644665e347","A3","batch1","","535","","","tol_tohand","","","","","","","","","tol_peg_2","535","535","0","[[1,0,0],[0,0],[2]]","2","[[1,3,0],[2,0],[0]]","0","0","","","","","","3","",""
"","","","","","single-stim-button","213","547504","0.0-3.0-10.1-1.1","5ef8e0fc2ce3c6644665e347","A3","batch1","","483","","","tol_toboard","","","","","","","","","tol_peg_1","483","483","0","[[1,3,0],[0,0],[2]]","2","[[1,3,0],[2,0],[0]]","0","0","","","","","","3","",""
"","","","","","single-stim-button","214","548142","0.0-3.0-10.2-0.2","5ef8e0fc2ce3c6644665e347","A3","batch1","","637","","","tol_tohand","","","","","","","","","tol_peg_3","637","637","0","[[1,3,0],[0,0],[0]]","3","[[1,3,0],[2,0],[0]]","0","0","","","","","","3","",""
"","","","","","single-stim-button","215","548744","0.0-3.0-10.2-1.2","5ef8e0fc2ce3c6644665e347","A3","batch1","","601","","","tol_toboard","","","","","","","","","tol_peg_2","601","601","0","[[1,3,0],[2,0],[0]]","3","[[1,3,0],[2,0],[0]]","0","0","","","","","","3","",""
"","","","","","poldrack-single-stim","216","549751","0.0-3.0-11.0","5ef8e0fc2ce3c6644665e347","A3","batch1","","-1","","","tol_feedback","true","","","","","","","","","1000","1000","500","","","","","","-1","none","true","5027","6199","","",""
"","","","","","html-button-response","217","551294","0.0-3.0-12.0","5ef8e0fc2ce3c6644665e347","A3","batch1","","1541.0999999977648","<div class = centerbox><p class = center-block-text>problem <strong>2</strong> out of 25 problems</p></div>","0","tol_trial_num","","","","","","","","","","","","","","","","","","","","","","","","",""
"","","","","","single-stim-button","218","559166","0.0-3.0-13.0-0.0","5ef8e0fc2ce3c6644665e347","A3","batch1","","7872","","","tol_tohand","","","","","","","","","tol_peg_1","7872","7872","0","[[1,0,0],[3,0],[0]]","1","[[2,1,3],[0,0],[0]]","1","0","","","","","","5","",""
"","","","","","single-stim-button","219","559999","0.0-3.0-13.0-1.0","5ef8e0fc2ce3c6644665e347","A3","batch1","","832","","","tol_toboard","","","","","","","","","tol_peg_3","832","832","0","[[1,0,0],[3,0],[2]]","1","[[2,1,3],[0,0],[0]]","1","0","","","","","","5","",""
"","","","","","single-stim-button","220","560463","0.0-3.0-13.1-0.1","5ef8e0fc2ce3c6644665e347","A3","batch1","","462","","","tol_tohand","","","","","","","","","tol_peg_1","462","462","0","[[0,0,0],[3,0],[2]]","2","[[2,1,3],[0,0],[0]]","1","0","","","","","","5","",""
"","","","","","single-stim-button","221","561036","0.0-3.0-13.1-1.1","5ef8e0fc2ce3c6644665e347","A3","batch1","","571","","","tol_toboard","","","","","","","","","tol_peg_2","571","571","0","[[0,0,0],[3,1],[2]]","2","[[2,1,3],[0,0],[0]]","1","0","","","","","","5","",""
"","","","","","single-stim-button","222","561565","0.0-3.0-13.2-0.2","5ef8e0fc2ce3c6644665e347","A3","batch1","","528","","","tol_tohand","","","","","","","","","tol_peg_3","528","528","0","[[0,0,0],[3,1],[0]]","3","[[2,1,3],[0,0],[0]]","1","0","","","","","","5","",""
"","","","","","single-stim-button","223","562138","0.0-3.0-13.2-1.2","5ef8e0fc2ce3c6644665e347","A3","batch1","","571","","","tol_toboard","","","","","","","","","tol_peg_1","571","571","0","[[2,0,0],[3,1],[0]]","3","[[2,1,3],[0,0],[0]]","1","0","","","","","","5","",""
"","","","","","single-stim-button","224","562658","0.0-3.0-13.3-0.3","5ef8e0fc2ce3c6644665e347","A3","batch1","","520","","","tol_tohand","","","","","","","","","tol_peg_2","520","520","0","[[2,0,0],[3,0],[0]]","4","[[2,1,3],[0,0],[0]]","1","0","","","","","","5","",""
"","","","","","single-stim-button","225","563151","0.0-3.0-13.3-1.3","5ef8e0fc2ce3c6644665e347","A3","batch1","","492","","","tol_toboard","","","","","","","","","tol_peg_1","492","492","0","[[2,1,0],[3,0],[0]]","4","[[2,1,3],[0,0],[0]]","1","0","","","","","","5","",""
"","","","","","single-stim-button","226","563659","0.0-3.0-13.4-0.4","5ef8e0fc2ce3c6644665e347","A3","batch1","","507","","","tol_tohand","","","","","","","","","tol_peg_2","507","507","0","[[2,1,0],[0,0],[0]]","5","[[2,1,3],[0,0],[0]]","1","0","","","","","","5","",""
"","","","","","single-stim-button","227","564232","0.0-3.0-13.4-1.4","5ef8e0fc2ce3c6644665e347","A3","batch1","","572","","","tol_toboard","","","","","","","","","tol_peg_1","572","572","0","[[2,1,3],[0,0],[0]]","5","[[2,1,3],[0,0],[0]]","1","0","","","","","","5","",""
"","","","","","poldrack-single-stim","228","565249","0.0-3.0-14.0","5ef8e0fc2ce3c6644665e347","A3","batch1","","-1","","","tol_feedback","true","","","","","","","","","1000","1000","500","","","","","","-1","none","true","7872","9889","","",""
"","","","","","html-button-response","229","566356","0.0-3.0-15.0","5ef8e0fc2ce3c6644665e347","A3","batch1","","1105.6000000014901","<div class = centerbox><p class = center-block-text>problem <strong>3</strong> out of 25 problems</p></div>","0","tol_trial_num","","","","","","","","","","","","","","","","","","","","","","","","",""
"","","","","","single-stim-button","230","570676","0.0-3.0-16.0-0.0","5ef8e0fc2ce3c6644665e347","A3","batch1","","4318","","","tol_tohand","","","","","","","","","tol_peg_1","4318","4318","0","[[2,0,0],[0,0],[1]]","1","[[1,2,0],[3,0],[0]]","2","0","","","","","","4","",""
"","","","","","single-stim-button","231","571553","0.0-3.0-16.0-1.0","5ef8e0fc2ce3c6644665e347","A3","batch1","","875","","","tol_toboard","","","","","","","","","tol_peg_2","875","875","0","[[2,0,0],[3,0],[1]]","1","[[1,2,0],[3,0],[0]]","2","0","","","","","","4","",""
"","","","","","single-stim-button","232","572082","0.0-3.0-16.1-0.1","5ef8e0fc2ce3c6644665e347","A3","batch1","","528","","","tol_tohand","","","","","","","","","tol_peg_1","528","528","0","[[0,0,0],[3,0],[1]]","2","[[1,2,0],[3,0],[0]]","2","0","","","","","","4","",""
"","","","","","single-stim-button","233","573988","0.0-3.0-16.1-1.1","5ef8e0fc2ce3c6644665e347","A3","batch1","","1904","","","tol_toboard","","","","","","","","","tol_peg_2","1904","1904","0","[[0,0,0],[3,2],[1]]","2","[[1,2,0],[3,0],[0]]","2","0","","","","","","4","",""
"","","","","","single-stim-button","234","574430","0.0-3.0-16.2-0.2","5ef8e0fc2ce3c6644665e347","A3","batch1","","441","","","tol_tohand","","","","","","","","","tol_peg_3","441","441","0","[[0,0,0],[3,2],[0]]","3","[[1,2,0],[3,0],[0]]","2","0","","","","","","4","",""
"","","","","","single-stim-button","235","575017","0.0-3.0-16.2-1.2","5ef8e0fc2ce3c6644665e347","A3","batch1","","586","","","tol_toboard","","","","","","","","","tol_peg_1","586","586","0","[[1,0,0],[3,2],[0]]","3","[[1,2,0],[3,0],[0]]","2","0","","","","","","4","",""
"","","","","","single-stim-button","236","575895","0.0-3.0-16.3-0.3","5ef8e0fc2ce3c6644665e347","A3","batch1","","876","","","tol_tohand","","","","","","","","","tol_peg_2","876","876","0","[[1,0,0],[3,0],[0]]","4","[[1,2,0],[3,0],[0]]","2","0","","","","","","4","",""
"","","","","","single-stim-button","237","576460","0.0-3.0-16.3-1.3","5ef8e0fc2ce3c6644665e347","A3","batch1","","564","","","tol_toboard","","","","","","","","","tol_peg_1","564","564","0","[[1,2,0],[3,0],[0]]","4","[[1,2,0],[3,0],[0]]","2","0","","","","","","4","",""
"","","","","","poldrack-single-stim","238","577464","0.0-3.0-17.0","5ef8e0fc2ce3c6644665e347","A3","batch1","","-1","","","tol_feedback","true","","","","","","","","","1000","1000","500","","","","","","-1","none","true","4318","6163","","",""
"","","","","","html-button-response","239","579120","0.0-3.0-18.0","5ef8e0fc2ce3c6644665e347","A3","batch1","","1655.1000000014901","<div class = centerbox><p class = center-block-text>problem <strong>4</strong> out of 25 problems</p></div>","0","tol_trial_num","","","","","","","","","","","","","","","","","","","","","","","","",""
"","","","","","single-stim-button","240","583555","0.0-3.0-19.0-0.0","5ef8e0fc2ce3c6644665e347","A3","batch1","","4434","","","tol_tohand","","","","","","","","","tol_peg_2","4434","4434","0","[[3,0,0],[2,0],[0]]","1","[[3,0,0],[1,0],[2]]","3","0","","","","","","3","",""
"","","","","","single-stim-button","241","584193","0.0-3.0-19.0-1.0","5ef8e0fc2ce3c6644665e347","A3","batch1","","638","","","tol_toboard","","","","","","","","","tol_peg_1","638","638","0","[[3,1,0],[2,0],[0]]","1","[[3,0,0],[1,0],[2]]","3","0","","","","","","3","",""
"","","","","","single-stim-button","242","584643","0.0-3.0-19.1-0.1","5ef8e0fc2ce3c6644665e347","A3","batch1","","449","","","tol_tohand","","","","","","","","","tol_peg_2","449","449","0","[[3,1,0],[0,0],[0]]","2","[[3,0,0],[1,0],[2]]","3","0","","","","","","3","",""
"","","","","","single-stim-button","243","585353","0.0-3.0-19.1-1.1","5ef8e0fc2ce3c6644665e347","A3","batch1","","709","","","tol_toboard","","","","","","","","","tol_peg_3","709","709","0","[[3,1,0],[0,0],[2]]","2","[[3,0,0],[1,0],[2]]","3","0","","","","","","3","",""
"","","","","","single-stim-button","244","585868","0.0-3.0-19.2-0.2","5ef8e0fc2ce3c6644665e347","A3","batch1","","514","","","tol_tohand","","","","","","","","","tol_peg_1","514","514","0","[[3,0,0],[0,0],[2]]","3","[[3,0,0],[1,0],[2]]","3","0","","","","","","3","",""
"","","","","","single-stim-button","245","586657","0.0-3.0-19.2-1.2","5ef8e0fc2ce3c6644665e347","A3","batch1","","788","","","tol_toboard","","","","","","","","","tol_peg_2","788","788","0","[[3,0,0],[1,0],[2]]","3","[[3,0,0],[1,0],[2]]","3","0","","","","","","3","",""
"","","","","","poldrack-single-stim","246","587671","0.0-3.0-20.0","5ef8e0fc2ce3c6644665e347","A3","batch1","","-1","","","tol_feedback","true","","","","","","","","","1000","1000","500","","","","","","-1","none","true","4434","5397","","",""
"","","","","","html-button-response","247","590028","0.0-3.0-21.0","5ef8e0fc2ce3c6644665e347","A3","batch1","","2356.5","<div class = centerbox><p class = center-block-text>problem <strong>5</strong> out of 25 problems</p></div>","0","tol_trial_num","","","","","","","","","","","","","","","","","","","","","","","","",""
"","","","","","single-stim-button","248","616051","0.0-3.0-22.0-0.0","5ef8e0fc2ce3c6644665e347","A3","batch1","","26021","","","tol_tohand","","","","","","","","","tol_peg_1","26021","26021","0","[[0,0,0],[2,0],[3]]","1","[[0,0,0],[1,2],[3]]","4","0","","","","","","7","",""
"","","","","","single-stim-button","249","616977","0.0-3.0-22.0-1.0","5ef8e0fc2ce3c6644665e347","A3","batch1","","925","","","tol_toboard","","","","","","","","","tol_peg_2","925","925","0","[[0,0,0],[2,1],[3]]","1","[[0,0,0],[1,2],[3]]","4","0","","","","","","7","",""
"","","","","","single-stim-button","250","617427","0.0-3.0-22.1-0.1","5ef8e0fc2ce3c6644665e347","A3","batch1","","448","","","tol_tohand","","","","","","","","","tol_peg_3","448","448","0","[[0,0,0],[2,1],[0]]","2","[[0,0,0],[1,2],[3]]","4","0","","","","","","7","",""
"","","","","","single-stim-button","251","618318","0.0-3.0-22.1-1.1","5ef8e0fc2ce3c6644665e347","A3","batch1","","891","","","tol_toboard","","","","","","","","","tol_peg_1","891","891","0","[[3,0,0],[2,1],[0]]","2","[[0,0,0],[1,2],[3]]","4","0","","","","","","7","",""
"","","","","","single-stim-button","252","619123","0.0-3.0-22.2-0.2","5ef8e0fc2ce3c6644665e347","A3","batch1","","804","","","tol_tohand","","","","","","","","","tol_peg_2","804","804","0","[[3,0,0],[2,0],[0]]","3","[[0,0,0],[1,2],[3]]","4","0","","","","","","7","",""
"","","","","","single-stim-button","253","619645","0.0-3.0-22.2-1.2","5ef8e0fc2ce3c6644665e347","A3","batch1","","520","","","tol_toboard","","","","","","","","","tol_peg_3","520","520","0","[[3,0,0],[2,0],[1]]","3","[[0,0,0],[1,2],[3]]","4","0","","","","","","7","",""
"","","","","","single-stim-button","254","620188","0.0-3.0-22.3-0.3","5ef8e0fc2ce3c6644665e347","A3","batch1","","541","","","tol_tohand","","","","","","","","","tol_peg_2","541","541","0","[[3,0,0],[0,0],[1]]","4","[[0,0,0],[1,2],[3]]","4","0","","","","","","7","",""
"","","","","","single-stim-button","255","621276","0.0-3.0-22.3-1.3","5ef8e0fc2ce3c6644665e347","A3","batch1","","1086","","","tol_toboard","","","","","","","","","tol_peg_1","1086","1086","0","[[3,2,0],[0,0],[1]]","4","[[0,0,0],[1,2],[3]]","4","0","","","","","","7","",""
"","","","","","single-stim-button","256","622666","0.0-3.0-22.4-0.4","5ef8e0fc2ce3c6644665e347","A3","batch1","","1390","","","tol_tohand","","","","","","","","","tol_peg_3","1390","1390","0","[[3,2,0],[0,0],[0]]","5","[[0,0,0],[1,2],[3]]","4","0","","","","","","7","",""
"","","","","","single-stim-button","257","623370","0.0-3.0-22.4-1.4","5ef8e0fc2ce3c6644665e347","A3","batch1","","704","","","tol_toboard","","","","","","","","","tol_peg_2","704","704","0","[[3,2,0],[1,0],[0]]","5","[[0,0,0],[1,2],[3]]","4","0","","","","","","7","",""
"","","","","","single-stim-button","258","623870","0.0-3.0-22.5-0.5","5ef8e0fc2ce3c6644665e347","A3","batch1","","499","","","tol_tohand","","","","","","","","","tol_peg_1","499","499","0","[[3,0,0],[1,0],[0]]","6","[[0,0,0],[1,2],[3]]","4","0","","","","","","7","",""
"","","","","","single-stim-button","259","624414","0.0-3.0-22.5-1.5","5ef8e0fc2ce3c6644665e347","A3","batch1","","542","","","tol_toboard","","","","","","","","","tol_peg_2","542","542","0","[[3,0,0],[1,2],[0]]","6","[[0,0,0],[1,2],[3]]","4","0","","","","","","7","",""
"","","","","","single-stim-button","260","624870","0.0-3.0-22.6-0.6","5ef8e0fc2ce3c6644665e347","A3","batch1","","456","","","tol_tohand","","","","","","","","","tol_peg_1","456","456","0","[[0,0,0],[1,2],[0]]","7","[[0,0,0],[1,2],[3]]","4","0","","","","","","7","",""
"","","","","","single-stim-button","261","625791","0.0-3.0-22.6-1.6","5ef8e0fc2ce3c6644665e347","A3","batch1","","919","","","tol_toboard","","","","","","","","","tol_peg_3","919","919","0","[[0,0,0],[1,2],[3]]","7","[[0,0,0],[1,2],[3]]","4","0","","","","","","7","",""
"","","","","","poldrack-single-stim","262","626794","0.0-3.0-23.0","5ef8e0fc2ce3c6644665e347","A3","batch1","","-1","","","tol_feedback","true","","","","","","","","","1000","1000","500","","","","","","-1","none","true","26021","30159","","",""
"","","","","","html-button-response","263","627559","0.0-3.0-24.0","5ef8e0fc2ce3c6644665e347","A3","batch1","","763.7000000029802","<div class = centerbox><p class = center-block-text>problem <strong>6</strong> out of 25 problems</p></div>","0","tol_trial_num","","","","","","","","","","","","","","","","","","","","","","","","",""
"","","","","","single-stim-button","264","635691","0.0-3.0-25.0-0.0","5ef8e0fc2ce3c6644665e347","A3","batch1","","8132","","","tol_tohand","","","","","","","","","tol_peg_2","8132","8132","0","[[0,0,0],[1,0],[3]]","1","[[1,0,0],[2,3],[0]]","5","0","","","","","","6","",""
"","","","","","single-stim-button","265","636590","0.0-3.0-25.0-1.0","5ef8e0fc2ce3c6644665e347","A3","batch1","","897","","","tol_toboard","","","","","","","","","tol_peg_1","897","897","0","[[2,0,0],[1,0],[3]]","1","[[1,0,0],[2,3],[0]]","5","0","","","","","","6","",""
"","","","","","single-stim-button","266","637873","0.0-3.0-25.1-0.1","5ef8e0fc2ce3c6644665e347","A3","batch1","","1282","","","tol_tohand","","","","","","","","","tol_peg_2","1282","1282","0","[[2,0,0],[0,0],[3]]","2","[[1,0,0],[2,3],[0]]","5","0","","","","","","6","",""
"","","","","","single-stim-button","267","645374","0.0-3.0-25.1-1.1","5ef8e0fc2ce3c6644665e347","A3","batch1","","7499","","","tol_toboard","","","","","","","","","tol_peg_1","7499","7499","0","[[2,1,0],[0,0],[3]]","2","[[1,0,0],[2,3],[0]]","5","0","","","","","","6","",""
"","","","","","single-stim-button","268","650672","0.0-3.0-25.2-0.2","5ef8e0fc2ce3c6644665e347","A3","batch1","","5296","","","tol_tohand","","","","","","","","","tol_peg_3","5296","5296","0","[[2,1,0],[0,0],[0]]","3","[[1,0,0],[2,3],[0]]","5","0","","","","","","6","",""
"","","","","","single-stim-button","269","651888","0.0-3.0-25.2-1.2","5ef8e0fc2ce3c6644665e347","A3","batch1","","1215","","","tol_toboard","","","","","","","","","tol_peg_2","1215","1215","0","[[2,1,0],[3,0],[0]]","3","[[1,0,0],[2,3],[0]]","5","0","","","","","","6","",""
"","","","","","single-stim-button","270","652368","0.0-3.0-25.3-0.3","5ef8e0fc2ce3c6644665e347","A3","batch1","","478","","","tol_tohand","","","","","","","","","tol_peg_1","478","478","0","[[2,0,0],[3,0],[0]]","4","[[1,0,0],[2,3],[0]]","5","0","","","","","","6","",""
"","","","","","single-stim-button","271","653716","0.0-3.0-25.3-1.3","5ef8e0fc2ce3c6644665e347","A3","batch1","","1347","","","tol_toboard","","","","","","","","","tol_peg_3","1347","1347","0","[[2,0,0],[3,0],[1]]","4","[[1,0,0],[2,3],[0]]","5","0","","","","","","6","",""
"","","","","","single-stim-button","272","656122","0.0-3.0-25.4-0.4","5ef8e0fc2ce3c6644665e347","A3","batch1","","2406","","","tol_tohand","","","","","","","","","tol_peg_1","2406","2406","0","[[0,0,0],[3,0],[1]]","5","[[1,0,0],[2,3],[0]]","5","0","","","","","","6","",""
"","","","","","single-stim-button","273","656912","0.0-3.0-25.4-1.4","5ef8e0fc2ce3c6644665e347","A3","batch1","","789","","","tol_toboard","","","","","","","","","tol_peg_2","789","789","0","[[0,0,0],[3,2],[1]]","5","[[1,0,0],[2,3],[0]]","5","0","","","","","","6","",""
"","","","","","single-stim-button","274","658100","0.0-3.0-25.5-0.5","5ef8e0fc2ce3c6644665e347","A3","batch1","","1187","","","tol_tohand","","","","","","","","","tol_peg_3","1187","1187","0","[[0,0,0],[3,2],[0]]","6","[[1,0,0],[2,3],[0]]","5","0","","","","","","6","",""
"","","","","","single-stim-button","275","658817","0.0-3.0-25.5-1.5","5ef8e0fc2ce3c6644665e347","A3","batch1","","716","","","tol_toboard","","","","","","","","","tol_peg_1","716","716","0","[[1,0,0],[3,2],[0]]","6","[[1,0,0],[2,3],[0]]","5","0","","","","","","6","",""
"","","","","","single-stim-button","276","660644","0.0-3.0-25.6-0.6","5ef8e0fc2ce3c6644665e347","A3","batch1","","1826","","","tol_tohand","","","","","","","","","tol_peg_2","1826","1826","0","[[1,0,0],[3,0],[0]]","7","[[1,0,0],[2,3],[0]]","5","0","","","","","","6","",""
"","","","","","single-stim-button","277","662224","0.0-3.0-25.6-1.6","5ef8e0fc2ce3c6644665e347","A3","batch1","","1579","","","tol_toboard","","","","","","","","","tol_peg_1","1579","1579","0","[[1,2,0],[3,0],[0]]","7","[[1,0,0],[2,3],[0]]","5","0","","","","","","6","",""
"","","","","","single-stim-button","278","662681","0.0-3.0-25.7-0.7","5ef8e0fc2ce3c6644665e347","A3","batch1","","455","","","tol_tohand","","","","","","","","","tol_peg_2","455","455","0","[[1,2,0],[0,0],[0]]","8","[[1,0,0],[2,3],[0]]","5","0","","","","","","6","",""
"","","","","","single-stim-button","279","663304","0.0-3.0-25.7-1.7","5ef8e0fc2ce3c6644665e347","A3","batch1","","622","","","tol_toboard","","","","","","","","","tol_peg_3","622","622","0","[[1,2,0],[0,0],[3]]","8","[[1,0,0],[2,3],[0]]","5","0","","","","","","6","",""
"","","","","","single-stim-button","280","664486","0.0-3.0-25.8-0.8","5ef8e0fc2ce3c6644665e347","A3","batch1","","1180","","","tol_tohand","","","","","","","","","tol_peg_1","1180","1180","0","[[1,0,0],[0,0],[3]]","9","[[1,0,0],[2,3],[0]]","5","0","","","","","","6","",""
"","","","","","single-stim-button","281","665434","0.0-3.0-25.8-1.8","5ef8e0fc2ce3c6644665e347","A3","batch1","","948","","","tol_toboard","","","","","","","","","tol_peg_2","948","948","0","[[1,0,0],[2,0],[3]]","9","[[1,0,0],[2,3],[0]]","5","0","","","","","","6","",""
"","","","","","single-stim-button","282","665928","0.0-3.0-25.9-0.9","5ef8e0fc2ce3c6644665e347","A3","batch1","","493","","","tol_tohand","","","","","","","","","tol_peg_3","493","493","0","[[1,0,0],[2,0],[0]]","10","[[1,0,0],[2,3],[0]]","5","0","","","","","","6","",""
"","","","","","single-stim-button","283","666385","0.0-3.0-25.9-1.9","5ef8e0fc2ce3c6644665e347","A3","batch1","","456","","","tol_toboard","","","","","","","","","tol_peg_2","456","456","0","[[1,0,0],[2,3],[0]]","10","[[1,0,0],[2,3],[0]]","5","0","","","","","","6","",""
"","","","","","poldrack-single-stim","284","667386","0.0-3.0-26.0","5ef8e0fc2ce3c6644665e347","A3","batch1","","-1","","","tol_feedback","true","","","","","","","","","1000","1000","500","","","","","","-1","none","true","8132","22735","","",""
"","","","","","html-button-response","285","668066","0.0-3.0-27.0","5ef8e0fc2ce3c6644665e347","A3","batch1","","679","<div class = centerbox><p class = center-block-text>problem <strong>7</strong> out of 25 problems</p></div>","0","tol_trial_num","","","","","","","","","","","","","","","","","","","","","","","","",""
"","","","","","single-stim-button","286","677764","0.0-3.0-28.0-0.0","5ef8e0fc2ce3c6644665e347","A3","batch1","","9697","","","tol_tohand","","","","","","","","","tol_peg_3","9697","9697","0","[[2,1,0],[0,0],[0]]","1","[[1,2,0],[3,0],[0]]","6","0","","","","","","5","",""
"","","","","","single-stim-button","287","678945","0.0-3.0-28.0-1.0","5ef8e0fc2ce3c6644665e347","A3","batch1","","1180","","","tol_toboard","","","","","","","","","tol_peg_2","1180","1180","0","[[2,1,0],[3,0],[0]]","1","[[1,2,0],[3,0],[0]]","6","0","","","","","","5","",""
"","","","","","single-stim-button","288","680025","0.0-3.0-28.1-0.1","5ef8e0fc2ce3c6644665e347","A3","batch1","","1079","","","tol_tohand","","","","","","","","","tol_peg_1","1079","1079","0","[[2,0,0],[3,0],[0]]","2","[[1,2,0],[3,0],[0]]","6","0","","","","","","5","",""
"","","","","","single-stim-button","289","680982","0.0-3.0-28.1-1.1","5ef8e0fc2ce3c6644665e347","A3","batch1","","956","","","tol_toboard","","","","","","","","","tol_peg_2","956","956","0","[[2,0,0],[3,1],[0]]","2","[[1,2,0],[3,0],[0]]","6","0","","","","","","5","",""
"","","","","","single-stim-button","290","681627","0.0-3.0-28.2-0.2","5ef8e0fc2ce3c6644665e347","A3","batch1","","644","","","tol_tohand","","","","","","","","","tol_peg_1","644","644","0","[[0,0,0],[3,1],[0]]","3","[[1,2,0],[3,0],[0]]","6","0","","","","","","5","",""
"","","","","","single-stim-button","291","682606","0.0-3.0-28.2-1.2","5ef8e0fc2ce3c6644665e347","A3","batch1","","977","","","tol_toboard","","","","","","","","","tol_peg_3","977","977","0","[[0,0,0],[3,1],[2]]","3","[[1,2,0],[3,0],[0]]","6","0","","","","","","5","",""
"","","","","","single-stim-button","292","683127","0.0-3.0-28.3-0.3","5ef8e0fc2ce3c6644665e347","A3","batch1","","521","","","tol_tohand","","","","","","","","","tol_peg_2","521","521","0","[[0,0,0],[3,0],[2]]","4","[[1,2,0],[3,0],[0]]","6","0","","","","","","5","",""
"","","","","","single-stim-button","293","683852","0.0-3.0-28.3-1.3","5ef8e0fc2ce3c6644665e347","A3","batch1","","724","","","tol_toboard","","","","","","","","","tol_peg_1","724","724","0","[[1,0,0],[3,0],[2]]","4","[[1,2,0],[3,0],[0]]","6","0","","","","","","5","",""
"","","","","","single-stim-button","294","684497","0.0-3.0-28.4-0.4","5ef8e0fc2ce3c6644665e347","A3","batch1","","644","","","tol_tohand","","","","","","","","","tol_peg_3","644","644","0","[[1,0,0],[3,0],[0]]","5","[[1,2,0],[3,0],[0]]","6","0","","","","","","5","",""
"","","","","","single-stim-button","295","685113","0.0-3.0-28.4-1.4","5ef8e0fc2ce3c6644665e347","A3","batch1","","615","","","tol_toboard","","","","","","","","","tol_peg_1","615","615","0","[[1,2,0],[3,0],[0]]","5","[[1,2,0],[3,0],[0]]","6","0","","","","","","5","",""
"","","","","","poldrack-single-stim","296","686131","0.0-3.0-29.0","5ef8e0fc2ce3c6644665e347","A3","batch1","","-1","","","tol_feedback","true","","","","","","","","","1000","1000","500","","","","","","-1","none","true","9697","12585","","",""
"","","","","","html-button-response","297","686685","0.0-3.0-30.0","5ef8e0fc2ce3c6644665e347","A3","batch1","","553.1000000014901","<div class = centerbox><p class = center-block-text>problem <strong>8</strong> out of 25 problems</p></div>","0","tol_trial_num","","","","","","","","","","","","","","","","","","","","","","","","",""
"","","","","","single-stim-button","298","691919","0.0-3.0-31.0-0.0","5ef8e0fc2ce3c6644665e347","A3","batch1","","5233","","","tol_tohand","","","","","","","","","tol_peg_3","5233","5233","0","[[0,0,0],[2,3],[0]]","1","[[1,2,0],[3,0],[0]]","7","0","","","","","","4","",""
"","","","","","single-stim-button","299","693209","0.0-3.0-31.0-1.0","5ef8e0fc2ce3c6644665e347","A3","batch1","","1289","","","tol_toboard","","","","","","","","","tol_peg_1","1289","1289","0","[[1,0,0],[2,3],[0]]","1","[[1,2,0],[3,0],[0]]","7","0","","","","","","4","",""
"","","","","","single-stim-button","300","694064","0.0-3.0-31.1-0.1","5ef8e0fc2ce3c6644665e347","A3","batch1","","854","","","tol_tohand","","","","","","","","","tol_peg_2","854","854","0","[[1,0,0],[2,0],[0]]","2","[[1,2,0],[3,0],[0]]","7","0","","","","","","4","",""
"","","","","","single-stim-button","301","694855","0.0-3.0-31.1-1.1","5ef8e0fc2ce3c6644665e347","A3","batch1","","789","","","tol_toboard","","","","","","","","","tol_peg_3","789","789","0","[[1,0,0],[2,0],[3]]","2","[[1,2,0],[3,0],[0]]","7","0","","","","","","4","",""
"","","","","","single-stim-button","302","695391","0.0-3.0-31.2-0.2","5ef8e0fc2ce3c6644665e347","A3","batch1","","534","","","tol_tohand","","","","","","","","","tol_peg_2","534","534","0","[[1,0,0],[0,0],[3]]","3","[[1,2,0],[3,0],[0]]","7","0","","","","","","4","",""
"","","","","","single-stim-button","303","696013","0.0-3.0-31.2-1.2","5ef8e0fc2ce3c6644665e347","A3","batch1","","621","","","tol_toboard","","","","","","","","","tol_peg_1","621","621","0","[[1,2,0],[0,0],[3]]","3","[[1,2,0],[3,0],[0]]","7","0","","","","","","4","",""
"","","","","","single-stim-button","304","696717","0.0-3.0-31.3-0.3","5ef8e0fc2ce3c6644665e347","A3","batch1","","703","","","tol_tohand","","","","","","","","","tol_peg_3","703","703","0","[[1,2,0],[0,0],[0]]","4","[[1,2,0],[3,0],[0]]","7","0","","","","","","4","",""
"","","","","","single-stim-button","305","697413","0.0-3.0-31.3-1.3","5ef8e0fc2ce3c6644665e347","A3","batch1","","695","","","tol_toboard","","","","","","","","","tol_peg_2","695","695","0","[[1,2,0],[3,0],[0]]","4","[[1,2,0],[3,0],[0]]","7","0","","","","","","4","",""
"","","","","","poldrack-single-stim","306","698417","0.0-3.0-32.0","5ef8e0fc2ce3c6644665e347","A3","batch1","","-1","","","tol_feedback","true","","","","","","","","","1000","1000","500","","","","","","-1","none","true","5233","7324","","",""
"","","","","","html-button-response","307","699283","0.0-3.0-33.0","5ef8e0fc2ce3c6644665e347","A3","batch1","","865.0999999977648","<div class = centerbox><p class = center-block-text>problem <strong>9</strong> out of 25 problems</p></div>","0","tol_trial_num","","","","","","","","","","","","","","","","","","","","","","","","",""
"","","","","","single-stim-button","308","707865","0.0-3.0-34.0-0.0","5ef8e0fc2ce3c6644665e347","A3","batch1","","8580","","","tol_tohand","","","","","","","","","tol_peg_3","8580","8580","0","[[3,2,0],[0,0],[0]]","1","[[2,1,0],[3,0],[0]]","8","0","","","","","","6","",""
"","","","","","single-stim-button","309","708502","0.0-3.0-34.0-1.0","5ef8e0fc2ce3c6644665e347","A3","batch1","","636","","","tol_toboard","","","","","","","","","tol_peg_2","636","636","0","[[3,2,0],[1,0],[0]]","1","[[2,1,0],[3,0],[0]]","8","0","","","","","","6","",""
"","","","","","single-stim-button","310","709075","0.0-3.0-34.1-0.1","5ef8e0fc2ce3c6644665e347","A3","batch1","","571","","","tol_tohand","","","","","","","","","tol_peg_1","571","571","0","[[3,0,0],[1,0],[0]]","2","[[2,1,0],[3,0],[0]]","8","0","","","","","","6","",""
"","","","","","single-stim-button","311","710140","0.0-3.0-34.1-1.1","5ef8e0fc2ce3c6644665e347","A3","batch1","","1065","","","tol_toboard","","","","","","","","","tol_peg_3","1065","1065","0","[[3,0,0],[1,0],[2]]","2","[[2,1,0],[3,0],[0]]","8","0","","","","","","6","",""
"","","","","","single-stim-button","312","712909","0.0-3.0-34.2-0.2","5ef8e0fc2ce3c6644665e347","A3","batch1","","2768","","","tol_tohand","","","","","","","","","tol_peg_1","2768","2768","0","[[0,0,0],[1,0],[2]]","3","[[2,1,0],[3,0],[0]]","8","0","","","","","","6","",""
"","","","","","single-stim-button","313","714082","0.0-3.0-34.2-1.2","5ef8e0fc2ce3c6644665e347","A3","batch1","","1171","","","tol_toboard","","","","","","","","","tol_peg_2","1171","1171","0","[[0,0,0],[1,3],[2]]","3","[[2,1,0],[3,0],[0]]","8","0","","","","","","6","",""
"","","","","","single-stim-button","314","714503","0.0-3.0-34.3-0.3","5ef8e0fc2ce3c6644665e347","A3","batch1","","421","","","tol_tohand","","","","","","","","","tol_peg_3","421","421","0","[[0,0,0],[1,3],[0]]","4","[[2,1,0],[3,0],[0]]","8","0","","","","","","6","",""
"","","","","","single-stim-button","315","715351","0.0-3.0-34.3-1.3","5ef8e0fc2ce3c6644665e347","A3","batch1","","846","","","tol_toboard","","","","","","","","","tol_peg_1","846","846","0","[[2,0,0],[1,3],[0]]","4","[[2,1,0],[3,0],[0]]","8","0","","","","","","6","",""
"","","","","","single-stim-button","316","716025","0.0-3.0-34.4-0.4","5ef8e0fc2ce3c6644665e347","A3","batch1","","673","","","tol_tohand","","","","","","","","","tol_peg_2","673","673","0","[[2,0,0],[1,0],[0]]","5","[[2,1,0],[3,0],[0]]","8","0","","","","","","6","",""
"","","","","","single-stim-button","317","716750","0.0-3.0-34.4-1.4","5ef8e0fc2ce3c6644665e347","A3","batch1","","723","","","tol_toboard","","","","","","","","","tol_peg_3","723","723","0","[[2,0,0],[1,0],[3]]","5","[[2,1,0],[3,0],[0]]","8","0","","","","","","6","",""
"","","","","","single-stim-button","318","717257","0.0-3.0-34.5-0.5","5ef8e0fc2ce3c6644665e347","A3","batch1","","505","","","tol_tohand","","","","","","","","","tol_peg_2","505","505","0","[[2,0,0],[0,0],[3]]","6","[[2,1,0],[3,0],[0]]","8","0","","","","","","6","",""
"","","","","","single-stim-button","319","717699","0.0-3.0-34.5-1.5","5ef8e0fc2ce3c6644665e347","A3","batch1","","441","","","tol_toboard","","","","","","","","","tol_peg_1","441","441","0","[[2,1,0],[0,0],[3]]","6","[[2,1,0],[3,0],[0]]","8","0","","","","","","6","",""
"","","","","","single-stim-button","320","718337","0.0-3.0-34.6-0.6","5ef8e0fc2ce3c6644665e347","A3","batch1","","636","","","tol_tohand","","","","","","","","","tol_peg_3","636","636","0","[[2,1,0],[0,0],[0]]","7","[[2,1,0],[3,0],[0]]","8","0","","","","","","6","",""
"","","","","","single-stim-button","321","718895","0.0-3.0-34.6-1.6","5ef8e0fc2ce3c6644665e347","A3","batch1","","556","","","tol_toboard","","","","","","","","","tol_peg_2","556","556","0","[[2,1,0],[3,0],[0]]","7","[[2,1,0],[3,0],[0]]","8","0","","","","","","6","",""
"","","","","","poldrack-single-stim","322","719901","0.0-3.0-35.0","5ef8e0fc2ce3c6644665e347","A3","batch1","","-1","","","tol_feedback","true","","","","","","","","","1000","1000","500","","","","","","-1","none","true","8580","14154","","",""
"","","","","","html-button-response","323","720553","0.0-3.0-36.0","5ef8e0fc2ce3c6644665e347","A3","batch1","","650.8000000007451","<div class = centerbox><p class = center-block-text>problem <strong>10</strong> out of 25 problems</p></div>","0","tol_trial_num","","","","","","","","","","","","","","","","","","","","","","","","",""
"","","","","","single-stim-button","324","725346","0.0-3.0-37.0-0.0","5ef8e0fc2ce3c6644665e347","A3","batch1","","4791","","","tol_tohand","","","","","","","","","tol_peg_2","4791","4791","0","[[3,0,0],[0,0],[2]]","1","[[3,0,0],[2,1],[0]]","9","0","","","","","","3","",""
"","","","","","single-stim-button","325","725875","0.0-3.0-37.0-1.0","5ef8e0fc2ce3c6644665e347","A3","batch1","","527","","","tol_toboard","","","","","","","","","tol_peg_1","527","527","0","[[3,1,0],[0,0],[2]]","1","[[3,0,0],[2,1],[0]]","9","0","","","","","","3","",""
"","","","","","single-stim-button","326","726461","0.0-3.0-37.1-0.1","5ef8e0fc2ce3c6644665e347","A3","batch1","","585","","","tol_tohand","","","","","","","","","tol_peg_3","585","585","0","[[3,1,0],[0,0],[0]]","2","[[3,0,0],[2,1],[0]]","9","0","","","","","","3","",""
"","","","","","single-stim-button","327","727164","0.0-3.0-37.1-1.1","5ef8e0fc2ce3c6644665e347","A3","batch1","","701","","","tol_toboard","","","","","","","","","tol_peg_2","701","701","0","[[3,1,0],[2,0],[0]]","2","[[3,0,0],[2,1],[0]]","9","0","","","","","","3","",""
"","","","","","single-stim-button","328","727716","0.0-3.0-37.2-0.2","5ef8e0fc2ce3c6644665e347","A3","batch1","","551","","","tol_tohand","","","","","","","","","tol_peg_1","551","551","0","[[3,0,0],[2,0],[0]]","3","[[3,0,0],[2,1],[0]]","9","0","","","","","","3","",""
"","","","","","single-stim-button","329","728230","0.0-3.0-37.2-1.2","5ef8e0fc2ce3c6644665e347","A3","batch1","","514","","","tol_toboard","","","","","","","","","tol_peg_2","514","514","0","[[3,0,0],[2,1],[0]]","3","[[3,0,0],[2,1],[0]]","9","0","","","","","","3","",""
"","","","","","poldrack-single-stim","330","729232","0.0-3.0-38.0","5ef8e0fc2ce3c6644665e347","A3","batch1","","-1","","","tol_feedback","true","","","","","","","","","1000","1000","500","","","","","","-1","none","true","4791","5927","","",""
"","","","","","html-button-response","331","729897","0.0-3.0-39.0","5ef8e0fc2ce3c6644665e347","A3","batch1","","663.5","<div class = centerbox><p class = center-block-text>problem <strong>11</strong> out of 25 problems</p></div>","0","tol_trial_num","","","","","","","","","","","","","","","","","","","","","","","","",""
"","","","","","single-stim-button","332","747481","0.0-3.0-40.0-0.0","5ef8e0fc2ce3c6644665e347","A3","batch1","","17582","","","tol_tohand","","","","","","","","","tol_peg_1","17582","17582","0","[[1,0,0],[3,0],[0]]","1","[[2,0,0],[1,3],[0]]","10","0","","","","","","6","",""
"","","","","","single-stim-button","333","749655","0.0-3.0-40.0-1.0","5ef8e0fc2ce3c6644665e347","A3","batch1","","2173","","","tol_toboard","","","","","","","","","tol_peg_3","2173","2173","0","[[1,0,0],[3,0],[2]]","1","[[2,0,0],[1,3],[0]]","10","0","","","","","","6","",""
"","","","","","single-stim-button","334","752149","0.0-3.0-40.1-0.1","5ef8e0fc2ce3c6644665e347","A3","batch1","","2493","","","tol_tohand","","","","","","","","","tol_peg_1","2493","2493","0","[[0,0,0],[3,0],[2]]","2","[[2,0,0],[1,3],[0]]","10","0","","","","","","6","",""
"","","","","","single-stim-button","335","752693","0.0-3.0-40.1-1.1","5ef8e0fc2ce3c6644665e347","A3","batch1","","542","","","tol_toboard","","","","","","","","","tol_peg_2","542","542","0","[[0,0,0],[3,1],[2]]","2","[[2,0,0],[1,3],[0]]","10","0","","","","","","6","",""
"","","","","","single-stim-button","336","753112","0.0-3.0-40.2-0.2","5ef8e0fc2ce3c6644665e347","A3","batch1","","419","","","tol_tohand","","","","","","","","","tol_peg_3","419","419","0","[[0,0,0],[3,1],[0]]","3","[[2,0,0],[1,3],[0]]","10","0","","","","","","6","",""
"","","","","","single-stim-button","337","753997","0.0-3.0-40.2-1.2","5ef8e0fc2ce3c6644665e347","A3","batch1","","883","","","tol_toboard","","","","","","","","","tol_peg_1","883","883","0","[[2,0,0],[3,1],[0]]","3","[[2,0,0],[1,3],[0]]","10","0","","","","","","6","",""
"","","","","","single-stim-button","338","755113","0.0-3.0-40.3-0.3","5ef8e0fc2ce3c6644665e347","A3","batch1","","1115","","","tol_tohand","","","","","","","","","tol_peg_2","1115","1115","0","[[2,0,0],[3,0],[0]]","4","[[2,0,0],[1,3],[0]]","10","0","","","","","","6","",""
"","","","","","single-stim-button","339","755606","0.0-3.0-40.3-1.3","5ef8e0fc2ce3c6644665e347","A3","batch1","","492","","","tol_toboard","","","","","","","","","tol_peg_1","492","492","0","[[2,1,0],[3,0],[0]]","4","[[2,0,0],[1,3],[0]]","10","0","","","","","","6","",""
"","","","","","single-stim-button","340","756411","0.0-3.0-40.4-0.4","5ef8e0fc2ce3c6644665e347","A3","batch1","","804","","","tol_tohand","","","","","","","","","tol_peg_2","804","804","0","[[2,1,0],[0,0],[0]]","5","[[2,0,0],[1,3],[0]]","10","0","","","","","","6","",""
"","","","","","single-stim-button","341","757259","0.0-3.0-40.4-1.4","5ef8e0fc2ce3c6644665e347","A3","batch1","","846","","","tol_toboard","","","","","","","","","tol_peg_3","846","846","0","[[2,1,0],[0,0],[3]]","5","[[2,0,0],[1,3],[0]]","10","0","","","","","","6","",""
"","","","","","single-stim-button","342","757679","0.0-3.0-40.5-0.5","5ef8e0fc2ce3c6644665e347","A3","batch1","","420","","","tol_tohand","","","","","","","","","tol_peg_1","420","420","0","[[2,0,0],[0,0],[3]]","6","[[2,0,0],[1,3],[0]]","10","0","","","","","","6","",""
"","","","","","single-stim-button","343","758302","0.0-3.0-40.5-1.5","5ef8e0fc2ce3c6644665e347","A3","batch1","","622","","","tol_toboard","","","","","","","","","tol_peg_2","622","622","0","[[2,0,0],[1,0],[3]]","6","[[2,0,0],[1,3],[0]]","10","0","","","","","","6","",""
"","","","","","single-stim-button","344","758708","0.0-3.0-40.6-0.6","5ef8e0fc2ce3c6644665e347","A3","batch1","","404","","","tol_tohand","","","","","","","","","tol_peg_3","404","404","0","[[2,0,0],[1,0],[0]]","7","[[2,0,0],[1,3],[0]]","10","0","","","","","","6","",""
"","","","","","single-stim-button","345","759128","0.0-3.0-40.6-1.6","5ef8e0fc2ce3c6644665e347","A3","batch1","","419","","","tol_toboard","","","","","","","","","tol_peg_2","419","419","0","[[2,0,0],[1,3],[0]]","7","[[2,0,0],[1,3],[0]]","10","0","","","","","","6","",""
"","","","","","poldrack-single-stim","346","760138","0.0-3.0-41.0","5ef8e0fc2ce3c6644665e347","A3","batch1","","-1","","","tol_feedback","true","","","","","","","","","1000","1000","500","","","","","","-1","none","true","17582","23237","","",""
"","","","","","html-button-response","347","760941","0.0-3.0-42.0","5ef8e0fc2ce3c6644665e347","A3","batch1","","802.1000000014901","<div class = centerbox><p class = center-block-text>problem <strong>12</strong> out of 25 problems</p></div>","0","tol_trial_num","","","","","","","","","","","","","","","","","","","","","","","","",""
