"success","timeout","failed_images","failed_audio","failed_video","trial_type","trial_index","time_elapsed","internal_node_id","subject_id","study_id","session_id","task","rt","stimulus","response","item","answer","correct","spm_correct","spm_rt","view_history","fiar_detect_rt","fiar_detect_correct","total_correct_fiar_detect","post_trial_gap","choices","mouse_click","stim_duration","block_duration","timing_post_trial","current_position","tol_num_moves_made","tol_target","tol_problem_id","tol_rt","key_press","possible_responses","tol_correct","preplanning","tol_rt_per_trial","tol_min_moves"
"true","false","[]","[]","[]","preload","0","1958","0.0-0.0","5f2042752276432e3a7ef104","B2","batch2","","","","","","","","","","","","","","","","","","","","","","","","","","","","","",""
"true","","","","","fullscreen","1","9896","0.0-1.0-0.0","5f2042752276432e3a7ef104","B2","batch2","","","","","","","","","","","","","","","","","","","","","","","","","","","","","",""
"true","","","","","fullscreen","2","20199","0.0-2.0-0.0","5f2042752276432e3a7ef104","B2","batch2","spm_fullscreen","","","","","","","","","","","","","","","","","","","","","","","","","","","","",""
"","","","","","html-button-response","3","31611","0.0-2.0-1.0","5f2042752276432e3a7ef104","B2","batch2","","11403.40000000596","<p class = block-text><b>Instructions</b> <br>This is a widely used intelligence test in research. <br>In this test, a figure with a missing piece will be presented.<br>Below the figure are alternative pieces to complete the figure, only one of which is correct.<br> Different figures might involve different principles for obtaining the missing piece<br>Your job is to select the most logical piece to complete the figure.</p>","0","","","","","","","","","","","","","","","","","","","","","","","","","",""
"","","","","","html-keyboard-response","4","32424","0.0-2.0-2.0-0.0","5f2042752276432e3a7ef104","B2","batch2","spm_show_trial_num","null","<p class=block-text>Trial 1 out of 60</p>","null","","","","","","","","","","","","","","","","","","","","","","","","","",""
"","","","","","image-button-response","5","42003","0.0-2.0-2.0-1.0","5f2042752276432e3a7ef104","B2","batch2","spm_respsonse","9530.90000000596","img/question_1_1.jpeg","3","mat_01","4","1","1","9530.90000000596","","","","","","","","","","","","","","","","","","","","",""
"","","","","","html-keyboard-response","6","43064","0.0-2.0-2.0-0.1","5f2042752276432e3a7ef104","B2","batch2","spm_show_trial_num","null","<p class=block-text>Trial 2 out of 60</p>","null","","","","","","","","","","","","","","","","","","","","","","","","","",""
"","","","","","image-button-response","7","47089","0.0-2.0-2.0-1.1","5f2042752276432e3a7ef104","B2","batch2","spm_respsonse","4017.2999999821186","img/question_1_2.jpeg","4","mat_02","5","1","1","4017.2999999821186","","","","","","","","","","","","","","","","","","","","",""
"","","","","","html-keyboard-response","8","48151","0.0-2.0-2.0-0.2","5f2042752276432e3a7ef104","B2","batch2","spm_show_trial_num","null","<p class=block-text>Trial 3 out of 60</p>","null","","","","","","","","","","","","","","","","","","","","","","","","","",""
"","","","","","image-button-response","9","53313","0.0-2.0-2.0-1.2","5f2042752276432e3a7ef104","B2","batch2","spm_respsonse","5153","img/question_1_3.jpeg","0","mat_03","1","1","1","5153","","","","","","","","","","","","","","","","","","","","",""
"","","","","","html-keyboard-response","10","54376","0.0-2.0-2.0-0.3","5f2042752276432e3a7ef104","B2","batch2","spm_show_trial_num","null","<p class=block-text>Trial 4 out of 60</p>","null","","","","","","","","","","","","","","","","","","","","","","","","","",""
"","","","","","image-button-response","11","58674","0.0-2.0-2.0-1.3","5f2042752276432e3a7ef104","B2","batch2","spm_respsonse","4290.5","img/question_1_4.jpeg","1","mat_04","2","1","1","4290.5","","","","","","","","","","","","","","","","","","","","",""
"","","","","","html-keyboard-response","12","59735","0.0-2.0-2.0-0.4","5f2042752276432e3a7ef104","B2","batch2","spm_show_trial_num","null","<p class=block-text>Trial 5 out of 60</p>","null","","","","","","","","","","","","","","","","","","","","","","","","","",""
"","","","","","image-button-response","13","63474","0.0-2.0-2.0-1.4","5f2042752276432e3a7ef104","B2","batch2","spm_respsonse","3729.699999988079","img/question_1_5.jpeg","5","mat_05","6","1","1","3729.699999988079","","","","","","","","","","","","","","","","","","","","",""
"","","","","","html-keyboard-response","14","64535","0.0-2.0-2.0-0.5","5f2042752276432e3a7ef104","B2","batch2","spm_show_trial_num","null","<p class=block-text>Trial 6 out of 60</p>","null","","","","","","","","","","","","","","","","","","","","","","","","","",""
"","","","","","image-button-response","15","69570","0.0-2.0-2.0-1.5","5f2042752276432e3a7ef104","B2","batch2","spm_respsonse","5025.699999988079","img/question_1_6.jpeg","2","mat_06","3","1","1","5025.699999988079","","","","","","","","","","","","","","","","","","","","",""
"","","","","","html-keyboard-response","16","70632","0.0-2.0-2.0-0.6","5f2042752276432e3a7ef104","B2","batch2","spm_show_trial_num","null","<p class=block-text>Trial 7 out of 60</p>","null","","","","","","","","","","","","","","","","","","","","","","","","","",""
"","","","","","image-button-response","17","76490","0.0-2.0-2.0-1.6","5f2042752276432e3a7ef104","B2","batch2","spm_respsonse","5848.199999988079","img/question_1_7.jpeg","5","mat_07","6","1","1","5848.199999988079","","","","","","","","","","","","","","","","","","","","",""
"","","","","","html-keyboard-response","18","77552","0.0-2.0-2.0-0.7","5f2042752276432e3a7ef104","B2","batch2","spm_show_trial_num","null","<p class=block-text>Trial 8 out of 60</p>","null","","","","","","","","","","","","","","","","","","","","","","","","","",""
"","","","","","image-button-response","19","82899","0.0-2.0-2.0-1.7","5f2042752276432e3a7ef104","B2","batch2","spm_respsonse","5337.5","img/question_1_8.jpeg","1","mat_08","2","1","1","5337.5","","","","","","","","","","","","","","","","","","","","",""
"","","","","","html-keyboard-response","20","83959","0.0-2.0-2.0-0.8","5f2042752276432e3a7ef104","B2","batch2","spm_show_trial_num","null","<p class=block-text>Trial 9 out of 60</p>","null","","","","","","","","","","","","","","","","","","","","","","","","","",""
"","","","","","image-button-response","21","93920","0.0-2.0-2.0-1.8","5f2042752276432e3a7ef104","B2","batch2","spm_respsonse","9954.899999976158","img/question_1_9.jpeg","0","mat_09","1","1","1","9954.899999976158","","","","","","","","","","","","","","","","","","","","",""
"","","","","","html-keyboard-response","22","94983","0.0-2.0-2.0-0.9","5f2042752276432e3a7ef104","B2","batch2","spm_show_trial_num","null","<p class=block-text>Trial 10 out of 60</p>","null","","","","","","","","","","","","","","","","","","","","","","","","","",""
"","","","","","image-button-response","23","107090","0.0-2.0-2.0-1.9","5f2042752276432e3a7ef104","B2","batch2","spm_respsonse","12096.899999976158","img/question_1_10.jpeg","2","mat_10","3","1","1","12096.899999976158","","","","","","","","","","","","","","","","","","","","",""
"","","","","","html-keyboard-response","24","108151","0.0-2.0-2.0-0.10","5f2042752276432e3a7ef104","B2","batch2","spm_show_trial_num","null","<p class=block-text>Trial 11 out of 60</p>","null","","","","","","","","","","","","","","","","","","","","","","","","","",""
"","","","","","image-button-response","25","131940","0.0-2.0-2.0-1.10","5f2042752276432e3a7ef104","B2","batch2","spm_respsonse","23777.70000001788","img/question_1_11.jpeg","3","mat_11","4","1","1","23777.70000001788","","","","","","","","","","","","","","","","","","","","",""
"","","","","","html-keyboard-response","26","132999","0.0-2.0-2.0-0.11","5f2042752276432e3a7ef104","B2","batch2","spm_show_trial_num","null","<p class=block-text>Trial 12 out of 60</p>","null","","","","","","","","","","","","","","","","","","","","","","","","","",""
"","","","","","image-button-response","27","183627","0.0-2.0-2.0-1.11","5f2042752276432e3a7ef104","B2","batch2","spm_respsonse","50617","img/question_1_12.jpeg","4","mat_12","5","1","1","50617","","","","","","","","","","","","","","","","","","","","",""
"","","","","","html-keyboard-response","28","184687","0.0-2.0-2.0-0.12","5f2042752276432e3a7ef104","B2","batch2","spm_show_trial_num","null","<p class=block-text>Trial 13 out of 60</p>","null","","","","","","","","","","","","","","","","","","","","","","","","","",""
"","","","","","image-button-response","29","192219","0.0-2.0-2.0-1.12","5f2042752276432e3a7ef104","B2","batch2","spm_respsonse","7522.700000017881","img/question_2_1.jpeg","1","mat_13","2","1","1","7522.700000017881","","","","","","","","","","","","","","","","","","","","",""
"","","","","","html-keyboard-response","30","193279","0.0-2.0-2.0-0.13","5f2042752276432e3a7ef104","B2","batch2","spm_show_trial_num","null","<p class=block-text>Trial 14 out of 60</p>","null","","","","","","","","","","","","","","","","","","","","","","","","","",""
"","","","","","image-button-response","31","212050","0.0-2.0-2.0-1.13","5f2042752276432e3a7ef104","B2","batch2","spm_respsonse","18759.19999998808","img/question_2_2.jpeg","5","mat_14","6","1","1","18759.19999998808","","","","","","","","","","","","","","","","","","","","",""
"","","","","","html-keyboard-response","32","213111","0.0-2.0-2.0-0.14","5f2042752276432e3a7ef104","B2","batch2","spm_show_trial_num","null","<p class=block-text>Trial 15 out of 60</p>","null","","","","","","","","","","","","","","","","","","","","","","","","","",""
"","","","","","image-button-response","33","216523","0.0-2.0-2.0-1.14","5f2042752276432e3a7ef104","B2","batch2","spm_respsonse","3404.699999988079","img/question_2_3.jpeg","0","mat_15","1","1","1","3404.699999988079","","","","","","","","","","","","","","","","","","","","",""
"","","","","","html-keyboard-response","34","217583","0.0-2.0-2.0-0.15","5f2042752276432e3a7ef104","B2","batch2","spm_show_trial_num","null","<p class=block-text>Trial 16 out of 60</p>","null","","","","","","","","","","","","","","","","","","","","","","","","","",""
"","","","","","image-button-response","35","222290","0.0-2.0-2.0-1.15","5f2042752276432e3a7ef104","B2","batch2","spm_respsonse","4697.799999982119","img/question_2_4.jpeg","1","mat_16","2","1","1","4697.799999982119","","","","","","","","","","","","","","","","","","","","",""
"","","","","","html-keyboard-response","36","223351","0.0-2.0-2.0-0.16","5f2042752276432e3a7ef104","B2","batch2","spm_show_trial_num","null","<p class=block-text>Trial 17 out of 60</p>","null","","","","","","","","","","","","","","","","","","","","","","","","","",""
"","","","","","image-button-response","37","236346","0.0-2.0-2.0-1.16","5f2042752276432e3a7ef104","B2","batch2","spm_respsonse","12986.09999999404","img/question_2_5.jpeg","0","mat_17","1","1","1","12986.09999999404","","","","","","","","","","","","","","","","","","","","",""
"","","","","","html-keyboard-response","38","237407","0.0-2.0-2.0-0.17","5f2042752276432e3a7ef104","B2","batch2","spm_show_trial_num","null","<p class=block-text>Trial 18 out of 60</p>","null","","","","","","","","","","","","","","","","","","","","","","","","","",""
"","","","","","image-button-response","39","248266","0.0-2.0-2.0-1.17","5f2042752276432e3a7ef104","B2","batch2","spm_respsonse","10849.600000023842","img/question_2_6.jpeg","2","mat_18","3","1","1","10849.600000023842","","","","","","","","","","","","","","","","","","","","",""
"","","","","","html-keyboard-response","40","249327","0.0-2.0-2.0-0.18","5f2042752276432e3a7ef104","B2","batch2","spm_show_trial_num","null","<p class=block-text>Trial 19 out of 60</p>","null","","","","","","","","","","","","","","","","","","","","","","","","","",""
"","","","","","image-button-response","41","267299","0.0-2.0-2.0-1.18","5f2042752276432e3a7ef104","B2","batch2","spm_respsonse","17962.29999998212","img/question_2_7.jpeg","4","mat_19","5","1","1","17962.29999998212","","","","","","","","","","","","","","","","","","","","",""
"","","","","","html-keyboard-response","42","268359","0.0-2.0-2.0-0.19","5f2042752276432e3a7ef104","B2","batch2","spm_show_trial_num","null","<p class=block-text>Trial 20 out of 60</p>","null","","","","","","","","","","","","","","","","","","","","","","","","","",""
"","","","","","image-button-response","43","289210","0.0-2.0-2.0-1.19","5f2042752276432e3a7ef104","B2","batch2","spm_respsonse","20841.09999999404","img/question_2_8.jpeg","5","mat_20","6","1","1","20841.09999999404","","","","","","","","","","","","","","","","","","","","",""
"","","","","","html-keyboard-response","44","290271","0.0-2.0-2.0-0.20","5f2042752276432e3a7ef104","B2","batch2","spm_show_trial_num","null","<p class=block-text>Trial 21 out of 60</p>","null","","","","","","","","","","","","","","","","","","","","","","","","","",""
"","","","","","image-button-response","45","297269","0.0-2.0-2.0-1.20","5f2042752276432e3a7ef104","B2","batch2","spm_respsonse","6987.199999988079","img/question_2_9.jpeg","3","mat_21","4","1","1","6987.199999988079","","","","","","","","","","","","","","","","","","","","",""
"","","","","","html-keyboard-response","46","298327","0.0-2.0-2.0-0.21","5f2042752276432e3a7ef104","B2","batch2","spm_show_trial_num","null","<p class=block-text>Trial 22 out of 60</p>","null","","","","","","","","","","","","","","","","","","","","","","","","","",""
"","","","","","image-button-response","47","304264","0.0-2.0-2.0-1.21","5f2042752276432e3a7ef104","B2","batch2","spm_respsonse","5929.299999982119","img/question_2_10.jpeg","2","mat_22","3","1","1","5929.299999982119","","","","","","","","","","","","","","","","","","","","",""
"","","","","","html-keyboard-response","48","305327","0.0-2.0-2.0-0.22","5f2042752276432e3a7ef104","B2","batch2","spm_show_trial_num","null","<p class=block-text>Trial 23 out of 60</p>","null","","","","","","","","","","","","","","","","","","","","","","","","","",""
"","","","","","image-button-response","49","316130","0.0-2.0-2.0-1.22","5f2042752276432e3a7ef104","B2","batch2","spm_respsonse","10793.5","img/question_2_11.jpeg","3","mat_23","4","1","1","10793.5","","","","","","","","","","","","","","","","","","","","",""
"","","","","","html-keyboard-response","50","317191","0.0-2.0-2.0-0.23","5f2042752276432e3a7ef104","B2","batch2","spm_show_trial_num","null","<p class=block-text>Trial 24 out of 60</p>","null","","","","","","","","","","","","","","","","","","","","","","","","","",""
"","","","","","image-button-response","51","345866","0.0-2.0-2.0-1.23","5f2042752276432e3a7ef104","B2","batch2","spm_respsonse","28665.29999998212","img/question_2_12.jpeg","4","mat_24","5","1","1","28665.29999998212","","","","","","","","","","","","","","","","","","","","",""
"","","","","","html-button-response","52","348721","0.0-2.0-3.0","5f2042752276432e3a7ef104","B2","batch2","attention_check","2598.5","<p class = block-text>Attention check: Please choose 1<br></p>","0","","","true","","","","","","","","","","","","","","","","","","","","","","",""
"","","","","","html-keyboard-response","53","349527","0.0-2.0-4.0-0.0","5f2042752276432e3a7ef104","B2","batch2","spm_show_trial_num","null","<p class=block-text>Trial 25 out of 60</p>","null","","","","","","","","","","","","","","","","","","","","","","","","","",""
"","","","","","image-button-response","54","360314","0.0-2.0-4.0-1.0","5f2042752276432e3a7ef104","B2","batch2","spm_respsonse","10775.700000017881","img/question_3_1.jpeg","7","mat_25","8","1","1","10775.700000017881","","","","","","","","","","","","","","","","","","","","",""
"","","","","","html-keyboard-response","55","361375","0.0-2.0-4.0-0.1","5f2042752276432e3a7ef104","B2","batch2","spm_show_trial_num","null","<p class=block-text>Trial 26 out of 60</p>","null","","","","","","","","","","","","","","","","","","","","","","","","","",""
"","","","","","image-button-response","56","384705","0.0-2.0-4.0-1.1","5f2042752276432e3a7ef104","B2","batch2","spm_respsonse","23321.5","img/question_3_2.jpeg","1","mat_26","2","1","1","23321.5","","","","","","","","","","","","","","","","","","","","",""
"","","","","","html-keyboard-response","57","385767","0.0-2.0-4.0-0.2","5f2042752276432e3a7ef104","B2","batch2","spm_show_trial_num","null","<p class=block-text>Trial 27 out of 60</p>","null","","","","","","","","","","","","","","","","","","","","","","","","","",""
"","","","","","image-button-response","58","415323","0.0-2.0-4.0-1.2","5f2042752276432e3a7ef104","B2","batch2","spm_respsonse","29546.30000001192","img/question_3_3.jpeg","2","mat_27","3","1","1","29546.30000001192","","","","","","","","","","","","","","","","","","","","",""
"","","","","","html-keyboard-response","59","416383","0.0-2.0-4.0-0.3","5f2042752276432e3a7ef104","B2","batch2","spm_show_trial_num","null","<p class=block-text>Trial 28 out of 60</p>","null","","","","","","","","","","","","","","","","","","","","","","","","","",""
"","","","","","image-button-response","60","436331","0.0-2.0-4.0-1.3","5f2042752276432e3a7ef104","B2","batch2","spm_respsonse","19937.69999998808","img/question_3_4.jpeg","7","mat_28","8","1","1","19937.69999998808","","","","","","","","","","","","","","","","","","","","",""
"","","","","","html-keyboard-response","61","437391","0.0-2.0-4.0-0.4","5f2042752276432e3a7ef104","B2","batch2","spm_show_trial_num","null","<p class=block-text>Trial 29 out of 60</p>","null","","","","","","","","","","","","","","","","","","","","","","","","","",""
"","","","","","image-button-response","62","457187","0.0-2.0-4.0-1.4","5f2042752276432e3a7ef104","B2","batch2","spm_respsonse","19786.19999998808","img/question_3_5.jpeg","6","mat_29","7","1","1","19786.19999998808","","","","","","","","","","","","","","","","","","","","",""
"","","","","","html-keyboard-response","63","458247","0.0-2.0-4.0-0.5","5f2042752276432e3a7ef104","B2","batch2","spm_show_trial_num","null","<p class=block-text>Trial 30 out of 60</p>","null","","","","","","","","","","","","","","","","","","","","","","","","","",""
"","","","","","image-button-response","64","488068","0.0-2.0-4.0-1.5","5f2042752276432e3a7ef104","B2","batch2","spm_respsonse","29810.19999998808","img/question_3_6.jpeg","7","mat_30","4","0","0","29810.19999998808","","","","","","","","","","","","","","","","","","","","",""
"","","","","","html-keyboard-response","65","489139","0.0-2.0-4.0-0.6","5f2042752276432e3a7ef104","B2","batch2","spm_show_trial_num","null","<p class=block-text>Trial 31 out of 60</p>","null","","","","","","","","","","","","","","","","","","","","","","","","","",""
"","","","","","image-button-response","66","502972","0.0-2.0-4.0-1.6","5f2042752276432e3a7ef104","B2","batch2","spm_respsonse","13822.09999999404","img/question_3_7.jpeg","4","mat_31","5","1","1","13822.09999999404","","","","","","","","","","","","","","","","","","","","",""
"","","","","","html-keyboard-response","67","504031","0.0-2.0-4.0-0.7","5f2042752276432e3a7ef104","B2","batch2","spm_show_trial_num","null","<p class=block-text>Trial 32 out of 60</p>","null","","","","","","","","","","","","","","","","","","","","","","","","","",""
"","","","","","image-button-response","68","534786","0.0-2.0-4.0-1.7","5f2042752276432e3a7ef104","B2","batch2","spm_respsonse","30746.899999976158","img/question_3_8.jpeg","6","mat_32","1","0","0","30746.899999976158","","","","","","","","","","","","","","","","","","","","",""
"","","","","","html-keyboard-response","69","535847","0.0-2.0-4.0-0.8","5f2042752276432e3a7ef104","B2","batch2","spm_show_trial_num","null","<p class=block-text>Trial 33 out of 60</p>","null","","","","","","","","","","","","","","","","","","","","","","","","","",""
"","","","","","image-button-response","70","547987","0.0-2.0-4.0-1.8","5f2042752276432e3a7ef104","B2","batch2","spm_respsonse","12131.700000017881","img/question_3_9.jpeg","6","mat_33","7","1","1","12131.700000017881","","","","","","","","","","","","","","","","","","","","",""
"","","","","","html-keyboard-response","71","549047","0.0-2.0-4.0-0.9","5f2042752276432e3a7ef104","B2","batch2","spm_show_trial_num","null","<p class=block-text>Trial 34 out of 60</p>","null","","","","","","","","","","","","","","","","","","","","","","","","","",""
"","","","","","image-button-response","72","598922","0.0-2.0-4.0-1.9","5f2042752276432e3a7ef104","B2","batch2","spm_respsonse","49867.30000001192","img/question_3_10.jpeg","3","mat_34","6","0","0","49867.30000001192","","","","","","","","","","","","","","","","","","","","",""
"","","","","","html-keyboard-response","73","599983","0.0-2.0-4.0-0.10","5f2042752276432e3a7ef104","B2","batch2","spm_show_trial_num","null","<p class=block-text>Trial 35 out of 60</p>","null","","","","","","","","","","","","","","","","","","","","","","","","","",""
"","","","","","image-button-response","74","619497","0.0-2.0-4.0-1.10","5f2042752276432e3a7ef104","B2","batch2","spm_respsonse","19506.90000000596","img/question_3_11.jpeg","0","mat_35","1","1","1","19506.90000000596","","","","","","","","","","","","","","","","","","","","",""
"","","","","","html-keyboard-response","75","620559","0.0-2.0-4.0-0.11","5f2042752276432e3a7ef104","B2","batch2","spm_show_trial_num","null","<p class=block-text>Trial 36 out of 60</p>","null","","","","","","","","","","","","","","","","","","","","","","","","","",""
"","","","","","image-button-response","76","711866","0.0-2.0-4.0-1.11","5f2042752276432e3a7ef104","B2","batch2","spm_respsonse","91299.40000000596","img/question_3_12.jpeg","1","mat_36","2","1","1","91299.40000000596","","","","","","","","","","","","","","","","","","","","",""
"","","","","","html-keyboard-response","77","712927","0.0-2.0-4.0-0.12","5f2042752276432e3a7ef104","B2","batch2","spm_show_trial_num","null","<p class=block-text>Trial 37 out of 60</p>","null","","","","","","","","","","","","","","","","","","","","","","","","","",""
"","","","","","image-button-response","78","717346","0.0-2.0-4.0-1.12","5f2042752276432e3a7ef104","B2","batch2","spm_respsonse","4410.9000000059605","img/question_4_1.jpeg","2","mat_37","3","1","1","4410.9000000059605","","","","","","","","","","","","","","","","","","","","",""
"","","","","","html-keyboard-response","79","718407","0.0-2.0-4.0-0.13","5f2042752276432e3a7ef104","B2","batch2","spm_show_trial_num","null","<p class=block-text>Trial 38 out of 60</p>","null","","","","","","","","","","","","","","","","","","","","","","","","","",""
"","","","","","image-button-response","80","723266","0.0-2.0-4.0-1.13","5f2042752276432e3a7ef104","B2","batch2","spm_respsonse","4850.799999982119","img/question_4_2.jpeg","3","mat_38","4","1","1","4850.799999982119","","","","","","","","","","","","","","","","","","","","",""
"","","","","","html-keyboard-response","81","724327","0.0-2.0-4.0-0.14","5f2042752276432e3a7ef104","B2","batch2","spm_show_trial_num","null","<p class=block-text>Trial 39 out of 60</p>","null","","","","","","","","","","","","","","","","","","","","","","","","","",""
"","","","","","image-button-response","82","733986","0.0-2.0-4.0-1.14","5f2042752276432e3a7ef104","B2","batch2","spm_respsonse","9652.299999982119","img/question_4_3.jpeg","2","mat_39","3","1","1","9652.299999982119","","","","","","","","","","","","","","","","","","","","",""
"","","","","","html-keyboard-response","83","735047","0.0-2.0-4.0-0.15","5f2042752276432e3a7ef104","B2","batch2","spm_show_trial_num","null","<p class=block-text>Trial 40 out of 60</p>","null","","","","","","","","","","","","","","","","","","","","","","","","","",""
"","","","","","image-button-response","84","741604","0.0-2.0-4.0-1.15","5f2042752276432e3a7ef104","B2","batch2","spm_respsonse","6547.5","img/question_4_4.jpeg","1","mat_40","7","0","0","6547.5","","","","","","","","","","","","","","","","","","","","",""
"","","","","","html-keyboard-response","85","742671","0.0-2.0-4.0-0.16","5f2042752276432e3a7ef104","B2","batch2","spm_show_trial_num","null","<p class=block-text>Trial 41 out of 60</p>","null","","","","","","","","","","","","","","","","","","","","","","","","","",""
"","","","","","image-button-response","86","752890","0.0-2.0-4.0-1.16","5f2042752276432e3a7ef104","B2","batch2","spm_respsonse","10210.40000000596","img/question_4_5.jpeg","7","mat_41","8","1","1","10210.40000000596","","","","","","","","","","","","","","","","","","","","",""
"","","","","","html-keyboard-response","87","753952","0.0-2.0-4.0-0.17","5f2042752276432e3a7ef104","B2","batch2","spm_show_trial_num","null","<p class=block-text>Trial 42 out of 60</p>","null","","","","","","","","","","","","","","","","","","","","","","","","","",""
"","","","","","image-button-response","88","768675","0.0-2.0-4.0-1.17","5f2042752276432e3a7ef104","B2","batch2","spm_respsonse","14715.59999999404","img/question_4_6.jpeg","2","mat_42","6","0","0","14715.59999999404","","","","","","","","","","","","","","","","","","","","",""
"","","","","","html-keyboard-response","89","769735","0.0-2.0-4.0-0.18","5f2042752276432e3a7ef104","B2","batch2","spm_show_trial_num","null","<p class=block-text>Trial 43 out of 60</p>","null","","","","","","","","","","","","","","","","","","","","","","","","","",""
"","","","","","image-button-response","90","804074","0.0-2.0-4.0-1.18","5f2042752276432e3a7ef104","B2","batch2","spm_respsonse","34330.20000001788","img/question_4_7.jpeg","4","mat_43","5","1","1","34330.20000001788","","","","","","","","","","","","","","","","","","","","",""
"","","","","","html-keyboard-response","91","805135","0.0-2.0-4.0-0.19","5f2042752276432e3a7ef104","B2","batch2","spm_show_trial_num","null","<p class=block-text>Trial 44 out of 60</p>","null","","","","","","","","","","","","","","","","","","","","","","","","","",""
"","","","","","image-button-response","92","851497","0.0-2.0-4.0-1.19","5f2042752276432e3a7ef104","B2","batch2","spm_respsonse","46355.40000000596","img/question_4_8.jpeg","0","mat_44","4","0","0","46355.40000000596","","","","","","","","","","","","","","","","","","","","",""
"","","","","","html-keyboard-response","93","852561","0.0-2.0-4.0-0.20","5f2042752276432e3a7ef104","B2","batch2","spm_show_trial_num","null","<p class=block-text>Trial 45 out of 60</p>","null","","","","","","","","","","","","","","","","","","","","","","","","","",""
"","","","","","image-button-response","94","939197","0.0-2.0-4.0-1.20","5f2042752276432e3a7ef104","B2","batch2","spm_respsonse","86625","img/question_4_9.jpeg","4","mat_45","1","0","0","86625","","","","","","","","","","","","","","","","","","","","",""
"","","","","","html-keyboard-response","95","940264","0.0-2.0-4.0-0.21","5f2042752276432e3a7ef104","B2","batch2","spm_show_trial_num","null","<p class=block-text>Trial 46 out of 60</p>","null","","","","","","","","","","","","","","","","","","","","","","","","","",""
"","","","","","image-button-response","96","995380","0.0-2.0-4.0-1.21","5f2042752276432e3a7ef104","B2","batch2","spm_respsonse","55108.5","img/question_4_10.jpeg","1","mat_46","2","1","1","55108.5","","","","","","","","","","","","","","","","","","","","",""
"","","","","","html-keyboard-response","97","996439","0.0-2.0-4.0-0.22","5f2042752276432e3a7ef104","B2","batch2","spm_show_trial_num","null","<p class=block-text>Trial 47 out of 60</p>","null","","","","","","","","","","","","","","","","","","","","","","","","","",""
"","","","","","image-button-response","98","1057978","0.0-2.0-4.0-1.22","5f2042752276432e3a7ef104","B2","batch2","spm_respsonse","61531.19999998808","img/question_4_11.jpeg","5","mat_47","5","0","0","61531.19999998808","","","","","","","","","","","","","","","","","","","","",""
"","","","","","html-keyboard-response","99","1059039","0.0-2.0-4.0-0.23","5f2042752276432e3a7ef104","B2","batch2","spm_show_trial_num","null","<p class=block-text>Trial 48 out of 60</p>","null","","","","","","","","","","","","","","","","","","","","","","","","","",""
"","","","","","image-button-response","100","1110386","0.0-2.0-4.0-1.23","5f2042752276432e3a7ef104","B2","batch2","spm_respsonse","51340.19999998808","img/question_4_12.jpeg","1","mat_48","6","0","0","51340.19999998808","","","","","","","","","","","","","","","","","","","","",""
"","","","","","html-keyboard-response","101","1111447","0.0-2.0-4.0-0.24","5f2042752276432e3a7ef104","B2","batch2","spm_show_trial_num","null","<p class=block-text>Trial 49 out of 60</p>","null","","","","","","","","","","","","","","","","","","","","","","","","","",""
"","","","","","image-button-response","102","1133922","0.0-2.0-4.0-1.24","5f2042752276432e3a7ef104","B2","batch2","spm_respsonse","22468.59999999404","img/question_5_1.jpeg","6","mat_49","7","1","1","22468.59999999404","","","","","","","","","","","","","","","","","","","","",""
"","","","","","html-keyboard-response","103","1134979","0.0-2.0-4.0-0.25","5f2042752276432e3a7ef104","B2","batch2","spm_show_trial_num","null","<p class=block-text>Trial 50 out of 60</p>","null","","","","","","","","","","","","","","","","","","","","","","","","","",""
"","","","","","image-button-response","104","1210754","0.0-2.0-4.0-1.25","5f2042752276432e3a7ef104","B2","batch2","spm_respsonse","75767","img/question_5_2.jpeg","5","mat_50","6","1","1","75767","","","","","","","","","","","","","","","","","","","","",""
"","","","","","html-keyboard-response","105","1211815","0.0-2.0-4.0-0.26","5f2042752276432e3a7ef104","B2","batch2","spm_show_trial_num","null","<p class=block-text>Trial 51 out of 60</p>","null","","","","","","","","","","","","","","","","","","","","","","","","","",""
"","","","","","image-button-response","106","1268652","0.0-2.0-4.0-1.26","5f2042752276432e3a7ef104","B2","batch2","spm_respsonse","56827.29999998212","img/question_5_3.jpeg","7","mat_51","8","1","1","56827.29999998212","","","","","","","","","","","","","","","","","","","","",""
"","","","","","html-keyboard-response","107","1269711","0.0-2.0-4.0-0.27","5f2042752276432e3a7ef104","B2","batch2","spm_show_trial_num","null","<p class=block-text>Trial 52 out of 60</p>","null","","","","","","","","","","","","","","","","","","","","","","","","","",""
"","","","","","image-button-response","108","1349202","0.0-2.0-4.0-1.27","5f2042752276432e3a7ef104","B2","batch2","spm_respsonse","79482.59999999404","img/question_5_4.jpeg","2","mat_52","2","0","0","79482.59999999404","","","","","","","","","","","","","","","","","","","","",""
"","","","","","html-keyboard-response","109","1350263","0.0-2.0-4.0-0.28","5f2042752276432e3a7ef104","B2","batch2","spm_show_trial_num","null","<p class=block-text>Trial 53 out of 60</p>","null","","","","","","","","","","","","","","","","","","","","","","","","","",""
"","","","","","image-button-response","110","1368310","0.0-2.0-4.0-1.28","5f2042752276432e3a7ef104","B2","batch2","spm_respsonse","18041.90000000596","img/question_5_5.jpeg","6","mat_53","1","0","0","18041.90000000596","","","","","","","","","","","","","","","","","","","","",""
"","","","","","html-keyboard-response","111","1369369","0.0-2.0-4.0-0.29","5f2042752276432e3a7ef104","B2","batch2","spm_show_trial_num","null","<p class=block-text>Trial 54 out of 60</p>","null","","","","","","","","","","","","","","","","","","","","","","","","","",""
"","","","","","image-button-response","112","1546499","0.0-2.0-4.0-1.29","5f2042752276432e3a7ef104","B2","batch2","spm_respsonse","177121.80000001192","img/question_5_6.jpeg","1","mat_54","5","0","0","177121.80000001192","","","","","","","","","","","","","","","","","","","","",""
"","","","","","html-keyboard-response","113","1547563","0.0-2.0-4.0-0.30","5f2042752276432e3a7ef104","B2","batch2","spm_show_trial_num","null","<p class=block-text>Trial 55 out of 60</p>","null","","","","","","","","","","","","","","","","","","","","","","","","","",""
"","","","","","image-button-response","114","1688650","0.0-2.0-4.0-1.30","5f2042752276432e3a7ef104","B2","batch2","spm_respsonse","141080","img/question_5_7.jpeg","7","mat_55","1","0","0","141080","","","","","","","","","","","","","","","","","","","","",""
"","","","","","html-keyboard-response","115","1689712","0.0-2.0-4.0-0.31","5f2042752276432e3a7ef104","B2","batch2","spm_show_trial_num","null","<p class=block-text>Trial 56 out of 60</p>","null","","","","","","","","","","","","","","","","","","","","","","","","","",""
"","","","","","image-button-response","116","1719802","0.0-2.0-4.0-1.31","5f2042752276432e3a7ef104","B2","batch2","spm_respsonse","30082.30000001192","img/question_5_8.jpeg","1","mat_56","6","0","0","30082.30000001192","","","","","","","","","","","","","","","","","","","","",""
"","","","","","html-keyboard-response","117","1720863","0.0-2.0-4.0-0.32","5f2042752276432e3a7ef104","B2","batch2","spm_show_trial_num","null","<p class=block-text>Trial 57 out of 60</p>","null","","","","","","","","","","","","","","","","","","","","","","","","","",""
"","","","","","image-button-response","118","1745914","0.0-2.0-4.0-1.32","5f2042752276432e3a7ef104","B2","batch2","spm_respsonse","25043.399999976158","img/question_5_9.jpeg","7","mat_57","3","0","0","25043.399999976158","","","","","","","","","","","","","","","","","","","","",""
"","","","","","html-keyboard-response","119","1746975","0.0-2.0-4.0-0.33","5f2042752276432e3a7ef104","B2","batch2","spm_show_trial_num","null","<p class=block-text>Trial 58 out of 60</p>","null","","","","","","","","","","","","","","","","","","","","","","","","","",""
"","","","","","image-button-response","120","1787410","0.0-2.0-4.0-1.33","5f2042752276432e3a7ef104","B2","batch2","spm_respsonse","40427","img/question_5_10.jpeg","3","mat_58","2","0","0","40427","","","","","","","","","","","","","","","","","","","","",""
"","","","","","html-keyboard-response","121","1788471","0.0-2.0-4.0-0.34","5f2042752276432e3a7ef104","B2","batch2","spm_show_trial_num","null","<p class=block-text>Trial 59 out of 60</p>","null","","","","","","","","","","","","","","","","","","","","","","","","","",""
"","","","","","image-button-response","122","1814001","0.0-2.0-4.0-1.34","5f2042752276432e3a7ef104","B2","batch2","spm_respsonse","25522.899999976158","img/question_5_11.jpeg","0","mat_59","4","0","0","25522.899999976158","","","","","","","","","","","","","","","","","","","","",""
"","","","","","html-keyboard-response","123","1815063","0.0-2.0-4.0-0.35","5f2042752276432e3a7ef104","B2","batch2","spm_show_trial_num","null","<p class=block-text>Trial 60 out of 60</p>","null","","","","","","","","","","","","","","","","","","","","","","","","","",""
"","","","","","image-button-response","124","1905500","0.0-2.0-4.0-1.35","5f2042752276432e3a7ef104","B2","batch2","spm_respsonse","90427.29999998212","img/question_5_12.jpeg","4","mat_60","5","1","1","90427.29999998212","","","","","","","","","","","","","","","","","","","","",""
"","","","","","html-button-response","125","1908091","0.0-2.0-5.0","5f2042752276432e3a7ef104","B2","batch2","spm_goodbye","2326.0999999940395","<p class= block-text>This concludes the Standard Progressive Matrix game. Thank you for your responses!<br> When you are ready, click the button continue</p>","0","","","","","","","","","","","","","","","","","","","","","","","","","",""
"true","","","","","fullscreen","126","1912319","0.0-3.0-0.0","5f2042752276432e3a7ef104","B2","batch2","","","","","","","","","","","","","","","","","","","","","","","","","","","","","",""
"","","","","","instructions","127","1944970","0.0-3.0-1.0-0.0","5f2042752276432e3a7ef104","B2","batch2","","32646.19999998808","","","","","","","","[{""page_index"":0,""viewing_time"":21500.19999998808},{""page_index"":1,""viewing_time"":11144.600000023842}]","","","","","","","","","","","","","","","","","","","",""
"","","","","","html-button-response","128","1946953","0.0-3.0-1.0-1.0-0.0","5f2042752276432e3a7ef104","B2","batch2","pattern_enter_quiz","1978.699999988079","<p class=block-text> Let's answer a few questions <br>","0","","","","","","","","","","","","","","","","","","","","","","","","","",""
"","","","","","html-button-response","129","1955145","0.0-3.0-1.0-1.0-1.0","5f2042752276432e3a7ef104","B2","batch2","pattern_quiz","8185.100000023842","<p class = block-text>True or False: You will have as much time as you want to make each choice. <br></p>","1","","","true","","","","","","","","","","","","","","","","","","","","","","",""
"","","","","","html-button-response","130","1957609","0.0-3.0-1.0-1.0-2.0","5f2042752276432e3a7ef104","B2","batch2","pattern_quiz_feedback","2455.300000011921","<p class = block-text>Correct! You should make your choice <strong> as fast as you can</strong>.</p>","0","","","","","","","","","","","","","","","","","","","","","","","","","",""
"","","","","","html-button-response","131","1962818","0.0-3.0-1.0-1.0-3.0","5f2042752276432e3a7ef104","B2","batch2","pattern_quiz","5203.5999999940395","<p class = block-text>True or False: You will look for 4 pieces in black or white color connected in a row either horizontally, vertically or diagonally. <br></p>","0","","","true","","","","","","","","","","","","","","","","","","","","","","",""
"","","","","","html-button-response","132","1965763","0.0-3.0-1.0-1.0-4.0","5f2042752276432e3a7ef104","B2","batch2","pattern_quiz_feedback","2938.800000011921","<p class = block-text>Correct! </p>","0","","","","","","","","","","","","","","","","","","","","","","","","","",""
"","","","","","html-button-response","133","1967194","0.0-3.0-2.0","5f2042752276432e3a7ef104","B2","batch2","pattern_enter_practice","1420.7000000178814","<p class=block-text> Now that you've understood the game, let's do a few practice trials before we start!<br> <br>","0","","","","","","","","","","","","","","","","","","","","","","","","","",""
"","","","","","image-keyboard-response","134","1971016","0.0-3.0-3.0-0.0","5f2042752276432e3a7ef104","B2","batch2","pattern_practice","3815.0999999940395","stim/prac_no_16_1.png","j","","j","true","","","","","","","","","","","","","","","","","","","","","","",""
"","","","","","html-keyboard-response","135","1972023","0.0-3.0-3.0-1.0","5f2042752276432e3a7ef104","B2","batch2","pattern_feedback","null","<p style=""font-size:30px;color:green;"">Correct!</p>","null","","","","","","","","","","","","","","","","","","","","","","","","","",""
"","","","","","image-keyboard-response","136","1974443","0.0-3.0-3.0-0.1","5f2042752276432e3a7ef104","B2","batch2","pattern_practice","2415.800000011921","stim/prac_yes_20_dia_b1.png","f","","f","true","","","","","","","","","","","","","","","","","","","","","","",""
"","","","","","html-keyboard-response","137","1975456","0.0-3.0-3.0-1.1","5f2042752276432e3a7ef104","B2","batch2","pattern_feedback","null","<p style=""font-size:30px;color:green;"">Correct!</p>","null","","","","","","","","","","","","","","","","","","","","","","","","","",""
"","","","","","image-keyboard-response","138","1976720","0.0-3.0-3.0-0.2","5f2042752276432e3a7ef104","B2","batch2","pattern_practice","1259.7000000178814","stim/prac_yes_16_ver_w1.png","j","","f","false","","","","","","","","","","","","","","","","","","","","","","",""
"","","","","","html-keyboard-response","139","1977727","0.0-3.0-3.0-1.2","5f2042752276432e3a7ef104","B2","batch2","pattern_feedback","null","<p style=""font-size:30px;color:red;"">Wrong.</p>","null","","","","","","","","","","","","","","","","","","","","","","","","","",""
"","","","","","image-keyboard-response","140","1979255","0.0-3.0-3.0-0.3","5f2042752276432e3a7ef104","B2","batch2","pattern_practice","1524.699999988079","stim/prac_yes_18_hor_w1.png","f","","f","true","","","","","","","","","","","","","","","","","","","","","","",""
"","","","","","html-keyboard-response","141","1980263","0.0-3.0-3.0-1.3","5f2042752276432e3a7ef104","B2","batch2","pattern_feedback","null","<p style=""font-size:30px;color:green;"">Correct!</p>","null","","","","","","","","","","","","","","","","","","","","","","","","","",""
"","","","","","image-keyboard-response","142","1982508","0.0-3.0-3.0-0.4","5f2042752276432e3a7ef104","B2","batch2","pattern_practice","2241.800000011921","stim/prac_no_18_1.png","j","","j","true","","","","","","","","","","","","","","","","","","","","","","",""
"","","","","","html-keyboard-response","143","1983519","0.0-3.0-3.0-1.4","5f2042752276432e3a7ef104","B2","batch2","pattern_feedback","null","<p style=""font-size:30px;color:green;"">Correct!</p>","null","","","","","","","","","","","","","","","","","","","","","","","","","",""
"","","","","","html-button-response","144","1987009","0.0-3.0-4.0","5f2042752276432e3a7ef104","B2","batch2","pattern_enter_official_trials","3480.0999999940395","<p class=block-text> Good job! You are done with practice trials!<br>
        You responded correctly on 80% of the trials.<br>
        Press the button below to start official trials. Now you won't see any feedback about your response</p>","0","","","","","","","","","","","","","","","","","","","","","","","","","",""
"","","","","","html-keyboard-response","145","1987815","0.0-3.0-5.0-0.0","5f2042752276432e3a7ef104","B2","batch2","pattern_show_trial_num","null","<p class=block-text>Trial 1 out of 78</p>","null","","","","","","","","","","","","","","","","","","","","","","","","","",""
"","","","","","image-keyboard-response","146","1992047","0.0-3.0-5.0-1.0","5f2042752276432e3a7ef104","B2","batch2","pattern_response","4225.899999976158","stim/yes_63_dia_b1.png","j","pattern_78","f","false","","","","4225.899999976158","false","0","","","","","","","","","","","","","","","","",""
"","","","","","html-keyboard-response","147","1993359","0.0-3.0-5.0-0.1","5f2042752276432e3a7ef104","B2","batch2","pattern_show_trial_num","null","<p class=block-text>Trial 2 out of 78</p>","null","","","","","","","","","","","","","","","","","","","","","","","","","",""
"","","","","","image-keyboard-response","148","1996715","0.0-3.0-5.0-1.1","5f2042752276432e3a7ef104","B2","batch2","pattern_response","3349.5999999940395","stim/yes_44_ver_w1_w.png","f","pattern_66","f","true","","","","3349.5999999940395","true","1","","","","","","","","","","","","","","","","",""
"","","","","","html-keyboard-response","149","1998031","0.0-3.0-5.0-0.2","5f2042752276432e3a7ef104","B2","batch2","pattern_show_trial_num","null","<p class=block-text>Trial 3 out of 78</p>","null","","","","","","","","","","","","","","","","","","","","","","","","","",""
"","","","","","image-keyboard-response","150","1999981","0.0-3.0-5.0-1.2","5f2042752276432e3a7ef104","B2","batch2","pattern_response","1945.7000000178814","stim/yes_36_ver_w1_w.png","f","pattern_58","f","true","","","","1945.7000000178814","true","2","","","","","","","","","","","","","","","","",""
"","","","","","html-keyboard-response","151","2001295","0.0-3.0-5.0-0.3","5f2042752276432e3a7ef104","B2","batch2","pattern_show_trial_num","null","<p class=block-text>Trial 4 out of 78</p>","null","","","","","","","","","","","","","","","","","","","","","","","","","",""
"","","","","","image-keyboard-response","152","2003346","0.0-3.0-5.0-1.3","5f2042752276432e3a7ef104","B2","batch2","pattern_response","2044.4000000059605","stim/yes_23_ver_b1.png","f","pattern_48","f","true","","","","2044.4000000059605","true","3","","","","","","","","","","","","","","","","",""
"","","","","","html-keyboard-response","153","2004655","0.0-3.0-5.0-0.4","5f2042752276432e3a7ef104","B2","batch2","pattern_show_trial_num","null","<p class=block-text>Trial 5 out of 78</p>","null","","","","","","","","","","","","","","","","","","","","","","","","","",""
"","","","","","image-keyboard-response","154","2008392","0.0-3.0-5.0-1.4","5f2042752276432e3a7ef104","B2","batch2","pattern_response","3732.5999999940395","stim/yes_17_ver_b1_b.png","f","pattern_46","f","true","","","","3732.5999999940395","true","4","","","","","","","","","","","","","","","","",""
"","","","","","html-keyboard-response","155","2009703","0.0-3.0-5.0-0.5","5f2042752276432e3a7ef104","B2","batch2","pattern_show_trial_num","null","<p class=block-text>Trial 6 out of 78</p>","null","","","","","","","","","","","","","","","","","","","","","","","","","",""
"","","","","","image-keyboard-response","156","2015355","0.0-3.0-5.0-1.5","5f2042752276432e3a7ef104","B2","batch2","pattern_response","5645.700000017881","stim/no_67_1.png","j","pattern_39","j","true","","","","5645.700000017881","true","5","","","","","","","","","","","","","","","","",""
"","","","","","html-keyboard-response","157","2016671","0.0-3.0-5.0-0.6","5f2042752276432e3a7ef104","B2","batch2","pattern_show_trial_num","null","<p class=block-text>Trial 7 out of 78</p>","null","","","","","","","","","","","","","","","","","","","","","","","","","",""
"","","","","","image-keyboard-response","158","2019958","0.0-3.0-5.0-1.6","5f2042752276432e3a7ef104","B2","batch2","pattern_response","3282.9000000059605","stim/yes_53_ver_b1_b.png","f","pattern_74","f","true","","","","3282.9000000059605","true","6","","","","","","","","","","","","","","","","",""
"","","","","","html-keyboard-response","159","2021271","0.0-3.0-5.0-0.7","5f2042752276432e3a7ef104","B2","batch2","pattern_show_trial_num","null","<p class=block-text>Trial 8 out of 78</p>","null","","","","","","","","","","","","","","","","","","","","","","","","","",""
"","","","","","image-keyboard-response","160","2023552","0.0-3.0-5.0-1.7","5f2042752276432e3a7ef104","B2","batch2","pattern_response","2275.800000011921","stim/yes_29_hor_b1_b.png","f","pattern_52","f","true","","","","2275.800000011921","true","7","","","","","","","","","","","","","","","","",""
"","","","","","html-keyboard-response","161","2024863","0.0-3.0-5.0-0.8","5f2042752276432e3a7ef104","B2","batch2","pattern_show_trial_num","null","<p class=block-text>Trial 9 out of 78</p>","null","","","","","","","","","","","","","","","","","","","","","","","","","",""
"","","","","","image-keyboard-response","162","2029678","0.0-3.0-5.0-1.8","5f2042752276432e3a7ef104","B2","batch2","pattern_response","4811.800000011921","stim/no_45_1_w.png","j","pattern_25","j","true","","","","4811.800000011921","true","8","","","","","","","","","","","","","","","","",""
"","","","","","html-keyboard-response","163","2030991","0.0-3.0-5.0-0.9","5f2042752276432e3a7ef104","B2","batch2","pattern_show_trial_num","null","<p class=block-text>Trial 10 out of 78</p>","null","","","","","","","","","","","","","","","","","","","","","","","","","",""
"","","","","","image-keyboard-response","164","2033988","0.0-3.0-5.0-1.9","5f2042752276432e3a7ef104","B2","batch2","pattern_response","2991.800000011921","stim/no_12_1.png","j","pattern_01","j","true","","","","2991.800000011921","true","9","","","","","","","","","","","","","","","","",""
"","","","","","html-keyboard-response","165","2035303","0.0-3.0-5.0-0.10","5f2042752276432e3a7ef104","B2","batch2","pattern_show_trial_num","null","<p class=block-text>Trial 11 out of 78</p>","null","","","","","","","","","","","","","","","","","","","","","","","","","",""
"","","","","","image-keyboard-response","166","2039225","0.0-3.0-5.0-1.10","5f2042752276432e3a7ef104","B2","batch2","pattern_response","3916.300000011921","stim/no_36_1_b.png","j","pattern_17","j","true","","","","3916.300000011921","true","10","","","","","","","","","","","","","","","","",""
"","","","","","html-keyboard-response","167","2040535","0.0-3.0-5.0-0.11","5f2042752276432e3a7ef104","B2","batch2","pattern_show_trial_num","null","<p class=block-text>Trial 12 out of 78</p>","null","","","","","","","","","","","","","","","","","","","","","","","","","",""
"","","","","","image-keyboard-response","168","2042973","0.0-3.0-5.0-1.11","5f2042752276432e3a7ef104","B2","batch2","pattern_response","2431.7000000178814","stim/yes_46_ver_b1_b.png","f","pattern_68","f","true","","","","2431.7000000178814","true","11","","","","","","","","","","","","","","","","",""
"","","","","","html-keyboard-response","169","2044287","0.0-3.0-5.0-0.12","5f2042752276432e3a7ef104","B2","batch2","pattern_show_trial_num","null","<p class=block-text>Trial 13 out of 78</p>","null","","","","","","","","","","","","","","","","","","","","","","","","","",""
"","","","","","image-keyboard-response","170","2046561","0.0-3.0-5.0-1.12","5f2042752276432e3a7ef104","B2","batch2","pattern_response","2268.4000000059605","stim/yes_49_hor_w1_b.png","f","pattern_70","f","true","","","","2268.4000000059605","true","12","","","","","","","","","","","","","","","","",""
"","","","","","html-keyboard-response","171","2047871","0.0-3.0-5.0-0.13","5f2042752276432e3a7ef104","B2","batch2","pattern_show_trial_num","null","<p class=block-text>Trial 14 out of 78</p>","null","","","","","","","","","","","","","","","","","","","","","","","","","",""
"","","","","","image-keyboard-response","172","2049457","0.0-3.0-5.0-1.13","5f2042752276432e3a7ef104","B2","batch2","pattern_response","1581.9000000059605","stim/yes_37_hor_w1_w.png","f","pattern_60","f","true","","","","1581.9000000059605","true","13","","","","","","","","","","","","","","","","",""
"","","","","","html-keyboard-response","173","2050767","0.0-3.0-5.0-0.14","5f2042752276432e3a7ef104","B2","batch2","pattern_show_trial_num","null","<p class=block-text>Trial 15 out of 78</p>","null","","","","","","","","","","","","","","","","","","","","","","","","","",""
"","","","","","image-keyboard-response","174","2051915","0.0-3.0-5.0-1.14","5f2042752276432e3a7ef104","B2","batch2","pattern_response","1143.1000000238419","stim/yes_12_hor_w1_w.png","f","pattern_42","f","true","","","","1143.1000000238419","true","14","","","","","","","","","","","","","","","","",""
"","","","","","html-keyboard-response","175","2053231","0.0-3.0-5.0-0.15","5f2042752276432e3a7ef104","B2","batch2","pattern_show_trial_num","null","<p class=block-text>Trial 16 out of 78</p>","null","","","","","","","","","","","","","","","","","","","","","","","","","",""
"","","","","","image-keyboard-response","176","2057639","0.0-3.0-5.0-1.15","5f2042752276432e3a7ef104","B2","batch2","pattern_response","4404.5999999940395","stim/no_43_2_b.png","j","pattern_23","j","true","","","","4404.5999999940395","true","15","","","","","","","","","","","","","","","","",""
"","","","","","html-keyboard-response","177","2058951","0.0-3.0-5.0-0.16","5f2042752276432e3a7ef104","B2","batch2","pattern_show_trial_num","null","<p class=block-text>Trial 17 out of 78</p>","null","","","","","","","","","","","","","","","","","","","","","","","","","",""
"","","","","","image-keyboard-response","178","2062994","0.0-3.0-5.0-1.16","5f2042752276432e3a7ef104","B2","batch2","pattern_response","4036.5","stim/no_33_1_b.png","j","pattern_15","j","true","","","","4036.5","true","16","","","","","","","","","","","","","","","","",""
"","","","","","html-keyboard-response","179","2064303","0.0-3.0-5.0-0.17","5f2042752276432e3a7ef104","B2","batch2","pattern_show_trial_num","null","<p class=block-text>Trial 18 out of 78</p>","null","","","","","","","","","","","","","","","","","","","","","","","","","",""
"","","","","","image-keyboard-response","180","2066321","0.0-3.0-5.0-1.17","5f2042752276432e3a7ef104","B2","batch2","pattern_response","2007.4000000059605","stim/yes_39_hor_w1_w.png","f","pattern_62","f","true","","","","2007.4000000059605","true","17","","","","","","","","","","","","","","","","",""
"","","","","","html-keyboard-response","181","2067631","0.0-3.0-5.0-0.18","5f2042752276432e3a7ef104","B2","batch2","pattern_show_trial_num","null","<p class=block-text>Trial 19 out of 78</p>","null","","","","","","","","","","","","","","","","","","","","","","","","","",""
"","","","","","image-keyboard-response","182","2071184","0.0-3.0-5.0-1.18","5f2042752276432e3a7ef104","B2","batch2","pattern_response","3548.5999999940395","stim/yes_33_dia_w1_w.png","f","pattern_56","f","true","","","","3548.5999999940395","true","18","","","","","","","","","","","","","","","","",""
"","","","","","html-keyboard-response","183","2072496","0.0-3.0-5.0-0.19","5f2042752276432e3a7ef104","B2","batch2","pattern_show_trial_num","null","<p class=block-text>Trial 20 out of 78</p>","null","","","","","","","","","","","","","","","","","","","","","","","","","",""
"","","","","","image-keyboard-response","184","2074442","0.0-3.0-5.0-1.19","5f2042752276432e3a7ef104","B2","batch2","pattern_response","1941.6000000238419","stim/yes_70_ver_b1.png","f","pattern_80","f","true","","","","1941.6000000238419","true","19","","","","","","","","","","","","","","","","",""
"","","","","","html-keyboard-response","185","2075751","0.0-3.0-5.0-0.20","5f2042752276432e3a7ef104","B2","batch2","pattern_show_trial_num","null","<p class=block-text>Trial 21 out of 78</p>","null","","","","","","","","","","","","","","","","","","","","","","","","","",""
"","","","","","image-keyboard-response","186","2078402","0.0-3.0-5.0-1.20","5f2042752276432e3a7ef104","B2","batch2","pattern_response","2645.800000011921","stim/no_18_1_b.png","j","pattern_05","j","true","","","","2645.800000011921","true","20","","","","","","","","","","","","","","","","",""
"","","","","","html-keyboard-response","187","2079711","0.0-3.0-5.0-0.21","5f2042752276432e3a7ef104","B2","batch2","pattern_show_trial_num","null","<p class=block-text>Trial 22 out of 78</p>","null","","","","","","","","","","","","","","","","","","","","","","","","","",""
"","","","","","image-keyboard-response","188","2082537","0.0-3.0-5.0-1.21","5f2042752276432e3a7ef104","B2","batch2","pattern_response","2819.2999999821186","stim/yes_30_ver_b1_b.png","f","pattern_54","f","true","","","","2819.2999999821186","true","21","","","","","","","","","","","","","","","","",""
"","","","","","html-keyboard-response","189","2083848","0.0-3.0-5.0-0.22","5f2042752276432e3a7ef104","B2","batch2","pattern_show_trial_num","null","<p class=block-text>Trial 23 out of 78</p>","null","","","","","","","","","","","","","","","","","","","","","","","","","",""
"","","","","","image-keyboard-response","190","2088882","0.0-3.0-5.0-1.22","5f2042752276432e3a7ef104","B2","batch2","pattern_response","5029.9000000059605","stim/no_58_1_w.png","j","pattern_35","j","true","","","","5029.9000000059605","true","22","","","","","","","","","","","","","","","","",""
"","","","","","html-keyboard-response","191","2090200","0.0-3.0-5.0-0.23","5f2042752276432e3a7ef104","B2","batch2","pattern_show_trial_num","null","<p class=block-text>Trial 24 out of 78</p>","null","","","","","","","","","","","","","","","","","","","","","","","","","",""
"","","","","","image-keyboard-response","192","2093962","0.0-3.0-5.0-1.23","5f2042752276432e3a7ef104","B2","batch2","pattern_response","3757","stim/no_51_1.png","j","pattern_31","j","true","","","","3757","true","23","","","","","","","","","","","","","","","","",""
"","","","","","html-keyboard-response","193","2095279","0.0-3.0-5.0-0.24","5f2042752276432e3a7ef104","B2","batch2","pattern_show_trial_num","null","<p class=block-text>Trial 25 out of 78</p>","null","","","","","","","","","","","","","","","","","","","","","","","","","",""
"","","","","","image-keyboard-response","194","2097389","0.0-3.0-5.0-1.24","5f2042752276432e3a7ef104","B2","batch2","pattern_response","2105.800000011921","stim/no_22_1_b.png","j","pattern_07","j","true","","","","2105.800000011921","true","24","","","","","","","","","","","","","","","","",""
"","","","","","html-keyboard-response","195","2098703","0.0-3.0-5.0-0.25","5f2042752276432e3a7ef104","B2","batch2","pattern_show_trial_num","null","<p class=block-text>Trial 26 out of 78</p>","null","","","","","","","","","","","","","","","","","","","","","","","","","",""
"","","","","","image-keyboard-response","196","2101281","0.0-3.0-5.0-1.25","5f2042752276432e3a7ef104","B2","batch2","pattern_response","2572.800000011921","stim/yes_26_dia_w2_w.png","f","pattern_50","f","true","","","","2572.800000011921","true","25","","","","","","","","","","","","","","","","",""
"","","","","","html-keyboard-response","197","2102591","0.0-3.0-5.0-0.26","5f2042752276432e3a7ef104","B2","batch2","pattern_show_trial_num","null","<p class=block-text>Trial 27 out of 78</p>","null","","","","","","","","","","","","","","","","","","","","","","","","","",""
"","","","","","image-keyboard-response","198","2107155","0.0-3.0-5.0-1.26","5f2042752276432e3a7ef104","B2","batch2","pattern_response","4559.4000000059605","stim/no_37_2_w.png","j","pattern_19","j","true","","","","4559.4000000059605","true","26","","","","","","","","","","","","","","","","",""
"","","","","","html-keyboard-response","199","2108471","0.0-3.0-5.0-0.27","5f2042752276432e3a7ef104","B2","batch2","pattern_show_trial_num","null","<p class=block-text>Trial 28 out of 78</p>","null","","","","","","","","","","","","","","","","","","","","","","","","","",""
"","","","","","image-keyboard-response","200","2112802","0.0-3.0-5.0-1.27","5f2042752276432e3a7ef104","B2","batch2","pattern_response","4323.9000000059605","stim/yes_58_dia_w1_w.png","j","pattern_76","f","false","","","","4323.9000000059605","false","26","","","","","","","","","","","","","","","","",""
"","","","","","html-keyboard-response","201","2114111","0.0-3.0-5.0-0.28","5f2042752276432e3a7ef104","B2","batch2","pattern_show_trial_num","null","<p class=block-text>Trial 29 out of 78</p>","null","","","","","","","","","","","","","","","","","","","","","","","","","",""
"","","","","","image-keyboard-response","202","2118420","0.0-3.0-5.0-1.28","5f2042752276432e3a7ef104","B2","batch2","pattern_response","4304.0999999940395","stim/no_49_2_b.png","j","pattern_29","j","true","","","","4304.0999999940395","true","27","","","","","","","","","","","","","","","","",""
"","","","","","html-keyboard-response","203","2119735","0.0-3.0-5.0-0.29","5f2042752276432e3a7ef104","B2","batch2","pattern_show_trial_num","null","<p class=block-text>Trial 30 out of 78</p>","null","","","","","","","","","","","","","","","","","","","","","","","","","",""
"","","","","","image-keyboard-response","204","2124196","0.0-3.0-5.0-1.29","5f2042752276432e3a7ef104","B2","batch2","pattern_response","4456","stim/yes_51_dia_b1.png","f","pattern_72","f","true","","","","4456","true","28","","","","","","","","","","","","","","","","",""
"","","","","","html-keyboard-response","205","2125511","0.0-3.0-5.0-0.30","5f2042752276432e3a7ef104","B2","batch2","pattern_show_trial_num","null","<p class=block-text>Trial 31 out of 78</p>","null","","","","","","","","","","","","","","","","","","","","","","","","","",""
"","","","","","image-keyboard-response","206","2132186","0.0-3.0-5.0-1.30","5f2042752276432e3a7ef104","B2","batch2","pattern_response","6669.899999976158","stim/yes_15_dia_b1u_b.png","f","pattern_44","f","true","","","","6669.899999976158","true","29","","","","","","","","","","","","","","","","",""
"","","","","","html-keyboard-response","207","2133495","0.0-3.0-5.0-0.31","5f2042752276432e3a7ef104","B2","batch2","pattern_show_trial_num","null","<p class=block-text>Trial 32 out of 78</p>","null","","","","","","","","","","","","","","","","","","","","","","","","","",""
"","","","","","image-keyboard-response","208","2138131","0.0-3.0-5.0-1.31","5f2042752276432e3a7ef104","B2","batch2","pattern_response","4633.399999976158","stim/no_47_1_b.png","j","pattern_27","j","true","","","","4633.399999976158","true","30","","","","","","","","","","","","","","","","",""
"","","","","","html-keyboard-response","209","2139447","0.0-3.0-5.0-0.32","5f2042752276432e3a7ef104","B2","batch2","pattern_show_trial_num","null","<p class=block-text>Trial 33 out of 78</p>","null","","","","","","","","","","","","","","","","","","","","","","","","","",""
"","","","","","image-keyboard-response","210","2147007","0.0-3.0-5.0-1.32","5f2042752276432e3a7ef104","B2","batch2","pattern_response","7555.799999982119","stim/no_39_1_w.png","j","pattern_21","j","true","","","","7555.799999982119","true","31","","","","","","","","","","","","","","","","",""
"","","","","","html-keyboard-response","211","2148319","0.0-3.0-5.0-0.33","5f2042752276432e3a7ef104","B2","batch2","pattern_show_trial_num","null","<p class=block-text>Trial 34 out of 78</p>","null","","","","","","","","","","","","","","","","","","","","","","","","","",""
"","","","","","image-keyboard-response","212","2152078","0.0-3.0-5.0-1.33","5f2042752276432e3a7ef104","B2","batch2","pattern_response","3754","stim/no_28_2.png","j","pattern_11","j","true","","","","3754","true","32","","","","","","","","","","","","","","","","",""
"","","","","","html-keyboard-response","213","2153391","0.0-3.0-5.0-0.34","5f2042752276432e3a7ef104","B2","batch2","pattern_show_trial_num","null","<p class=block-text>Trial 35 out of 78</p>","null","","","","","","","","","","","","","","","","","","","","","","","","","",""
"","","","","","image-keyboard-response","214","2157514","0.0-3.0-5.0-1.34","5f2042752276432e3a7ef104","B2","batch2","pattern_response","4117.600000023842","stim/yes_42_dia_w1_w.png","j","pattern_64","f","false","","","","4117.600000023842","false","32","","","","","","","","","","","","","","","","",""
"","","","","","html-keyboard-response","215","2158823","0.0-3.0-5.0-0.35","5f2042752276432e3a7ef104","B2","batch2","pattern_show_trial_num","null","<p class=block-text>Trial 36 out of 78</p>","null","","","","","","","","","","","","","","","","","","","","","","","","","",""
"","","","","","image-keyboard-response","216","2163616","0.0-3.0-5.0-1.35","5f2042752276432e3a7ef104","B2","batch2","pattern_response","4787.200000017881","stim/no_53_1_b.png","j","pattern_33","j","true","","","","4787.200000017881","true","33","","","","","","","","","","","","","","","","",""
"","","","","","html-keyboard-response","217","2164927","0.0-3.0-5.0-0.36","5f2042752276432e3a7ef104","B2","batch2","pattern_show_trial_num","null","<p class=block-text>Trial 37 out of 78</p>","null","","","","","","","","","","","","","","","","","","","","","","","","","",""
"","","","","","image-keyboard-response","218","2169605","0.0-3.0-5.0-1.36","5f2042752276432e3a7ef104","B2","batch2","pattern_response","4672","stim/no_25_1_b.png","j","pattern_09","j","true","","","","4672","true","34","","","","","","","","","","","","","","","","",""
"","","","","","html-keyboard-response","219","2170919","0.0-3.0-5.0-0.37","5f2042752276432e3a7ef104","B2","batch2","pattern_show_trial_num","null","<p class=block-text>Trial 38 out of 78</p>","null","","","","","","","","","","","","","","","","","","","","","","","","","",""
"","","","","","image-keyboard-response","220","2172393","0.0-3.0-5.0-1.37","5f2042752276432e3a7ef104","B2","batch2","pattern_response","1468.1000000238419","stim/no_15_1_w.png","j","pattern_03","j","true","","","","1468.1000000238419","true","35","","","","","","","","","","","","","","","","",""
"","","","","","html-keyboard-response","221","2173703","0.0-3.0-5.0-0.38","5f2042752276432e3a7ef104","B2","batch2","pattern_show_trial_num","null","<p class=block-text>Trial 39 out of 78</p>","null","","","","","","","","","","","","","","","","","","","","","","","","","",""
"","","","","","image-keyboard-response","222","2177426","0.0-3.0-5.0-1.38","5f2042752276432e3a7ef104","B2","batch2","pattern_response","3719.2999999821186","stim/no_30_1_b.png","j","pattern_13","j","true","","","","3719.2999999821186","true","36","","","","","","","","","","","","","","","","",""
"","","","","","image-keyboard-response","223","2181789","0.0-3.0-6.0","5f2042752276432e3a7ef104","B2","batch2","attention_check","3858.9000000059605","stim/empty_board.png","j","","j","true","","","","","","","500","[""f"",""j""]","","","","","","","","","","","","","","",""
"","","","","","html-keyboard-response","224","2182605","0.0-3.0-7.0-0.0","5f2042752276432e3a7ef104","B2","batch2","pattern_show_trial_num","null","<p class=block-text>Trial 40 out of 78</p>","null","","","","","","","","","","","","","","","","","","","","","","","","","",""
"","","","","","image-keyboard-response","225","2184611","0.0-3.0-7.0-1.0","5f2042752276432e3a7ef104","B2","batch2","pattern_response","2001.2000000178814","stim/no_13_2_b.png","j","pattern_02","j","true","","","","2001.2000000178814","true","37","","","","","","","","","","","","","","","","",""
"","","","","","html-keyboard-response","226","2185928","0.0-3.0-7.0-0.1","5f2042752276432e3a7ef104","B2","batch2","pattern_show_trial_num","null","<p class=block-text>Trial 41 out of 78</p>","null","","","","","","","","","","","","","","","","","","","","","","","","","",""
"","","","","","image-keyboard-response","227","2187868","0.0-3.0-7.0-1.1","5f2042752276432e3a7ef104","B2","batch2","pattern_response","1936.0999999940395","stim/yes_35_dia_b1.png","f","pattern_57","f","true","","","","1936.0999999940395","true","38","","","","","","","","","","","","","","","","",""
"","","","","","html-keyboard-response","228","2189183","0.0-3.0-7.0-0.2","5f2042752276432e3a7ef104","B2","batch2","pattern_show_trial_num","null","<p class=block-text>Trial 42 out of 78</p>","null","","","","","","","","","","","","","","","","","","","","","","","","","",""
"","","","","","image-keyboard-response","229","2194228","0.0-3.0-7.0-1.2","5f2042752276432e3a7ef104","B2","batch2","pattern_response","5041.5","stim/no_34_1_b.png","j","pattern_16","j","true","","","","5041.5","true","39","","","","","","","","","","","","","","","","",""
"","","","","","html-keyboard-response","230","2195543","0.0-3.0-7.0-0.3","5f2042752276432e3a7ef104","B2","batch2","pattern_show_trial_num","null","<p class=block-text>Trial 43 out of 78</p>","null","","","","","","","","","","","","","","","","","","","","","","","","","",""
"","","","","","image-keyboard-response","231","2202187","0.0-3.0-7.0-1.3","5f2042752276432e3a7ef104","B2","batch2","pattern_response","6638.799999982119","stim/no_55_1_w.png","j","pattern_34","j","true","","","","6638.799999982119","true","40","","","","","","","","","","","","","","","","",""
"","","","","","html-keyboard-response","232","2203503","0.0-3.0-7.0-0.4","5f2042752276432e3a7ef104","B2","batch2","pattern_show_trial_num","null","<p class=block-text>Trial 44 out of 78</p>","null","","","","","","","","","","","","","","","","","","","","","","","","","",""
"","","","","","image-keyboard-response","233","2206089","0.0-3.0-7.0-1.4","5f2042752276432e3a7ef104","B2","batch2","pattern_response","2580.800000011921","stim/yes_55_hor_w1_w.png","f","pattern_75","f","true","","","","2580.800000011921","true","41","","","","","","","","","","","","","","","","",""
"","","","","","html-keyboard-response","234","2207399","0.0-3.0-7.0-0.5","5f2042752276432e3a7ef104","B2","batch2","pattern_show_trial_num","null","<p class=block-text>Trial 45 out of 78</p>","null","","","","","","","","","","","","","","","","","","","","","","","","","",""
"","","","","","image-keyboard-response","235","2214042","0.0-3.0-7.0-1.5","5f2042752276432e3a7ef104","B2","batch2","pattern_response","6638","stim/yes_67_hor_b1.png","j","pattern_79","f","false","","","","6638","false","41","","","","","","","","","","","","","","","","",""
"","","","","","html-keyboard-response","236","2215359","0.0-3.0-7.0-0.6","5f2042752276432e3a7ef104","B2","batch2","pattern_show_trial_num","null","<p class=block-text>Trial 46 out of 78</p>","null","","","","","","","","","","","","","","","","","","","","","","","","","",""
"","","","","","image-keyboard-response","237","2218143","0.0-3.0-7.0-1.6","5f2042752276432e3a7ef104","B2","batch2","pattern_response","2777.5","stim/yes_28_ver_b1.png","f","pattern_51","f","true","","","","2777.5","true","42","","","","","","","","","","","","","","","","",""
"","","","","","html-keyboard-response","238","2219455","0.0-3.0-7.0-0.7","5f2042752276432e3a7ef104","B2","batch2","pattern_show_trial_num","null","<p class=block-text>Trial 47 out of 78</p>","null","","","","","","","","","","","","","","","","","","","","","","","","","",""
"","","","","","image-keyboard-response","239","2225147","0.0-3.0-7.0-1.7","5f2042752276432e3a7ef104","B2","batch2","pattern_response","5687","stim/no_32_1_w.png","j","pattern_14","j","true","","","","5687","true","43","","","","","","","","","","","","","","","","",""
"","","","","","html-keyboard-response","240","2226463","0.0-3.0-7.0-0.8","5f2042752276432e3a7ef104","B2","batch2","pattern_show_trial_num","null","<p class=block-text>Trial 48 out of 78</p>","null","","","","","","","","","","","","","","","","","","","","","","","","","",""
"","","","","","image-keyboard-response","241","2228905","0.0-3.0-7.0-1.8","5f2042752276432e3a7ef104","B2","batch2","pattern_response","2437.100000023842","stim/yes_38_hor_b1_b.png","f","pattern_61","f","true","","","","2437.100000023842","true","44","","","","","","","","","","","","","","","","",""
"","","","","","html-keyboard-response","242","2230215","0.0-3.0-7.0-0.9","5f2042752276432e3a7ef104","B2","batch2","pattern_show_trial_num","null","<p class=block-text>Trial 49 out of 78</p>","null","","","","","","","","","","","","","","","","","","","","","","","","","",""
"","","","","","image-keyboard-response","243","2234275","0.0-3.0-7.0-1.9","5f2042752276432e3a7ef104","B2","batch2","pattern_response","4055.2000000178814","stim/no_20_1_w.png","j","pattern_06","j","true","","","","4055.2000000178814","true","45","","","","","","","","","","","","","","","","",""
"","","","","","html-keyboard-response","244","2235591","0.0-3.0-7.0-0.10","5f2042752276432e3a7ef104","B2","batch2","pattern_show_trial_num","null","<p class=block-text>Trial 50 out of 78</p>","null","","","","","","","","","","","","","","","","","","","","","","","","","",""
"","","","","","image-keyboard-response","245","2238091","0.0-3.0-7.0-1.10","5f2042752276432e3a7ef104","B2","batch2","pattern_response","2494.7000000178814","stim/yes_60_ver_b1_b.png","f","pattern_77","f","true","","","","2494.7000000178814","true","46","","","","","","","","","","","","","","","","",""
"","","","","","html-keyboard-response","246","2239407","0.0-3.0-7.0-0.11","5f2042752276432e3a7ef104","B2","batch2","pattern_show_trial_num","null","<p class=block-text>Trial 51 out of 78</p>","null","","","","","","","","","","","","","","","","","","","","","","","","","",""
"","","","","","image-keyboard-response","247","2242742","0.0-3.0-7.0-1.11","5f2042752276432e3a7ef104","B2","batch2","pattern_response","3330.2000000178814","stim/no_23_1.png","j","pattern_08","j","true","","","","3330.2000000178814","true","47","","","","","","","","","","","","","","","","",""
"","","","","","html-keyboard-response","248","2244055","0.0-3.0-7.0-0.12","5f2042752276432e3a7ef104","B2","batch2","pattern_show_trial_num","null","<p class=block-text>Trial 52 out of 78</p>","null","","","","","","","","","","","","","","","","","","","","","","","","","",""
"","","","","","image-keyboard-response","249","2249863","0.0-3.0-7.0-1.12","5f2042752276432e3a7ef104","B2","batch2","pattern_response","5803.100000023842","stim/yes_37_dia_w1.png","j","pattern_59","f","false","","","","5803.100000023842","false","47","","","","","","","","","","","","","","","","",""
"","","","","","html-keyboard-response","250","2251175","0.0-3.0-7.0-0.13","5f2042752276432e3a7ef104","B2","batch2","pattern_show_trial_num","null","<p class=block-text>Trial 53 out of 78</p>","null","","","","","","","","","","","","","","","","","","","","","","","","","",""
"","","","","","image-keyboard-response","251","2256459","0.0-3.0-7.0-1.13","5f2042752276432e3a7ef104","B2","batch2","pattern_response","5278.799999982119","stim/no_48_1_w.png","j","pattern_28","j","true","","","","5278.799999982119","true","48","","","","","","","","","","","","","","","","",""
"","","","","","html-keyboard-response","252","2257775","0.0-3.0-7.0-0.14","5f2042752276432e3a7ef104","B2","batch2","pattern_show_trial_num","null","<p class=block-text>Trial 54 out of 78</p>","null","","","","","","","","","","","","","","","","","","","","","","","","","",""
"","","","","","image-keyboard-response","253","2262322","0.0-3.0-7.0-1.14","5f2042752276432e3a7ef104","B2","batch2","pattern_response","4541.800000011921","stim/no_38_1_b.png","j","pattern_20","j","true","","","","4541.800000011921","true","49","","","","","","","","","","","","","","","","",""
"","","","","","html-keyboard-response","254","2263631","0.0-3.0-7.0-0.15","5f2042752276432e3a7ef104","B2","batch2","pattern_show_trial_num","null","<p class=block-text>Trial 55 out of 78</p>","null","","","","","","","","","","","","","","","","","","","","","","","","","",""
"","","","","","image-keyboard-response","255","2265956","0.0-3.0-7.0-1.15","5f2042752276432e3a7ef104","B2","batch2","pattern_response","2319.7999999821186","stim/yes_43_ver_w1_w.png","f","pattern_65","f","true","","","","2319.7999999821186","true","50","","","","","","","","","","","","","","","","",""
"","","","","","html-keyboard-response","256","2267271","0.0-3.0-7.0-0.16","5f2042752276432e3a7ef104","B2","batch2","pattern_show_trial_num","null","<p class=block-text>Trial 56 out of 78</p>","null","","","","","","","","","","","","","","","","","","","","","","","","","",""
"","","","","","image-keyboard-response","257","2269877","0.0-3.0-7.0-1.16","5f2042752276432e3a7ef104","B2","batch2","pattern_response","2599.899999976158","stim/yes_31_hor_b1.png","f","pattern_55","f","true","","","","2599.899999976158","true","51","","","","","","","","","","","","","","","","",""
"","","","","","html-keyboard-response","258","2271191","0.0-3.0-7.0-0.17","5f2042752276432e3a7ef104","B2","batch2","pattern_show_trial_num","null","<p class=block-text>Trial 57 out of 78</p>","null","","","","","","","","","","","","","","","","","","","","","","","","","",""
"","","","","","image-keyboard-response","259","2279025","0.0-3.0-7.0-1.17","5f2042752276432e3a7ef104","B2","batch2","pattern_response","7828.200000017881","stim/no_70_2.png","j","pattern_40","j","true","","","","7828.200000017881","true","52","","","","","","","","","","","","","","","","",""
"","","","","","html-keyboard-response","260","2280335","0.0-3.0-7.0-0.18","5f2042752276432e3a7ef104","B2","batch2","pattern_show_trial_num","null","<p class=block-text>Trial 58 out of 78</p>","null","","","","","","","","","","","","","","","","","","","","","","","","","",""
"","","","","","image-keyboard-response","261","2284824","0.0-3.0-7.0-1.18","5f2042752276432e3a7ef104","B2","batch2","pattern_response","4483.0999999940395","stim/no_36_2_w.png","j","pattern_18","j","true","","","","4483.0999999940395","true","53","","","","","","","","","","","","","","","","",""
"","","","","","html-keyboard-response","262","2286136","0.0-3.0-7.0-0.19","5f2042752276432e3a7ef104","B2","batch2","pattern_show_trial_num","null","<p class=block-text>Trial 59 out of 78</p>","null","","","","","","","","","","","","","","","","","","","","","","","","","",""
"","","","","","image-keyboard-response","263","2289444","0.0-3.0-7.0-1.19","5f2042752276432e3a7ef104","B2","batch2","pattern_response","3302.9000000059605","stim/yes_48_dia_w1_w.png","f","pattern_69","f","true","","","","3302.9000000059605","true","54","","","","","","","","","","","","","","","","",""
"","","","","","html-keyboard-response","264","2290759","0.0-3.0-7.0-0.20","5f2042752276432e3a7ef104","B2","batch2","pattern_show_trial_num","null","<p class=block-text>Trial 60 out of 78</p>","null","","","","","","","","","","","","","","","","","","","","","","","","","",""
"","","","","","image-keyboard-response","265","2294401","0.0-3.0-7.0-1.20","5f2042752276432e3a7ef104","B2","batch2","pattern_response","3631.5","stim/no_26_1_w.png","j","pattern_10","j","true","","","","3631.5","true","55","","","","","","","","","","","","","","","","",""
"","","","","","html-keyboard-response","266","2295711","0.0-3.0-7.0-0.21","5f2042752276432e3a7ef104","B2","batch2","pattern_show_trial_num","null","<p class=block-text>Trial 61 out of 78</p>","null","","","","","","","","","","","","","","","","","","","","","","","","","",""
"","","","","","image-keyboard-response","267","2297836","0.0-3.0-7.0-1.21","5f2042752276432e3a7ef104","B2","batch2","pattern_response","2119.4000000059605","stim/yes_22_ver_w1.png","f","pattern_47","f","true","","","","2119.4000000059605","true","56","","","","","","","","","","","","","","","","",""
"","","","","","html-keyboard-response","268","2299151","0.0-3.0-7.0-0.22","5f2042752276432e3a7ef104","B2","batch2","pattern_show_trial_num","null","<p class=block-text>Trial 62 out of 78</p>","null","","","","","","","","","","","","","","","","","","","","","","","","","",""
"","","","","","image-keyboard-response","269","2303977","0.0-3.0-7.0-1.22","5f2042752276432e3a7ef104","B2","batch2","pattern_response","4819.4000000059605","stim/no_65_1_b.png","j","pattern_38","j","true","","","","4819.4000000059605","true","57","","","","","","","","","","","","","","","","",""
"","","","","","html-keyboard-response","270","2305288","0.0-3.0-7.0-0.23","5f2042752276432e3a7ef104","B2","batch2","pattern_show_trial_num","null","<p class=block-text>Trial 63 out of 78</p>","null","","","","","","","","","","","","","","","","","","","","","","","","","",""
"","","","","","image-keyboard-response","271","2308654","0.0-3.0-7.0-1.23","5f2042752276432e3a7ef104","B2","batch2","pattern_response","3361.2999999821186","stim/yes_52_ver_w1.png","f","pattern_73","f","true","","","","3361.2999999821186","true","58","","","","","","","","","","","","","","","","",""
"","","","","","html-keyboard-response","272","2309967","0.0-3.0-7.0-0.24","5f2042752276432e3a7ef104","B2","batch2","pattern_show_trial_num","null","<p class=block-text>Trial 64 out of 78</p>","null","","","","","","","","","","","","","","","","","","","","","","","","","",""
"","","","","","image-keyboard-response","273","2311687","0.0-3.0-7.0-1.24","5f2042752276432e3a7ef104","B2","batch2","pattern_response","1713.800000011921","stim/yes_17_dia_w1.png","f","pattern_45","f","true","","","","1713.800000011921","true","59","","","","","","","","","","","","","","","","",""
"","","","","","html-keyboard-response","274","2312999","0.0-3.0-7.0-0.25","5f2042752276432e3a7ef104","B2","batch2","pattern_show_trial_num","null","<p class=block-text>Trial 65 out of 78</p>","null","","","","","","","","","","","","","","","","","","","","","","","","","",""
"","","","","","image-keyboard-response","275","2316753","0.0-3.0-7.0-1.25","5f2042752276432e3a7ef104","B2","batch2","pattern_response","3749.399999976158","stim/no_42_1_w.png","j","pattern_22","j","true","","","","3749.399999976158","true","60","","","","","","","","","","","","","","","","",""
"","","","","","html-keyboard-response","276","2318063","0.0-3.0-7.0-0.26","5f2042752276432e3a7ef104","B2","batch2","pattern_show_trial_num","null","<p class=block-text>Trial 66 out of 78</p>","null","","","","","","","","","","","","","","","","","","","","","","","","","",""
"","","","","","image-keyboard-response","277","2319092","0.0-3.0-7.0-1.26","5f2042752276432e3a7ef104","B2","batch2","pattern_response","1023.7999999821186","stim/yes_14_hor_b1_w.png","f","pattern_43","f","true","","","","1023.7999999821186","true","61","","","","","","","","","","","","","","","","",""
"","","","","","html-keyboard-response","278","2320407","0.0-3.0-7.0-0.27","5f2042752276432e3a7ef104","B2","batch2","pattern_show_trial_num","null","<p class=block-text>Trial 67 out of 78</p>","null","","","","","","","","","","","","","","","","","","","","","","","","","",""
"","","","","","image-keyboard-response","279","2324514","0.0-3.0-7.0-1.27","5f2042752276432e3a7ef104","B2","batch2","pattern_response","4102.4000000059605","stim/no_52_1.png","j","pattern_32","j","true","","","","4102.4000000059605","true","62","","","","","","","","","","","","","","","","",""
"","","","","","html-keyboard-response","280","2325831","0.0-3.0-7.0-0.28","5f2042752276432e3a7ef104","B2","batch2","pattern_show_trial_num","null","<p class=block-text>Trial 68 out of 78</p>","null","","","","","","","","","","","","","","","","","","","","","","","","","",""
"","","","","","image-keyboard-response","281","2328748","0.0-3.0-7.0-1.28","5f2042752276432e3a7ef104","B2","batch2","pattern_response","2911.2999999821186","stim/yes_29_ver_w1.png","f","pattern_53","f","true","","","","2911.2999999821186","true","63","","","","","","","","","","","","","","","","",""
"","","","","","html-keyboard-response","282","2330063","0.0-3.0-7.0-0.29","5f2042752276432e3a7ef104","B2","batch2","pattern_show_trial_num","null","<p class=block-text>Trial 69 out of 78</p>","null","","","","","","","","","","","","","","","","","","","","","","","","","",""
"","","","","","image-keyboard-response","283","2333803","0.0-3.0-7.0-1.29","5f2042752276432e3a7ef104","B2","batch2","pattern_response","3735.2000000178814","stim/no_50_1.png","j","pattern_30","j","true","","","","3735.2000000178814","true","64","","","","","","","","","","","","","","","","",""
"","","","","","html-keyboard-response","284","2335119","0.0-3.0-7.0-0.30","5f2042752276432e3a7ef104","B2","batch2","pattern_show_trial_num","null","<p class=block-text>Trial 70 out of 78</p>","null","","","","","","","","","","","","","","","","","","","","","","","","","",""
"","","","","","image-keyboard-response","285","2341515","0.0-3.0-7.0-1.30","5f2042752276432e3a7ef104","B2","batch2","pattern_response","6391","stim/no_62_1_w.png","j","pattern_36","j","true","","","","6391","true","65","","","","","","","","","","","","","","","","",""
"","","","","","html-keyboard-response","286","2342832","0.0-3.0-7.0-0.31","5f2042752276432e3a7ef104","B2","batch2","pattern_show_trial_num","null","<p class=block-text>Trial 71 out of 78</p>","null","","","","","","","","","","","","","","","","","","","","","","","","","",""
"","","","","","image-keyboard-response","287","2345542","0.0-3.0-7.0-1.31","5f2042752276432e3a7ef104","B2","batch2","pattern_response","2703.5","stim/no_17_1_w.png","j","pattern_04","j","true","","","","2703.5","true","66","","","","","","","","","","","","","","","","",""
"","","","","","html-keyboard-response","288","2346856","0.0-3.0-7.0-0.32","5f2042752276432e3a7ef104","B2","batch2","pattern_show_trial_num","null","<p class=block-text>Trial 72 out of 78</p>","null","","","","","","","","","","","","","","","","","","","","","","","","","",""
"","","","","","image-keyboard-response","289","2349771","0.0-3.0-7.0-1.32","5f2042752276432e3a7ef104","B2","batch2","pattern_response","2908.2999999821186","stim/yes_45_hor_b2_b.png","f","pattern_67","f","true","","","","2908.2999999821186","true","67","","","","","","","","","","","","","","","","",""
"","","","","","html-keyboard-response","290","2351079","0.0-3.0-7.0-0.33","5f2042752276432e3a7ef104","B2","batch2","pattern_show_trial_num","null","<p class=block-text>Trial 73 out of 78</p>","null","","","","","","","","","","","","","","","","","","","","","","","","","",""
"","","","","","image-keyboard-response","291","2355216","0.0-3.0-7.0-1.33","5f2042752276432e3a7ef104","B2","batch2","pattern_response","4132.299999982119","stim/no_29_1_b.png","j","pattern_12","j","true","","","","4132.299999982119","true","68","","","","","","","","","","","","","","","","",""
"","","","","","html-keyboard-response","292","2356528","0.0-3.0-7.0-0.34","5f2042752276432e3a7ef104","B2","batch2","pattern_show_trial_num","null","<p class=block-text>Trial 74 out of 78</p>","null","","","","","","","","","","","","","","","","","","","","","","","","","",""
"","","","","","image-keyboard-response","293","2363079","0.0-3.0-7.0-1.34","5f2042752276432e3a7ef104","B2","batch2","pattern_response","6528.5","stim/yes_50_dia_w1.png","j","pattern_71","f","false","","","","6528.5","false","68","","","","","","","","","","","","","","","","",""
"","","","","","html-keyboard-response","294","2364391","0.0-3.0-7.0-0.35","5f2042752276432e3a7ef104","B2","batch2","pattern_show_trial_num","null","<p class=block-text>Trial 75 out of 78</p>","null","","","","","","","","","","","","","","","","","","","","","","","","","",""
"","","","","","image-keyboard-response","295","2369959","0.0-3.0-7.0-1.35","5f2042752276432e3a7ef104","B2","batch2","pattern_response","5562.899999976158","stim/no_44_1.png","j","pattern_24","j","true","","","","5562.899999976158","true","69","","","","","","","","","","","","","","","","",""
"","","","","","html-keyboard-response","296","2371271","0.0-3.0-7.0-0.36","5f2042752276432e3a7ef104","B2","batch2","pattern_show_trial_num","null","<p class=block-text>Trial 76 out of 78</p>","null","","","","","","","","","","","","","","","","","","","","","","","","","",""
"","","","","","image-keyboard-response","297","2373673","0.0-3.0-7.0-1.36","5f2042752276432e3a7ef104","B2","batch2","pattern_response","2398.0999999940395","stim/yes_40_dia_b1_b.png","f","pattern_63","f","true","","","","2398.0999999940395","true","70","","","","","","","","","","","","","","","","",""
"","","","","","html-keyboard-response","298","2374983","0.0-3.0-7.0-0.37","5f2042752276432e3a7ef104","B2","batch2","pattern_show_trial_num","null","<p class=block-text>Trial 77 out of 78</p>","null","","","","","","","","","","","","","","","","","","","","","","","","","",""
"","","","","","image-keyboard-response","299","2377146","0.0-3.0-7.0-1.37","5f2042752276432e3a7ef104","B2","batch2","pattern_response","2157.9000000059605","stim/yes_25_hor_b1_b.png","f","pattern_49","f","true","","","","2157.9000000059605","true","71","","","","","","","","","","","","","","","","",""
"","","","","","html-keyboard-response","300","2378463","0.0-3.0-7.0-0.38","5f2042752276432e3a7ef104","B2","batch2","pattern_show_trial_num","null","<p class=block-text>Trial 78 out of 78</p>","null","","","","","","","","","","","","","","","","","","","","","","","","","",""
"","","","","","image-keyboard-response","301","2382442","0.0-3.0-7.0-1.38","5f2042752276432e3a7ef104","B2","batch2","pattern_response","3975.0999999940395","stim/no_46_1_b.png","j","pattern_26","j","true","","","","3975.0999999940395","true","72","","","","","","","","","","","","","","","","",""
"","","","","","html-button-response","302","2386962","0.0-3.0-8.0","5f2042752276432e3a7ef104","B2","batch2","","4008.5999999940395","<p class = block-text>This concludes the 4-in-a-row detection game.Thank you for your responses!<br>
            You responded correctly on 92% of the trials.<br>
            When you are ready, press ""Continue"" button to continue </p>","0","","","","","","","","","","","","","","","","","","","","","","","","","",""
"true","","","","","fullscreen","303","2390551","0.0-4.0-0.0","5f2042752276432e3a7ef104","B2","batch2","","","","","","","","","","","","","","","","","","","","","","","","","","","","","",""
"","","","","","instructions","304","2433490","0.0-4.0-1.0-0.0-0.0","5f2042752276432e3a7ef104","B2","batch2","tol-instructions","42934.20000001788","","","","","","","","[{""page_index"":0,""viewing_time"":12260.600000023842},{""page_index"":1,""viewing_time"":2015.5999999940395},{""page_index"":2,""viewing_time"":2864.5999999940395},{""page_index"":3,""viewing_time"":2799.5},{""page_index"":4,""viewing_time"":7632.199999988079},{""page_index"":5,""viewing_time"":12975.5},{""page_index"":6,""viewing_time"":2384.2000000178814}]","","","","","","","","","","","","","","","","","","","",""
"","","","","","html-button-response","305","2434545","0.0-4.0-1.0-1.0-0.0","5f2042752276432e3a7ef104","B2","batch2","tol_enter_quiz","1050.300000011921","<p class=block-text> Let's answer a few questions <br>","0","","","","","","","","","","","","","","","","","","","","","","","","","",""
"","","","","","html-button-response","306","2441249","0.0-4.0-1.0-1.0-1.0","5f2042752276432e3a7ef104","B2","batch2","tol_quiz","6698.700000017881","<p class = block-text>True or False: You can only move the ball on top of a peg. <br></p>","0","","","true","","","","","","","","","","","","","","","","","","","","","","",""
"","","","","","html-button-response","307","2442642","0.0-4.0-1.0-1.0-2.0","5f2042752276432e3a7ef104","B2","batch2","tol_quiz_feedback","1384.699999988079","<p class = block-text>Correct! You can only move the ball on top of a peg.</p>","0","","","","","","","","","","","","","","","","","","","","","","","","","",""
"","","","","","html-button-response","308","2446665","0.0-4.0-1.0-1.0-3.0","5f2042752276432e3a7ef104","B2","batch2","tol_quiz","4018.9000000059605","<p class = block-text>True or False: You should try to match your board with the target board with fewest moves possible. <br></p>","0","","","true","","","","","","","","","","","","","","","","","","","","","","",""
"","","","","","html-button-response","309","2447673","0.0-4.0-1.0-1.0-4.0","5f2042752276432e3a7ef104","B2","batch2","tol_quiz_feedback","1002.6999999880791","<p class = block-text>Correct! </p>","0","","","","","","","","","","","","","","","","","","","","","","","","","",""
"","","","","","html-button-response","310","2449857","0.0-4.0-2.0","5f2042752276432e3a7ef104","B2","batch2","","2176.2999999821186","<p class=block-text> Now that you've understood the game, let's practice a few easier examples before we start!<br> <br>","0","","","","","","","","","","","","","","","","","","","","","","","","","",""
"","","","","","single-stim-button","311","2472003","0.0-4.0-3.0-0.0","5f2042752276432e3a7ef104","B2","batch2","tol_practice","22135","","","","","","","","","","","","","","tol_peg_2","22135","22135","0","[[1,2,0],[0,0],[0]]","1","[[1,2,0],[0,0],[3]]","practice","22135","","","","","",""
"","","","","","single-stim-button","312","2475778","0.0-4.0-3.0-1.0","5f2042752276432e3a7ef104","B2","batch2","tol_practice","3770","","","","","","","","","","","","","","tol_peg_3","3770","3770","0","[[1,2,0],[0,0],[3]]","1","[[1,2,0],[0,0],[3]]","practice","3770","","","","","",""
"","","","","","poldrack-single-stim","313","2476793","0.0-4.0-4.0","5f2042752276432e3a7ef104","B2","batch2","tol_feedback","-1","","","","","true","","","","","","","","","","1000","1000","500","","","","","","-1","none","true","","0",""
"","","","","","single-stim-button","314","2485578","0.0-4.0-5.0-0.0","5f2042752276432e3a7ef104","B2","batch2","tol_practice","8781","","","","","","","","","","","","","","tol_peg_1","8781","8781","0","[[1,0,0],[3,0],[0]]","2","[[0,0,0],[3,1],[2]]","practice","8781","","","","","",""
"","","","","","single-stim-button","315","2487842","0.0-4.0-5.0-1.0","5f2042752276432e3a7ef104","B2","batch2","tol_practice","2260","","","","","","","","","","","","","","tol_peg_3","2260","2260","0","[[1,0,0],[3,0],[2]]","2","[[0,0,0],[3,1],[2]]","practice","2260","","","","","",""
"","","","","","single-stim-button","316","2491784","0.0-4.0-5.1-0.1","5f2042752276432e3a7ef104","B2","batch2","tol_practice","3937","","","","","","","","","","","","","","tol_peg_1","3937","3937","0","[[0,0,0],[3,0],[2]]","3","[[0,0,0],[3,1],[2]]","practice","3937","","","","","",""
"","","","","","single-stim-button","317","2493307","0.0-4.0-5.1-1.1","5f2042752276432e3a7ef104","B2","batch2","tol_practice","1520","","","","","","","","","","","","","","tol_peg_2","1520","1520","0","[[0,0,0],[3,1],[2]]","3","[[0,0,0],[3,1],[2]]","practice","1520","","","","","",""
"","","","","","poldrack-single-stim","318","2494320","0.0-4.0-6.0","5f2042752276432e3a7ef104","B2","batch2","tol_feedback","-1","","","","","true","","","","","","","","","","1000","1000","500","","","","","","-1","none","true","","0",""
"","","","","","single-stim-button","319","2498731","0.0-4.0-7.0-0.0","5f2042752276432e3a7ef104","B2","batch2","tol_practice","4408","","","","","","","","","","","","","","tol_peg_2","4408","4408","0","[[1,2,0],[0,0],[0]]","4","[[1,0,0],[2,0],[3]]","practice","4408","","","","","",""
"","","","","","single-stim-button","320","2499483","0.0-4.0-7.0-1.0","5f2042752276432e3a7ef104","B2","batch2","tol_practice","748","","","","","","","","","","","","","","tol_peg_3","748","748","0","[[1,2,0],[0,0],[3]]","4","[[1,0,0],[2,0],[3]]","practice","748","","","","","",""
"","","","","","single-stim-button","321","2501154","0.0-4.0-7.1-0.1","5f2042752276432e3a7ef104","B2","batch2","tol_practice","1667","","","","","","","","","","","","","","tol_peg_1","1667","1667","0","[[1,0,0],[0,0],[3]]","5","[[1,0,0],[2,0],[3]]","practice","1667","","","","","",""
"","","","","","single-stim-button","322","2502883","0.0-4.0-7.1-1.1","5f2042752276432e3a7ef104","B2","batch2","tol_practice","1725","","","","","","","","","","","","","","tol_peg_2","1725","1725","0","[[1,0,0],[2,0],[3]]","5","[[1,0,0],[2,0],[3]]","practice","1725","","","","","",""
"","","","","","poldrack-single-stim","323","2503896","0.0-4.0-8.0","5f2042752276432e3a7ef104","B2","batch2","tol_feedback","-1","","","","","true","","","","","","","","","","1000","1000","500","","","","","","-1","none","true","","0",""
"","","","","","html-button-response","324","2506618","0.0-4.0-9.0","5f2042752276432e3a7ef104","B2","batch2","tol_instruction","2717.300000011921","<div class = centerbox><p class = center-block-text>Great job! You are done with practice trials<br>You are about to start official trials.<br> <br> Problem <strong>1</strong> out of 25 problems</p></div>","0","","","","","","","","","","","","","","","","","","","","","","","","","",""
"","","","","","single-stim-button","325","2529149","0.0-4.0-10.0-0.0","5f2042752276432e3a7ef104","B2","batch2","tol_tohand","21520","","","","","","","","","","","","","","tol_peg_2","21520","21520","0","[[1,2,0],[0,0],[0]]","1","[[1,3,0],[2,0],[0]]","0","0","","","","","","3"
"","","","","","single-stim-button","326","2531172","0.0-4.0-10.0-1.0","5f2042752276432e3a7ef104","B2","batch2","tol_toboard","2017","","","","","","","","","","","","","","tol_peg_3","2017","2017","0","[[1,2,0],[0,0],[3]]","1","[[1,3,0],[2,0],[0]]","0","0","","","","","","3"
"","","","","","single-stim-button","327","2532707","0.0-4.0-10.1-0.1","5f2042752276432e3a7ef104","B2","batch2","tol_tohand","1529","","","","","","","","","","","","","","tol_peg_1","1529","1529","0","[[1,0,0],[0,0],[3]]","2","[[1,3,0],[2,0],[0]]","0","0","","","","","","3"
"","","","","","single-stim-button","328","2533851","0.0-4.0-10.1-1.1","5f2042752276432e3a7ef104","B2","batch2","tol_toboard","1140","","","","","","","","","","","","","","tol_peg_2","1140","1140","0","[[1,0,0],[2,0],[3]]","2","[[1,3,0],[2,0],[0]]","0","0","","","","","","3"
"","","","","","single-stim-button","329","2535210","0.0-4.0-10.2-0.2","5f2042752276432e3a7ef104","B2","batch2","tol_tohand","1356","","","","","","","","","","","","","","tol_peg_3","1356","1356","0","[[1,0,0],[2,0],[0]]","3","[[1,3,0],[2,0],[0]]","0","0","","","","","","3"
"","","","","","single-stim-button","330","2536770","0.0-4.0-10.2-1.2","5f2042752276432e3a7ef104","B2","batch2","tol_toboard","1556","","","","","","","","","","","","","","tol_peg_1","1556","1556","0","[[1,3,0],[2,0],[0]]","3","[[1,3,0],[2,0],[0]]","0","0","","","","","","3"
"","","","","","poldrack-single-stim","331","2537776","0.0-4.0-11.0","5f2042752276432e3a7ef104","B2","batch2","tol_feedback","-1","","","","","true","","","","","","","","","","1000","1000","500","","","","","","-1","none","true","21520","24405",""
"","","","","","html-button-response","332","2539706","0.0-4.0-12.0","5f2042752276432e3a7ef104","B2","batch2","tol_trial_num","1924.7999999821186","<div class = centerbox><p class = center-block-text>problem <strong>2</strong> out of 25 problems</p></div>","0","","","","","","","","","","","","","","","","","","","","","","","","","",""
"","","","","","single-stim-button","333","2547851","0.0-4.0-13.0-0.0","5f2042752276432e3a7ef104","B2","batch2","tol_tohand","8140","","","","","","","","","","","","","","tol_peg_2","8140","8140","0","[[1,2,0],[0,0],[0]]","1","[[2,1,3],[0,0],[0]]","1","0","","","","","","5"
"","","","","","single-stim-button","334","2548882","0.0-4.0-13.0-1.0","5f2042752276432e3a7ef104","B2","batch2","tol_toboard","1027","","","","","","","","","","","","","","tol_peg_3","1027","1027","0","[[1,2,0],[0,0],[3]]","1","[[2,1,3],[0,0],[0]]","1","0","","","","","","5"
"","","","","","single-stim-button","335","2550504","0.0-4.0-13.1-0.1","5f2042752276432e3a7ef104","B2","batch2","tol_tohand","1617","","","","","","","","","","","","","","tol_peg_1","1617","1617","0","[[1,0,0],[0,0],[3]]","2","[[2,1,3],[0,0],[0]]","1","0","","","","","","5"
"","","","","","single-stim-button","336","2559594","0.0-4.0-13.1-1.1","5f2042752276432e3a7ef104","B2","batch2","tol_toboard","9087","","","","","","","","","","","","","","tol_peg_2","9087","9087","0","[[1,0,0],[2,0],[3]]","2","[[2,1,3],[0,0],[0]]","1","0","","","","","","5"
"","","","","","single-stim-button","337","2562336","0.0-4.0-13.2-0.2","5f2042752276432e3a7ef104","B2","batch2","tol_tohand","2739","","","","","","","","","","","","","","tol_peg_1","2739","2739","0","[[0,0,0],[2,0],[3]]","3","[[2,1,3],[0,0],[0]]","1","0","","","","","","5"
"","","","","","single-stim-button","338","2565858","0.0-4.0-13.2-1.2","5f2042752276432e3a7ef104","B2","batch2","tol_toboard","3519","","","","","","","","","","","","","","tol_peg_2","3519","3519","0","[[0,0,0],[2,1],[3]]","3","[[2,1,3],[0,0],[0]]","1","0","","","","","","5"
"","","","","","single-stim-button","339","2568938","0.0-4.0-13.3-0.3","5f2042752276432e3a7ef104","B2","batch2","tol_tohand","3077","","","","","","","","","","","","","","tol_peg_2","3077","3077","0","[[0,0,0],[2,0],[3]]","4","[[2,1,3],[0,0],[0]]","1","0","","","","","","5"
"","","","","","single-stim-button","340","2571371","0.0-4.0-13.3-1.3","5f2042752276432e3a7ef104","B2","batch2","tol_toboard","2429","","","","","","","","","","","","","","tol_peg_1","2429","2429","0","[[1,0,0],[2,0],[3]]","4","[[2,1,3],[0,0],[0]]","1","0","","","","","","5"
"","","","","","single-stim-button","341","2575372","0.0-4.0-13.4-0.4","5f2042752276432e3a7ef104","B2","batch2","tol_tohand","3997","","","","","","","","","","","","","","tol_peg_1","3997","3997","0","[[0,0,0],[2,0],[3]]","5","[[2,1,3],[0,0],[0]]","1","0","","","","","","5"
"","","","","","single-stim-button","342","2578378","0.0-4.0-13.4-1.4","5f2042752276432e3a7ef104","B2","batch2","tol_toboard","3002","","","","","","","","","","","","","","tol_peg_1","3002","3002","0","[[1,0,0],[2,0],[3]]","5","[[2,1,3],[0,0],[0]]","1","0","","","","","","5"
"","","","","","single-stim-button","343","2582594","0.0-4.0-13.5-0.5","5f2042752276432e3a7ef104","B2","batch2","tol_tohand","4212","","","","","","","","","","","","","","tol_peg_2","4212","4212","0","[[1,0,0],[0,0],[3]]","6","[[2,1,3],[0,0],[0]]","1","0","","","","","","5"
"","","","","","single-stim-button","344","2585070","0.0-4.0-13.5-1.5","5f2042752276432e3a7ef104","B2","batch2","tol_toboard","2471","","","","","","","","","","","","","","tol_peg_1","2471","2471","0","[[1,2,0],[0,0],[3]]","6","[[2,1,3],[0,0],[0]]","1","0","","","","","","5"
"","","","","","single-stim-button","345","2589138","0.0-4.0-13.6-0.6","5f2042752276432e3a7ef104","B2","batch2","tol_tohand","4063","","","","","","","","","","","","","","tol_peg_3","4063","4063","0","[[1,2,0],[0,0],[0]]","7","[[2,1,3],[0,0],[0]]","1","0","","","","","","5"
"","","","","","single-stim-button","346","2590955","0.0-4.0-13.6-1.6","5f2042752276432e3a7ef104","B2","batch2","tol_toboard","1814","","","","","","","","","","","","","","tol_peg_2","1814","1814","0","[[1,2,0],[3,0],[0]]","7","[[2,1,3],[0,0],[0]]","1","0","","","","","","5"
