"success","timeout","failed_images","failed_audio","failed_video","trial_type","trial_index","time_elapsed","internal_node_id","subject_id","study_id","session_id","view_history","rt","task","stimulus","response","correct","mouse_click","stim_duration","block_duration","timing_post_trial","current_position","tol_num_moves_made","tol_target","tol_problem_id","tol_rt","key_press","possible_responses","tol_correct","preplanning","tol_rt_per_trial","tol_min_moves","item","answer","spm_correct","spm_rt","fiar_detect_rt","fiar_detect_correct","total_correct_fiar_detect","post_trial_gap","choices"
"true","false","[]","[]","[]","preload","0","3004","0.0-0.0","5f47f3b013fe2f2537aba6da","F1","batch6","","","","","","","","","","","","","","","","","","","","","","","","","","","","","",""
"true","","","","","fullscreen","1","9717","0.0-1.0-0.0","5f47f3b013fe2f2537aba6da","F1","batch6","","","","","","","","","","","","","","","","","","","","","","","","","","","","","",""
"true","","","","","fullscreen","2","12141","0.0-2.0-0.0","5f47f3b013fe2f2537aba6da","F1","batch6","","","","","","","","","","","","","","","","","","","","","","","","","","","","","",""
"","","","","","instructions","3","47049","0.0-2.0-1.0-0.0-0.0","5f47f3b013fe2f2537aba6da","F1","batch6","[{""page_index"":0,""viewing_time"":4447.199999928474},{""page_index"":1,""viewing_time"":5597.600000023842},{""page_index"":2,""viewing_time"":3853.600000023842},{""page_index"":3,""viewing_time"":9880.100000023842},{""page_index"":4,""viewing_time"":5030.099999904633},{""page_index"":5,""viewing_time"":4465.200000047684},{""page_index"":6,""viewing_time"":1630.7999999523163}]","34905","tol-instructions","","","","","","","","","","","","","","","","","","","","","","","","","","",""
"","","","","","html-button-response","4","47881","0.0-2.0-1.0-1.0-0.0","5f47f3b013fe2f2537aba6da","F1","batch6","","829.7000000476837","tol_enter_quiz","<p class=block-text> Let's answer a few questions <br>","0","","","","","","","","","","","","","","","","","","","","","","","","",""
"","","","","","html-button-response","5","49939","0.0-2.0-1.0-1.0-1.0","5f47f3b013fe2f2537aba6da","F1","batch6","","2056.1999999284744","tol_quiz","<p class = block-text>True or False: You can only move the ball on top of a peg. <br></p>","0","true","","","","","","","","","","","","","","","","","","","","","","","",""
"","","","","","html-button-response","6","50841","0.0-2.0-1.0-1.0-2.0","5f47f3b013fe2f2537aba6da","F1","batch6","","900.5","tol_quiz_feedback","<p class = block-text>Correct! You can only move the ball on top of a peg.</p>","0","","","","","","","","","","","","","","","","","","","","","","","","",""
"","","","","","html-button-response","7","53256","0.0-2.0-1.0-1.0-3.0","5f47f3b013fe2f2537aba6da","F1","batch6","","2412.399999976158","tol_quiz","<p class = block-text>True or False: You should try to match your board with the target board with fewest moves possible. <br></p>","0","true","","","","","","","","","","","","","","","","","","","","","","","",""
"","","","","","html-button-response","8","53778","0.0-2.0-1.0-1.0-4.0","5f47f3b013fe2f2537aba6da","F1","batch6","","520.8999999761581","tol_quiz_feedback","<p class = block-text>Correct! </p>","0","","","","","","","","","","","","","","","","","","","","","","","","",""
"","","","","","html-button-response","9","55529","0.0-2.0-2.0","5f47f3b013fe2f2537aba6da","F1","batch6","","1748.2000000476837","","<p class=block-text> Now that you've understood the game, let's practice a few easier examples before we start!<br> <br>","0","","","","","","","","","","","","","","","","","","","","","","","","",""
"","","","","","single-stim-button","10","56735","0.0-2.0-3.0-0.0","5f47f3b013fe2f2537aba6da","F1","batch6","","1203","tol_practice","","","","tol_peg_2","1203","1203","0","[[1,2,0],[0,0],[0]]","1","[[1,2,0],[0,0],[3]]","practice","1203","","","","","","","","","","","","","","",""
"","","","","","single-stim-button","11","58173","0.0-2.0-3.0-1.0","5f47f3b013fe2f2537aba6da","F1","batch6","","1437","tol_practice","","","","tol_peg_3","1437","1437","0","[[1,2,0],[0,0],[3]]","1","[[1,2,0],[0,0],[3]]","practice","1437","","","","","","","","","","","","","","",""
"","","","","","poldrack-single-stim","12","59184","0.0-2.0-4.0","5f47f3b013fe2f2537aba6da","F1","batch6","","-1","tol_feedback","","","true","","1000","1000","500","","","","","","-1","none","true","","0","","","","","","","","","",""
"","","","","","single-stim-button","13","62581","0.0-2.0-5.0-0.0","5f47f3b013fe2f2537aba6da","F1","batch6","","3395","tol_practice","","","","tol_peg_1","3395","3395","0","[[1,0,0],[3,0],[0]]","2","[[0,0,0],[3,1],[2]]","practice","3395","","","","","","","","","","","","","","",""
"","","","","","single-stim-button","14","63328","0.0-2.0-5.0-1.0","5f47f3b013fe2f2537aba6da","F1","batch6","","746","tol_practice","","","","tol_peg_3","746","746","0","[[1,0,0],[3,0],[2]]","2","[[0,0,0],[3,1],[2]]","practice","746","","","","","","","","","","","","","","",""
"","","","","","single-stim-button","15","63993","0.0-2.0-5.1-0.1","5f47f3b013fe2f2537aba6da","F1","batch6","","663","tol_practice","","","","tol_peg_1","663","663","0","[[0,0,0],[3,0],[2]]","3","[[0,0,0],[3,1],[2]]","practice","663","","","","","","","","","","","","","","",""
"","","","","","single-stim-button","16","64436","0.0-2.0-5.1-1.1","5f47f3b013fe2f2537aba6da","F1","batch6","","442","tol_practice","","","","tol_peg_2","442","442","0","[[0,0,0],[3,1],[2]]","3","[[0,0,0],[3,1],[2]]","practice","442","","","","","","","","","","","","","","",""
"","","","","","poldrack-single-stim","17","65447","0.0-2.0-6.0","5f47f3b013fe2f2537aba6da","F1","batch6","","-1","tol_feedback","","","true","","1000","1000","500","","","","","","-1","none","true","","0","","","","","","","","","",""
"","","","","","single-stim-button","18","67065","0.0-2.0-7.0-0.0","5f47f3b013fe2f2537aba6da","F1","batch6","","1618","tol_practice","","","","tol_peg_2","1618","1618","0","[[1,2,0],[0,0],[0]]","4","[[1,0,0],[2,0],[3]]","practice","1618","","","","","","","","","","","","","","",""
"","","","","","single-stim-button","19","67911","0.0-2.0-7.0-1.0","5f47f3b013fe2f2537aba6da","F1","batch6","","845","tol_practice","","","","tol_peg_3","845","845","0","[[1,2,0],[0,0],[3]]","4","[[1,0,0],[2,0],[3]]","practice","845","","","","","","","","","","","","","","",""
"","","","","","single-stim-button","20","68657","0.0-2.0-7.1-0.1","5f47f3b013fe2f2537aba6da","F1","batch6","","745","tol_practice","","","","tol_peg_1","745","745","0","[[1,0,0],[0,0],[3]]","5","[[1,0,0],[2,0],[3]]","practice","745","","","","","","","","","","","","","","",""
"","","","","","single-stim-button","21","69464","0.0-2.0-7.1-1.1","5f47f3b013fe2f2537aba6da","F1","batch6","","805","tol_practice","","","","tol_peg_2","805","805","0","[[1,0,0],[2,0],[3]]","5","[[1,0,0],[2,0],[3]]","practice","805","","","","","","","","","","","","","","",""
"","","","","","poldrack-single-stim","22","70471","0.0-2.0-8.0","5f47f3b013fe2f2537aba6da","F1","batch6","","-1","tol_feedback","","","true","","1000","1000","500","","","","","","-1","none","true","","0","","","","","","","","","",""
"","","","","","html-button-response","23","72900","0.0-2.0-9.0","5f47f3b013fe2f2537aba6da","F1","batch6","","2427.1999999284744","tol_instruction","<div class = centerbox><p class = center-block-text>Great job! You are done with practice trials<br>You are about to start official trials.<br> <br> Problem <strong>1</strong> out of 25 problems</p></div>","0","","","","","","","","","","","","","","","","","","","","","","","","",""
"","","","","","single-stim-button","24","76722","0.0-2.0-10.0-0.0","5f47f3b013fe2f2537aba6da","F1","batch6","","2809","tol_tohand","","","","tol_peg_2","2809","2809","0","[[1,2,0],[0,0],[0]]","1","[[1,3,0],[2,0],[0]]","0","0","","","","","","3","","","","","","","","",""
"","","","","","single-stim-button","25","77809","0.0-2.0-10.0-1.0","5f47f3b013fe2f2537aba6da","F1","batch6","","1086","tol_toboard","","","","tol_peg_3","1086","1086","0","[[1,2,0],[0,0],[3]]","1","[[1,3,0],[2,0],[0]]","0","0","","","","","","3","","","","","","","","",""
"","","","","","single-stim-button","26","78491","0.0-2.0-10.1-0.1","5f47f3b013fe2f2537aba6da","F1","batch6","","681","tol_tohand","","","","tol_peg_1","681","681","0","[[1,0,0],[0,0],[3]]","2","[[1,3,0],[2,0],[0]]","0","0","","","","","","3","","","","","","","","",""
"","","","","","single-stim-button","27","79005","0.0-2.0-10.1-1.1","5f47f3b013fe2f2537aba6da","F1","batch6","","512","tol_toboard","","","","tol_peg_2","512","512","0","[[1,0,0],[2,0],[3]]","2","[[1,3,0],[2,0],[0]]","0","0","","","","","","3","","","","","","","","",""
"","","","","","single-stim-button","28","79487","0.0-2.0-10.2-0.2","5f47f3b013fe2f2537aba6da","F1","batch6","","481","tol_tohand","","","","tol_peg_3","481","481","0","[[1,0,0],[2,0],[0]]","3","[[1,3,0],[2,0],[0]]","0","0","","","","","","3","","","","","","","","",""
"","","","","","single-stim-button","29","80002","0.0-2.0-10.2-1.2","5f47f3b013fe2f2537aba6da","F1","batch6","","514","tol_toboard","","","","tol_peg_1","514","514","0","[[1,3,0],[2,0],[0]]","3","[[1,3,0],[2,0],[0]]","0","0","","","","","","3","","","","","","","","",""
"","","","","","poldrack-single-stim","30","81008","0.0-2.0-11.0","5f47f3b013fe2f2537aba6da","F1","batch6","","-1","tol_feedback","","","true","","1000","1000","500","","","","","","-1","none","true","2809","3971","","","","","","","","","",""
"","","","","","html-button-response","31","81733","0.0-2.0-12.0","5f47f3b013fe2f2537aba6da","F1","batch6","","723.5999999046326","tol_trial_num","<div class = centerbox><p class = center-block-text>problem <strong>2</strong> out of 25 problems</p></div>","0","","","","","","","","","","","","","","","","","","","","","","","","",""
"","","","","","single-stim-button","32","87540","0.0-2.0-13.0-0.0","5f47f3b013fe2f2537aba6da","F1","batch6","","5805","tol_tohand","","","","tol_peg_1","5805","5805","0","[[1,0,0],[3,0],[0]]","1","[[2,1,3],[0,0],[0]]","1","0","","","","","","5","","","","","","","","",""
"","","","","","single-stim-button","33","88125","0.0-2.0-13.0-1.0","5f47f3b013fe2f2537aba6da","F1","batch6","","585","tol_toboard","","","","tol_peg_2","585","585","0","[[1,0,0],[3,2],[0]]","1","[[2,1,3],[0,0],[0]]","1","0","","","","","","5","","","","","","","","",""
"","","","","","single-stim-button","34","88664","0.0-2.0-13.1-0.1","5f47f3b013fe2f2537aba6da","F1","batch6","","537","tol_tohand","","","","tol_peg_1","537","537","0","[[0,0,0],[3,2],[0]]","2","[[2,1,3],[0,0],[0]]","1","0","","","","","","5","","","","","","","","",""
"","","","","","single-stim-button","35","89384","0.0-2.0-13.1-1.1","5f47f3b013fe2f2537aba6da","F1","batch6","","718","tol_toboard","","","","tol_peg_3","718","718","0","[[0,0,0],[3,2],[1]]","2","[[2,1,3],[0,0],[0]]","1","0","","","","","","5","","","","","","","","",""
"","","","","","single-stim-button","36","89812","0.0-2.0-13.2-0.2","5f47f3b013fe2f2537aba6da","F1","batch6","","428","tol_tohand","","","","tol_peg_2","428","428","0","[[0,0,0],[3,0],[1]]","3","[[2,1,3],[0,0],[0]]","1","0","","","","","","5","","","","","","","","",""
"","","","","","single-stim-button","37","90437","0.0-2.0-13.2-1.2","5f47f3b013fe2f2537aba6da","F1","batch6","","624","tol_toboard","","","","tol_peg_1","624","624","0","[[2,0,0],[3,0],[1]]","3","[[2,1,3],[0,0],[0]]","1","0","","","","","","5","","","","","","","","",""
"","","","","","single-stim-button","38","91229","0.0-2.0-13.3-0.3","5f47f3b013fe2f2537aba6da","F1","batch6","","790","tol_tohand","","","","tol_peg_3","790","790","0","[[2,0,0],[3,0],[0]]","4","[[2,1,3],[0,0],[0]]","1","0","","","","","","5","","","","","","","","",""
"","","","","","single-stim-button","39","91632","0.0-2.0-13.3-1.3","5f47f3b013fe2f2537aba6da","F1","batch6","","403","tol_toboard","","","","tol_peg_1","403","403","0","[[2,1,0],[3,0],[0]]","4","[[2,1,3],[0,0],[0]]","1","0","","","","","","5","","","","","","","","",""
"","","","","","single-stim-button","40","92145","0.0-2.0-13.4-0.4","5f47f3b013fe2f2537aba6da","F1","batch6","","511","tol_tohand","","","","tol_peg_2","511","511","0","[[2,1,0],[0,0],[0]]","5","[[2,1,3],[0,0],[0]]","1","0","","","","","","5","","","","","","","","",""
"","","","","","single-stim-button","41","92486","0.0-2.0-13.4-1.4","5f47f3b013fe2f2537aba6da","F1","batch6","","340","tol_toboard","","","","tol_peg_1","340","340","0","[[2,1,3],[0,0],[0]]","5","[[2,1,3],[0,0],[0]]","1","0","","","","","","5","","","","","","","","",""
"","","","","","poldrack-single-stim","42","93495","0.0-2.0-14.0","5f47f3b013fe2f2537aba6da","F1","batch6","","-1","tol_feedback","","","true","","1000","1000","500","","","","","","-1","none","true","5805","8071","","","","","","","","","",""
"","","","","","html-button-response","43","94227","0.0-2.0-15.0","5f47f3b013fe2f2537aba6da","F1","batch6","","731","tol_trial_num","<div class = centerbox><p class = center-block-text>problem <strong>3</strong> out of 25 problems</p></div>","0","","","","","","","","","","","","","","","","","","","","","","","","",""
"","","","","","single-stim-button","44","98402","0.0-2.0-16.0-0.0","5f47f3b013fe2f2537aba6da","F1","batch6","","4175","tol_tohand","","","","tol_peg_1","4175","4175","0","[[2,0,0],[0,0],[1]]","1","[[1,2,0],[3,0],[0]]","2","0","","","","","","4","","","","","","","","",""
"","","","","","single-stim-button","45","99284","0.0-2.0-16.0-1.0","5f47f3b013fe2f2537aba6da","F1","batch6","","880","tol_toboard","","","","tol_peg_2","880","880","0","[[2,0,0],[3,0],[1]]","1","[[1,2,0],[3,0],[0]]","2","0","","","","","","4","","","","","","","","",""
"","","","","","single-stim-button","46","99827","0.0-2.0-16.1-0.1","5f47f3b013fe2f2537aba6da","F1","batch6","","543","tol_tohand","","","","tol_peg_1","543","543","0","[[0,0,0],[3,0],[1]]","2","[[1,2,0],[3,0],[0]]","2","0","","","","","","4","","","","","","","","",""
"","","","","","single-stim-button","47","100271","0.0-2.0-16.1-1.1","5f47f3b013fe2f2537aba6da","F1","batch6","","442","tol_toboard","","","","tol_peg_2","442","442","0","[[0,0,0],[3,2],[1]]","2","[[1,2,0],[3,0],[0]]","2","0","","","","","","4","","","","","","","","",""
"","","","","","single-stim-button","48","100698","0.0-2.0-16.2-0.2","5f47f3b013fe2f2537aba6da","F1","batch6","","427","tol_tohand","","","","tol_peg_3","427","427","0","[[0,0,0],[3,2],[0]]","3","[[1,2,0],[3,0],[0]]","2","0","","","","","","4","","","","","","","","",""
"","","","","","single-stim-button","49","101181","0.0-2.0-16.2-1.2","5f47f3b013fe2f2537aba6da","F1","batch6","","482","tol_toboard","","","","tol_peg_1","482","482","0","[[1,0,0],[3,2],[0]]","3","[[1,2,0],[3,0],[0]]","2","0","","","","","","4","","","","","","","","",""
"","","","","","single-stim-button","50","101554","0.0-2.0-16.3-0.3","5f47f3b013fe2f2537aba6da","F1","batch6","","372","tol_tohand","","","","tol_peg_2","372","372","0","[[1,0,0],[3,0],[0]]","4","[[1,2,0],[3,0],[0]]","2","0","","","","","","4","","","","","","","","",""
"","","","","","single-stim-button","51","101949","0.0-2.0-16.3-1.3","5f47f3b013fe2f2537aba6da","F1","batch6","","395","tol_toboard","","","","tol_peg_1","395","395","0","[[1,2,0],[3,0],[0]]","4","[[1,2,0],[3,0],[0]]","2","0","","","","","","4","","","","","","","","",""
"","","","","","poldrack-single-stim","52","102960","0.0-2.0-17.0","5f47f3b013fe2f2537aba6da","F1","batch6","","-1","tol_feedback","","","true","","1000","1000","500","","","","","","-1","none","true","4175","5517","","","","","","","","","",""
"","","","","","html-button-response","53","103620","0.0-2.0-18.0","5f47f3b013fe2f2537aba6da","F1","batch6","","658.1000000238419","tol_trial_num","<div class = centerbox><p class = center-block-text>problem <strong>4</strong> out of 25 problems</p></div>","0","","","","","","","","","","","","","","","","","","","","","","","","",""
"","","","","","single-stim-button","54","106715","0.0-2.0-19.0-0.0","5f47f3b013fe2f2537aba6da","F1","batch6","","3094","tol_tohand","","","","tol_peg_2","3094","3094","0","[[3,0,0],[2,0],[0]]","1","[[3,0,0],[1,0],[2]]","3","0","","","","","","3","","","","","","","","",""
"","","","","","single-stim-button","55","107191","0.0-2.0-19.0-1.0","5f47f3b013fe2f2537aba6da","F1","batch6","","476","tol_toboard","","","","tol_peg_1","476","476","0","[[3,1,0],[2,0],[0]]","1","[[3,0,0],[1,0],[2]]","3","0","","","","","","3","","","","","","","","",""
"","","","","","single-stim-button","56","107721","0.0-2.0-19.1-0.1","5f47f3b013fe2f2537aba6da","F1","batch6","","528","tol_tohand","","","","tol_peg_2","528","528","0","[[3,1,0],[0,0],[0]]","2","[[3,0,0],[1,0],[2]]","3","0","","","","","","3","","","","","","","","",""
"","","","","","single-stim-button","57","108219","0.0-2.0-19.1-1.1","5f47f3b013fe2f2537aba6da","F1","batch6","","498","tol_toboard","","","","tol_peg_3","498","498","0","[[3,1,0],[0,0],[2]]","2","[[3,0,0],[1,0],[2]]","3","0","","","","","","3","","","","","","","","",""
"","","","","","single-stim-button","58","108671","0.0-2.0-19.2-0.2","5f47f3b013fe2f2537aba6da","F1","batch6","","451","tol_tohand","","","","tol_peg_1","451","451","0","[[3,0,0],[0,0],[2]]","3","[[3,0,0],[1,0],[2]]","3","0","","","","","","3","","","","","","","","",""
"","","","","","single-stim-button","59","109170","0.0-2.0-19.2-1.2","5f47f3b013fe2f2537aba6da","F1","batch6","","497","tol_toboard","","","","tol_peg_2","497","497","0","[[3,0,0],[1,0],[2]]","3","[[3,0,0],[1,0],[2]]","3","0","","","","","","3","","","","","","","","",""
"","","","","","poldrack-single-stim","60","110177","0.0-2.0-20.0","5f47f3b013fe2f2537aba6da","F1","batch6","","-1","tol_feedback","","","true","","1000","1000","500","","","","","","-1","none","true","3094","4073","","","","","","","","","",""
"","","","","","html-button-response","61","110784","0.0-2.0-21.0","5f47f3b013fe2f2537aba6da","F1","batch6","","606","tol_trial_num","<div class = centerbox><p class = center-block-text>problem <strong>5</strong> out of 25 problems</p></div>","0","","","","","","","","","","","","","","","","","","","","","","","","",""
"","","","","","single-stim-button","62","130214","0.0-2.0-22.0-0.0","5f47f3b013fe2f2537aba6da","F1","batch6","","19429","tol_tohand","","","","tol_peg_2","19429","19429","0","[[1,0,0],[0,0],[3]]","1","[[0,0,0],[1,2],[3]]","4","0","","","","","","7","","","","","","","","",""
"","","","","","single-stim-button","63","141749","0.0-2.0-22.0-1.0","5f47f3b013fe2f2537aba6da","F1","batch6","","11533","tol_toboard","","","","tol_peg_2","11533","11533","0","[[1,0,0],[2,0],[3]]","1","[[0,0,0],[1,2],[3]]","4","0","","","","","","7","","","","","","","","",""
"","","","","","single-stim-button","64","142271","0.0-2.0-22.1-0.1","5f47f3b013fe2f2537aba6da","F1","batch6","","521","tol_tohand","","","","tol_peg_3","521","521","0","[[1,0,0],[2,0],[0]]","2","[[0,0,0],[1,2],[3]]","4","0","","","","","","7","","","","","","","","",""
"","","","","","single-stim-button","65","143681","0.0-2.0-22.1-1.1","5f47f3b013fe2f2537aba6da","F1","batch6","","1409","tol_toboard","","","","tol_peg_1","1409","1409","0","[[1,3,0],[2,0],[0]]","2","[[0,0,0],[1,2],[3]]","4","0","","","","","","7","","","","","","","","",""
"","","","","","single-stim-button","66","144037","0.0-2.0-22.2-0.2","5f47f3b013fe2f2537aba6da","F1","batch6","","355","tol_tohand","","","","tol_peg_2","355","355","0","[[1,3,0],[0,0],[0]]","3","[[0,0,0],[1,2],[3]]","4","0","","","","","","7","","","","","","","","",""
"","","","","","single-stim-button","67","144370","0.0-2.0-22.2-1.2","5f47f3b013fe2f2537aba6da","F1","batch6","","331","tol_toboard","","","","tol_peg_3","331","331","0","[[1,3,0],[0,0],[2]]","3","[[0,0,0],[1,2],[3]]","4","0","","","","","","7","","","","","","","","",""
"","","","","","single-stim-button","68","145232","0.0-2.0-22.3-0.3","5f47f3b013fe2f2537aba6da","F1","batch6","","862","tol_tohand","","","","tol_peg_1","862","862","0","[[1,0,0],[0,0],[2]]","4","[[0,0,0],[1,2],[3]]","4","0","","","","","","7","","","","","","","","",""
"","","","","","single-stim-button","69","149500","0.0-2.0-22.3-1.3","5f47f3b013fe2f2537aba6da","F1","batch6","","4266","tol_toboard","","","","tol_peg_1","4266","4266","0","[[1,3,0],[0,0],[2]]","4","[[0,0,0],[1,2],[3]]","4","0","","","","","","7","","","","","","","","",""
"","","","","","single-stim-button","70","149984","0.0-2.0-22.4-0.4","5f47f3b013fe2f2537aba6da","F1","batch6","","482","tol_tohand","","","","tol_peg_3","482","482","0","[[1,3,0],[0,0],[0]]","5","[[0,0,0],[1,2],[3]]","4","0","","","","","","7","","","","","","","","",""
"","","","","","single-stim-button","71","150331","0.0-2.0-22.4-1.4","5f47f3b013fe2f2537aba6da","F1","batch6","","347","tol_toboard","","","","tol_peg_2","347","347","0","[[1,3,0],[2,0],[0]]","5","[[0,0,0],[1,2],[3]]","4","0","","","","","","7","","","","","","","","",""
"","","","","","single-stim-button","72","150807","0.0-2.0-22.5-0.5","5f47f3b013fe2f2537aba6da","F1","batch6","","475","tol_tohand","","","","tol_peg_1","475","475","0","[[1,0,0],[2,0],[0]]","6","[[0,0,0],[1,2],[3]]","4","0","","","","","","7","","","","","","","","",""
"","","","","","single-stim-button","73","151218","0.0-2.0-22.5-1.5","5f47f3b013fe2f2537aba6da","F1","batch6","","411","tol_toboard","","","","tol_peg_2","411","411","0","[[1,0,0],[2,3],[0]]","6","[[0,0,0],[1,2],[3]]","4","0","","","","","","7","","","","","","","","",""
"","","","","","single-stim-button","74","151661","0.0-2.0-22.6-0.6","5f47f3b013fe2f2537aba6da","F1","batch6","","442","tol_tohand","","","","tol_peg_1","442","442","0","[[0,0,0],[2,3],[0]]","7","[[0,0,0],[1,2],[3]]","4","0","","","","","","7","","","","","","","","",""
"","","","","","single-stim-button","75","152213","0.0-2.0-22.6-1.6","5f47f3b013fe2f2537aba6da","F1","batch6","","551","tol_toboard","","","","tol_peg_3","551","551","0","[[0,0,0],[2,3],[1]]","7","[[0,0,0],[1,2],[3]]","4","0","","","","","","7","","","","","","","","",""
"","","","","","single-stim-button","76","152593","0.0-2.0-22.7-0.7","5f47f3b013fe2f2537aba6da","F1","batch6","","380","tol_tohand","","","","tol_peg_2","380","380","0","[[0,0,0],[2,0],[1]]","8","[[0,0,0],[1,2],[3]]","4","0","","","","","","7","","","","","","","","",""
"","","","","","single-stim-button","77","155818","0.0-2.0-22.7-1.7","5f47f3b013fe2f2537aba6da","F1","batch6","","3224","tol_toboard","","","","tol_peg_1","3224","3224","0","[[3,0,0],[2,0],[1]]","8","[[0,0,0],[1,2],[3]]","4","0","","","","","","7","","","","","","","","",""
"","","","","","single-stim-button","78","156602","0.0-2.0-22.8-0.8","5f47f3b013fe2f2537aba6da","F1","batch6","","783","tol_tohand","","","","tol_peg_2","783","783","0","[[3,0,0],[0,0],[1]]","9","[[0,0,0],[1,2],[3]]","4","0","","","","","","7","","","","","","","","",""
"","","","","","single-stim-button","79","158581","0.0-2.0-22.8-1.8","5f47f3b013fe2f2537aba6da","F1","batch6","","1977","tol_toboard","","","","tol_peg_2","1977","1977","0","[[3,0,0],[2,0],[1]]","9","[[0,0,0],[1,2],[3]]","4","0","","","","","","7","","","","","","","","",""
"","","","","","single-stim-button","80","160006","0.0-2.0-22.9-0.9","5f47f3b013fe2f2537aba6da","F1","batch6","","1425","tol_tohand","","","","tol_peg_1","1425","1425","0","[[0,0,0],[2,0],[1]]","10","[[0,0,0],[1,2],[3]]","4","0","","","","","","7","","","","","","","","",""
"","","","","","single-stim-button","81","160380","0.0-2.0-22.9-1.9","5f47f3b013fe2f2537aba6da","F1","batch6","","372","tol_toboard","","","","tol_peg_2","372","372","0","[[0,0,0],[2,3],[1]]","10","[[0,0,0],[1,2],[3]]","4","0","","","","","","7","","","","","","","","",""
"","","","","","single-stim-button","82","161361","0.0-2.0-22.10-0.10","5f47f3b013fe2f2537aba6da","F1","batch6","","980","tol_tohand","","","","tol_peg_2","980","980","0","[[0,0,0],[2,0],[1]]","11","[[0,0,0],[1,2],[3]]","4","0","","","","","","7","","","","","","","","",""
"","","","","","single-stim-button","83","161843","0.0-2.0-22.10-1.10","5f47f3b013fe2f2537aba6da","F1","batch6","","482","tol_toboard","","","","tol_peg_1","482","482","0","[[3,0,0],[2,0],[1]]","11","[[0,0,0],[1,2],[3]]","4","0","","","","","","7","","","","","","","","",""
"","","","","","single-stim-button","84","162381","0.0-2.0-22.11-0.11","5f47f3b013fe2f2537aba6da","F1","batch6","","537","tol_tohand","","","","tol_peg_2","537","537","0","[[3,0,0],[0,0],[1]]","12","[[0,0,0],[1,2],[3]]","4","0","","","","","","7","","","","","","","","",""
"","","","","","single-stim-button","85","162809","0.0-2.0-22.11-1.11","5f47f3b013fe2f2537aba6da","F1","batch6","","427","tol_toboard","","","","tol_peg_1","427","427","0","[[3,2,0],[0,0],[1]]","12","[[0,0,0],[1,2],[3]]","4","0","","","","","","7","","","","","","","","",""
"","","","","","single-stim-button","86","176702","0.0-2.0-22.12-0.12","5f47f3b013fe2f2537aba6da","F1","batch6","","13892","tol_tohand","","","","tol_peg_3","13892","13892","0","[[3,2,0],[0,0],[0]]","13","[[0,0,0],[1,2],[3]]","4","0","","","","","","7","","","","","","","","",""
"","","","","","single-stim-button","87","177269","0.0-2.0-22.12-1.12","5f47f3b013fe2f2537aba6da","F1","batch6","","566","tol_toboard","","","","tol_peg_2","566","566","0","[[3,2,0],[1,0],[0]]","13","[[0,0,0],[1,2],[3]]","4","0","","","","","","7","","","","","","","","",""
"","","","","","single-stim-button","88","177875","0.0-2.0-22.13-0.13","5f47f3b013fe2f2537aba6da","F1","batch6","","604","tol_tohand","","","","tol_peg_1","604","604","0","[[3,0,0],[1,0],[0]]","14","[[0,0,0],[1,2],[3]]","4","0","","","","","","7","","","","","","","","",""
"","","","","","single-stim-button","89","178237","0.0-2.0-22.13-1.13","5f47f3b013fe2f2537aba6da","F1","batch6","","362","tol_toboard","","","","tol_peg_2","362","362","0","[[3,0,0],[1,2],[0]]","14","[[0,0,0],[1,2],[3]]","4","0","","","","","","7","","","","","","","","",""
"","","","","","single-stim-button","90","178609","0.0-2.0-22.14-0.14","5f47f3b013fe2f2537aba6da","F1","batch6","","371","tol_tohand","","","","tol_peg_1","371","371","0","[[0,0,0],[1,2],[0]]","15","[[0,0,0],[1,2],[3]]","4","0","","","","","","7","","","","","","","","",""
"","","","","","single-stim-button","91","179536","0.0-2.0-22.14-1.14","5f47f3b013fe2f2537aba6da","F1","batch6","","925","tol_toboard","","","","tol_peg_3","925","925","0","[[0,0,0],[1,2],[3]]","15","[[0,0,0],[1,2],[3]]","4","0","","","","","","7","","","","","","","","",""
"","","","","","poldrack-single-stim","92","180546","0.0-2.0-23.0","5f47f3b013fe2f2537aba6da","F1","batch6","","-1","tol_feedback","","","true","","1000","1000","500","","","","","","-1","none","true","19429","41538","","","","","","","","","",""
"","","","","","html-button-response","93","181674","0.0-2.0-24.0","5f47f3b013fe2f2537aba6da","F1","batch6","","1126","tol_trial_num","<div class = centerbox><p class = center-block-text>problem <strong>6</strong> out of 25 problems</p></div>","0","","","","","","","","","","","","","","","","","","","","","","","","",""
"","","","","","single-stim-button","94","196794","0.0-2.0-25.0-0.0","5f47f3b013fe2f2537aba6da","F1","batch6","","15120","tol_tohand","","","","tol_peg_2","15120","15120","0","[[0,0,0],[1,0],[3]]","1","[[1,0,0],[2,3],[0]]","5","0","","","","","","6","","","","","","","","",""
"","","","","","single-stim-button","95","199202","0.0-2.0-25.0-1.0","5f47f3b013fe2f2537aba6da","F1","batch6","","2406","tol_toboard","","","","tol_peg_1","2406","2406","0","[[2,0,0],[1,0],[3]]","1","[[1,0,0],[2,3],[0]]","5","0","","","","","","6","","","","","","","","",""
"","","","","","single-stim-button","96","214310","0.0-2.0-25.1-0.1","5f47f3b013fe2f2537aba6da","F1","batch6","","15108","tol_tohand","","","","tol_peg_2","15108","15108","0","[[2,0,0],[0,0],[3]]","2","[[1,0,0],[2,3],[0]]","5","0","","","","","","6","","","","","","","","",""
"","","","","","single-stim-button","97","214864","0.0-2.0-25.1-1.1","5f47f3b013fe2f2537aba6da","F1","batch6","","553","tol_toboard","","","","tol_peg_1","553","553","0","[[2,1,0],[0,0],[3]]","2","[[1,0,0],[2,3],[0]]","5","0","","","","","","6","","","","","","","","",""
"","","","","","single-stim-button","98","216804","0.0-2.0-25.2-0.2","5f47f3b013fe2f2537aba6da","F1","batch6","","1938","tol_tohand","","","","tol_peg_3","1938","1938","0","[[2,1,0],[0,0],[0]]","3","[[1,0,0],[2,3],[0]]","5","0","","","","","","6","","","","","","","","",""
"","","","","","single-stim-button","99","217413","0.0-2.0-25.2-1.2","5f47f3b013fe2f2537aba6da","F1","batch6","","609","tol_toboard","","","","tol_peg_2","609","609","0","[[2,1,0],[3,0],[0]]","3","[[1,0,0],[2,3],[0]]","5","0","","","","","","6","","","","","","","","",""
"","","","","","single-stim-button","100","218531","0.0-2.0-25.3-0.3","5f47f3b013fe2f2537aba6da","F1","batch6","","1116","tol_tohand","","","","tol_peg_1","1116","1116","0","[[2,0,0],[3,0],[0]]","4","[[1,0,0],[2,3],[0]]","5","0","","","","","","6","","","","","","","","",""
"","","","","","single-stim-button","101","227443","0.0-2.0-25.3-1.3","5f47f3b013fe2f2537aba6da","F1","batch6","","8912","tol_toboard","","","","tol_peg_3","8912","8912","0","[[2,0,0],[3,0],[1]]","4","[[1,0,0],[2,3],[0]]","5","0","","","","","","6","","","","","","","","",""
"","","","","","single-stim-button","102","227856","0.0-2.0-25.4-0.4","5f47f3b013fe2f2537aba6da","F1","batch6","","411","tol_tohand","","","","tol_peg_2","411","411","0","[[2,0,0],[0,0],[1]]","5","[[1,0,0],[2,3],[0]]","5","0","","","","","","6","","","","","","","","",""
"","","","","","single-stim-button","103","229533","0.0-2.0-25.4-1.4","5f47f3b013fe2f2537aba6da","F1","batch6","","1677","tol_toboard","","","","tol_peg_2","1677","1677","0","[[2,0,0],[3,0],[1]]","5","[[1,0,0],[2,3],[0]]","5","0","","","","","","6","","","","","","","","",""
"","","","","","single-stim-button","104","230017","0.0-2.0-25.5-0.5","5f47f3b013fe2f2537aba6da","F1","batch6","","482","tol_tohand","","","","tol_peg_1","482","482","0","[[0,0,0],[3,0],[1]]","6","[[1,0,0],[2,3],[0]]","5","0","","","","","","6","","","","","","","","",""
"","","","","","single-stim-button","105","231876","0.0-2.0-25.5-1.5","5f47f3b013fe2f2537aba6da","F1","batch6","","1859","tol_toboard","","","","tol_peg_2","1859","1859","0","[[0,0,0],[3,2],[1]]","6","[[1,0,0],[2,3],[0]]","5","0","","","","","","6","","","","","","","","",""
"","","","","","single-stim-button","106","232455","0.0-2.0-25.6-0.6","5f47f3b013fe2f2537aba6da","F1","batch6","","577","tol_tohand","","","","tol_peg_3","577","577","0","[[0,0,0],[3,2],[0]]","7","[[1,0,0],[2,3],[0]]","5","0","","","","","","6","","","","","","","","",""
"","","","","","single-stim-button","107","232906","0.0-2.0-25.6-1.6","5f47f3b013fe2f2537aba6da","F1","batch6","","451","tol_toboard","","","","tol_peg_1","451","451","0","[[1,0,0],[3,2],[0]]","7","[[1,0,0],[2,3],[0]]","5","0","","","","","","6","","","","","","","","",""
"","","","","","single-stim-button","108","233373","0.0-2.0-25.7-0.7","5f47f3b013fe2f2537aba6da","F1","batch6","","466","tol_tohand","","","","tol_peg_2","466","466","0","[[1,0,0],[3,0],[0]]","8","[[1,0,0],[2,3],[0]]","5","0","","","","","","6","","","","","","","","",""
"","","","","","single-stim-button","109","233990","0.0-2.0-25.7-1.7","5f47f3b013fe2f2537aba6da","F1","batch6","","616","tol_toboard","","","","tol_peg_3","616","616","0","[[1,0,0],[3,0],[2]]","8","[[1,0,0],[2,3],[0]]","5","0","","","","","","6","","","","","","","","",""
"","","","","","single-stim-button","110","234513","0.0-2.0-25.8-0.8","5f47f3b013fe2f2537aba6da","F1","batch6","","521","tol_tohand","","","","tol_peg_2","521","521","0","[[1,0,0],[0,0],[2]]","9","[[1,0,0],[2,3],[0]]","5","0","","","","","","6","","","","","","","","",""
"","","","","","single-stim-button","111","234862","0.0-2.0-25.8-1.8","5f47f3b013fe2f2537aba6da","F1","batch6","","348","tol_toboard","","","","tol_peg_1","348","348","0","[[1,3,0],[0,0],[2]]","9","[[1,0,0],[2,3],[0]]","5","0","","","","","","6","","","","","","","","",""
"","","","","","single-stim-button","112","235289","0.0-2.0-25.9-0.9","5f47f3b013fe2f2537aba6da","F1","batch6","","426","tol_tohand","","","","tol_peg_3","426","426","0","[[1,3,0],[0,0],[0]]","10","[[1,0,0],[2,3],[0]]","5","0","","","","","","6","","","","","","","","",""
"","","","","","single-stim-button","113","235638","0.0-2.0-25.9-1.9","5f47f3b013fe2f2537aba6da","F1","batch6","","348","tol_toboard","","","","tol_peg_2","348","348","0","[[1,3,0],[2,0],[0]]","10","[[1,0,0],[2,3],[0]]","5","0","","","","","","6","","","","","","","","",""
"","","","","","single-stim-button","114","236176","0.0-2.0-25.10-0.10","5f47f3b013fe2f2537aba6da","F1","batch6","","538","tol_tohand","","","","tol_peg_1","538","538","0","[[1,0,0],[2,0],[0]]","11","[[1,0,0],[2,3],[0]]","5","0","","","","","","6","","","","","","","","",""
"","","","","","single-stim-button","115","236683","0.0-2.0-25.10-1.10","5f47f3b013fe2f2537aba6da","F1","batch6","","505","tol_toboard","","","","tol_peg_2","505","505","0","[[1,0,0],[2,3],[0]]","11","[[1,0,0],[2,3],[0]]","5","0","","","","","","6","","","","","","","","",""
"","","","","","poldrack-single-stim","116","237691","0.0-2.0-26.0","5f47f3b013fe2f2537aba6da","F1","batch6","","-1","tol_feedback","","","true","","1000","1000","500","","","","","","-1","none","true","15120","36703","","","","","","","","","",""
"","","","","","html-button-response","117","240213","0.0-2.0-27.0","5f47f3b013fe2f2537aba6da","F1","batch6","","2520.2999999523163","tol_trial_num","<div class = centerbox><p class = center-block-text>problem <strong>7</strong> out of 25 problems</p></div>","0","","","","","","","","","","","","","","","","","","","","","","","","",""
"","","","","","single-stim-button","118","242325","0.0-2.0-28.0-0.0","5f47f3b013fe2f2537aba6da","F1","batch6","","2110","tol_tohand","","","","tol_peg_1","2110","2110","0","[[2,0,0],[0,0],[3]]","1","[[1,2,0],[3,0],[0]]","6","0","","","","","","5","","","","","","","","",""
"","","","","","single-stim-button","119","243332","0.0-2.0-28.0-1.0","5f47f3b013fe2f2537aba6da","F1","batch6","","1007","tol_toboard","","","","tol_peg_2","1007","1007","0","[[2,0,0],[1,0],[3]]","1","[[1,2,0],[3,0],[0]]","6","0","","","","","","5","","","","","","","","",""
"","","","","","single-stim-button","120","244433","0.0-2.0-28.1-0.1","5f47f3b013fe2f2537aba6da","F1","batch6","","1099","tol_tohand","","","","tol_peg_3","1099","1099","0","[[2,0,0],[1,0],[0]]","2","[[1,2,0],[3,0],[0]]","6","0","","","","","","5","","","","","","","","",""
"","","","","","single-stim-button","121","244820","0.0-2.0-28.1-1.1","5f47f3b013fe2f2537aba6da","F1","batch6","","387","tol_toboard","","","","tol_peg_2","387","387","0","[[2,0,0],[1,3],[0]]","2","[[1,2,0],[3,0],[0]]","6","0","","","","","","5","","","","","","","","",""
"","","","","","single-stim-button","122","245351","0.0-2.0-28.2-0.2","5f47f3b013fe2f2537aba6da","F1","batch6","","529","tol_tohand","","","","tol_peg_1","529","529","0","[[0,0,0],[1,3],[0]]","3","[[1,2,0],[3,0],[0]]","6","0","","","","","","5","","","","","","","","",""
"","","","","","single-stim-button","123","246056","0.0-2.0-28.2-1.2","5f47f3b013fe2f2537aba6da","F1","batch6","","704","tol_toboard","","","","tol_peg_3","704","704","0","[[0,0,0],[1,3],[2]]","3","[[1,2,0],[3,0],[0]]","6","0","","","","","","5","","","","","","","","",""
"","","","","","single-stim-button","124","251636","0.0-2.0-28.3-0.3","5f47f3b013fe2f2537aba6da","F1","batch6","","5579","tol_tohand","","","","tol_peg_2","5579","5579","0","[[0,0,0],[1,0],[2]]","4","[[1,2,0],[3,0],[0]]","6","0","","","","","","5","","","","","","","","",""
"","","","","","single-stim-button","125","252387","0.0-2.0-28.3-1.3","5f47f3b013fe2f2537aba6da","F1","batch6","","750","tol_toboard","","","","tol_peg_1","750","750","0","[[3,0,0],[1,0],[2]]","4","[[1,2,0],[3,0],[0]]","6","0","","","","","","5","","","","","","","","",""
"","","","","","single-stim-button","126","256969","0.0-2.0-28.4-0.4","5f47f3b013fe2f2537aba6da","F1","batch6","","4581","tol_tohand","","","","tol_peg_2","4581","4581","0","[[3,0,0],[0,0],[2]]","5","[[1,2,0],[3,0],[0]]","6","0","","","","","","5","","","","","","","","",""
"","","","","","single-stim-button","127","259645","0.0-2.0-28.4-1.4","5f47f3b013fe2f2537aba6da","F1","batch6","","2675","tol_toboard","","","","tol_peg_2","2675","2675","0","[[3,0,0],[1,0],[2]]","5","[[1,2,0],[3,0],[0]]","6","0","","","","","","5","","","","","","","","",""
"","","","","","single-stim-button","128","260002","0.0-2.0-28.5-0.5","5f47f3b013fe2f2537aba6da","F1","batch6","","355","tol_tohand","","","","tol_peg_1","355","355","0","[[0,0,0],[1,0],[2]]","6","[[1,2,0],[3,0],[0]]","6","0","","","","","","5","","","","","","","","",""
"","","","","","single-stim-button","129","260334","0.0-2.0-28.5-1.5","5f47f3b013fe2f2537aba6da","F1","batch6","","332","tol_toboard","","","","tol_peg_2","332","332","0","[[0,0,0],[1,3],[2]]","6","[[1,2,0],[3,0],[0]]","6","0","","","","","","5","","","","","","","","",""
"","","","","","single-stim-button","130","260778","0.0-2.0-28.6-0.6","5f47f3b013fe2f2537aba6da","F1","batch6","","443","tol_tohand","","","","tol_peg_3","443","443","0","[[0,0,0],[1,3],[0]]","7","[[1,2,0],[3,0],[0]]","6","0","","","","","","5","","","","","","","","",""
"","","","","","single-stim-button","131","261174","0.0-2.0-28.6-1.6","5f47f3b013fe2f2537aba6da","F1","batch6","","394","tol_toboard","","","","tol_peg_1","394","394","0","[[2,0,0],[1,3],[0]]","7","[[1,2,0],[3,0],[0]]","6","0","","","","","","5","","","","","","","","",""
"","","","","","single-stim-button","132","261577","0.0-2.0-28.7-0.7","5f47f3b013fe2f2537aba6da","F1","batch6","","403","tol_tohand","","","","tol_peg_2","403","403","0","[[2,0,0],[1,0],[0]]","8","[[1,2,0],[3,0],[0]]","6","0","","","","","","5","","","","","","","","",""
"","","","","","single-stim-button","133","261997","0.0-2.0-28.7-1.7","5f47f3b013fe2f2537aba6da","F1","batch6","","418","tol_toboard","","","","tol_peg_3","418","418","0","[[2,0,0],[1,0],[3]]","8","[[1,2,0],[3,0],[0]]","6","0","","","","","","5","","","","","","","","",""
"","","","","","single-stim-button","134","262353","0.0-2.0-28.8-0.8","5f47f3b013fe2f2537aba6da","F1","batch6","","356","tol_tohand","","","","tol_peg_2","356","356","0","[[2,0,0],[0,0],[3]]","9","[[1,2,0],[3,0],[0]]","6","0","","","","","","5","","","","","","","","",""
"","","","","","single-stim-button","135","262836","0.0-2.0-28.8-1.8","5f47f3b013fe2f2537aba6da","F1","batch6","","482","tol_toboard","","","","tol_peg_1","482","482","0","[[2,1,0],[0,0],[3]]","9","[[1,2,0],[3,0],[0]]","6","0","","","","","","5","","","","","","","","",""
"","","","","","single-stim-button","136","263200","0.0-2.0-28.9-0.9","5f47f3b013fe2f2537aba6da","F1","batch6","","362","tol_tohand","","","","tol_peg_3","362","362","0","[[2,1,0],[0,0],[0]]","10","[[1,2,0],[3,0],[0]]","6","0","","","","","","5","","","","","","","","",""
"","","","","","single-stim-button","137","263515","0.0-2.0-28.9-1.9","5f47f3b013fe2f2537aba6da","F1","batch6","","314","tol_toboard","","","","tol_peg_2","314","314","0","[[2,1,0],[3,0],[0]]","10","[[1,2,0],[3,0],[0]]","6","0","","","","","","5","","","","","","","","",""
"","","","","","single-stim-button","138","263913","0.0-2.0-28.10-0.10","5f47f3b013fe2f2537aba6da","F1","batch6","","397","tol_tohand","","","","tol_peg_1","397","397","0","[[2,0,0],[3,0],[0]]","11","[[1,2,0],[3,0],[0]]","6","0","","","","","","5","","","","","","","","",""
"","","","","","single-stim-button","139","264760","0.0-2.0-28.10-1.10","5f47f3b013fe2f2537aba6da","F1","batch6","","846","tol_toboard","","","","tol_peg_3","846","846","0","[[2,0,0],[3,0],[1]]","11","[[1,2,0],[3,0],[0]]","6","0","","","","","","5","","","","","","","","",""
"","","","","","single-stim-button","140","265212","0.0-2.0-28.11-0.11","5f47f3b013fe2f2537aba6da","F1","batch6","","451","tol_tohand","","","","tol_peg_1","451","451","0","[[0,0,0],[3,0],[1]]","12","[[1,2,0],[3,0],[0]]","6","0","","","","","","5","","","","","","","","",""
"","","","","","single-stim-button","141","265512","0.0-2.0-28.11-1.11","5f47f3b013fe2f2537aba6da","F1","batch6","","299","tol_toboard","","","","tol_peg_2","299","299","0","[[0,0,0],[3,2],[1]]","12","[[1,2,0],[3,0],[0]]","6","0","","","","","","5","","","","","","","","",""
"","","","","","single-stim-button","142","265837","0.0-2.0-28.12-0.12","5f47f3b013fe2f2537aba6da","F1","batch6","","324","tol_tohand","","","","tol_peg_3","324","324","0","[[0,0,0],[3,2],[0]]","13","[[1,2,0],[3,0],[0]]","6","0","","","","","","5","","","","","","","","",""
"","","","","","single-stim-button","143","266185","0.0-2.0-28.12-1.12","5f47f3b013fe2f2537aba6da","F1","batch6","","348","tol_toboard","","","","tol_peg_1","348","348","0","[[1,0,0],[3,2],[0]]","13","[[1,2,0],[3,0],[0]]","6","0","","","","","","5","","","","","","","","",""
"","","","","","single-stim-button","144","266509","0.0-2.0-28.13-0.13","5f47f3b013fe2f2537aba6da","F1","batch6","","323","tol_tohand","","","","tol_peg_2","323","323","0","[[1,0,0],[3,0],[0]]","14","[[1,2,0],[3,0],[0]]","6","0","","","","","","5","","","","","","","","",""
"","","","","","single-stim-button","145","266827","0.0-2.0-28.13-1.13","5f47f3b013fe2f2537aba6da","F1","batch6","","316","tol_toboard","","","","tol_peg_1","316","316","0","[[1,2,0],[3,0],[0]]","14","[[1,2,0],[3,0],[0]]","6","0","","","","","","5","","","","","","","","",""
"","","","","","poldrack-single-stim","146","267836","0.0-2.0-29.0","5f47f3b013fe2f2537aba6da","F1","batch6","","-1","tol_feedback","","","true","","1000","1000","500","","","","","","-1","none","true","2110","17312","","","","","","","","","",""
"","","","","","html-button-response","147","268354","0.0-2.0-30.0","5f47f3b013fe2f2537aba6da","F1","batch6","","516.1999999284744","tol_trial_num","<div class = centerbox><p class = center-block-text>problem <strong>8</strong> out of 25 problems</p></div>","0","","","","","","","","","","","","","","","","","","","","","","","","",""
"","","","","","single-stim-button","148","274052","0.0-2.0-31.0-0.0","5f47f3b013fe2f2537aba6da","F1","batch6","","5697","tol_tohand","","","","tol_peg_3","5697","5697","0","[[0,0,0],[2,3],[0]]","1","[[1,2,0],[3,0],[0]]","7","0","","","","","","4","","","","","","","","",""
"","","","","","single-stim-button","149","274559","0.0-2.0-31.0-1.0","5f47f3b013fe2f2537aba6da","F1","batch6","","506","tol_toboard","","","","tol_peg_1","506","506","0","[[1,0,0],[2,3],[0]]","1","[[1,2,0],[3,0],[0]]","7","0","","","","","","4","","","","","","","","",""
"","","","","","single-stim-button","150","275090","0.0-2.0-31.1-0.1","5f47f3b013fe2f2537aba6da","F1","batch6","","530","tol_tohand","","","","tol_peg_2","530","530","0","[[1,0,0],[2,0],[0]]","2","[[1,2,0],[3,0],[0]]","7","0","","","","","","4","","","","","","","","",""
"","","","","","single-stim-button","151","275556","0.0-2.0-31.1-1.1","5f47f3b013fe2f2537aba6da","F1","batch6","","466","tol_toboard","","","","tol_peg_3","466","466","0","[[1,0,0],[2,0],[3]]","2","[[1,2,0],[3,0],[0]]","7","0","","","","","","4","","","","","","","","",""
"","","","","","single-stim-button","152","275882","0.0-2.0-31.2-0.2","5f47f3b013fe2f2537aba6da","F1","batch6","","324","tol_tohand","","","","tol_peg_2","324","324","0","[[1,0,0],[0,0],[3]]","3","[[1,2,0],[3,0],[0]]","7","0","","","","","","4","","","","","","","","",""
"","","","","","single-stim-button","153","276230","0.0-2.0-31.2-1.2","5f47f3b013fe2f2537aba6da","F1","batch6","","347","tol_toboard","","","","tol_peg_1","347","347","0","[[1,2,0],[0,0],[3]]","3","[[1,2,0],[3,0],[0]]","7","0","","","","","","4","","","","","","","","",""
"","","","","","single-stim-button","154","276594","0.0-2.0-31.3-0.3","5f47f3b013fe2f2537aba6da","F1","batch6","","363","tol_tohand","","","","tol_peg_3","363","363","0","[[1,2,0],[0,0],[0]]","4","[[1,2,0],[3,0],[0]]","7","0","","","","","","4","","","","","","","","",""
"","","","","","single-stim-button","155","276927","0.0-2.0-31.3-1.3","5f47f3b013fe2f2537aba6da","F1","batch6","","332","tol_toboard","","","","tol_peg_2","332","332","0","[[1,2,0],[3,0],[0]]","4","[[1,2,0],[3,0],[0]]","7","0","","","","","","4","","","","","","","","",""
"","","","","","poldrack-single-stim","156","277932","0.0-2.0-32.0","5f47f3b013fe2f2537aba6da","F1","batch6","","-1","tol_feedback","","","true","","1000","1000","500","","","","","","-1","none","true","5697","6914","","","","","","","","","",""
"","","","","","html-button-response","157","278478","0.0-2.0-33.0","5f47f3b013fe2f2537aba6da","F1","batch6","","544.2999999523163","tol_trial_num","<div class = centerbox><p class = center-block-text>problem <strong>9</strong> out of 25 problems</p></div>","0","","","","","","","","","","","","","","","","","","","","","","","","",""
"","","","","","single-stim-button","158","283538","0.0-2.0-34.0-0.0","5f47f3b013fe2f2537aba6da","F1","batch6","","5058","tol_tohand","","","","tol_peg_1","5058","5058","0","[[3,0,0],[0,0],[1]]","1","[[2,1,0],[3,0],[0]]","8","0","","","","","","6","","","","","","","","",""
"","","","","","single-stim-button","159","283925","0.0-2.0-34.0-1.0","5f47f3b013fe2f2537aba6da","F1","batch6","","386","tol_toboard","","","","tol_peg_2","386","386","0","[[3,0,0],[2,0],[1]]","1","[[2,1,0],[3,0],[0]]","8","0","","","","","","6","","","","","","","","",""
"","","","","","single-stim-button","160","289039","0.0-2.0-34.1-0.1","5f47f3b013fe2f2537aba6da","F1","batch6","","5114","tol_tohand","","","","tol_peg_1","5114","5114","0","[[0,0,0],[2,0],[1]]","2","[[2,1,0],[3,0],[0]]","8","0","","","","","","6","","","","","","","","",""
"","","","","","single-stim-button","161","291036","0.0-2.0-34.1-1.1","5f47f3b013fe2f2537aba6da","F1","batch6","","1995","tol_toboard","","","","tol_peg_1","1995","1995","0","[[3,0,0],[2,0],[1]]","2","[[2,1,0],[3,0],[0]]","8","0","","","","","","6","","","","","","","","",""
"","","","","","single-stim-button","162","291867","0.0-2.0-34.2-0.2","5f47f3b013fe2f2537aba6da","F1","batch6","","830","tol_tohand","","","","tol_peg_2","830","830","0","[[3,0,0],[0,0],[1]]","3","[[2,1,0],[3,0],[0]]","8","0","","","","","","6","","","","","","","","",""
"","","","","","single-stim-button","163","293068","0.0-2.0-34.2-1.2","5f47f3b013fe2f2537aba6da","F1","batch6","","1201","tol_toboard","","","","tol_peg_2","1201","1201","0","[[3,0,0],[2,0],[1]]","3","[[2,1,0],[3,0],[0]]","8","0","","","","","","6","","","","","","","","",""
"","","","","","single-stim-button","164","293559","0.0-2.0-34.3-0.3","5f47f3b013fe2f2537aba6da","F1","batch6","","490","tol_tohand","","","","tol_peg_3","490","490","0","[[3,0,0],[2,0],[0]]","4","[[2,1,0],[3,0],[0]]","8","0","","","","","","6","","","","","","","","",""
"","","","","","single-stim-button","165","293971","0.0-2.0-34.3-1.3","5f47f3b013fe2f2537aba6da","F1","batch6","","411","tol_toboard","","","","tol_peg_1","411","411","0","[[3,1,0],[2,0],[0]]","4","[[2,1,0],[3,0],[0]]","8","0","","","","","","6","","","","","","","","",""
"","","","","","single-stim-button","166","294691","0.0-2.0-34.4-0.4","5f47f3b013fe2f2537aba6da","F1","batch6","","719","tol_tohand","","","","tol_peg_2","719","719","0","[[3,1,0],[0,0],[0]]","5","[[2,1,0],[3,0],[0]]","8","0","","","","","","6","","","","","","","","",""
"","","","","","single-stim-button","167","295135","0.0-2.0-34.4-1.4","5f47f3b013fe2f2537aba6da","F1","batch6","","443","tol_toboard","","","","tol_peg_3","443","443","0","[[3,1,0],[0,0],[2]]","5","[[2,1,0],[3,0],[0]]","8","0","","","","","","6","","","","","","","","",""
"","","","","","single-stim-button","168","295626","0.0-2.0-34.5-0.5","5f47f3b013fe2f2537aba6da","F1","batch6","","489","tol_tohand","","","","tol_peg_1","489","489","0","[[3,0,0],[0,0],[2]]","6","[[2,1,0],[3,0],[0]]","8","0","","","","","","6","","","","","","","","",""
"","","","","","single-stim-button","169","295998","0.0-2.0-34.5-1.5","5f47f3b013fe2f2537aba6da","F1","batch6","","371","tol_toboard","","","","tol_peg_2","371","371","0","[[3,0,0],[1,0],[2]]","6","[[2,1,0],[3,0],[0]]","8","0","","","","","","6","","","","","","","","",""
"","","","","","single-stim-button","170","296433","0.0-2.0-34.6-0.6","5f47f3b013fe2f2537aba6da","F1","batch6","","435","tol_tohand","","","","tol_peg_1","435","435","0","[[0,0,0],[1,0],[2]]","7","[[2,1,0],[3,0],[0]]","8","0","","","","","","6","","","","","","","","",""
"","","","","","single-stim-button","171","296884","0.0-2.0-34.6-1.6","5f47f3b013fe2f2537aba6da","F1","batch6","","450","tol_toboard","","","","tol_peg_2","450","450","0","[[0,0,0],[1,3],[2]]","7","[[2,1,0],[3,0],[0]]","8","0","","","","","","6","","","","","","","","",""
"","","","","","single-stim-button","172","297835","0.0-2.0-34.7-0.7","5f47f3b013fe2f2537aba6da","F1","batch6","","950","tol_tohand","","","","tol_peg_3","950","950","0","[[0,0,0],[1,3],[0]]","8","[[2,1,0],[3,0],[0]]","8","0","","","","","","6","","","","","","","","",""
"","","","","","single-stim-button","173","298460","0.0-2.0-34.7-1.7","5f47f3b013fe2f2537aba6da","F1","batch6","","624","tol_toboard","","","","tol_peg_1","624","624","0","[[2,0,0],[1,3],[0]]","8","[[2,1,0],[3,0],[0]]","8","0","","","","","","6","","","","","","","","",""
"","","","","","single-stim-button","174","298856","0.0-2.0-34.8-0.8","5f47f3b013fe2f2537aba6da","F1","batch6","","394","tol_tohand","","","","tol_peg_2","394","394","0","[[2,0,0],[1,0],[0]]","9","[[2,1,0],[3,0],[0]]","8","0","","","","","","6","","","","","","","","",""
"","","","","","single-stim-button","175","299402","0.0-2.0-34.8-1.8","5f47f3b013fe2f2537aba6da","F1","batch6","","545","tol_toboard","","","","tol_peg_3","545","545","0","[[2,0,0],[1,0],[3]]","9","[[2,1,0],[3,0],[0]]","8","0","","","","","","6","","","","","","","","",""
"","","","","","single-stim-button","176","299719","0.0-2.0-34.9-0.9","5f47f3b013fe2f2537aba6da","F1","batch6","","316","tol_tohand","","","","tol_peg_2","316","316","0","[[2,0,0],[0,0],[3]]","10","[[2,1,0],[3,0],[0]]","8","0","","","","","","6","","","","","","","","",""
"","","","","","single-stim-button","177","300052","0.0-2.0-34.9-1.9","5f47f3b013fe2f2537aba6da","F1","batch6","","333","tol_toboard","","","","tol_peg_1","333","333","0","[[2,1,0],[0,0],[3]]","10","[[2,1,0],[3,0],[0]]","8","0","","","","","","6","","","","","","","","",""
"","","","","","single-stim-button","178","300424","0.0-2.0-34.10-0.10","5f47f3b013fe2f2537aba6da","F1","batch6","","370","tol_tohand","","","","tol_peg_3","370","370","0","[[2,1,0],[0,0],[0]]","11","[[2,1,0],[3,0],[0]]","8","0","","","","","","6","","","","","","","","",""
"","","","","","single-stim-button","179","300724","0.0-2.0-34.10-1.10","5f47f3b013fe2f2537aba6da","F1","batch6","","300","tol_toboard","","","","tol_peg_2","300","300","0","[[2,1,0],[3,0],[0]]","11","[[2,1,0],[3,0],[0]]","8","0","","","","","","6","","","","","","","","",""
"","","","","","poldrack-single-stim","180","301734","0.0-2.0-35.0","5f47f3b013fe2f2537aba6da","F1","batch6","","-1","tol_feedback","","","true","","1000","1000","500","","","","","","-1","none","true","5058","15165","","","","","","","","","",""
"","","","","","html-button-response","181","302297","0.0-2.0-36.0","5f47f3b013fe2f2537aba6da","F1","batch6","","562.3000000715256","tol_trial_num","<div class = centerbox><p class = center-block-text>problem <strong>10</strong> out of 25 problems</p></div>","0","","","","","","","","","","","","","","","","","","","","","","","","",""
"","","","","","single-stim-button","182","304334","0.0-2.0-37.0-0.0","5f47f3b013fe2f2537aba6da","F1","batch6","","2037","tol_tohand","","","","tol_peg_2","2037","2037","0","[[3,0,0],[0,0],[2]]","1","[[3,0,0],[2,1],[0]]","9","0","","","","","","3","","","","","","","","",""
"","","","","","single-stim-button","183","304723","0.0-2.0-37.0-1.0","5f47f3b013fe2f2537aba6da","F1","batch6","","388","tol_toboard","","","","tol_peg_1","388","388","0","[[3,1,0],[0,0],[2]]","1","[[3,0,0],[2,1],[0]]","9","0","","","","","","3","","","","","","","","",""
"","","","","","single-stim-button","184","305902","0.0-2.0-37.1-0.1","5f47f3b013fe2f2537aba6da","F1","batch6","","1179","tol_tohand","","","","tol_peg_3","1179","1179","0","[[3,1,0],[0,0],[0]]","2","[[3,0,0],[2,1],[0]]","9","0","","","","","","3","","","","","","","","",""
"","","","","","single-stim-button","185","306598","0.0-2.0-37.1-1.1","5f47f3b013fe2f2537aba6da","F1","batch6","","696","tol_toboard","","","","tol_peg_2","696","696","0","[[3,1,0],[2,0],[0]]","2","[[3,0,0],[2,1],[0]]","9","0","","","","","","3","","","","","","","","",""
"","","","","","single-stim-button","186","307107","0.0-2.0-37.2-0.2","5f47f3b013fe2f2537aba6da","F1","batch6","","507","tol_tohand","","","","tol_peg_1","507","507","0","[[3,0,0],[2,0],[0]]","3","[[3,0,0],[2,1],[0]]","9","0","","","","","","3","","","","","","","","",""
"","","","","","single-stim-button","187","307390","0.0-2.0-37.2-1.2","5f47f3b013fe2f2537aba6da","F1","batch6","","283","tol_toboard","","","","tol_peg_2","283","283","0","[[3,0,0],[2,1],[0]]","3","[[3,0,0],[2,1],[0]]","9","0","","","","","","3","","","","","","","","",""
"","","","","","poldrack-single-stim","188","308397","0.0-2.0-38.0","5f47f3b013fe2f2537aba6da","F1","batch6","","-1","tol_feedback","","","true","","1000","1000","500","","","","","","-1","none","true","2037","3723","","","","","","","","","",""
"","","","","","html-button-response","189","309013","0.0-2.0-39.0","5f47f3b013fe2f2537aba6da","F1","batch6","","615","tol_trial_num","<div class = centerbox><p class = center-block-text>problem <strong>11</strong> out of 25 problems</p></div>","0","","","","","","","","","","","","","","","","","","","","","","","","",""
"","","","","","single-stim-button","190","312750","0.0-2.0-40.0-0.0","5f47f3b013fe2f2537aba6da","F1","batch6","","3736","tol_tohand","","","","tol_peg_2","3736","3736","0","[[1,2,0],[0,0],[0]]","1","[[2,0,0],[1,3],[0]]","10","0","","","","","","6","","","","","","","","",""
"","","","","","single-stim-button","191","314024","0.0-2.0-40.0-1.0","5f47f3b013fe2f2537aba6da","F1","batch6","","1274","tol_toboard","","","","tol_peg_3","1274","1274","0","[[1,2,0],[0,0],[3]]","1","[[2,0,0],[1,3],[0]]","10","0","","","","","","6","","","","","","","","",""
"","","","","","single-stim-button","192","314531","0.0-2.0-40.1-0.1","5f47f3b013fe2f2537aba6da","F1","batch6","","506","tol_tohand","","","","tol_peg_1","506","506","0","[[1,0,0],[0,0],[3]]","2","[[2,0,0],[1,3],[0]]","10","0","","","","","","6","","","","","","","","",""
"","","","","","single-stim-button","193","317308","0.0-2.0-40.1-1.1","5f47f3b013fe2f2537aba6da","F1","batch6","","2776","tol_toboard","","","","tol_peg_2","2776","2776","0","[[1,0,0],[2,0],[3]]","2","[[2,0,0],[1,3],[0]]","10","0","","","","","","6","","","","","","","","",""
"","","","","","single-stim-button","194","317703","0.0-2.0-40.2-0.2","5f47f3b013fe2f2537aba6da","F1","batch6","","394","tol_tohand","","","","tol_peg_3","394","394","0","[[1,0,0],[2,0],[0]]","3","[[2,0,0],[1,3],[0]]","10","0","","","","","","6","","","","","","","","",""
"","","","","","single-stim-button","195","318121","0.0-2.0-40.2-1.2","5f47f3b013fe2f2537aba6da","F1","batch6","","417","tol_toboard","","","","tol_peg_1","417","417","0","[[1,3,0],[2,0],[0]]","3","[[2,0,0],[1,3],[0]]","10","0","","","","","","6","","","","","","","","",""
"","","","","","single-stim-button","196","318471","0.0-2.0-40.3-0.3","5f47f3b013fe2f2537aba6da","F1","batch6","","349","tol_tohand","","","","tol_peg_2","349","349","0","[[1,3,0],[0,0],[0]]","4","[[2,0,0],[1,3],[0]]","10","0","","","","","","6","","","","","","","","",""
"","","","","","single-stim-button","197","319176","0.0-2.0-40.3-1.3","5f47f3b013fe2f2537aba6da","F1","batch6","","703","tol_toboard","","","","tol_peg_3","703","703","0","[[1,3,0],[0,0],[2]]","4","[[2,0,0],[1,3],[0]]","10","0","","","","","","6","","","","","","","","",""
"","","","","","single-stim-button","198","320197","0.0-2.0-40.4-0.4","5f47f3b013fe2f2537aba6da","F1","batch6","","1021","tol_tohand","","","","tol_peg_1","1021","1021","0","[[1,0,0],[0,0],[2]]","5","[[2,0,0],[1,3],[0]]","10","0","","","","","","6","","","","","","","","",""
"","","","","","single-stim-button","199","323490","0.0-2.0-40.4-1.4","5f47f3b013fe2f2537aba6da","F1","batch6","","3292","tol_toboard","","","","tol_peg_2","3292","3292","0","[[1,0,0],[3,0],[2]]","5","[[2,0,0],[1,3],[0]]","10","0","","","","","","6","","","","","","","","",""
"","","","","","single-stim-button","200","326318","0.0-2.0-40.5-0.5","5f47f3b013fe2f2537aba6da","F1","batch6","","2826","tol_tohand","","","","tol_peg_1","2826","2826","0","[[0,0,0],[3,0],[2]]","6","[[2,0,0],[1,3],[0]]","10","0","","","","","","6","","","","","","","","",""
"","","","","","single-stim-button","201","326609","0.0-2.0-40.5-1.5","5f47f3b013fe2f2537aba6da","F1","batch6","","290","tol_toboard","","","","tol_peg_2","290","290","0","[[0,0,0],[3,1],[2]]","6","[[2,0,0],[1,3],[0]]","10","0","","","","","","6","","","","","","","","",""
"","","","","","single-stim-button","202","326981","0.0-2.0-40.6-0.6","5f47f3b013fe2f2537aba6da","F1","batch6","","371","tol_tohand","","","","tol_peg_3","371","371","0","[[0,0,0],[3,1],[0]]","7","[[2,0,0],[1,3],[0]]","10","0","","","","","","6","","","","","","","","",""
"","","","","","single-stim-button","203","327480","0.0-2.0-40.6-1.6","5f47f3b013fe2f2537aba6da","F1","batch6","","497","tol_toboard","","","","tol_peg_1","497","497","0","[[2,0,0],[3,1],[0]]","7","[[2,0,0],[1,3],[0]]","10","0","","","","","","6","","","","","","","","",""
"","","","","","single-stim-button","204","327947","0.0-2.0-40.7-0.7","5f47f3b013fe2f2537aba6da","F1","batch6","","467","tol_tohand","","","","tol_peg_2","467","467","0","[[2,0,0],[3,0],[0]]","8","[[2,0,0],[1,3],[0]]","10","0","","","","","","6","","","","","","","","",""
"","","","","","single-stim-button","205","328485","0.0-2.0-40.7-1.7","5f47f3b013fe2f2537aba6da","F1","batch6","","537","tol_toboard","","","","tol_peg_1","537","537","0","[[2,1,0],[3,0],[0]]","8","[[2,0,0],[1,3],[0]]","10","0","","","","","","6","","","","","","","","",""
"","","","","","single-stim-button","206","328849","0.0-2.0-40.8-0.8","5f47f3b013fe2f2537aba6da","F1","batch6","","363","tol_tohand","","","","tol_peg_2","363","363","0","[[2,1,0],[0,0],[0]]","9","[[2,0,0],[1,3],[0]]","10","0","","","","","","6","","","","","","","","",""
"","","","","","single-stim-button","207","329340","0.0-2.0-40.8-1.8","5f47f3b013fe2f2537aba6da","F1","batch6","","491","tol_toboard","","","","tol_peg_3","491","491","0","[[2,1,0],[0,0],[3]]","9","[[2,0,0],[1,3],[0]]","10","0","","","","","","6","","","","","","","","",""
"","","","","","single-stim-button","208","329902","0.0-2.0-40.9-0.9","5f47f3b013fe2f2537aba6da","F1","batch6","","561","tol_tohand","","","","tol_peg_1","561","561","0","[[2,0,0],[0,0],[3]]","10","[[2,0,0],[1,3],[0]]","10","0","","","","","","6","","","","","","","","",""
"","","","","","single-stim-button","209","330353","0.0-2.0-40.9-1.9","5f47f3b013fe2f2537aba6da","F1","batch6","","450","tol_toboard","","","","tol_peg_2","450","450","0","[[2,0,0],[1,0],[3]]","10","[[2,0,0],[1,3],[0]]","10","0","","","","","","6","","","","","","","","",""
"","","","","","single-stim-button","210","330836","0.0-2.0-40.10-0.10","5f47f3b013fe2f2537aba6da","F1","batch6","","482","tol_tohand","","","","tol_peg_3","482","482","0","[[2,0,0],[1,0],[0]]","11","[[2,0,0],[1,3],[0]]","10","0","","","","","","6","","","","","","","","",""
"","","","","","single-stim-button","211","331139","0.0-2.0-40.10-1.10","5f47f3b013fe2f2537aba6da","F1","batch6","","301","tol_toboard","","","","tol_peg_2","301","301","0","[[2,0,0],[1,3],[0]]","11","[[2,0,0],[1,3],[0]]","10","0","","","","","","6","","","","","","","","",""
"","","","","","poldrack-single-stim","212","332143","0.0-2.0-41.0","5f47f3b013fe2f2537aba6da","F1","batch6","","-1","tol_feedback","","","true","","1000","1000","500","","","","","","-1","none","true","3736","11076","","","","","","","","","",""
"","","","","","html-button-response","213","332776","0.0-2.0-42.0","5f47f3b013fe2f2537aba6da","F1","batch6","","632.2000000476837","tol_trial_num","<div class = centerbox><p class = center-block-text>problem <strong>12</strong> out of 25 problems</p></div>","0","","","","","","","","","","","","","","","","","","","","","","","","",""
"","","","","","single-stim-button","214","335864","0.0-2.0-43.0-0.0","5f47f3b013fe2f2537aba6da","F1","batch6","","3087","tol_tohand","","","","tol_peg_1","3087","3087","0","[[1,0,0],[3,0],[0]]","1","[[2,3,0],[0,0],[1]]","11","0","","","","","","4","","","","","","","","",""
"","","","","","single-stim-button","215","336727","0.0-2.0-43.0-1.0","5f47f3b013fe2f2537aba6da","F1","batch6","","862","tol_toboard","","","","tol_peg_2","862","862","0","[[1,0,0],[3,2],[0]]","1","[[2,3,0],[0,0],[1]]","11","0","","","","","","4","","","","","","","","",""
"","","","","","single-stim-button","216","338160","0.0-2.0-43.1-0.1","5f47f3b013fe2f2537aba6da","F1","batch6","","1432","tol_tohand","","","","tol_peg_2","1432","1432","0","[[1,0,0],[3,0],[0]]","2","[[2,3,0],[0,0],[1]]","11","0","","","","","","4","","","","","","","","",""
"","","","","","single-stim-button","217","338508","0.0-2.0-43.1-1.1","5f47f3b013fe2f2537aba6da","F1","batch6","","347","tol_toboard","","","","tol_peg_3","347","347","0","[[1,0,0],[3,0],[2]]","2","[[2,3,0],[0,0],[1]]","11","0","","","","","","4","","","","","","","","",""
"","","","","","single-stim-button","218","339047","0.0-2.0-43.2-0.2","5f47f3b013fe2f2537aba6da","F1","batch6","","537","tol_tohand","","","","tol_peg_2","537","537","0","[[1,0,0],[0,0],[2]]","3","[[2,3,0],[0,0],[1]]","11","0","","","","","","4","","","","","","","","",""
"","","","","","single-stim-button","219","340686","0.0-2.0-43.2-1.2","5f47f3b013fe2f2537aba6da","F1","batch6","","1638","tol_toboard","","","","tol_peg_2","1638","1638","0","[[1,0,0],[3,0],[2]]","3","[[2,3,0],[0,0],[1]]","11","0","","","","","","4","","","","","","","","",""
"","","","","","single-stim-button","220","341019","0.0-2.0-43.3-0.3","5f47f3b013fe2f2537aba6da","F1","batch6","","332","tol_tohand","","","","tol_peg_1","332","332","0","[[0,0,0],[3,0],[2]]","4","[[2,3,0],[0,0],[1]]","11","0","","","","","","4","","","","","","","","",""
"","","","","","single-stim-button","221","343559","0.0-2.0-43.3-1.3","5f47f3b013fe2f2537aba6da","F1","batch6","","2540","tol_toboard","","","","tol_peg_2","2540","2540","0","[[0,0,0],[3,1],[2]]","4","[[2,3,0],[0,0],[1]]","11","0","","","","","","4","","","","","","","","",""
"","","","","","single-stim-button","222","344011","0.0-2.0-43.4-0.4","5f47f3b013fe2f2537aba6da","F1","batch6","","450","tol_tohand","","","","tol_peg_3","450","450","0","[[0,0,0],[3,1],[0]]","5","[[2,3,0],[0,0],[1]]","11","0","","","","","","4","","","","","","","","",""
"","","","","","single-stim-button","223","344351","0.0-2.0-43.4-1.4","5f47f3b013fe2f2537aba6da","F1","batch6","","340","tol_toboard","","","","tol_peg_1","340","340","0","[[2,0,0],[3,1],[0]]","5","[[2,3,0],[0,0],[1]]","11","0","","","","","","4","","","","","","","","",""
"","","","","","single-stim-button","224","344716","0.0-2.0-43.5-0.5","5f47f3b013fe2f2537aba6da","F1","batch6","","364","tol_tohand","","","","tol_peg_2","364","364","0","[[2,0,0],[3,0],[0]]","6","[[2,3,0],[0,0],[1]]","11","0","","","","","","4","","","","","","","","",""
"","","","","","single-stim-button","225","345111","0.0-2.0-43.5-1.5","5f47f3b013fe2f2537aba6da","F1","batch6","","394","tol_toboard","","","","tol_peg_3","394","394","0","[[2,0,0],[3,0],[1]]","6","[[2,3,0],[0,0],[1]]","11","0","","","","","","4","","","","","","","","",""
"","","","","","single-stim-button","226","345483","0.0-2.0-43.6-0.6","5f47f3b013fe2f2537aba6da","F1","batch6","","371","tol_tohand","","","","tol_peg_2","371","371","0","[[2,0,0],[0,0],[1]]","7","[[2,3,0],[0,0],[1]]","11","0","","","","","","4","","","","","","","","",""
"","","","","","single-stim-button","227","346244","0.0-2.0-43.6-1.6","5f47f3b013fe2f2537aba6da","F1","batch6","","759","tol_toboard","","","","tol_peg_1","759","759","0","[[2,3,0],[0,0],[1]]","7","[[2,3,0],[0,0],[1]]","11","0","","","","","","4","","","","","","","","",""
"","","","","","poldrack-single-stim","228","347255","0.0-2.0-44.0","5f47f3b013fe2f2537aba6da","F1","batch6","","-1","tol_feedback","","","true","","1000","1000","500","","","","","","-1","none","true","3087","6573","","","","","","","","","",""
"","","","","","html-button-response","229","347881","0.0-2.0-45.0","5f47f3b013fe2f2537aba6da","F1","batch6","","624.5","tol_trial_num","<div class = centerbox><p class = center-block-text>problem <strong>13</strong> out of 25 problems</p></div>","0","","","","","","","","","","","","","","","","","","","","","","","","",""
"","","","","","single-stim-button","230","350875","0.0-2.0-46.0-0.0","5f47f3b013fe2f2537aba6da","F1","batch6","","2992","tol_tohand","","","","tol_peg_2","2992","2992","0","[[1,2,0],[0,0],[0]]","1","[[0,0,0],[2,3],[1]]","12","0","","","","","","4","","","","","","","","",""
"","","","","","single-stim-button","231","351262","0.0-2.0-46.0-1.0","5f47f3b013fe2f2537aba6da","F1","batch6","","386","tol_toboard","","","","tol_peg_3","386","386","0","[[1,2,0],[0,0],[3]]","1","[[0,0,0],[2,3],[1]]","12","0","","","","","","4","","","","","","","","",""
"","","","","","single-stim-button","232","351691","0.0-2.0-46.1-0.1","5f47f3b013fe2f2537aba6da","F1","batch6","","427","tol_tohand","","","","tol_peg_1","427","427","0","[[1,0,0],[0,0],[3]]","2","[[0,0,0],[2,3],[1]]","12","0","","","","","","4","","","","","","","","",""
"","","","","","single-stim-button","233","352078","0.0-2.0-46.1-1.1","5f47f3b013fe2f2537aba6da","F1","batch6","","387","tol_toboard","","","","tol_peg_2","387","387","0","[[1,0,0],[2,0],[3]]","2","[[0,0,0],[2,3],[1]]","12","0","","","","","","4","","","","","","","","",""
"","","","","","single-stim-button","234","352498","0.0-2.0-46.2-0.2","5f47f3b013fe2f2537aba6da","F1","batch6","","418","tol_tohand","","","","tol_peg_3","418","418","0","[[1,0,0],[2,0],[0]]","3","[[0,0,0],[2,3],[1]]","12","0","","","","","","4","","","","","","","","",""
"","","","","","single-stim-button","235","352783","0.0-2.0-46.2-1.2","5f47f3b013fe2f2537aba6da","F1","batch6","","284","tol_toboard","","","","tol_peg_2","284","284","0","[[1,0,0],[2,3],[0]]","3","[[0,0,0],[2,3],[1]]","12","0","","","","","","4","","","","","","","","",""
"","","","","","single-stim-button","236","353108","0.0-2.0-46.3-0.3","5f47f3b013fe2f2537aba6da","F1","batch6","","323","tol_tohand","","","","tol_peg_1","323","323","0","[[0,0,0],[2,3],[0]]","4","[[0,0,0],[2,3],[1]]","12","0","","","","","","4","","","","","","","","",""
"","","","","","single-stim-button","237","353463","0.0-2.0-46.3-1.3","5f47f3b013fe2f2537aba6da","F1","batch6","","355","tol_toboard","","","","tol_peg_3","355","355","0","[[0,0,0],[2,3],[1]]","4","[[0,0,0],[2,3],[1]]","12","0","","","","","","4","","","","","","","","",""
"","","","","","poldrack-single-stim","238","354471","0.0-2.0-47.0","5f47f3b013fe2f2537aba6da","F1","batch6","","-1","tol_feedback","","","true","","1000","1000","500","","","","","","-1","none","true","2992","4160","","","","","","","","","",""
"","","","","","html-button-response","239","356220","0.0-2.0-48.0","5f47f3b013fe2f2537aba6da","F1","batch6","","1747.7000000476837","attention_check","<p class = block-text>How many balls are in your board<br></p>","1","true","","","","","","","","","","","","","","","","","","","","","","","",""
"","","","","","html-button-response","240","357177","0.0-2.0-49.0","5f47f3b013fe2f2537aba6da","F1","batch6","","954.7999999523163","tol_trial_num","<div class = centerbox><p class = center-block-text>problem <strong>14</strong> out of 25 problems</p></div>","0","","","","","","","","","","","","","","","","","","","","","","","","",""
"","","","","","single-stim-button","241","361151","0.0-2.0-50.0-0.0","5f47f3b013fe2f2537aba6da","F1","batch6","","3973","tol_tohand","","","","tol_peg_1","3973","3973","0","[[2,0,0],[3,0],[0]]","1","[[1,2,0],[3,0],[0]]","13","0","","","","","","4","","","","","","","","",""
"","","","","","single-stim-button","242","363951","0.0-2.0-50.0-1.0","5f47f3b013fe2f2537aba6da","F1","batch6","","2799","tol_toboard","","","","tol_peg_2","2799","2799","0","[[2,0,0],[3,1],[0]]","1","[[1,2,0],[3,0],[0]]","13","0","","","","","","4","","","","","","","","",""
"","","","","","single-stim-button","243","364286","0.0-2.0-50.1-0.1","5f47f3b013fe2f2537aba6da","F1","batch6","","334","tol_tohand","","","","tol_peg_1","334","334","0","[[0,0,0],[3,1],[0]]","2","[[1,2,0],[3,0],[0]]","13","0","","","","","","4","","","","","","","","",""
"","","","","","single-stim-button","244","364689","0.0-2.0-50.1-1.1","5f47f3b013fe2f2537aba6da","F1","batch6","","402","tol_toboard","","","","tol_peg_3","402","402","0","[[0,0,0],[3,1],[2]]","2","[[1,2,0],[3,0],[0]]","13","0","","","","","","4","","","","","","","","",""
"","","","","","single-stim-button","245","365023","0.0-2.0-50.2-0.2","5f47f3b013fe2f2537aba6da","F1","batch6","","332","tol_tohand","","","","tol_peg_2","332","332","0","[[0,0,0],[3,0],[2]]","3","[[1,2,0],[3,0],[0]]","13","0","","","","","","4","","","","","","","","",""
"","","","","","single-stim-button","246","365459","0.0-2.0-50.2-1.2","5f47f3b013fe2f2537aba6da","F1","batch6","","435","tol_toboard","","","","tol_peg_1","435","435","0","[[1,0,0],[3,0],[2]]","3","[[1,2,0],[3,0],[0]]","13","0","","","","","","4","","","","","","","","",""
"","","","","","single-stim-button","247","366186","0.0-2.0-50.3-0.3","5f47f3b013fe2f2537aba6da","F1","batch6","","726","tol_tohand","","","","tol_peg_3","726","726","0","[[1,0,0],[3,0],[0]]","4","[[1,2,0],[3,0],[0]]","13","0","","","","","","4","","","","","","","","",""
"","","","","","single-stim-button","248","366669","0.0-2.0-50.3-1.3","5f47f3b013fe2f2537aba6da","F1","batch6","","482","tol_toboard","","","","tol_peg_1","482","482","0","[[1,2,0],[3,0],[0]]","4","[[1,2,0],[3,0],[0]]","13","0","","","","","","4","","","","","","","","",""
"","","","","","poldrack-single-stim","249","367679","0.0-2.0-51.0","5f47f3b013fe2f2537aba6da","F1","batch6","","-1","tol_feedback","","","true","","1000","1000","500","","","","","","-1","none","true","3973","5365","","","","","","","","","",""
"","","","","","html-button-response","250","368284","0.0-2.0-52.0","5f47f3b013fe2f2537aba6da","F1","batch6","","603.9000000953674","tol_trial_num","<div class = centerbox><p class = center-block-text>problem <strong>15</strong> out of 25 problems</p></div>","0","","","","","","","","","","","","","","","","","","","","","","","","",""
"","","","","","single-stim-button","251","370738","0.0-2.0-53.0-0.0","5f47f3b013fe2f2537aba6da","F1","batch6","","2453","tol_tohand","","","","tol_peg_1","2453","2453","0","[[1,0,0],[3,0],[0]]","1","[[2,0,0],[3,0],[1]]","14","0","","","","","","3","","","","","","","","",""
"","","","","","single-stim-button","252","371063","0.0-2.0-53.0-1.0","5f47f3b013fe2f2537aba6da","F1","batch6","","324","tol_toboard","","","","tol_peg_2","324","324","0","[[1,0,0],[3,2],[0]]","1","[[2,0,0],[3,0],[1]]","14","0","","","","","","3","","","","","","","","",""
"","","","","","single-stim-button","253","371364","0.0-2.0-53.1-0.1","5f47f3b013fe2f2537aba6da","F1","batch6","","300","tol_tohand","","","","tol_peg_1","300","300","0","[[0,0,0],[3,2],[0]]","2","[[2,0,0],[3,0],[1]]","14","0","","","","","","3","","","","","","","","",""
"","","","","","single-stim-button","254","371704","0.0-2.0-53.1-1.1","5f47f3b013fe2f2537aba6da","F1","batch6","","339","tol_toboard","","","","tol_peg_3","339","339","0","[[0,0,0],[3,2],[1]]","2","[[2,0,0],[3,0],[1]]","14","0","","","","","","3","","","","","","","","",""
"","","","","","single-stim-button","255","372170","0.0-2.0-53.2-0.2","5f47f3b013fe2f2537aba6da","F1","batch6","","465","tol_tohand","","","","tol_peg_2","465","465","0","[[0,0,0],[3,0],[1]]","3","[[2,0,0],[3,0],[1]]","14","0","","","","","","3","","","","","","","","",""
"","","","","","single-stim-button","256","372480","0.0-2.0-53.2-1.2","5f47f3b013fe2f2537aba6da","F1","batch6","","309","tol_toboard","","","","tol_peg_1","309","309","0","[[2,0,0],[3,0],[1]]","3","[[2,0,0],[3,0],[1]]","14","0","","","","","","3","","","","","","","","",""
"","","","","","poldrack-single-stim","257","373486","0.0-2.0-54.0","5f47f3b013fe2f2537aba6da","F1","batch6","","-1","tol_feedback","","","true","","1000","1000","500","","","","","","-1","none","true","2453","3218","","","","","","","","","",""
"","","","","","html-button-response","258","373945","0.0-2.0-55.0","5f47f3b013fe2f2537aba6da","F1","batch6","","457","tol_trial_num","<div class = centerbox><p class = center-block-text>problem <strong>16</strong> out of 25 problems</p></div>","0","","","","","","","","","","","","","","","","","","","","","","","","",""
"","","","","","single-stim-button","259","376494","0.0-2.0-56.0-0.0","5f47f3b013fe2f2537aba6da","F1","batch6","","2548","tol_tohand","","","","tol_peg_2","2548","2548","0","[[0,0,0],[2,0],[1]]","1","[[2,3,0],[1,0],[0]]","15","0","","","","","","7","","","","","","","","",""
"","","","","","single-stim-button","260","377910","0.0-2.0-56.0-1.0","5f47f3b013fe2f2537aba6da","F1","batch6","","1414","tol_toboard","","","","tol_peg_2","1414","1414","0","[[0,0,0],[2,3],[1]]","1","[[2,3,0],[1,0],[0]]","15","0","","","","","","7","","","","","","","","",""
"","","","","","single-stim-button","261","378606","0.0-2.0-56.1-0.1","5f47f3b013fe2f2537aba6da","F1","batch6","","696","tol_tohand","","","","tol_peg_2","696","696","0","[[0,0,0],[2,0],[1]]","2","[[2,3,0],[1,0],[0]]","15","0","","","","","","7","","","","","","","","",""
"","","","","","single-stim-button","262","379889","0.0-2.0-56.1-1.1","5f47f3b013fe2f2537aba6da","F1","batch6","","1283","tol_toboard","","","","tol_peg_2","1283","1283","0","[[0,0,0],[2,3],[1]]","2","[[2,3,0],[1,0],[0]]","15","0","","","","","","7","","","","","","","","",""
"","","","","","single-stim-button","263","381733","0.0-2.0-56.2-0.2","5f47f3b013fe2f2537aba6da","F1","batch6","","1844","tol_tohand","","","","tol_peg_3","1844","1844","0","[[0,0,0],[2,3],[0]]","3","[[2,3,0],[1,0],[0]]","15","0","","","","","","7","","","","","","","","",""
"","","","","","single-stim-button","264","382233","0.0-2.0-56.2-1.2","5f47f3b013fe2f2537aba6da","F1","batch6","","499","tol_toboard","","","","tol_peg_1","499","499","0","[[1,0,0],[2,3],[0]]","3","[[2,3,0],[1,0],[0]]","15","0","","","","","","7","","","","","","","","",""
"","","","","","single-stim-button","265","382651","0.0-2.0-56.3-0.3","5f47f3b013fe2f2537aba6da","F1","batch6","","418","tol_tohand","","","","tol_peg_2","418","418","0","[[1,0,0],[2,0],[0]]","4","[[2,3,0],[1,0],[0]]","15","0","","","","","","7","","","","","","","","",""
"","","","","","single-stim-button","266","383079","0.0-2.0-56.3-1.3","5f47f3b013fe2f2537aba6da","F1","batch6","","427","tol_toboard","","","","tol_peg_3","427","427","0","[[1,0,0],[2,0],[3]]","4","[[2,3,0],[1,0],[0]]","15","0","","","","","","7","","","","","","","","",""
"","","","","","single-stim-button","267","388692","0.0-2.0-56.4-0.4","5f47f3b013fe2f2537aba6da","F1","batch6","","5612","tol_tohand","","","","tol_peg_2","5612","5612","0","[[1,0,0],[0,0],[3]]","5","[[2,3,0],[1,0],[0]]","15","0","","","","","","7","","","","","","","","",""
"","","","","","single-stim-button","268","389721","0.0-2.0-56.4-1.4","5f47f3b013fe2f2537aba6da","F1","batch6","","1028","tol_toboard","","","","tol_peg_2","1028","1028","0","[[1,0,0],[2,0],[3]]","5","[[2,3,0],[1,0],[0]]","15","0","","","","","","7","","","","","","","","",""
"","","","","","single-stim-button","269","390109","0.0-2.0-56.5-0.5","5f47f3b013fe2f2537aba6da","F1","batch6","","387","tol_tohand","","","","tol_peg_3","387","387","0","[[1,0,0],[2,0],[0]]","6","[[2,3,0],[1,0],[0]]","15","0","","","","","","7","","","","","","","","",""
"","","","","","single-stim-button","270","391416","0.0-2.0-56.5-1.5","5f47f3b013fe2f2537aba6da","F1","batch6","","1306","tol_toboard","","","","tol_peg_2","1306","1306","0","[[1,0,0],[2,3],[0]]","6","[[2,3,0],[1,0],[0]]","15","0","","","","","","7","","","","","","","","",""
"","","","","","single-stim-button","271","392152","0.0-2.0-56.6-0.6","5f47f3b013fe2f2537aba6da","F1","batch6","","736","tol_tohand","","","","tol_peg_2","736","736","0","[[1,0,0],[2,0],[0]]","7","[[2,3,0],[1,0],[0]]","15","0","","","","","","7","","","","","","","","",""
"","","","","","single-stim-button","272","392444","0.0-2.0-56.6-1.6","5f47f3b013fe2f2537aba6da","F1","batch6","","292","tol_toboard","","","","tol_peg_1","292","292","0","[[1,3,0],[2,0],[0]]","7","[[2,3,0],[1,0],[0]]","15","0","","","","","","7","","","","","","","","",""
"","","","","","single-stim-button","273","393069","0.0-2.0-56.7-0.7","5f47f3b013fe2f2537aba6da","F1","batch6","","625","tol_tohand","","","","tol_peg_2","625","625","0","[[1,3,0],[0,0],[0]]","8","[[2,3,0],[1,0],[0]]","15","0","","","","","","7","","","","","","","","",""
"","","","","","single-stim-button","274","393346","0.0-2.0-56.7-1.7","5f47f3b013fe2f2537aba6da","F1","batch6","","276","tol_toboard","","","","tol_peg_3","276","276","0","[[1,3,0],[0,0],[2]]","8","[[2,3,0],[1,0],[0]]","15","0","","","","","","7","","","","","","","","",""
"","","","","","single-stim-button","275","394947","0.0-2.0-56.8-0.8","5f47f3b013fe2f2537aba6da","F1","batch6","","1600","tol_tohand","","","","tol_peg_1","1600","1600","0","[[1,0,0],[0,0],[2]]","9","[[2,3,0],[1,0],[0]]","15","0","","","","","","7","","","","","","","","",""
"","","","","","single-stim-button","276","395288","0.0-2.0-56.8-1.8","5f47f3b013fe2f2537aba6da","F1","batch6","","340","tol_toboard","","","","tol_peg_2","340","340","0","[[1,0,0],[3,0],[2]]","9","[[2,3,0],[1,0],[0]]","15","0","","","","","","7","","","","","","","","",""
"","","","","","single-stim-button","277","395778","0.0-2.0-56.9-0.9","5f47f3b013fe2f2537aba6da","F1","batch6","","490","tol_tohand","","","","tol_peg_1","490","490","0","[[0,0,0],[3,0],[2]]","10","[[2,3,0],[1,0],[0]]","15","0","","","","","","7","","","","","","","","",""
"","","","","","single-stim-button","278","396088","0.0-2.0-56.9-1.9","5f47f3b013fe2f2537aba6da","F1","batch6","","308","tol_toboard","","","","tol_peg_2","308","308","0","[[0,0,0],[3,1],[2]]","10","[[2,3,0],[1,0],[0]]","15","0","","","","","","7","","","","","","","","",""
"","","","","","single-stim-button","279","396435","0.0-2.0-56.10-0.10","5f47f3b013fe2f2537aba6da","F1","batch6","","347","tol_tohand","","","","tol_peg_3","347","347","0","[[0,0,0],[3,1],[0]]","11","[[2,3,0],[1,0],[0]]","15","0","","","","","","7","","","","","","","","",""
"","","","","","single-stim-button","280","397551","0.0-2.0-56.10-1.10","5f47f3b013fe2f2537aba6da","F1","batch6","","1116","tol_toboard","","","","tol_peg_1","1116","1116","0","[[2,0,0],[3,1],[0]]","11","[[2,3,0],[1,0],[0]]","15","0","","","","","","7","","","","","","","","",""
"","","","","","single-stim-button","281","398145","0.0-2.0-56.11-0.11","5f47f3b013fe2f2537aba6da","F1","batch6","","593","tol_tohand","","","","tol_peg_2","593","593","0","[[2,0,0],[3,0],[0]]","12","[[2,3,0],[1,0],[0]]","15","0","","","","","","7","","","","","","","","",""
"","","","","","single-stim-button","282","398485","0.0-2.0-56.11-1.11","5f47f3b013fe2f2537aba6da","F1","batch6","","340","tol_toboard","","","","tol_peg_3","340","340","0","[[2,0,0],[3,0],[1]]","12","[[2,3,0],[1,0],[0]]","15","0","","","","","","7","","","","","","","","",""
"","","","","","single-stim-button","283","398961","0.0-2.0-56.12-0.12","5f47f3b013fe2f2537aba6da","F1","batch6","","474","tol_tohand","","","","tol_peg_2","474","474","0","[[2,0,0],[0,0],[1]]","13","[[2,3,0],[1,0],[0]]","15","0","","","","","","7","","","","","","","","",""
"","","","","","single-stim-button","284","399269","0.0-2.0-56.12-1.12","5f47f3b013fe2f2537aba6da","F1","batch6","","308","tol_toboard","","","","tol_peg_1","308","308","0","[[2,3,0],[0,0],[1]]","13","[[2,3,0],[1,0],[0]]","15","0","","","","","","7","","","","","","","","",""
"","","","","","single-stim-button","285","399625","0.0-2.0-56.13-0.13","5f47f3b013fe2f2537aba6da","F1","batch6","","355","tol_tohand","","","","tol_peg_3","355","355","0","[[2,3,0],[0,0],[0]]","14","[[2,3,0],[1,0],[0]]","15","0","","","","","","7","","","","","","","","",""
"","","","","","single-stim-button","286","399958","0.0-2.0-56.13-1.13","5f47f3b013fe2f2537aba6da","F1","batch6","","333","tol_toboard","","","","tol_peg_2","333","333","0","[[2,3,0],[1,0],[0]]","14","[[2,3,0],[1,0],[0]]","15","0","","","","","","7","","","","","","","","",""
"","","","","","poldrack-single-stim","287","400965","0.0-2.0-57.0","5f47f3b013fe2f2537aba6da","F1","batch6","","-1","tol_feedback","","","true","","1000","1000","500","","","","","","-1","none","true","2548","16725","","","","","","","","","",""
"","","","","","html-button-response","288","401486","0.0-2.0-58.0","5f47f3b013fe2f2537aba6da","F1","batch6","","520.2000000476837","tol_trial_num","<div class = centerbox><p class = center-block-text>problem <strong>17</strong> out of 25 problems</p></div>","0","","","","","","","","","","","","","","","","","","","","","","","","",""
"","","","","","single-stim-button","289","404376","0.0-2.0-59.0-0.0","5f47f3b013fe2f2537aba6da","F1","batch6","","2889","tol_tohand","","","","tol_peg_1","2889","2889","0","[[1,0,0],[3,0],[0]]","1","[[3,1,0],[2,0],[0]]","16","0","","","","","","5","","","","","","","","",""
"","","","","","single-stim-button","290","407724","0.0-2.0-59.0-1.0","5f47f3b013fe2f2537aba6da","F1","batch6","","3347","tol_toboard","","","","tol_peg_2","3347","3347","0","[[1,0,0],[3,2],[0]]","1","[[3,1,0],[2,0],[0]]","16","0","","","","","","5","","","","","","","","",""
"","","","","","single-stim-button","291","408144","0.0-2.0-59.1-0.1","5f47f3b013fe2f2537aba6da","F1","batch6","","419","tol_tohand","","","","tol_peg_1","419","419","0","[[0,0,0],[3,2],[0]]","2","[[3,1,0],[2,0],[0]]","16","0","","","","","","5","","","","","","","","",""
"","","","","","single-stim-button","292","408572","0.0-2.0-59.1-1.1","5f47f3b013fe2f2537aba6da","F1","batch6","","427","tol_toboard","","","","tol_peg_3","427","427","0","[[0,0,0],[3,2],[1]]","2","[[3,1,0],[2,0],[0]]","16","0","","","","","","5","","","","","","","","",""
"","","","","","single-stim-button","293","409380","0.0-2.0-59.2-0.2","5f47f3b013fe2f2537aba6da","F1","batch6","","808","tol_tohand","","","","tol_peg_2","808","808","0","[[0,0,0],[3,0],[1]]","3","[[3,1,0],[2,0],[0]]","16","0","","","","","","5","","","","","","","","",""
"","","","","","single-stim-button","294","411976","0.0-2.0-59.2-1.2","5f47f3b013fe2f2537aba6da","F1","batch6","","2595","tol_toboard","","","","tol_peg_1","2595","2595","0","[[2,0,0],[3,0],[1]]","3","[[3,1,0],[2,0],[0]]","16","0","","","","","","5","","","","","","","","",""
"","","","","","single-stim-button","295","413212","0.0-2.0-59.3-0.3","5f47f3b013fe2f2537aba6da","F1","batch6","","1235","tol_tohand","","","","tol_peg_3","1235","1235","0","[[2,0,0],[3,0],[0]]","4","[[3,1,0],[2,0],[0]]","16","0","","","","","","5","","","","","","","","",""
"","","","","","single-stim-button","296","413656","0.0-2.0-59.3-1.3","5f47f3b013fe2f2537aba6da","F1","batch6","","442","tol_toboard","","","","tol_peg_1","442","442","0","[[2,1,0],[3,0],[0]]","4","[[3,1,0],[2,0],[0]]","16","0","","","","","","5","","","","","","","","",""
"","","","","","single-stim-button","297","413932","0.0-2.0-59.4-0.4","5f47f3b013fe2f2537aba6da","F1","batch6","","276","tol_tohand","","","","tol_peg_2","276","276","0","[[2,1,0],[0,0],[0]]","5","[[3,1,0],[2,0],[0]]","16","0","","","","","","5","","","","","","","","",""
"","","","","","single-stim-button","298","414209","0.0-2.0-59.4-1.4","5f47f3b013fe2f2537aba6da","F1","batch6","","276","tol_toboard","","","","tol_peg_3","276","276","0","[[2,1,0],[0,0],[3]]","5","[[3,1,0],[2,0],[0]]","16","0","","","","","","5","","","","","","","","",""
"","","","","","single-stim-button","299","414796","0.0-2.0-59.5-0.5","5f47f3b013fe2f2537aba6da","F1","batch6","","585","tol_tohand","","","","tol_peg_1","585","585","0","[[2,0,0],[0,0],[3]]","6","[[3,1,0],[2,0],[0]]","16","0","","","","","","5","","","","","","","","",""
"","","","","","single-stim-button","300","415144","0.0-2.0-59.5-1.5","5f47f3b013fe2f2537aba6da","F1","batch6","","347","tol_toboard","","","","tol_peg_2","347","347","0","[[2,0,0],[1,0],[3]]","6","[[3,1,0],[2,0],[0]]","16","0","","","","","","5","","","","","","","","",""
"","","","","","single-stim-button","301","415501","0.0-2.0-59.6-0.6","5f47f3b013fe2f2537aba6da","F1","batch6","","357","tol_tohand","","","","tol_peg_1","357","357","0","[[0,0,0],[1,0],[3]]","7","[[3,1,0],[2,0],[0]]","16","0","","","","","","5","","","","","","","","",""
"","","","","","single-stim-button","302","415793","0.0-2.0-59.6-1.6","5f47f3b013fe2f2537aba6da","F1","batch6","","290","tol_toboard","","","","tol_peg_2","290","290","0","[[0,0,0],[1,2],[3]]","7","[[3,1,0],[2,0],[0]]","16","0","","","","","","5","","","","","","","","",""
"","","","","","single-stim-button","303","416110","0.0-2.0-59.7-0.7","5f47f3b013fe2f2537aba6da","F1","batch6","","316","tol_tohand","","","","tol_peg_3","316","316","0","[[0,0,0],[1,2],[0]]","8","[[3,1,0],[2,0],[0]]","16","0","","","","","","5","","","","","","","","",""
"","","","","","single-stim-button","304","416473","0.0-2.0-59.7-1.7","5f47f3b013fe2f2537aba6da","F1","batch6","","363","tol_toboard","","","","tol_peg_1","363","363","0","[[3,0,0],[1,2],[0]]","8","[[3,1,0],[2,0],[0]]","16","0","","","","","","5","","","","","","","","",""
"","","","","","single-stim-button","305","416925","0.0-2.0-59.8-0.8","5f47f3b013fe2f2537aba6da","F1","batch6","","450","tol_tohand","","","","tol_peg_2","450","450","0","[[3,0,0],[1,0],[0]]","9","[[3,1,0],[2,0],[0]]","16","0","","","","","","5","","","","","","","","",""
"","","","","","single-stim-button","306","417542","0.0-2.0-59.8-1.8","5f47f3b013fe2f2537aba6da","F1","batch6","","616","tol_toboard","","","","tol_peg_3","616","616","0","[[3,0,0],[1,0],[2]]","9","[[3,1,0],[2,0],[0]]","16","0","","","","","","5","","","","","","","","",""
"","","","","","single-stim-button","307","417890","0.0-2.0-59.9-0.9","5f47f3b013fe2f2537aba6da","F1","batch6","","347","tol_tohand","","","","tol_peg_2","347","347","0","[[3,0,0],[0,0],[2]]","10","[[3,1,0],[2,0],[0]]","16","0","","","","","","5","","","","","","","","",""
"","","","","","single-stim-button","308","418184","0.0-2.0-59.9-1.9","5f47f3b013fe2f2537aba6da","F1","batch6","","293","tol_toboard","","","","tol_peg_1","293","293","0","[[3,1,0],[0,0],[2]]","10","[[3,1,0],[2,0],[0]]","16","0","","","","","","5","","","","","","","","",""
"","","","","","single-stim-button","309","419790","0.0-2.0-59.10-0.10","5f47f3b013fe2f2537aba6da","F1","batch6","","1605","tol_tohand","","","","tol_peg_3","1605","1605","0","[[3,1,0],[0,0],[0]]","11","[[3,1,0],[2,0],[0]]","16","0","","","","","","5","","","","","","","","",""
"","","","","","single-stim-button","310","420131","0.0-2.0-59.10-1.10","5f47f3b013fe2f2537aba6da","F1","batch6","","339","tol_toboard","","","","tol_peg_2","339","339","0","[[3,1,0],[2,0],[0]]","11","[[3,1,0],[2,0],[0]]","16","0","","","","","","5","","","","","","","","",""
"","","","","","poldrack-single-stim","311","421136","0.0-2.0-60.0","5f47f3b013fe2f2537aba6da","F1","batch6","","-1","tol_feedback","","","true","","1000","1000","500","","","","","","-1","none","true","2889","9287","","","","","","","","","",""
"","","","","","html-button-response","312","421619","0.0-2.0-61.0","5f47f3b013fe2f2537aba6da","F1","batch6","","482.09999990463257","tol_trial_num","<div class = centerbox><p class = center-block-text>problem <strong>18</strong> out of 25 problems</p></div>","0","","","","","","","","","","","","","","","","","","","","","","","","",""
"","","","","","single-stim-button","313","424248","0.0-2.0-62.0-0.0","5f47f3b013fe2f2537aba6da","F1","batch6","","2628","tol_tohand","","","","tol_peg_1","2628","2628","0","[[1,0,0],[3,0],[0]]","1","[[3,0,0],[2,0],[1]]","17","0","","","","","","5","","","","","","","","",""
"","","","","","single-stim-button","314","424825","0.0-2.0-62.0-1.0","5f47f3b013fe2f2537aba6da","F1","batch6","","576","tol_toboard","","","","tol_peg_2","576","576","0","[[1,0,0],[3,2],[0]]","1","[[3,0,0],[2,0],[1]]","17","0","","","","","","5","","","","","","","","",""
"","","","","","single-stim-button","315","425158","0.0-2.0-62.1-0.1","5f47f3b013fe2f2537aba6da","F1","batch6","","332","tol_tohand","","","","tol_peg_1","332","332","0","[[0,0,0],[3,2],[0]]","2","[[3,0,0],[2,0],[1]]","17","0","","","","","","5","","","","","","","","",""
"","","","","","single-stim-button","316","425649","0.0-2.0-62.1-1.1","5f47f3b013fe2f2537aba6da","F1","batch6","","490","tol_toboard","","","","tol_peg_3","490","490","0","[[0,0,0],[3,2],[1]]","2","[[3,0,0],[2,0],[1]]","17","0","","","","","","5","","","","","","","","",""
"","","","","","single-stim-button","317","426694","0.0-2.0-62.2-0.2","5f47f3b013fe2f2537aba6da","F1","batch6","","1044","tol_tohand","","","","tol_peg_2","1044","1044","0","[[0,0,0],[3,0],[1]]","3","[[3,0,0],[2,0],[1]]","17","0","","","","","","5","","","","","","","","",""
"","","","","","single-stim-button","318","426995","0.0-2.0-62.2-1.2","5f47f3b013fe2f2537aba6da","F1","batch6","","300","tol_toboard","","","","tol_peg_1","300","300","0","[[2,0,0],[3,0],[1]]","3","[[3,0,0],[2,0],[1]]","17","0","","","","","","5","","","","","","","","",""
"","","","","","single-stim-button","319","427336","0.0-2.0-62.3-0.3","5f47f3b013fe2f2537aba6da","F1","batch6","","339","tol_tohand","","","","tol_peg_2","339","339","0","[[2,0,0],[0,0],[1]]","4","[[3,0,0],[2,0],[1]]","17","0","","","","","","5","","","","","","","","",""
"","","","","","single-stim-button","320","427668","0.0-2.0-62.3-1.3","5f47f3b013fe2f2537aba6da","F1","batch6","","332","tol_toboard","","","","tol_peg_1","332","332","0","[[2,3,0],[0,0],[1]]","4","[[3,0,0],[2,0],[1]]","17","0","","","","","","5","","","","","","","","",""
"","","","","","single-stim-button","321","428657","0.0-2.0-62.4-0.4","5f47f3b013fe2f2537aba6da","F1","batch6","","988","tol_tohand","","","","tol_peg_3","988","988","0","[[2,3,0],[0,0],[0]]","5","[[3,0,0],[2,0],[1]]","17","0","","","","","","5","","","","","","","","",""
"","","","","","single-stim-button","322","428997","0.0-2.0-62.4-1.4","5f47f3b013fe2f2537aba6da","F1","batch6","","339","tol_toboard","","","","tol_peg_2","339","339","0","[[2,3,0],[1,0],[0]]","5","[[3,0,0],[2,0],[1]]","17","0","","","","","","5","","","","","","","","",""
"","","","","","single-stim-button","323","429331","0.0-2.0-62.5-0.5","5f47f3b013fe2f2537aba6da","F1","batch6","","332","tol_tohand","","","","tol_peg_1","332","332","0","[[2,0,0],[1,0],[0]]","6","[[3,0,0],[2,0],[1]]","17","0","","","","","","5","","","","","","","","",""
"","","","","","single-stim-button","324","429949","0.0-2.0-62.5-1.5","5f47f3b013fe2f2537aba6da","F1","batch6","","617","tol_toboard","","","","tol_peg_3","617","617","0","[[2,0,0],[1,0],[3]]","6","[[3,0,0],[2,0],[1]]","17","0","","","","","","5","","","","","","","","",""
"","","","","","single-stim-button","325","430376","0.0-2.0-62.6-0.6","5f47f3b013fe2f2537aba6da","F1","batch6","","425","tol_tohand","","","","tol_peg_1","425","425","0","[[0,0,0],[1,0],[3]]","7","[[3,0,0],[2,0],[1]]","17","0","","","","","","5","","","","","","","","",""
"","","","","","single-stim-button","326","431214","0.0-2.0-62.6-1.6","5f47f3b013fe2f2537aba6da","F1","batch6","","838","tol_toboard","","","","tol_peg_2","838","838","0","[[0,0,0],[1,2],[3]]","7","[[3,0,0],[2,0],[1]]","17","0","","","","","","5","","","","","","","","",""
"","","","","","single-stim-button","327","432172","0.0-2.0-62.7-0.7","5f47f3b013fe2f2537aba6da","F1","batch6","","957","tol_tohand","","","","tol_peg_3","957","957","0","[[0,0,0],[1,2],[0]]","8","[[3,0,0],[2,0],[1]]","17","0","","","","","","5","","","","","","","","",""
"","","","","","single-stim-button","328","432822","0.0-2.0-62.7-1.7","5f47f3b013fe2f2537aba6da","F1","batch6","","649","tol_toboard","","","","tol_peg_1","649","649","0","[[3,0,0],[1,2],[0]]","8","[[3,0,0],[2,0],[1]]","17","0","","","","","","5","","","","","","","","",""
"","","","","","single-stim-button","329","433281","0.0-2.0-62.8-0.8","5f47f3b013fe2f2537aba6da","F1","batch6","","457","tol_tohand","","","","tol_peg_2","457","457","0","[[3,0,0],[1,0],[0]]","9","[[3,0,0],[2,0],[1]]","17","0","","","","","","5","","","","","","","","",""
"","","","","","single-stim-button","330","433566","0.0-2.0-62.8-1.8","5f47f3b013fe2f2537aba6da","F1","batch6","","285","tol_toboard","","","","tol_peg_1","285","285","0","[[3,2,0],[1,0],[0]]","9","[[3,0,0],[2,0],[1]]","17","0","","","","","","5","","","","","","","","",""
"","","","","","single-stim-button","331","433883","0.0-2.0-62.9-0.9","5f47f3b013fe2f2537aba6da","F1","batch6","","315","tol_tohand","","","","tol_peg_2","315","315","0","[[3,2,0],[0,0],[0]]","10","[[3,0,0],[2,0],[1]]","17","0","","","","","","5","","","","","","","","",""
"","","","","","single-stim-button","332","434176","0.0-2.0-62.9-1.9","5f47f3b013fe2f2537aba6da","F1","batch6","","292","tol_toboard","","","","tol_peg_3","292","292","0","[[3,2,0],[0,0],[1]]","10","[[3,0,0],[2,0],[1]]","17","0","","","","","","5","","","","","","","","",""
"","","","","","single-stim-button","333","434793","0.0-2.0-62.10-0.10","5f47f3b013fe2f2537aba6da","F1","batch6","","616","tol_tohand","","","","tol_peg_1","616","616","0","[[3,0,0],[0,0],[1]]","11","[[3,0,0],[2,0],[1]]","17","0","","","","","","5","","","","","","","","",""
"","","","","","single-stim-button","334","435118","0.0-2.0-62.10-1.10","5f47f3b013fe2f2537aba6da","F1","batch6","","324","tol_toboard","","","","tol_peg_2","324","324","0","[[3,0,0],[2,0],[1]]","11","[[3,0,0],[2,0],[1]]","17","0","","","","","","5","","","","","","","","",""
"","","","","","poldrack-single-stim","335","436129","0.0-2.0-63.0","5f47f3b013fe2f2537aba6da","F1","batch6","","-1","tol_feedback","","","true","","1000","1000","500","","","","","","-1","none","true","2628","8433","","","","","","","","","",""
"","","","","","html-button-response","336","436740","0.0-2.0-64.0","5f47f3b013fe2f2537aba6da","F1","batch6","","610.2999999523163","tol_trial_num","<div class = centerbox><p class = center-block-text>problem <strong>19</strong> out of 25 problems</p></div>","0","","","","","","","","","","","","","","","","","","","","","","","","",""
"","","","","","single-stim-button","337","438110","0.0-2.0-65.0-0.0","5f47f3b013fe2f2537aba6da","F1","batch6","","1369","tol_tohand","","","","tol_peg_2","1369","1369","0","[[1,2,0],[0,0],[0]]","1","[[0,0,0],[1,2],[3]]","18","0","","","","","","7","","","","","","","","",""
"","","","","","single-stim-button","338","438727","0.0-2.0-65.0-1.0","5f47f3b013fe2f2537aba6da","F1","batch6","","616","tol_toboard","","","","tol_peg_3","616","616","0","[[1,2,0],[0,0],[3]]","1","[[0,0,0],[1,2],[3]]","18","0","","","","","","7","","","","","","","","",""
"","","","","","single-stim-button","339","441506","0.0-2.0-65.1-0.1","5f47f3b013fe2f2537aba6da","F1","batch6","","2777","tol_tohand","","","","tol_peg_3","2777","2777","0","[[1,2,0],[0,0],[0]]","2","[[0,0,0],[1,2],[3]]","18","0","","","","","","7","","","","","","","","",""
"","","","","","single-stim-button","340","442860","0.0-2.0-65.1-1.1","5f47f3b013fe2f2537aba6da","F1","batch6","","1353","tol_toboard","","","","tol_peg_2","1353","1353","0","[[1,2,0],[3,0],[0]]","2","[[0,0,0],[1,2],[3]]","18","0","","","","","","7","","","","","","","","",""
"","","","","","single-stim-button","341","443233","0.0-2.0-65.2-0.2","5f47f3b013fe2f2537aba6da","F1","batch6","","371","tol_tohand","","","","tol_peg_1","371","371","0","[[1,0,0],[3,0],[0]]","3","[[0,0,0],[1,2],[3]]","18","0","","","","","","7","","","","","","","","",""
"","","","","","single-stim-button","342","443533","0.0-2.0-65.2-1.2","5f47f3b013fe2f2537aba6da","F1","batch6","","300","tol_toboard","","","","tol_peg_2","300","300","0","[[1,0,0],[3,2],[0]]","3","[[0,0,0],[1,2],[3]]","18","0","","","","","","7","","","","","","","","",""
"","","","","","single-stim-button","343","443866","0.0-2.0-65.3-0.3","5f47f3b013fe2f2537aba6da","F1","batch6","","332","tol_tohand","","","","tol_peg_1","332","332","0","[[0,0,0],[3,2],[0]]","4","[[0,0,0],[1,2],[3]]","18","0","","","","","","7","","","","","","","","",""
"","","","","","single-stim-button","344","444832","0.0-2.0-65.3-1.3","5f47f3b013fe2f2537aba6da","F1","batch6","","964","tol_toboard","","","","tol_peg_3","964","964","0","[[0,0,0],[3,2],[1]]","4","[[0,0,0],[1,2],[3]]","18","0","","","","","","7","","","","","","","","",""
"","","","","","single-stim-button","345","445362","0.0-2.0-65.4-0.4","5f47f3b013fe2f2537aba6da","F1","batch6","","530","tol_tohand","","","","tol_peg_2","530","530","0","[[0,0,0],[3,0],[1]]","5","[[0,0,0],[1,2],[3]]","18","0","","","","","","7","","","","","","","","",""
"","","","","","single-stim-button","346","445798","0.0-2.0-65.4-1.4","5f47f3b013fe2f2537aba6da","F1","batch6","","434","tol_toboard","","","","tol_peg_1","434","434","0","[[2,0,0],[3,0],[1]]","5","[[0,0,0],[1,2],[3]]","18","0","","","","","","7","","","","","","","","",""
"","","","","","single-stim-button","347","446193","0.0-2.0-65.5-0.5","5f47f3b013fe2f2537aba6da","F1","batch6","","395","tol_tohand","","","","tol_peg_2","395","395","0","[[2,0,0],[0,0],[1]]","6","[[0,0,0],[1,2],[3]]","18","0","","","","","","7","","","","","","","","",""
"","","","","","single-stim-button","348","446447","0.0-2.0-65.5-1.5","5f47f3b013fe2f2537aba6da","F1","batch6","","253","tol_toboard","","","","tol_peg_1","253","253","0","[[2,3,0],[0,0],[1]]","6","[[0,0,0],[1,2],[3]]","18","0","","","","","","7","","","","","","","","",""
"","","","","","single-stim-button","349","446985","0.0-2.0-65.6-0.6","5f47f3b013fe2f2537aba6da","F1","batch6","","537","tol_tohand","","","","tol_peg_3","537","537","0","[[2,3,0],[0,0],[0]]","7","[[0,0,0],[1,2],[3]]","18","0","","","","","","7","","","","","","","","",""
"","","","","","single-stim-button","350","447428","0.0-2.0-65.6-1.6","5f47f3b013fe2f2537aba6da","F1","batch6","","442","tol_toboard","","","","tol_peg_2","442","442","0","[[2,3,0],[1,0],[0]]","7","[[0,0,0],[1,2],[3]]","18","0","","","","","","7","","","","","","","","",""
"","","","","","single-stim-button","351","447904","0.0-2.0-65.7-0.7","5f47f3b013fe2f2537aba6da","F1","batch6","","475","tol_tohand","","","","tol_peg_1","475","475","0","[[2,0,0],[1,0],[0]]","8","[[0,0,0],[1,2],[3]]","18","0","","","","","","7","","","","","","","","",""
"","","","","","single-stim-button","352","448267","0.0-2.0-65.7-1.7","5f47f3b013fe2f2537aba6da","F1","batch6","","362","tol_toboard","","","","tol_peg_3","362","362","0","[[2,0,0],[1,0],[3]]","8","[[0,0,0],[1,2],[3]]","18","0","","","","","","7","","","","","","","","",""
"","","","","","single-stim-button","353","448782","0.0-2.0-65.8-0.8","5f47f3b013fe2f2537aba6da","F1","batch6","","514","tol_tohand","","","","tol_peg_1","514","514","0","[[0,0,0],[1,0],[3]]","9","[[0,0,0],[1,2],[3]]","18","0","","","","","","7","","","","","","","","",""
"","","","","","single-stim-button","354","449519","0.0-2.0-65.8-1.8","5f47f3b013fe2f2537aba6da","F1","batch6","","735","tol_toboard","","","","tol_peg_2","735","735","0","[[0,0,0],[1,2],[3]]","9","[[0,0,0],[1,2],[3]]","18","0","","","","","","7","","","","","","","","",""
"","","","","","poldrack-single-stim","355","450529","0.0-2.0-66.0","5f47f3b013fe2f2537aba6da","F1","batch6","","-1","tol_feedback","","","true","","1000","1000","500","","","","","","-1","none","true","1369","7300","","","","","","","","","",""
"","","","","","html-button-response","356","451157","0.0-2.0-67.0","5f47f3b013fe2f2537aba6da","F1","batch6","","626.8999999761581","tol_trial_num","<div class = centerbox><p class = center-block-text>problem <strong>20</strong> out of 25 problems</p></div>","0","","","","","","","","","","","","","","","","","","","","","","","","",""
