"success","timeout","failed_images","failed_audio","failed_video","trial_type","trial_index","time_elapsed","internal_node_id","subject_id","study_id","session_id","view_history","rt","stimulus","response","task","correct","answer","item","fiar_detect_rt","fiar_detect_correct","total_correct_fiar_detect","post_trial_gap","choices","mouse_click","stim_duration","block_duration","timing_post_trial","current_position","tol_num_moves_made","tol_target","tol_problem_id","tol_rt","key_press","possible_responses","tol_correct","preplanning","tol_rt_per_trial","tol_min_moves","spm_correct","spm_rt"
"true","false","[]","[]","[]","preload","0","655","0.0-0.0","5f489766dbc4a2364c0f4f93","B2","batch2","","","","","","","","","","","","","","","","","","","","","","","","","","","","","",""
"true","","","","","fullscreen","1","12198","0.0-1.0-0.0","5f489766dbc4a2364c0f4f93","B2","batch2","","","","","","","","","","","","","","","","","","","","","","","","","","","","","",""
"true","","","","","fullscreen","2","16441","0.0-2.0-0.0","5f489766dbc4a2364c0f4f93","B2","batch2","","","","","","","","","","","","","","","","","","","","","","","","","","","","","",""
"","","","","","instructions","3","37420","0.0-2.0-1.0-0.0","5f489766dbc4a2364c0f4f93","B2","batch2","[{""page_index"":0,""viewing_time"":12761},{""page_index"":1,""viewing_time"":8216.70000000298}]","20977.79999999702","","","","","","","","","","","","","","","","","","","","","","","","","","","",""
"","","","","","html-button-response","4","39387","0.0-2.0-1.0-1.0-0.0","5f489766dbc4a2364c0f4f93","B2","batch2","","1966.2000000029802","<p class=block-text> Let's answer a few questions <br>","0","pattern_enter_quiz","","","","","","","","","","","","","","","","","","","","","","","","",""
"","","","","","html-button-response","5","44795","0.0-2.0-1.0-1.0-1.0","5f489766dbc4a2364c0f4f93","B2","batch2","","5407.5","<p class = block-text>True or False: You will have as much time as you want to make each choice. <br></p>","0","pattern_quiz","false","","","","","","","","","","","","","","","","","","","","","","","",""
"","","","","","html-button-response","6","47627","0.0-2.0-1.0-1.0-2.0","5f489766dbc4a2364c0f4f93","B2","batch2","","2831","<p class = block-text>Incorrect. Remember, You should make your choice as fast as you can.</p>","0","pattern_quiz_feedback","","","","","","","","","","","","","","","","","","","","","","","","",""
"","","","","","html-button-response","7","51739","0.0-2.0-1.0-1.0-3.0","5f489766dbc4a2364c0f4f93","B2","batch2","","4111.399999991059","<p class = block-text>True or False: You will look for 4 pieces in black or white color connected in a row either horizontally, vertically or diagonally. <br></p>","0","pattern_quiz","true","","","","","","","","","","","","","","","","","","","","","","","",""
"","","","","","html-button-response","8","52867","0.0-2.0-1.0-1.0-4.0","5f489766dbc4a2364c0f4f93","B2","batch2","","1127.2000000029802","<p class = block-text>Correct! </p>","0","pattern_quiz_feedback","","","","","","","","","","","","","","","","","","","","","","","","",""
"","","","","","html-button-response","9","55347","0.0-2.0-1.0-2.0-0.0","5f489766dbc4a2364c0f4f93","B2","batch2","","2479.2000000029802","<p class = block-text>You made too many incorrect choices.</p><p class = block-text>You will now repeat the instruction and quiz</p>","0","","","","","","","","","","","","","","","","","","","","","","","","","",""
"","","","","","instructions","10","63522","0.0-2.0-1.1-0.1","5f489766dbc4a2364c0f4f93","B2","batch2","[{""page_index"":0,""viewing_time"":6286.29999999702},{""page_index"":1,""viewing_time"":1888.2000000029802}]","8174.5999999940395","","","","","","","","","","","","","","","","","","","","","","","","","","","",""
"","","","","","html-button-response","11","64859","0.0-2.0-1.1-1.1-0.1","5f489766dbc4a2364c0f4f93","B2","batch2","","1335.7999999970198","<p class=block-text> Let's answer a few questions <br>","0","pattern_enter_quiz","","","","","","","","","","","","","","","","","","","","","","","","",""
"","","","","","html-button-response","12","67427","0.0-2.0-1.1-1.1-1.1","5f489766dbc4a2364c0f4f93","B2","batch2","","2567.7000000029802","<p class = block-text>True or False: You will have as much time as you want to make each choice. <br></p>","1","pattern_quiz","true","","","","","","","","","","","","","","","","","","","","","","","",""
"","","","","","html-button-response","13","69011","0.0-2.0-1.1-1.1-2.1","5f489766dbc4a2364c0f4f93","B2","batch2","","1583.2000000029802","<p class = block-text>Correct! You should make your choice <strong> as fast as you can</strong>.</p>","0","pattern_quiz_feedback","","","","","","","","","","","","","","","","","","","","","","","","",""
"","","","","","html-button-response","14","71746","0.0-2.0-1.1-1.1-3.1","5f489766dbc4a2364c0f4f93","B2","batch2","","2734.3999999910593","<p class = block-text>True or False: You will look for 4 pieces in black or white color connected in a row either horizontally, vertically or diagonally. <br></p>","0","pattern_quiz","true","","","","","","","","","","","","","","","","","","","","","","","",""
"","","","","","html-button-response","15","72771","0.0-2.0-1.1-1.1-4.1","5f489766dbc4a2364c0f4f93","B2","batch2","","1024.2000000029802","<p class = block-text>Correct! </p>","0","pattern_quiz_feedback","","","","","","","","","","","","","","","","","","","","","","","","",""
"","","","","","html-button-response","16","74946","0.0-2.0-2.0","5f489766dbc4a2364c0f4f93","B2","batch2","","2174.3999999910593","<p class=block-text> Now that you've understood the game, let's do a few practice trials before we start!<br> <br>","0","pattern_enter_practice","","","","","","","","","","","","","","","","","","","","","","","","",""
"","","","","","image-keyboard-response","17","79077","0.0-2.0-3.0-0.0","5f489766dbc4a2364c0f4f93","B2","batch2","","4128.5","stim/prac_yes_18_hor_w1.png","f","pattern_practice","true","f","","","","","","","","","","","","","","","","","","","","","","",""
"","","","","","html-keyboard-response","18","80081","0.0-2.0-3.0-1.0","5f489766dbc4a2364c0f4f93","B2","batch2","","null","<p style=""font-size:30px;color:green;"">Correct!</p>","null","pattern_feedback","","","","","","","","","","","","","","","","","","","","","","","","",""
"","","","","","image-keyboard-response","19","83379","0.0-2.0-3.0-0.1","5f489766dbc4a2364c0f4f93","B2","batch2","","3296.1000000089407","stim/prac_no_16_1.png","j","pattern_practice","true","j","","","","","","","","","","","","","","","","","","","","","","",""
"","","","","","html-keyboard-response","20","84393","0.0-2.0-3.0-1.1","5f489766dbc4a2364c0f4f93","B2","batch2","","null","<p style=""font-size:30px;color:green;"">Correct!</p>","null","pattern_feedback","","","","","","","","","","","","","","","","","","","","","","","","",""
"","","","","","image-keyboard-response","21","88436","0.0-2.0-3.0-0.2","5f489766dbc4a2364c0f4f93","B2","batch2","","4039.6000000089407","stim/prac_no_18_1.png","j","pattern_practice","true","j","","","","","","","","","","","","","","","","","","","","","","",""
"","","","","","html-keyboard-response","22","89438","0.0-2.0-3.0-1.2","5f489766dbc4a2364c0f4f93","B2","batch2","","null","<p style=""font-size:30px;color:green;"">Correct!</p>","null","pattern_feedback","","","","","","","","","","","","","","","","","","","","","","","","",""
"","","","","","image-keyboard-response","23","92516","0.0-2.0-3.0-0.3","5f489766dbc4a2364c0f4f93","B2","batch2","","3076.5999999940395","stim/prac_yes_16_ver_w1.png","f","pattern_practice","true","f","","","","","","","","","","","","","","","","","","","","","","",""
"","","","","","html-keyboard-response","24","93533","0.0-2.0-3.0-1.3","5f489766dbc4a2364c0f4f93","B2","batch2","","null","<p style=""font-size:30px;color:green;"">Correct!</p>","null","pattern_feedback","","","","","","","","","","","","","","","","","","","","","","","","",""
"","","","","","image-keyboard-response","25","100307","0.0-2.0-3.0-0.4","5f489766dbc4a2364c0f4f93","B2","batch2","","6773","stim/prac_yes_20_dia_b1.png","f","pattern_practice","true","f","","","","","","","","","","","","","","","","","","","","","","",""
"","","","","","html-keyboard-response","26","101320","0.0-2.0-3.0-1.4","5f489766dbc4a2364c0f4f93","B2","batch2","","null","<p style=""font-size:30px;color:green;"">Correct!</p>","null","pattern_feedback","","","","","","","","","","","","","","","","","","","","","","","","",""
"","","","","","html-button-response","27","120885","0.0-2.0-4.0","5f489766dbc4a2364c0f4f93","B2","batch2","","19569","<p class=block-text> Good job! You are done with practice trials!<br>
        You responded correctly on 100% of the trials.<br>
        Press the button below to start official trials. Now you won't see any feedback about your response</p>","0","pattern_enter_official_trials","","","","","","","","","","","","","","","","","","","","","","","","",""
"","","","","","html-keyboard-response","28","121693","0.0-2.0-5.0-0.0","5f489766dbc4a2364c0f4f93","B2","batch2","","null","<p class=block-text>Trial 1 out of 78</p>","null","pattern_show_trial_num","","","","","","","","","","","","","","","","","","","","","","","","",""
"","","","","","image-keyboard-response","29","129340","0.0-2.0-5.0-1.0","5f489766dbc4a2364c0f4f93","B2","batch2","","7644.300000011921","stim/no_58_1_w.png","j","pattern_response","true","j","pattern_35","7644.300000011921","true","1","","","","","","","","","","","","","","","","","","",""
"","","","","","html-keyboard-response","30","130656","0.0-2.0-5.0-0.1","5f489766dbc4a2364c0f4f93","B2","batch2","","null","<p class=block-text>Trial 2 out of 78</p>","null","pattern_show_trial_num","","","","","","","","","","","","","","","","","","","","","","","","",""
"","","","","","image-keyboard-response","31","134894","0.0-2.0-5.0-1.1","5f489766dbc4a2364c0f4f93","B2","batch2","","4236","stim/no_28_2.png","j","pattern_response","true","j","pattern_11","4236","true","2","","","","","","","","","","","","","","","","","","",""
"","","","","","html-keyboard-response","32","136203","0.0-2.0-5.0-0.2","5f489766dbc4a2364c0f4f93","B2","batch2","","null","<p class=block-text>Trial 3 out of 78</p>","null","pattern_show_trial_num","","","","","","","","","","","","","","","","","","","","","","","","",""
"","","","","","image-keyboard-response","33","139765","0.0-2.0-5.0-1.2","5f489766dbc4a2364c0f4f93","B2","batch2","","3559.7999999970198","stim/yes_49_hor_w1_b.png","f","pattern_response","true","f","pattern_70","3559.7999999970198","true","3","","","","","","","","","","","","","","","","","","",""
"","","","","","html-keyboard-response","34","141081","0.0-2.0-5.0-0.3","5f489766dbc4a2364c0f4f93","B2","batch2","","null","<p class=block-text>Trial 4 out of 78</p>","null","pattern_show_trial_num","","","","","","","","","","","","","","","","","","","","","","","","",""
"","","","","","image-keyboard-response","35","146910","0.0-2.0-5.0-1.3","5f489766dbc4a2364c0f4f93","B2","batch2","","5826.20000000298","stim/no_36_1_b.png","j","pattern_response","true","j","pattern_17","5826.20000000298","true","4","","","","","","","","","","","","","","","","","","",""
"","","","","","html-keyboard-response","36","148229","0.0-2.0-5.0-0.4","5f489766dbc4a2364c0f4f93","B2","batch2","","null","<p class=block-text>Trial 5 out of 78</p>","null","pattern_show_trial_num","","","","","","","","","","","","","","","","","","","","","","","","",""
"","","","","","image-keyboard-response","37","162357","0.0-2.0-5.0-1.4","5f489766dbc4a2364c0f4f93","B2","batch2","","14126.5","stim/yes_70_ver_b1.png","f","pattern_response","true","f","pattern_80","14126.5","true","5","","","","","","","","","","","","","","","","","","",""
"","","","","","html-keyboard-response","38","163673","0.0-2.0-5.0-0.5","5f489766dbc4a2364c0f4f93","B2","batch2","","null","<p class=block-text>Trial 6 out of 78</p>","null","pattern_show_trial_num","","","","","","","","","","","","","","","","","","","","","","","","",""
"","","","","","image-keyboard-response","39","171237","0.0-2.0-5.0-1.5","5f489766dbc4a2364c0f4f93","B2","batch2","","7563","stim/no_45_1_w.png","j","pattern_response","true","j","pattern_25","7563","true","6","","","","","","","","","","","","","","","","","","",""
"","","","","","html-keyboard-response","40","172545","0.0-2.0-5.0-0.6","5f489766dbc4a2364c0f4f93","B2","batch2","","null","<p class=block-text>Trial 7 out of 78</p>","null","pattern_show_trial_num","","","","","","","","","","","","","","","","","","","","","","","","",""
"","","","","","image-keyboard-response","41","181067","0.0-2.0-5.0-1.6","5f489766dbc4a2364c0f4f93","B2","batch2","","8530.199999988079","stim/no_39_1_w.png","j","pattern_response","true","j","pattern_21","8530.199999988079","true","7","","","","","","","","","","","","","","","","","","",""
"","","","","","html-keyboard-response","42","182378","0.0-2.0-5.0-0.7","5f489766dbc4a2364c0f4f93","B2","batch2","","null","<p class=block-text>Trial 8 out of 78</p>","null","pattern_show_trial_num","","","","","","","","","","","","","","","","","","","","","","","","",""
"","","","","","image-keyboard-response","43","191711","0.0-2.0-5.0-1.7","5f489766dbc4a2364c0f4f93","B2","batch2","","9329.5","stim/no_49_2_b.png","j","pattern_response","true","j","pattern_29","9329.5","true","8","","","","","","","","","","","","","","","","","","",""
"","","","","","html-keyboard-response","44","193026","0.0-2.0-5.0-0.8","5f489766dbc4a2364c0f4f93","B2","batch2","","null","<p class=block-text>Trial 9 out of 78</p>","null","pattern_show_trial_num","","","","","","","","","","","","","","","","","","","","","","","","",""
"","","","","","image-keyboard-response","45","202528","0.0-2.0-5.0-1.8","5f489766dbc4a2364c0f4f93","B2","batch2","","9500.39999999106","stim/yes_58_dia_w1_w.png","f","pattern_response","true","f","pattern_76","9500.39999999106","true","9","","","","","","","","","","","","","","","","","","",""
"","","","","","html-keyboard-response","46","203839","0.0-2.0-5.0-0.9","5f489766dbc4a2364c0f4f93","B2","batch2","","null","<p class=block-text>Trial 10 out of 78</p>","null","pattern_show_trial_num","","","","","","","","","","","","","","","","","","","","","","","","",""
"","","","","","image-keyboard-response","47","205236","0.0-2.0-5.0-1.9","5f489766dbc4a2364c0f4f93","B2","batch2","","1395.7000000029802","stim/yes_12_hor_w1_w.png","f","pattern_response","true","f","pattern_42","1395.7000000029802","true","10","","","","","","","","","","","","","","","","","","",""
"","","","","","html-keyboard-response","48","206556","0.0-2.0-5.0-0.10","5f489766dbc4a2364c0f4f93","B2","batch2","","null","<p class=block-text>Trial 11 out of 78</p>","null","pattern_show_trial_num","","","","","","","","","","","","","","","","","","","","","","","","",""
"","","","","","image-keyboard-response","49","207724","0.0-2.0-5.0-1.10","5f489766dbc4a2364c0f4f93","B2","batch2","","1166.5","stim/yes_29_hor_b1_b.png","f","pattern_response","true","f","pattern_52","1166.5","true","11","","","","","","","","","","","","","","","","","","",""
"","","","","","html-keyboard-response","50","209038","0.0-2.0-5.0-0.11","5f489766dbc4a2364c0f4f93","B2","batch2","","null","<p class=block-text>Trial 12 out of 78</p>","null","pattern_show_trial_num","","","","","","","","","","","","","","","","","","","","","","","","",""
"","","","","","image-keyboard-response","51","211309","0.0-2.0-5.0-1.11","5f489766dbc4a2364c0f4f93","B2","batch2","","2269.2999999970198","stim/no_15_1_w.png","j","pattern_response","true","j","pattern_03","2269.2999999970198","true","12","","","","","","","","","","","","","","","","","","",""
"","","","","","html-keyboard-response","52","212629","0.0-2.0-5.0-0.12","5f489766dbc4a2364c0f4f93","B2","batch2","","null","<p class=block-text>Trial 13 out of 78</p>","null","pattern_show_trial_num","","","","","","","","","","","","","","","","","","","","","","","","",""
"","","","","","image-keyboard-response","53","214094","0.0-2.0-5.0-1.12","5f489766dbc4a2364c0f4f93","B2","batch2","","1461.800000011921","stim/yes_23_ver_b1.png","f","pattern_response","true","f","pattern_48","1461.800000011921","true","13","","","","","","","","","","","","","","","","","","",""
"","","","","","html-keyboard-response","54","215404","0.0-2.0-5.0-0.13","5f489766dbc4a2364c0f4f93","B2","batch2","","null","<p class=block-text>Trial 14 out of 78</p>","null","pattern_show_trial_num","","","","","","","","","","","","","","","","","","","","","","","","",""
"","","","","","image-keyboard-response","55","216286","0.0-2.0-5.0-1.13","5f489766dbc4a2364c0f4f93","B2","batch2","","880","stim/yes_36_ver_w1_w.png","f","pattern_response","true","f","pattern_58","880","true","14","","","","","","","","","","","","","","","","","","",""
"","","","","","html-keyboard-response","56","217592","0.0-2.0-5.0-0.14","5f489766dbc4a2364c0f4f93","B2","batch2","","null","<p class=block-text>Trial 15 out of 78</p>","null","pattern_show_trial_num","","","","","","","","","","","","","","","","","","","","","","","","",""
"","","","","","image-keyboard-response","57","218693","0.0-2.0-5.0-1.14","5f489766dbc4a2364c0f4f93","B2","batch2","","1099.5","stim/yes_39_hor_w1_w.png","f","pattern_response","true","f","pattern_62","1099.5","true","15","","","","","","","","","","","","","","","","","","",""
"","","","","","html-keyboard-response","58","220007","0.0-2.0-5.0-0.15","5f489766dbc4a2364c0f4f93","B2","batch2","","null","<p class=block-text>Trial 16 out of 78</p>","null","pattern_show_trial_num","","","","","","","","","","","","","","","","","","","","","","","","",""
"","","","","","image-keyboard-response","59","233110","0.0-2.0-5.0-1.15","5f489766dbc4a2364c0f4f93","B2","batch2","","13100.5","stim/no_67_1.png","j","pattern_response","true","j","pattern_39","13100.5","true","16","","","","","","","","","","","","","","","","","","",""
"","","","","","html-keyboard-response","60","234425","0.0-2.0-5.0-0.16","5f489766dbc4a2364c0f4f93","B2","batch2","","null","<p class=block-text>Trial 17 out of 78</p>","null","pattern_show_trial_num","","","","","","","","","","","","","","","","","","","","","","","","",""
"","","","","","image-keyboard-response","61","246746","0.0-2.0-5.0-1.16","5f489766dbc4a2364c0f4f93","B2","batch2","","12328.39999999106","stim/yes_63_dia_b1.png","j","pattern_response","false","f","pattern_78","12328.39999999106","false","16","","","","","","","","","","","","","","","","","","",""
"","","","","","html-keyboard-response","62","248052","0.0-2.0-5.0-0.17","5f489766dbc4a2364c0f4f93","B2","batch2","","null","<p class=block-text>Trial 18 out of 78</p>","null","pattern_show_trial_num","","","","","","","","","","","","","","","","","","","","","","","","",""
"","","","","","image-keyboard-response","63","253875","0.0-2.0-5.0-1.17","5f489766dbc4a2364c0f4f93","B2","batch2","","5821.29999999702","stim/no_47_1_b.png","j","pattern_response","true","j","pattern_27","5821.29999999702","true","17","","","","","","","","","","","","","","","","","","",""
"","","","","","html-keyboard-response","64","255191","0.0-2.0-5.0-0.18","5f489766dbc4a2364c0f4f93","B2","batch2","","null","<p class=block-text>Trial 19 out of 78</p>","null","pattern_show_trial_num","","","","","","","","","","","","","","","","","","","","","","","","",""
"","","","","","image-keyboard-response","65","256804","0.0-2.0-5.0-1.18","5f489766dbc4a2364c0f4f93","B2","batch2","","1610.1000000089407","stim/yes_37_hor_w1_w.png","f","pattern_response","true","f","pattern_60","1610.1000000089407","true","18","","","","","","","","","","","","","","","","","","",""
"","","","","","html-keyboard-response","66","258112","0.0-2.0-5.0-0.19","5f489766dbc4a2364c0f4f93","B2","batch2","","null","<p class=block-text>Trial 20 out of 78</p>","null","pattern_show_trial_num","","","","","","","","","","","","","","","","","","","","","","","","",""
"","","","","","image-keyboard-response","67","262906","0.0-2.0-5.0-1.19","5f489766dbc4a2364c0f4f93","B2","batch2","","4790.899999991059","stim/no_25_1_b.png","j","pattern_response","true","j","pattern_09","4790.899999991059","true","19","","","","","","","","","","","","","","","","","","",""
"","","","","","html-keyboard-response","68","264221","0.0-2.0-5.0-0.20","5f489766dbc4a2364c0f4f93","B2","batch2","","null","<p class=block-text>Trial 21 out of 78</p>","null","pattern_show_trial_num","","","","","","","","","","","","","","","","","","","","","","","","",""
"","","","","","image-keyboard-response","69","275668","0.0-2.0-5.0-1.20","5f489766dbc4a2364c0f4f93","B2","batch2","","11442.70000000298","stim/no_53_1_b.png","j","pattern_response","true","j","pattern_33","11442.70000000298","true","20","","","","","","","","","","","","","","","","","","",""
"","","","","","html-keyboard-response","70","276990","0.0-2.0-5.0-0.21","5f489766dbc4a2364c0f4f93","B2","batch2","","null","<p class=block-text>Trial 22 out of 78</p>","null","pattern_show_trial_num","","","","","","","","","","","","","","","","","","","","","","","","",""
"","","","","","image-keyboard-response","71","284723","0.0-2.0-5.0-1.21","5f489766dbc4a2364c0f4f93","B2","batch2","","7729.79999999702","stim/no_33_1_b.png","j","pattern_response","true","j","pattern_15","7729.79999999702","true","21","","","","","","","","","","","","","","","","","","",""
"","","","","","html-keyboard-response","72","286038","0.0-2.0-5.0-0.22","5f489766dbc4a2364c0f4f93","B2","batch2","","null","<p class=block-text>Trial 23 out of 78</p>","null","pattern_show_trial_num","","","","","","","","","","","","","","","","","","","","","","","","",""
"","","","","","image-keyboard-response","73","287452","0.0-2.0-5.0-1.22","5f489766dbc4a2364c0f4f93","B2","batch2","","1411","stim/no_12_1.png","j","pattern_response","true","j","pattern_01","1411","true","22","","","","","","","","","","","","","","","","","","",""
"","","","","","html-keyboard-response","74","288763","0.0-2.0-5.0-0.23","5f489766dbc4a2364c0f4f93","B2","batch2","","null","<p class=block-text>Trial 24 out of 78</p>","null","pattern_show_trial_num","","","","","","","","","","","","","","","","","","","","","","","","",""
"","","","","","image-keyboard-response","75","290140","0.0-2.0-5.0-1.23","5f489766dbc4a2364c0f4f93","B2","batch2","","1375","stim/yes_30_ver_b1_b.png","f","pattern_response","true","f","pattern_54","1375","true","23","","","","","","","","","","","","","","","","","","",""
"","","","","","html-keyboard-response","76","291447","0.0-2.0-5.0-0.24","5f489766dbc4a2364c0f4f93","B2","batch2","","null","<p class=block-text>Trial 25 out of 78</p>","null","pattern_show_trial_num","","","","","","","","","","","","","","","","","","","","","","","","",""
"","","","","","image-keyboard-response","77","301699","0.0-2.0-5.0-1.24","5f489766dbc4a2364c0f4f93","B2","batch2","","10249.59999999404","stim/no_43_2_b.png","j","pattern_response","true","j","pattern_23","10249.59999999404","true","24","","","","","","","","","","","","","","","","","","",""
"","","","","","html-keyboard-response","78","303011","0.0-2.0-5.0-0.25","5f489766dbc4a2364c0f4f93","B2","batch2","","null","<p class=block-text>Trial 26 out of 78</p>","null","pattern_show_trial_num","","","","","","","","","","","","","","","","","","","","","","","","",""
"","","","","","image-keyboard-response","79","311114","0.0-2.0-5.0-1.25","5f489766dbc4a2364c0f4f93","B2","batch2","","8108.9000000059605","stim/no_51_1.png","f","pattern_response","false","j","pattern_31","8108.9000000059605","false","24","","","","","","","","","","","","","","","","","","",""
"","","","","","html-keyboard-response","80","312426","0.0-2.0-5.0-0.26","5f489766dbc4a2364c0f4f93","B2","batch2","","null","<p class=block-text>Trial 27 out of 78</p>","null","pattern_show_trial_num","","","","","","","","","","","","","","","","","","","","","","","","",""
"","","","","","image-keyboard-response","81","314265","0.0-2.0-5.0-1.26","5f489766dbc4a2364c0f4f93","B2","batch2","","1838","stim/yes_44_ver_w1_w.png","f","pattern_response","true","f","pattern_66","1838","true","25","","","","","","","","","","","","","","","","","","",""
"","","","","","html-keyboard-response","82","315577","0.0-2.0-5.0-0.27","5f489766dbc4a2364c0f4f93","B2","batch2","","null","<p class=block-text>Trial 28 out of 78</p>","null","pattern_show_trial_num","","","","","","","","","","","","","","","","","","","","","","","","",""
"","","","","","image-keyboard-response","83","317657","0.0-2.0-5.0-1.27","5f489766dbc4a2364c0f4f93","B2","batch2","","2079.199999988079","stim/yes_46_ver_b1_b.png","f","pattern_response","true","f","pattern_68","2079.199999988079","true","26","","","","","","","","","","","","","","","","","","",""
"","","","","","html-keyboard-response","84","318977","0.0-2.0-5.0-0.28","5f489766dbc4a2364c0f4f93","B2","batch2","","null","<p class=block-text>Trial 29 out of 78</p>","null","pattern_show_trial_num","","","","","","","","","","","","","","","","","","","","","","","","",""
"","","","","","image-keyboard-response","85","328474","0.0-2.0-5.0-1.28","5f489766dbc4a2364c0f4f93","B2","batch2","","9495.5","stim/no_37_2_w.png","j","pattern_response","true","j","pattern_19","9495.5","true","27","","","","","","","","","","","","","","","","","","",""
"","","","","","html-keyboard-response","86","329779","0.0-2.0-5.0-0.29","5f489766dbc4a2364c0f4f93","B2","batch2","","null","<p class=block-text>Trial 30 out of 78</p>","null","pattern_show_trial_num","","","","","","","","","","","","","","","","","","","","","","","","",""
"","","","","","image-keyboard-response","87","333769","0.0-2.0-5.0-1.29","5f489766dbc4a2364c0f4f93","B2","batch2","","3988.2000000029802","stim/yes_42_dia_w1_w.png","f","pattern_response","true","f","pattern_64","3988.2000000029802","true","28","","","","","","","","","","","","","","","","","","",""
"","","","","","html-keyboard-response","88","335083","0.0-2.0-5.0-0.30","5f489766dbc4a2364c0f4f93","B2","batch2","","null","<p class=block-text>Trial 31 out of 78</p>","null","pattern_show_trial_num","","","","","","","","","","","","","","","","","","","","","","","","",""
"","","","","","image-keyboard-response","89","336136","0.0-2.0-5.0-1.30","5f489766dbc4a2364c0f4f93","B2","batch2","","1049.9000000059605","stim/yes_15_dia_b1u_b.png","f","pattern_response","true","f","pattern_44","1049.9000000059605","true","29","","","","","","","","","","","","","","","","","","",""
"","","","","","html-keyboard-response","90","337461","0.0-2.0-5.0-0.31","5f489766dbc4a2364c0f4f93","B2","batch2","","null","<p class=block-text>Trial 32 out of 78</p>","null","pattern_show_trial_num","","","","","","","","","","","","","","","","","","","","","","","","",""
"","","","","","image-keyboard-response","91","338802","0.0-2.0-5.0-1.31","5f489766dbc4a2364c0f4f93","B2","batch2","","1339.9000000059605","stim/yes_26_dia_w2_w.png","f","pattern_response","true","f","pattern_50","1339.9000000059605","true","30","","","","","","","","","","","","","","","","","","",""
"","","","","","html-keyboard-response","92","340112","0.0-2.0-5.0-0.32","5f489766dbc4a2364c0f4f93","B2","batch2","","null","<p class=block-text>Trial 33 out of 78</p>","null","pattern_show_trial_num","","","","","","","","","","","","","","","","","","","","","","","","",""
"","","","","","image-keyboard-response","93","344001","0.0-2.0-5.0-1.32","5f489766dbc4a2364c0f4f93","B2","batch2","","3887.7000000029802","stim/yes_53_ver_b1_b.png","f","pattern_response","true","f","pattern_74","3887.7000000029802","true","31","","","","","","","","","","","","","","","","","","",""
"","","","","","html-keyboard-response","94","345317","0.0-2.0-5.0-0.33","5f489766dbc4a2364c0f4f93","B2","batch2","","null","<p class=block-text>Trial 34 out of 78</p>","null","pattern_show_trial_num","","","","","","","","","","","","","","","","","","","","","","","","",""
"","","","","","image-keyboard-response","95","351331","0.0-2.0-5.0-1.33","5f489766dbc4a2364c0f4f93","B2","batch2","","6010.79999999702","stim/no_30_1_b.png","j","pattern_response","true","j","pattern_13","6010.79999999702","true","32","","","","","","","","","","","","","","","","","","",""
"","","","","","html-keyboard-response","96","352651","0.0-2.0-5.0-0.34","5f489766dbc4a2364c0f4f93","B2","batch2","","null","<p class=block-text>Trial 35 out of 78</p>","null","pattern_show_trial_num","","","","","","","","","","","","","","","","","","","","","","","","",""
"","","","","","image-keyboard-response","97","355345","0.0-2.0-5.0-1.34","5f489766dbc4a2364c0f4f93","B2","batch2","","2692.7999999970198","stim/no_18_1_b.png","j","pattern_response","true","j","pattern_05","2692.7999999970198","true","33","","","","","","","","","","","","","","","","","","",""
"","","","","","html-keyboard-response","98","356663","0.0-2.0-5.0-0.35","5f489766dbc4a2364c0f4f93","B2","batch2","","null","<p class=block-text>Trial 36 out of 78</p>","null","pattern_show_trial_num","","","","","","","","","","","","","","","","","","","","","","","","",""
"","","","","","image-keyboard-response","99","362841","0.0-2.0-5.0-1.35","5f489766dbc4a2364c0f4f93","B2","batch2","","6176.9000000059605","stim/yes_51_dia_b1.png","f","pattern_response","true","f","pattern_72","6176.9000000059605","true","34","","","","","","","","","","","","","","","","","","",""
"","","","","","html-keyboard-response","100","364143","0.0-2.0-5.0-0.36","5f489766dbc4a2364c0f4f93","B2","batch2","","null","<p class=block-text>Trial 37 out of 78</p>","null","pattern_show_trial_num","","","","","","","","","","","","","","","","","","","","","","","","",""
"","","","","","image-keyboard-response","101","365186","0.0-2.0-5.0-1.36","5f489766dbc4a2364c0f4f93","B2","batch2","","1039.5999999940395","stim/yes_17_ver_b1_b.png","f","pattern_response","true","f","pattern_46","1039.5999999940395","true","35","","","","","","","","","","","","","","","","","","",""
"","","","","","html-keyboard-response","102","366496","0.0-2.0-5.0-0.37","5f489766dbc4a2364c0f4f93","B2","batch2","","null","<p class=block-text>Trial 38 out of 78</p>","null","pattern_show_trial_num","","","","","","","","","","","","","","","","","","","","","","","","",""
"","","","","","image-keyboard-response","103","370217","0.0-2.0-5.0-1.37","5f489766dbc4a2364c0f4f93","B2","batch2","","3719.2000000029802","stim/no_22_1_b.png","j","pattern_response","true","j","pattern_07","3719.2000000029802","true","36","","","","","","","","","","","","","","","","","","",""
"","","","","","html-keyboard-response","104","371522","0.0-2.0-5.0-0.38","5f489766dbc4a2364c0f4f93","B2","batch2","","null","<p class=block-text>Trial 39 out of 78</p>","null","pattern_show_trial_num","","","","","","","","","","","","","","","","","","","","","","","","",""
"","","","","","image-keyboard-response","105","376874","0.0-2.0-5.0-1.38","5f489766dbc4a2364c0f4f93","B2","batch2","","5350.9000000059605","stim/yes_33_dia_w1_w.png","j","pattern_response","false","f","pattern_56","5350.9000000059605","false","36","","","","","","","","","","","","","","","","","","",""
"","","","","","image-keyboard-response","106","379058","0.0-2.0-6.0","5f489766dbc4a2364c0f4f93","B2","batch2","","1678.9000000059605","stim/empty_board.png","j","attention_check","true","j","","","","","500","[""f"",""j""]","","","","","","","","","","","","","","","","",""
"","","","","","html-keyboard-response","107","379867","0.0-2.0-7.0-0.0","5f489766dbc4a2364c0f4f93","B2","batch2","","null","<p class=block-text>Trial 40 out of 78</p>","null","pattern_show_trial_num","","","","","","","","","","","","","","","","","","","","","","","","",""
"","","","","","image-keyboard-response","108","382002","0.0-2.0-7.0-1.0","5f489766dbc4a2364c0f4f93","B2","batch2","","2131.7999999970198","stim/yes_45_hor_b2_b.png","f","pattern_response","true","f","pattern_67","2131.7999999970198","true","37","","","","","","","","","","","","","","","","","","",""
"","","","","","html-keyboard-response","109","383314","0.0-2.0-7.0-0.1","5f489766dbc4a2364c0f4f93","B2","batch2","","null","<p class=block-text>Trial 41 out of 78</p>","null","pattern_show_trial_num","","","","","","","","","","","","","","","","","","","","","","","","",""
"","","","","","image-keyboard-response","110","384505","0.0-2.0-7.0-1.1","5f489766dbc4a2364c0f4f93","B2","batch2","","1188.7000000029802","stim/yes_25_hor_b1_b.png","f","pattern_response","true","f","pattern_49","1188.7000000029802","true","38","","","","","","","","","","","","","","","","","","",""
"","","","","","html-keyboard-response","111","385819","0.0-2.0-7.0-0.2","5f489766dbc4a2364c0f4f93","B2","batch2","","null","<p class=block-text>Trial 42 out of 78</p>","null","pattern_show_trial_num","","","","","","","","","","","","","","","","","","","","","","","","",""
"","","","","","image-keyboard-response","112","396995","0.0-2.0-7.0-1.2","5f489766dbc4a2364c0f4f93","B2","batch2","","11172.89999999106","stim/yes_48_dia_w1_w.png","j","pattern_response","false","f","pattern_69","11172.89999999106","false","38","","","","","","","","","","","","","","","","","","",""
"","","","","","html-keyboard-response","113","398304","0.0-2.0-7.0-0.3","5f489766dbc4a2364c0f4f93","B2","batch2","","null","<p class=block-text>Trial 43 out of 78</p>","null","pattern_show_trial_num","","","","","","","","","","","","","","","","","","","","","","","","",""
"","","","","","image-keyboard-response","114","399937","0.0-2.0-7.0-1.3","5f489766dbc4a2364c0f4f93","B2","batch2","","1629.9000000059605","stim/yes_38_hor_b1_b.png","f","pattern_response","true","f","pattern_61","1629.9000000059605","true","39","","","","","","","","","","","","","","","","","","",""
"","","","","","html-keyboard-response","115","401243","0.0-2.0-7.0-0.4","5f489766dbc4a2364c0f4f93","B2","batch2","","null","<p class=block-text>Trial 44 out of 78</p>","null","pattern_show_trial_num","","","","","","","","","","","","","","","","","","","","","","","","",""
"","","","","","image-keyboard-response","116","406586","0.0-2.0-7.0-1.4","5f489766dbc4a2364c0f4f93","B2","batch2","","5341.5","stim/no_29_1_b.png","j","pattern_response","true","j","pattern_12","5341.5","true","40","","","","","","","","","","","","","","","","","","",""
"","","","","","html-keyboard-response","117","407902","0.0-2.0-7.0-0.5","5f489766dbc4a2364c0f4f93","B2","batch2","","null","<p class=block-text>Trial 45 out of 78</p>","null","pattern_show_trial_num","","","","","","","","","","","","","","","","","","","","","","","","",""
"","","","","","image-keyboard-response","118","416898","0.0-2.0-7.0-1.5","5f489766dbc4a2364c0f4f93","B2","batch2","","8994","stim/no_42_1_w.png","j","pattern_response","true","j","pattern_22","8994","true","41","","","","","","","","","","","","","","","","","","",""
"","","","","","html-keyboard-response","119","418207","0.0-2.0-7.0-0.6","5f489766dbc4a2364c0f4f93","B2","batch2","","null","<p class=block-text>Trial 46 out of 78</p>","null","pattern_show_trial_num","","","","","","","","","","","","","","","","","","","","","","","","",""
"","","","","","image-keyboard-response","120","420178","0.0-2.0-7.0-1.6","5f489766dbc4a2364c0f4f93","B2","batch2","","1967.2999999970198","stim/no_17_1_w.png","j","pattern_response","true","j","pattern_04","1967.2999999970198","true","42","","","","","","","","","","","","","","","","","","",""
"","","","","","html-keyboard-response","121","421490","0.0-2.0-7.0-0.7","5f489766dbc4a2364c0f4f93","B2","batch2","","null","<p class=block-text>Trial 47 out of 78</p>","null","pattern_show_trial_num","","","","","","","","","","","","","","","","","","","","","","","","",""
"","","","","","image-keyboard-response","122","431241","0.0-2.0-7.0-1.7","5f489766dbc4a2364c0f4f93","B2","batch2","","9750.29999999702","stim/no_52_1.png","j","pattern_response","true","j","pattern_32","9750.29999999702","true","43","","","","","","","","","","","","","","","","","","",""
"","","","","","html-keyboard-response","123","432543","0.0-2.0-7.0-0.8","5f489766dbc4a2364c0f4f93","B2","batch2","","null","<p class=block-text>Trial 48 out of 78</p>","null","pattern_show_trial_num","","","","","","","","","","","","","","","","","","","","","","","","",""
"","","","","","image-keyboard-response","124","433905","0.0-2.0-7.0-1.8","5f489766dbc4a2364c0f4f93","B2","batch2","","1359","stim/yes_22_ver_w1.png","f","pattern_response","true","f","pattern_47","1359","true","44","","","","","","","","","","","","","","","","","","",""
"","","","","","html-keyboard-response","125","435218","0.0-2.0-7.0-0.9","5f489766dbc4a2364c0f4f93","B2","batch2","","null","<p class=block-text>Trial 49 out of 78</p>","null","pattern_show_trial_num","","","","","","","","","","","","","","","","","","","","","","","","",""
"","","","","","image-keyboard-response","126","436401","0.0-2.0-7.0-1.9","5f489766dbc4a2364c0f4f93","B2","batch2","","1181","stim/yes_43_ver_w1_w.png","f","pattern_response","true","f","pattern_65","1181","true","45","","","","","","","","","","","","","","","","","","",""
"","","","","","html-keyboard-response","127","437716","0.0-2.0-7.0-0.10","5f489766dbc4a2364c0f4f93","B2","batch2","","null","<p class=block-text>Trial 50 out of 78</p>","null","pattern_show_trial_num","","","","","","","","","","","","","","","","","","","","","","","","",""
"","","","","","image-keyboard-response","128","439760","0.0-2.0-7.0-1.10","5f489766dbc4a2364c0f4f93","B2","batch2","","2042.6000000089407","stim/yes_52_ver_w1.png","f","pattern_response","true","f","pattern_73","2042.6000000089407","true","46","","","","","","","","","","","","","","","","","","",""
"","","","","","html-keyboard-response","129","441072","0.0-2.0-7.0-0.11","5f489766dbc4a2364c0f4f93","B2","batch2","","null","<p class=block-text>Trial 51 out of 78</p>","null","pattern_show_trial_num","","","","","","","","","","","","","","","","","","","","","","","","",""
"","","","","","image-keyboard-response","130","448265","0.0-2.0-7.0-1.11","5f489766dbc4a2364c0f4f93","B2","batch2","","7190.9000000059605","stim/no_38_1_b.png","j","pattern_response","true","j","pattern_20","7190.9000000059605","true","47","","","","","","","","","","","","","","","","","","",""
"","","","","","html-keyboard-response","131","449577","0.0-2.0-7.0-0.12","5f489766dbc4a2364c0f4f93","B2","batch2","","null","<p class=block-text>Trial 52 out of 78</p>","null","pattern_show_trial_num","","","","","","","","","","","","","","","","","","","","","","","","",""
"","","","","","image-keyboard-response","132","459832","0.0-2.0-7.0-1.12","5f489766dbc4a2364c0f4f93","B2","batch2","","10252.29999999702","stim/no_65_1_b.png","j","pattern_response","true","j","pattern_38","10252.29999999702","true","48","","","","","","","","","","","","","","","","","","",""
"","","","","","html-keyboard-response","133","461140","0.0-2.0-7.0-0.13","5f489766dbc4a2364c0f4f93","B2","batch2","","null","<p class=block-text>Trial 53 out of 78</p>","null","pattern_show_trial_num","","","","","","","","","","","","","","","","","","","","","","","","",""
"","","","","","image-keyboard-response","134","465281","0.0-2.0-7.0-1.13","5f489766dbc4a2364c0f4f93","B2","batch2","","4137.300000011921","stim/no_32_1_w.png","j","pattern_response","true","j","pattern_14","4137.300000011921","true","49","","","","","","","","","","","","","","","","","","",""
"","","","","","html-keyboard-response","135","466590","0.0-2.0-7.0-0.14","5f489766dbc4a2364c0f4f93","B2","batch2","","null","<p class=block-text>Trial 54 out of 78</p>","null","pattern_show_trial_num","","","","","","","","","","","","","","","","","","","","","","","","",""
"","","","","","image-keyboard-response","136","472082","0.0-2.0-7.0-1.14","5f489766dbc4a2364c0f4f93","B2","batch2","","5489.20000000298","stim/yes_40_dia_b1_b.png","j","pattern_response","false","f","pattern_63","5489.20000000298","false","49","","","","","","","","","","","","","","","","","","",""
"","","","","","html-keyboard-response","137","473401","0.0-2.0-7.0-0.15","5f489766dbc4a2364c0f4f93","B2","batch2","","null","<p class=block-text>Trial 55 out of 78</p>","null","pattern_show_trial_num","","","","","","","","","","","","","","","","","","","","","","","","",""
"","","","","","image-keyboard-response","138","478497","0.0-2.0-7.0-1.15","5f489766dbc4a2364c0f4f93","B2","batch2","","5094.5","stim/yes_35_dia_b1.png","f","pattern_response","true","f","pattern_57","5094.5","true","50","","","","","","","","","","","","","","","","","","",""
"","","","","","html-keyboard-response","139","479809","0.0-2.0-7.0-0.16","5f489766dbc4a2364c0f4f93","B2","batch2","","null","<p class=block-text>Trial 56 out of 78</p>","null","pattern_show_trial_num","","","","","","","","","","","","","","","","","","","","","","","","",""
"","","","","","image-keyboard-response","140","490826","0.0-2.0-7.0-1.16","5f489766dbc4a2364c0f4f93","B2","batch2","","11013.60000000894","stim/no_70_2.png","j","pattern_response","true","j","pattern_40","11013.60000000894","true","51","","","","","","","","","","","","","","","","","","",""
"","","","","","html-keyboard-response","141","492121","0.0-2.0-7.0-0.17","5f489766dbc4a2364c0f4f93","B2","batch2","","null","<p class=block-text>Trial 57 out of 78</p>","null","pattern_show_trial_num","","","","","","","","","","","","","","","","","","","","","","","","",""
"","","","","","image-keyboard-response","142","499767","0.0-2.0-7.0-1.17","5f489766dbc4a2364c0f4f93","B2","batch2","","7645.20000000298","stim/yes_50_dia_w1.png","j","pattern_response","false","f","pattern_71","7645.20000000298","false","51","","","","","","","","","","","","","","","","","","",""
"","","","","","html-keyboard-response","143","501077","0.0-2.0-7.0-0.18","5f489766dbc4a2364c0f4f93","B2","batch2","","null","<p class=block-text>Trial 58 out of 78</p>","null","pattern_show_trial_num","","","","","","","","","","","","","","","","","","","","","","","","",""
"","","","","","image-keyboard-response","144","507800","0.0-2.0-7.0-1.18","5f489766dbc4a2364c0f4f93","B2","batch2","","6720.70000000298","stim/yes_37_dia_w1.png","f","pattern_response","true","f","pattern_59","6720.70000000298","true","52","","","","","","","","","","","","","","","","","","",""
"","","","","","html-keyboard-response","145","509116","0.0-2.0-7.0-0.19","5f489766dbc4a2364c0f4f93","B2","batch2","","null","<p class=block-text>Trial 59 out of 78</p>","null","pattern_show_trial_num","","","","","","","","","","","","","","","","","","","","","","","","",""
"","","","","","image-keyboard-response","146","510688","0.0-2.0-7.0-1.19","5f489766dbc4a2364c0f4f93","B2","batch2","","1570.5999999940395","stim/yes_28_ver_b1.png","f","pattern_response","true","f","pattern_51","1570.5999999940395","true","53","","","","","","","","","","","","","","","","","","",""
"","","","","","html-keyboard-response","147","511999","0.0-2.0-7.0-0.20","5f489766dbc4a2364c0f4f93","B2","batch2","","null","<p class=block-text>Trial 60 out of 78</p>","null","pattern_show_trial_num","","","","","","","","","","","","","","","","","","","","","","","","",""
"","","","","","image-keyboard-response","148","513144","0.0-2.0-7.0-1.20","5f489766dbc4a2364c0f4f93","B2","batch2","","1143.4000000059605","stim/yes_67_hor_b1.png","f","pattern_response","true","f","pattern_79","1143.4000000059605","true","54","","","","","","","","","","","","","","","","","","",""
"","","","","","html-keyboard-response","149","514462","0.0-2.0-7.0-0.21","5f489766dbc4a2364c0f4f93","B2","batch2","","null","<p class=block-text>Trial 61 out of 78</p>","null","pattern_show_trial_num","","","","","","","","","","","","","","","","","","","","","","","","",""
"","","","","","image-keyboard-response","150","516712","0.0-2.0-7.0-1.21","5f489766dbc4a2364c0f4f93","B2","batch2","","2247.699999988079","stim/no_13_2_b.png","j","pattern_response","true","j","pattern_02","2247.699999988079","true","55","","","","","","","","","","","","","","","","","","",""
"","","","","","html-keyboard-response","151","518022","0.0-2.0-7.0-0.22","5f489766dbc4a2364c0f4f93","B2","batch2","","null","<p class=block-text>Trial 62 out of 78</p>","null","pattern_show_trial_num","","","","","","","","","","","","","","","","","","","","","","","","",""
"","","","","","image-keyboard-response","152","519841","0.0-2.0-7.0-1.22","5f489766dbc4a2364c0f4f93","B2","batch2","","1817.9000000059605","stim/yes_60_ver_b1_b.png","f","pattern_response","true","f","pattern_77","1817.9000000059605","true","56","","","","","","","","","","","","","","","","","","",""
"","","","","","html-keyboard-response","153","521167","0.0-2.0-7.0-0.23","5f489766dbc4a2364c0f4f93","B2","batch2","","null","<p class=block-text>Trial 63 out of 78</p>","null","pattern_show_trial_num","","","","","","","","","","","","","","","","","","","","","","","","",""
"","","","","","image-keyboard-response","154","527576","0.0-2.0-7.0-1.23","5f489766dbc4a2364c0f4f93","B2","batch2","","6407.70000000298","stim/no_34_1_b.png","j","pattern_response","true","j","pattern_16","6407.70000000298","true","57","","","","","","","","","","","","","","","","","","",""
"","","","","","html-keyboard-response","155","528889","0.0-2.0-7.0-0.24","5f489766dbc4a2364c0f4f93","B2","batch2","","null","<p class=block-text>Trial 64 out of 78</p>","null","pattern_show_trial_num","","","","","","","","","","","","","","","","","","","","","","","","",""
"","","","","","image-keyboard-response","156","533361","0.0-2.0-7.0-1.24","5f489766dbc4a2364c0f4f93","B2","batch2","","4469.100000008941","stim/yes_31_hor_b1.png","f","pattern_response","true","f","pattern_55","4469.100000008941","true","58","","","","","","","","","","","","","","","","","","",""
"","","","","","html-keyboard-response","157","534675","0.0-2.0-7.0-0.25","5f489766dbc4a2364c0f4f93","B2","batch2","","null","<p class=block-text>Trial 65 out of 78</p>","null","pattern_show_trial_num","","","","","","","","","","","","","","","","","","","","","","","","",""
"","","","","","image-keyboard-response","158","535760","0.0-2.0-7.0-1.25","5f489766dbc4a2364c0f4f93","B2","batch2","","1082","stim/yes_29_ver_w1.png","f","pattern_response","true","f","pattern_53","1082","true","59","","","","","","","","","","","","","","","","","","",""
"","","","","","html-keyboard-response","159","537079","0.0-2.0-7.0-0.26","5f489766dbc4a2364c0f4f93","B2","batch2","","null","<p class=block-text>Trial 66 out of 78</p>","null","pattern_show_trial_num","","","","","","","","","","","","","","","","","","","","","","","","",""
"","","","","","image-keyboard-response","160","539119","0.0-2.0-7.0-1.26","5f489766dbc4a2364c0f4f93","B2","batch2","","2038.5","stim/yes_17_dia_w1.png","f","pattern_response","true","f","pattern_45","2038.5","true","60","","","","","","","","","","","","","","","","","","",""
"","","","","","html-keyboard-response","161","540429","0.0-2.0-7.0-0.27","5f489766dbc4a2364c0f4f93","B2","batch2","","null","<p class=block-text>Trial 67 out of 78</p>","null","pattern_show_trial_num","","","","","","","","","","","","","","","","","","","","","","","","",""
"","","","","","image-keyboard-response","162","548791","0.0-2.0-7.0-1.27","5f489766dbc4a2364c0f4f93","B2","batch2","","8361.29999999702","stim/no_46_1_b.png","j","pattern_response","true","j","pattern_26","8361.29999999702","true","61","","","","","","","","","","","","","","","","","","",""
"","","","","","html-keyboard-response","163","550105","0.0-2.0-7.0-0.28","5f489766dbc4a2364c0f4f93","B2","batch2","","null","<p class=block-text>Trial 68 out of 78</p>","null","pattern_show_trial_num","","","","","","","","","","","","","","","","","","","","","","","","",""
"","","","","","image-keyboard-response","164","562887","0.0-2.0-7.0-1.28","5f489766dbc4a2364c0f4f93","B2","batch2","","12789","stim/no_62_1_w.png","j","pattern_response","true","j","pattern_36","12789","true","62","","","","","","","","","","","","","","","","","","",""
"","","","","","html-keyboard-response","165","564205","0.0-2.0-7.0-0.29","5f489766dbc4a2364c0f4f93","B2","batch2","","null","<p class=block-text>Trial 69 out of 78</p>","null","pattern_show_trial_num","","","","","","","","","","","","","","","","","","","","","","","","",""
"","","","","","image-keyboard-response","166","571229","0.0-2.0-7.0-1.29","5f489766dbc4a2364c0f4f93","B2","batch2","","7022.70000000298","stim/no_55_1_w.png","j","pattern_response","true","j","pattern_34","7022.70000000298","true","63","","","","","","","","","","","","","","","","","","",""
"","","","","","html-keyboard-response","167","572540","0.0-2.0-7.0-0.30","5f489766dbc4a2364c0f4f93","B2","batch2","","null","<p class=block-text>Trial 70 out of 78</p>","null","pattern_show_trial_num","","","","","","","","","","","","","","","","","","","","","","","","",""
"","","","","","image-keyboard-response","168","578118","0.0-2.0-7.0-1.30","5f489766dbc4a2364c0f4f93","B2","batch2","","5576","stim/no_50_1.png","j","pattern_response","true","j","pattern_30","5576","true","64","","","","","","","","","","","","","","","","","","",""
"","","","","","html-keyboard-response","169","579433","0.0-2.0-7.0-0.31","5f489766dbc4a2364c0f4f93","B2","batch2","","null","<p class=block-text>Trial 71 out of 78</p>","null","pattern_show_trial_num","","","","","","","","","","","","","","","","","","","","","","","","",""
"","","","","","image-keyboard-response","170","586869","0.0-2.0-7.0-1.31","5f489766dbc4a2364c0f4f93","B2","batch2","","7433.600000008941","stim/no_44_1.png","j","pattern_response","true","j","pattern_24","7433.600000008941","true","65","","","","","","","","","","","","","","","","","","",""
"","","","","","html-keyboard-response","171","588185","0.0-2.0-7.0-0.32","5f489766dbc4a2364c0f4f93","B2","batch2","","null","<p class=block-text>Trial 72 out of 78</p>","null","pattern_show_trial_num","","","","","","","","","","","","","","","","","","","","","","","","",""
"","","","","","image-keyboard-response","172","594621","0.0-2.0-7.0-1.32","5f489766dbc4a2364c0f4f93","B2","batch2","","6433.70000000298","stim/no_48_1_w.png","j","pattern_response","true","j","pattern_28","6433.70000000298","true","66","","","","","","","","","","","","","","","","","","",""
"","","","","","html-keyboard-response","173","595936","0.0-2.0-7.0-0.33","5f489766dbc4a2364c0f4f93","B2","batch2","","null","<p class=block-text>Trial 73 out of 78</p>","null","pattern_show_trial_num","","","","","","","","","","","","","","","","","","","","","","","","",""
"","","","","","image-keyboard-response","174","597565","0.0-2.0-7.0-1.33","5f489766dbc4a2364c0f4f93","B2","batch2","","1626.0999999940395","stim/yes_55_hor_w1_w.png","f","pattern_response","true","f","pattern_75","1626.0999999940395","true","67","","","","","","","","","","","","","","","","","","",""
"","","","","","html-keyboard-response","175","598879","0.0-2.0-7.0-0.34","5f489766dbc4a2364c0f4f93","B2","batch2","","null","<p class=block-text>Trial 74 out of 78</p>","null","pattern_show_trial_num","","","","","","","","","","","","","","","","","","","","","","","","",""
"","","","","","image-keyboard-response","176","603053","0.0-2.0-7.0-1.34","5f489766dbc4a2364c0f4f93","B2","batch2","","4172.800000011921","stim/no_26_1_w.png","j","pattern_response","true","j","pattern_10","4172.800000011921","true","68","","","","","","","","","","","","","","","","","","",""
"","","","","","html-keyboard-response","177","604365","0.0-2.0-7.0-0.35","5f489766dbc4a2364c0f4f93","B2","batch2","","null","<p class=block-text>Trial 75 out of 78</p>","null","pattern_show_trial_num","","","","","","","","","","","","","","","","","","","","","","","","",""
"","","","","","image-keyboard-response","178","605479","0.0-2.0-7.0-1.35","5f489766dbc4a2364c0f4f93","B2","batch2","","1110.7000000029802","stim/yes_14_hor_b1_w.png","f","pattern_response","true","f","pattern_43","1110.7000000029802","true","69","","","","","","","","","","","","","","","","","","",""
"","","","","","html-keyboard-response","179","606796","0.0-2.0-7.0-0.36","5f489766dbc4a2364c0f4f93","B2","batch2","","null","<p class=block-text>Trial 76 out of 78</p>","null","pattern_show_trial_num","","","","","","","","","","","","","","","","","","","","","","","","",""
"","","","","","image-keyboard-response","180","609109","0.0-2.0-7.0-1.36","5f489766dbc4a2364c0f4f93","B2","batch2","","2311.699999988079","stim/no_20_1_w.png","j","pattern_response","true","j","pattern_06","2311.699999988079","true","70","","","","","","","","","","","","","","","","","","",""
"","","","","","html-keyboard-response","181","610415","0.0-2.0-7.0-0.37","5f489766dbc4a2364c0f4f93","B2","batch2","","null","<p class=block-text>Trial 77 out of 78</p>","null","pattern_show_trial_num","","","","","","","","","","","","","","","","","","","","","","","","",""
"","","","","","image-keyboard-response","182","612678","0.0-2.0-7.0-1.37","5f489766dbc4a2364c0f4f93","B2","batch2","","2261.0999999940395","stim/no_23_1.png","j","pattern_response","true","j","pattern_08","2261.0999999940395","true","71","","","","","","","","","","","","","","","","","","",""
"","","","","","html-keyboard-response","183","613999","0.0-2.0-7.0-0.38","5f489766dbc4a2364c0f4f93","B2","batch2","","null","<p class=block-text>Trial 78 out of 78</p>","null","pattern_show_trial_num","","","","","","","","","","","","","","","","","","","","","","","","",""
"","","","","","image-keyboard-response","184","620084","0.0-2.0-7.0-1.38","5f489766dbc4a2364c0f4f93","B2","batch2","","6083.29999999702","stim/no_36_2_w.png","j","pattern_response","true","j","pattern_18","6083.29999999702","true","72","","","","","","","","","","","","","","","","","","",""
"","","","","","html-button-response","185","626876","0.0-2.0-8.0","5f489766dbc4a2364c0f4f93","B2","batch2","","6288.70000000298","<p class = block-text>This concludes the 4-in-a-row detection game.Thank you for your responses!<br>
            You responded correctly on 92% of the trials.<br>
            When you are ready, press ""Continue"" button to continue </p>","0","","","","","","","","","","","","","","","","","","","","","","","","","",""
"true","","","","","fullscreen","186","636540","0.0-3.0-0.0","5f489766dbc4a2364c0f4f93","B2","batch2","","","","","","","","","","","","","","","","","","","","","","","","","","","","","",""
"","","","","","instructions","187","712796","0.0-3.0-1.0-0.0-0.0","5f489766dbc4a2364c0f4f93","B2","batch2","[{""page_index"":0,""viewing_time"":25640},{""page_index"":1,""viewing_time"":8632},{""page_index"":2,""viewing_time"":6191.899999991059},{""page_index"":3,""viewing_time"":9528},{""page_index"":4,""viewing_time"":9944},{""page_index"":5,""viewing_time"":13584.10000000894},{""page_index"":6,""viewing_time"":2743.8999999910593}]","76264.09999999404","","","tol-instructions","","","","","","","","","","","","","","","","","","","","","","","","",""
"","","","","","html-button-response","188","714084","0.0-3.0-1.0-1.0-0.0","5f489766dbc4a2364c0f4f93","B2","batch2","","1287.199999988079","<p class=block-text> Let's answer a few questions <br>","0","tol_enter_quiz","","","","","","","","","","","","","","","","","","","","","","","","",""
"","","","","","html-button-response","189","717388","0.0-3.0-1.0-1.0-1.0","5f489766dbc4a2364c0f4f93","B2","batch2","","3303.4000000059605","<p class = block-text>True or False: You can only move the ball on top of a peg. <br></p>","0","tol_quiz","true","","","","","","","","","","","","","","","","","","","","","","","",""
"","","","","","html-button-response","190","718771","0.0-3.0-1.0-1.0-2.0","5f489766dbc4a2364c0f4f93","B2","batch2","","1383","<p class = block-text>Correct! You can only move the ball on top of a peg.</p>","0","tol_quiz_feedback","","","","","","","","","","","","","","","","","","","","","","","","",""
"","","","","","html-button-response","191","722252","0.0-3.0-1.0-1.0-3.0","5f489766dbc4a2364c0f4f93","B2","batch2","","3479.9000000059605","<p class = block-text>True or False: You should try to match your board with the target board with fewest moves possible. <br></p>","0","tol_quiz","true","","","","","","","","","","","","","","","","","","","","","","","",""
"","","","","","html-button-response","192","724036","0.0-3.0-1.0-1.0-4.0","5f489766dbc4a2364c0f4f93","B2","batch2","","1783.2000000029802","<p class = block-text>Correct! </p>","0","tol_quiz_feedback","","","","","","","","","","","","","","","","","","","","","","","","",""
"","","","","","html-button-response","193","725948","0.0-3.0-2.0","5f489766dbc4a2364c0f4f93","B2","batch2","","1911.2999999970198","<p class=block-text> Now that you've understood the game, let's practice a few easier examples before we start!<br> <br>","0","","","","","","","","","","","","","","","","","","","","","","","","","",""
"","","","","","single-stim-button","194","730965","0.0-3.0-3.0-0.0","5f489766dbc4a2364c0f4f93","B2","batch2","","5016","","","tol_practice","","","","","","","","","tol_peg_2","5016","5016","0","[[1,2,0],[0,0],[0]]","1","[[1,2,0],[0,0],[3]]","practice","5016","","","","","","","",""
"","","","","","single-stim-button","195","733980","0.0-3.0-3.0-1.0","5f489766dbc4a2364c0f4f93","B2","batch2","","3014","","","tol_practice","","","","","","","","","tol_peg_3","3014","3014","0","[[1,2,0],[0,0],[3]]","1","[[1,2,0],[0,0],[3]]","practice","3014","","","","","","","",""
"","","","","","poldrack-single-stim","196","734982","0.0-3.0-4.0","5f489766dbc4a2364c0f4f93","B2","batch2","","-1","","","tol_feedback","true","","","","","","","","","1000","1000","500","","","","","","-1","none","true","","0","","",""
"","","","","","single-stim-button","197","740939","0.0-3.0-5.0-0.0","5f489766dbc4a2364c0f4f93","B2","batch2","","5957","","","tol_practice","","","","","","","","","tol_peg_1","5957","5957","0","[[1,0,0],[3,0],[0]]","2","[[0,0,0],[3,1],[2]]","practice","5957","","","","","","","",""
"","","","","","single-stim-button","198","742812","0.0-3.0-5.0-1.0","5f489766dbc4a2364c0f4f93","B2","batch2","","1871","","","tol_practice","","","","","","","","","tol_peg_3","1871","1871","0","[[1,0,0],[3,0],[2]]","2","[[0,0,0],[3,1],[2]]","practice","1871","","","","","","","",""
"","","","","","single-stim-button","199","745771","0.0-3.0-5.1-0.1","5f489766dbc4a2364c0f4f93","B2","batch2","","2959","","","tol_practice","","","","","","","","","tol_peg_1","2959","2959","0","[[0,0,0],[3,0],[2]]","3","[[0,0,0],[3,1],[2]]","practice","2959","","","","","","","",""
"","","","","","single-stim-button","200","747715","0.0-3.0-5.1-1.1","5f489766dbc4a2364c0f4f93","B2","batch2","","1943","","","tol_practice","","","","","","","","","tol_peg_2","1943","1943","0","[[0,0,0],[3,1],[2]]","3","[[0,0,0],[3,1],[2]]","practice","1943","","","","","","","",""
"","","","","","poldrack-single-stim","201","748727","0.0-3.0-6.0","5f489766dbc4a2364c0f4f93","B2","batch2","","-1","","","tol_feedback","true","","","","","","","","","1000","1000","500","","","","","","-1","none","true","","0","","",""
"","","","","","single-stim-button","202","756692","0.0-3.0-7.0-0.0","5f489766dbc4a2364c0f4f93","B2","batch2","","7964","","","tol_practice","","","","","","","","","tol_peg_2","7964","7964","0","[[1,2,0],[0,0],[0]]","4","[[1,0,0],[2,0],[3]]","practice","7964","","","","","","","",""
"","","","","","single-stim-button","203","758459","0.0-3.0-7.0-1.0","5f489766dbc4a2364c0f4f93","B2","batch2","","1767","","","tol_practice","","","","","","","","","tol_peg_3","1767","1767","0","[[1,2,0],[0,0],[3]]","4","[[1,0,0],[2,0],[3]]","practice","1767","","","","","","","",""
"","","","","","single-stim-button","204","762996","0.0-3.0-7.1-0.1","5f489766dbc4a2364c0f4f93","B2","batch2","","4536","","","tol_practice","","","","","","","","","tol_peg_1","4536","4536","0","[[1,0,0],[0,0],[3]]","5","[[1,0,0],[2,0],[3]]","practice","4536","","","","","","","",""
"","","","","","single-stim-button","205","778899","0.0-3.0-7.1-1.1","5f489766dbc4a2364c0f4f93","B2","batch2","","15903","","","tol_practice","","","","","","","","","tol_peg_1","15903","15903","0","[[1,2,0],[0,0],[3]]","5","[[1,0,0],[2,0],[3]]","practice","15903","","","","","","","",""
"","","","","","single-stim-button","206","783076","0.0-3.0-7.2-0.2","5f489766dbc4a2364c0f4f93","B2","batch2","","4175","","","tol_practice","","","","","","","","","tol_peg_3","4175","4175","0","[[1,2,0],[0,0],[0]]","6","[[1,0,0],[2,0],[3]]","practice","4175","","","","","","","",""
"","","","","","single-stim-button","207","784331","0.0-3.0-7.2-1.2","5f489766dbc4a2364c0f4f93","B2","batch2","","1254","","","tol_practice","","","","","","","","","tol_peg_2","1254","1254","0","[[1,2,0],[3,0],[0]]","6","[[1,0,0],[2,0],[3]]","practice","1254","","","","","","","",""
"","","","","","single-stim-button","208","785475","0.0-3.0-7.3-0.3","5f489766dbc4a2364c0f4f93","B2","batch2","","1143","","","tol_practice","","","","","","","","","tol_peg_1","1143","1143","0","[[1,0,0],[3,0],[0]]","7","[[1,0,0],[2,0],[3]]","practice","1143","","","","","","","",""
"","","","","","single-stim-button","209","787235","0.0-3.0-7.3-1.3","5f489766dbc4a2364c0f4f93","B2","batch2","","1760","","","tol_practice","","","","","","","","","tol_peg_3","1760","1760","0","[[1,0,0],[3,0],[2]]","7","[[1,0,0],[2,0],[3]]","practice","1760","","","","","","","",""
"","","","","","single-stim-button","210","789099","0.0-3.0-7.4-0.4","5f489766dbc4a2364c0f4f93","B2","batch2","","1862","","","tol_practice","","","","","","","","","tol_peg_1","1862","1862","0","[[0,0,0],[3,0],[2]]","8","[[1,0,0],[2,0],[3]]","practice","1862","","","","","","","",""
"","","","","","single-stim-button","211","797603","0.0-3.0-7.4-1.4","5f489766dbc4a2364c0f4f93","B2","batch2","","8504","","","tol_practice","","","","","","","","","tol_peg_1","8504","8504","0","[[1,0,0],[3,0],[2]]","8","[[1,0,0],[2,0],[3]]","practice","8504","","","","","","","",""
"","","","","","single-stim-button","212","798659","0.0-3.0-7.5-0.5","5f489766dbc4a2364c0f4f93","B2","batch2","","1055","","","tol_practice","","","","","","","","","tol_peg_2","1055","1055","0","[[1,0,0],[0,0],[2]]","9","[[1,0,0],[2,0],[3]]","practice","1055","","","","","","","",""
"","","","","","single-stim-button","213","805163","0.0-3.0-7.5-1.5","5f489766dbc4a2364c0f4f93","B2","batch2","","6504","","","tol_practice","","","","","","","","","tol_peg_1","6504","6504","0","[[1,3,0],[0,0],[2]]","9","[[1,0,0],[2,0],[3]]","practice","6504","","","","","","","",""
"","","","","","single-stim-button","214","806075","0.0-3.0-7.6-0.6","5f489766dbc4a2364c0f4f93","B2","batch2","","910","","","tol_practice","","","","","","","","","tol_peg_3","910","910","0","[[1,3,0],[0,0],[0]]","10","[[1,0,0],[2,0],[3]]","practice","910","","","","","","","",""
"","","","","","single-stim-button","215","808379","0.0-3.0-7.6-1.6","5f489766dbc4a2364c0f4f93","B2","batch2","","2304","","","tol_practice","","","","","","","","","tol_peg_2","2304","2304","0","[[1,3,0],[2,0],[0]]","10","[[1,0,0],[2,0],[3]]","practice","2304","","","","","","","",""
"","","","","","single-stim-button","216","810226","0.0-3.0-7.7-0.7","5f489766dbc4a2364c0f4f93","B2","batch2","","1847","","","tol_practice","","","","","","","","","tol_peg_1","1847","1847","0","[[1,0,0],[2,0],[0]]","11","[[1,0,0],[2,0],[3]]","practice","1847","","","","","","","",""
"","","","","","single-stim-button","217","811875","0.0-3.0-7.7-1.7","5f489766dbc4a2364c0f4f93","B2","batch2","","1647","","","tol_practice","","","","","","","","","tol_peg_3","1647","1647","0","[[1,0,0],[2,0],[3]]","11","[[1,0,0],[2,0],[3]]","practice","1647","","","","","","","",""
"","","","","","poldrack-single-stim","218","812877","0.0-3.0-8.0","5f489766dbc4a2364c0f4f93","B2","batch2","","-1","","","tol_feedback","true","","","","","","","","","1000","1000","500","","","","","","-1","none","true","","0","","",""
"","","","","","html-button-response","219","815771","0.0-3.0-9.0","5f489766dbc4a2364c0f4f93","B2","batch2","","2892.8999999910593","<div class = centerbox><p class = center-block-text>Great job! You are done with practice trials<br>You are about to start official trials.<br> <br> Problem <strong>1</strong> out of 25 problems</p></div>","0","tol_instruction","","","","","","","","","","","","","","","","","","","","","","","","",""
"","","","","","single-stim-button","220","830714","0.0-3.0-10.0-0.0","5f489766dbc4a2364c0f4f93","B2","batch2","","13934","","","tol_tohand","","","","","","","","","tol_peg_1","13934","13934","0","[[1,0,0],[3,0],[0]]","1","[[1,3,0],[2,0],[0]]","0","0","","","","","","3","",""
"","","","","","single-stim-button","221","832034","0.0-3.0-10.0-1.0","5f489766dbc4a2364c0f4f93","B2","batch2","","1320","","","tol_toboard","","","","","","","","","tol_peg_3","1320","1320","0","[[1,0,0],[3,0],[2]]","1","[[1,3,0],[2,0],[0]]","0","0","","","","","","3","",""
"","","","","","single-stim-button","222","833474","0.0-3.0-10.1-0.1","5f489766dbc4a2364c0f4f93","B2","batch2","","1439","","","tol_tohand","","","","","","","","","tol_peg_2","1439","1439","0","[[1,0,0],[0,0],[2]]","2","[[1,3,0],[2,0],[0]]","0","0","","","","","","3","",""
"","","","","","single-stim-button","223","835402","0.0-3.0-10.1-1.1","5f489766dbc4a2364c0f4f93","B2","batch2","","1927","","","tol_toboard","","","","","","","","","tol_peg_1","1927","1927","0","[[1,3,0],[0,0],[2]]","2","[[1,3,0],[2,0],[0]]","0","0","","","","","","3","",""
"","","","","","single-stim-button","224","836875","0.0-3.0-10.2-0.2","5f489766dbc4a2364c0f4f93","B2","batch2","","1472","","","tol_tohand","","","","","","","","","tol_peg_3","1472","1472","0","[[1,3,0],[0,0],[0]]","3","[[1,3,0],[2,0],[0]]","0","0","","","","","","3","",""
"","","","","","single-stim-button","225","838306","0.0-3.0-10.2-1.2","5f489766dbc4a2364c0f4f93","B2","batch2","","1431","","","tol_toboard","","","","","","","","","tol_peg_2","1431","1431","0","[[1,3,0],[2,0],[0]]","3","[[1,3,0],[2,0],[0]]","0","0","","","","","","3","",""
"","","","","","poldrack-single-stim","226","839308","0.0-3.0-11.0","5f489766dbc4a2364c0f4f93","B2","batch2","","-1","","","tol_feedback","true","","","","","","","","","1000","1000","500","","","","","","-1","none","true","13934","16845","","",""
"","","","","","html-button-response","227","840595","0.0-3.0-12.0","5f489766dbc4a2364c0f4f93","B2","batch2","","1285.699999988079","<div class = centerbox><p class = center-block-text>problem <strong>2</strong> out of 25 problems</p></div>","0","tol_trial_num","","","","","","","","","","","","","","","","","","","","","","","","",""
"","","","","","single-stim-button","228","853915","0.0-3.0-13.0-0.0","5f489766dbc4a2364c0f4f93","B2","batch2","","13319","","","tol_tohand","","","","","","","","","tol_peg_1","13319","13319","0","[[1,0,0],[3,0],[0]]","1","[[2,1,3],[0,0],[0]]","1","0","","","","","","5","",""
"","","","","","single-stim-button","229","856042","0.0-3.0-13.0-1.0","5f489766dbc4a2364c0f4f93","B2","batch2","","2127","","","tol_toboard","","","","","","","","","tol_peg_3","2127","2127","0","[[1,0,0],[3,0],[2]]","1","[[2,1,3],[0,0],[0]]","1","0","","","","","","5","",""
"","","","","","single-stim-button","230","856851","0.0-3.0-13.1-0.1","5f489766dbc4a2364c0f4f93","B2","batch2","","808","","","tol_tohand","","","","","","","","","tol_peg_1","808","808","0","[[0,0,0],[3,0],[2]]","2","[[2,1,3],[0,0],[0]]","1","0","","","","","","5","",""
"","","","","","single-stim-button","231","857819","0.0-3.0-13.1-1.1","5f489766dbc4a2364c0f4f93","B2","batch2","","967","","","tol_toboard","","","","","","","","","tol_peg_2","967","967","0","[[0,0,0],[3,1],[2]]","2","[[2,1,3],[0,0],[0]]","1","0","","","","","","5","",""
"","","","","","single-stim-button","232","859691","0.0-3.0-13.2-0.2","5f489766dbc4a2364c0f4f93","B2","batch2","","1871","","","tol_tohand","","","","","","","","","tol_peg_3","1871","1871","0","[[0,0,0],[3,1],[0]]","3","[[2,1,3],[0,0],[0]]","1","0","","","","","","5","",""
"","","","","","single-stim-button","233","861139","0.0-3.0-13.2-1.2","5f489766dbc4a2364c0f4f93","B2","batch2","","1447","","","tol_toboard","","","","","","","","","tol_peg_1","1447","1447","0","[[2,0,0],[3,1],[0]]","3","[[2,1,3],[0,0],[0]]","1","0","","","","","","5","",""
"","","","","","single-stim-button","234","863034","0.0-3.0-13.3-0.3","5f489766dbc4a2364c0f4f93","B2","batch2","","1895","","","tol_tohand","","","","","","","","","tol_peg_2","1895","1895","0","[[2,0,0],[3,0],[0]]","4","[[2,1,3],[0,0],[0]]","1","0","","","","","","5","",""
"","","","","","single-stim-button","235","864499","0.0-3.0-13.3-1.3","5f489766dbc4a2364c0f4f93","B2","batch2","","1464","","","tol_toboard","","","","","","","","","tol_peg_1","1464","1464","0","[[2,1,0],[3,0],[0]]","4","[[2,1,3],[0,0],[0]]","1","0","","","","","","5","",""
"","","","","","single-stim-button","236","866074","0.0-3.0-13.4-0.4","5f489766dbc4a2364c0f4f93","B2","batch2","","1575","","","tol_tohand","","","","","","","","","tol_peg_2","1575","1575","0","[[2,1,0],[0,0],[0]]","5","[[2,1,3],[0,0],[0]]","1","0","","","","","","5","",""
"","","","","","single-stim-button","237","867849","0.0-3.0-13.4-1.4","5f489766dbc4a2364c0f4f93","B2","batch2","","1775","","","tol_toboard","","","","","","","","","tol_peg_1","1775","1775","0","[[2,1,3],[0,0],[0]]","5","[[2,1,3],[0,0],[0]]","1","0","","","","","","5","",""
"","","","","","poldrack-single-stim","238","868852","0.0-3.0-14.0","5f489766dbc4a2364c0f4f93","B2","batch2","","-1","","","tol_feedback","true","","","","","","","","","1000","1000","500","","","","","","-1","none","true","13319","19468","","",""
"","","","","","html-button-response","239","870194","0.0-3.0-15.0","5f489766dbc4a2364c0f4f93","B2","batch2","","1341","<div class = centerbox><p class = center-block-text>problem <strong>3</strong> out of 25 problems</p></div>","0","tol_trial_num","","","","","","","","","","","","","","","","","","","","","","","","",""
"","","","","","single-stim-button","240","881305","0.0-3.0-16.0-0.0","5f489766dbc4a2364c0f4f93","B2","batch2","","11111","","","tol_tohand","","","","","","","","","tol_peg_1","11111","11111","0","[[2,0,0],[0,0],[1]]","1","[[1,2,0],[3,0],[0]]","2","0","","","","","","4","",""
"","","","","","single-stim-button","241","882697","0.0-3.0-16.0-1.0","5f489766dbc4a2364c0f4f93","B2","batch2","","1391","","","tol_toboard","","","","","","","","","tol_peg_2","1391","1391","0","[[2,0,0],[3,0],[1]]","1","[[1,2,0],[3,0],[0]]","2","0","","","","","","4","",""
"","","","","","single-stim-button","242","883458","0.0-3.0-16.1-0.1","5f489766dbc4a2364c0f4f93","B2","batch2","","760","","","tol_tohand","","","","","","","","","tol_peg_3","760","760","0","[[2,0,0],[3,0],[0]]","2","[[1,2,0],[3,0],[0]]","2","0","","","","","","4","",""
"","","","","","single-stim-button","243","885386","0.0-3.0-16.1-1.1","5f489766dbc4a2364c0f4f93","B2","batch2","","1928","","","tol_toboard","","","","","","","","","tol_peg_2","1928","1928","0","[[2,0,0],[3,1],[0]]","2","[[1,2,0],[3,0],[0]]","2","0","","","","","","4","",""
"","","","","","single-stim-button","244","886602","0.0-3.0-16.2-0.2","5f489766dbc4a2364c0f4f93","B2","batch2","","1215","","","tol_tohand","","","","","","","","","tol_peg_1","1215","1215","0","[[0,0,0],[3,1],[0]]","3","[[1,2,0],[3,0],[0]]","2","0","","","","","","4","",""
"","","","","","single-stim-button","245","891217","0.0-3.0-16.2-1.2","5f489766dbc4a2364c0f4f93","B2","batch2","","4615","","","tol_toboard","","","","","","","","","tol_peg_3","4615","4615","0","[[0,0,0],[3,1],[2]]","3","[[1,2,0],[3,0],[0]]","2","0","","","","","","4","",""
"","","","","","single-stim-button","246","891882","0.0-3.0-16.3-0.3","5f489766dbc4a2364c0f4f93","B2","batch2","","664","","","tol_tohand","","","","","","","","","tol_peg_2","664","664","0","[[0,0,0],[3,0],[2]]","4","[[1,2,0],[3,0],[0]]","2","0","","","","","","4","",""
"","","","","","single-stim-button","247","894010","0.0-3.0-16.3-1.3","5f489766dbc4a2364c0f4f93","B2","batch2","","2127","","","tol_toboard","","","","","","","","","tol_peg_1","2127","2127","0","[[1,0,0],[3,0],[2]]","4","[[1,2,0],[3,0],[0]]","2","0","","","","","","4","",""
"","","","","","single-stim-button","248","895234","0.0-3.0-16.4-0.4","5f489766dbc4a2364c0f4f93","B2","batch2","","1224","","","tol_tohand","","","","","","","","","tol_peg_3","1224","1224","0","[[1,0,0],[3,0],[0]]","5","[[1,2,0],[3,0],[0]]","2","0","","","","","","4","",""
"","","","","","single-stim-button","249","896658","0.0-3.0-16.4-1.4","5f489766dbc4a2364c0f4f93","B2","batch2","","1424","","","tol_toboard","","","","","","","","","tol_peg_1","1424","1424","0","[[1,2,0],[3,0],[0]]","5","[[1,2,0],[3,0],[0]]","2","0","","","","","","4","",""
"","","","","","poldrack-single-stim","250","897660","0.0-3.0-17.0","5f489766dbc4a2364c0f4f93","B2","batch2","","-1","","","tol_feedback","true","","","","","","","","","1000","1000","500","","","","","","-1","none","true","11111","14974","","",""
"","","","","","html-button-response","251","898881","0.0-3.0-18.0","5f489766dbc4a2364c0f4f93","B2","batch2","","1219.5","<div class = centerbox><p class = center-block-text>problem <strong>4</strong> out of 25 problems</p></div>","0","tol_trial_num","","","","","","","","","","","","","","","","","","","","","","","","",""
"","","","","","single-stim-button","252","909393","0.0-3.0-19.0-0.0","5f489766dbc4a2364c0f4f93","B2","batch2","","10512","","","tol_tohand","","","","","","","","","tol_peg_2","10512","10512","0","[[3,0,0],[2,0],[0]]","1","[[3,0,0],[1,0],[2]]","3","0","","","","","","3","",""
"","","","","","single-stim-button","253","910394","0.0-3.0-19.0-1.0","5f489766dbc4a2364c0f4f93","B2","batch2","","1001","","","tol_toboard","","","","","","","","","tol_peg_1","1001","1001","0","[[3,1,0],[2,0],[0]]","1","[[3,0,0],[1,0],[2]]","3","0","","","","","","3","",""
"","","","","","single-stim-button","254","911770","0.0-3.0-19.1-0.1","5f489766dbc4a2364c0f4f93","B2","batch2","","1376","","","tol_tohand","","","","","","","","","tol_peg_2","1376","1376","0","[[3,1,0],[0,0],[0]]","2","[[3,0,0],[1,0],[2]]","3","0","","","","","","3","",""
"","","","","","single-stim-button","255","913178","0.0-3.0-19.1-1.1","5f489766dbc4a2364c0f4f93","B2","batch2","","1408","","","tol_toboard","","","","","","","","","tol_peg_3","1408","1408","0","[[3,1,0],[0,0],[2]]","2","[[3,0,0],[1,0],[2]]","3","0","","","","","","3","",""
"","","","","","single-stim-button","256","914161","0.0-3.0-19.2-0.2","5f489766dbc4a2364c0f4f93","B2","batch2","","983","","","tol_tohand","","","","","","","","","tol_peg_1","983","983","0","[[3,0,0],[0,0],[2]]","3","[[3,0,0],[1,0],[2]]","3","0","","","","","","3","",""
"","","","","","single-stim-button","257","915450","0.0-3.0-19.2-1.2","5f489766dbc4a2364c0f4f93","B2","batch2","","1289","","","tol_toboard","","","","","","","","","tol_peg_2","1289","1289","0","[[3,0,0],[1,0],[2]]","3","[[3,0,0],[1,0],[2]]","3","0","","","","","","3","",""
"","","","","","poldrack-single-stim","258","916463","0.0-3.0-20.0","5f489766dbc4a2364c0f4f93","B2","batch2","","-1","","","tol_feedback","true","","","","","","","","","1000","1000","500","","","","","","-1","none","true","10512","12871","","",""
"","","","","","html-button-response","259","917705","0.0-3.0-21.0","5f489766dbc4a2364c0f4f93","B2","batch2","","1241.5999999940395","<div class = centerbox><p class = center-block-text>problem <strong>5</strong> out of 25 problems</p></div>","0","tol_trial_num","","","","","","","","","","","","","","","","","","","","","","","","",""
"","","","","","single-stim-button","260","933274","0.0-3.0-22.0-0.0","5f489766dbc4a2364c0f4f93","B2","batch2","","15568","","","tol_tohand","","","","","","","","","tol_peg_1","15568","15568","0","[[0,0,0],[2,0],[3]]","1","[[0,0,0],[1,2],[3]]","4","0","","","","","","7","",""
"","","","","","single-stim-button","261","942112","0.0-3.0-22.0-1.0","5f489766dbc4a2364c0f4f93","B2","batch2","","8838","","","tol_toboard","","","","","","","","","tol_peg_2","8838","8838","0","[[0,0,0],[2,1],[3]]","1","[[0,0,0],[1,2],[3]]","4","0","","","","","","7","",""
"","","","","","single-stim-button","262","942800","0.0-3.0-22.1-0.1","5f489766dbc4a2364c0f4f93","B2","batch2","","687","","","tol_tohand","","","","","","","","","tol_peg_3","687","687","0","[[0,0,0],[2,1],[0]]","2","[[0,0,0],[1,2],[3]]","4","0","","","","","","7","",""
"","","","","","single-stim-button","263","944656","0.0-3.0-22.1-1.1","5f489766dbc4a2364c0f4f93","B2","batch2","","1855","","","tol_toboard","","","","","","","","","tol_peg_1","1855","1855","0","[[3,0,0],[2,1],[0]]","2","[[0,0,0],[1,2],[3]]","4","0","","","","","","7","",""
"","","","","","single-stim-button","264","949201","0.0-3.0-22.2-0.2","5f489766dbc4a2364c0f4f93","B2","batch2","","4543","","","tol_tohand","","","","","","","","","tol_peg_2","4543","4543","0","[[3,0,0],[2,0],[0]]","3","[[0,0,0],[1,2],[3]]","4","0","","","","","","7","",""
"","","","","","single-stim-button","265","950561","0.0-3.0-22.2-1.2","5f489766dbc4a2364c0f4f93","B2","batch2","","1360","","","tol_toboard","","","","","","","","","tol_peg_3","1360","1360","0","[[3,0,0],[2,0],[1]]","3","[[0,0,0],[1,2],[3]]","4","0","","","","","","7","",""
"","","","","","single-stim-button","266","951425","0.0-3.0-22.3-0.3","5f489766dbc4a2364c0f4f93","B2","batch2","","863","","","tol_tohand","","","","","","","","","tol_peg_2","863","863","0","[[3,0,0],[0,0],[1]]","4","[[0,0,0],[1,2],[3]]","4","0","","","","","","7","",""
"","","","","","single-stim-button","267","954528","0.0-3.0-22.3-1.3","5f489766dbc4a2364c0f4f93","B2","batch2","","3103","","","tol_toboard","","","","","","","","","tol_peg_1","3103","3103","0","[[3,2,0],[0,0],[1]]","4","[[0,0,0],[1,2],[3]]","4","0","","","","","","7","",""
"","","","","","single-stim-button","268","955761","0.0-3.0-22.4-0.4","5f489766dbc4a2364c0f4f93","B2","batch2","","1232","","","tol_tohand","","","","","","","","","tol_peg_3","1232","1232","0","[[3,2,0],[0,0],[0]]","5","[[0,0,0],[1,2],[3]]","4","0","","","","","","7","",""
"","","","","","single-stim-button","269","956752","0.0-3.0-22.4-1.4","5f489766dbc4a2364c0f4f93","B2","batch2","","991","","","tol_toboard","","","","","","","","","tol_peg_2","991","991","0","[[3,2,0],[1,0],[0]]","5","[[0,0,0],[1,2],[3]]","4","0","","","","","","7","",""
"","","","","","single-stim-button","270","958064","0.0-3.0-22.5-0.5","5f489766dbc4a2364c0f4f93","B2","batch2","","1311","","","tol_tohand","","","","","","","","","tol_peg_1","1311","1311","0","[[3,0,0],[1,0],[0]]","6","[[0,0,0],[1,2],[3]]","4","0","","","","","","7","",""
"","","","","","single-stim-button","271","959193","0.0-3.0-22.5-1.5","5f489766dbc4a2364c0f4f93","B2","batch2","","1128","","","tol_toboard","","","","","","","","","tol_peg_2","1128","1128","0","[[3,0,0],[1,2],[0]]","6","[[0,0,0],[1,2],[3]]","4","0","","","","","","7","",""
"","","","","","single-stim-button","272","960833","0.0-3.0-22.6-0.6","5f489766dbc4a2364c0f4f93","B2","batch2","","1640","","","tol_tohand","","","","","","","","","tol_peg_1","1640","1640","0","[[0,0,0],[1,2],[0]]","7","[[0,0,0],[1,2],[3]]","4","0","","","","","","7","",""
"","","","","","single-stim-button","273","962761","0.0-3.0-22.6-1.6","5f489766dbc4a2364c0f4f93","B2","batch2","","1928","","","tol_toboard","","","","","","","","","tol_peg_3","1928","1928","0","[[0,0,0],[1,2],[3]]","7","[[0,0,0],[1,2],[3]]","4","0","","","","","","7","",""
"","","","","","poldrack-single-stim","274","963772","0.0-3.0-23.0","5f489766dbc4a2364c0f4f93","B2","batch2","","-1","","","tol_feedback","true","","","","","","","","","1000","1000","500","","","","","","-1","none","true","15568","25844","","",""
"","","","","","html-button-response","275","964896","0.0-3.0-24.0","5f489766dbc4a2364c0f4f93","B2","batch2","","1122.7999999970198","<div class = centerbox><p class = center-block-text>problem <strong>6</strong> out of 25 problems</p></div>","0","tol_trial_num","","","","","","","","","","","","","","","","","","","","","","","","",""
"","","","","","single-stim-button","276","975832","0.0-3.0-25.0-0.0","5f489766dbc4a2364c0f4f93","B2","batch2","","10935","","","tol_tohand","","","","","","","","","tol_peg_3","10935","10935","0","[[0,0,0],[1,2],[0]]","1","[[1,0,0],[2,3],[0]]","5","0","","","","","","6","",""
"","","","","","single-stim-button","277","977833","0.0-3.0-25.0-1.0","5f489766dbc4a2364c0f4f93","B2","batch2","","1999","","","tol_toboard","","","","","","","","","tol_peg_1","1999","1999","0","[[3,0,0],[1,2],[0]]","1","[[1,0,0],[2,3],[0]]","5","0","","","","","","6","",""
"","","","","","single-stim-button","278","980545","0.0-3.0-25.1-0.1","5f489766dbc4a2364c0f4f93","B2","batch2","","2711","","","tol_tohand","","","","","","","","","tol_peg_2","2711","2711","0","[[3,0,0],[1,0],[0]]","2","[[1,0,0],[2,3],[0]]","5","0","","","","","","6","",""
"","","","","","single-stim-button","279","983017","0.0-3.0-25.1-1.1","5f489766dbc4a2364c0f4f93","B2","batch2","","2471","","","tol_toboard","","","","","","","","","tol_peg_3","2471","2471","0","[[3,0,0],[1,0],[2]]","2","[[1,0,0],[2,3],[0]]","5","0","","","","","","6","",""
"","","","","","single-stim-button","280","983737","0.0-3.0-25.2-0.2","5f489766dbc4a2364c0f4f93","B2","batch2","","719","","","tol_tohand","","","","","","","","","tol_peg_2","719","719","0","[[3,0,0],[0,0],[2]]","3","[[1,0,0],[2,3],[0]]","5","0","","","","","","6","",""
"","","","","","single-stim-button","281","986576","0.0-3.0-25.2-1.2","5f489766dbc4a2364c0f4f93","B2","batch2","","2839","","","tol_toboard","","","","","","","","","tol_peg_1","2839","2839","0","[[3,1,0],[0,0],[2]]","3","[[1,0,0],[2,3],[0]]","5","0","","","","","","6","",""
"","","","","","single-stim-button","282","987809","0.0-3.0-25.3-0.3","5f489766dbc4a2364c0f4f93","B2","batch2","","1231","","","tol_tohand","","","","","","","","","tol_peg_3","1231","1231","0","[[3,1,0],[0,0],[0]]","4","[[1,0,0],[2,3],[0]]","5","0","","","","","","6","",""
"","","","","","single-stim-button","283","988841","0.0-3.0-25.3-1.3","5f489766dbc4a2364c0f4f93","B2","batch2","","1032","","","tol_toboard","","","","","","","","","tol_peg_2","1032","1032","0","[[3,1,0],[2,0],[0]]","4","[[1,0,0],[2,3],[0]]","5","0","","","","","","6","",""
"","","","","","single-stim-button","284","990536","0.0-3.0-25.4-0.4","5f489766dbc4a2364c0f4f93","B2","batch2","","1695","","","tol_tohand","","","","","","","","","tol_peg_1","1695","1695","0","[[3,0,0],[2,0],[0]]","5","[[1,0,0],[2,3],[0]]","5","0","","","","","","6","",""
"","","","","","single-stim-button","285","992074","0.0-3.0-25.4-1.4","5f489766dbc4a2364c0f4f93","B2","batch2","","1537","","","tol_toboard","","","","","","","","","tol_peg_3","1537","1537","0","[[3,0,0],[2,0],[1]]","5","[[1,0,0],[2,3],[0]]","5","0","","","","","","6","",""
"","","","","","single-stim-button","286","993049","0.0-3.0-25.5-0.5","5f489766dbc4a2364c0f4f93","B2","batch2","","975","","","tol_tohand","","","","","","","","","tol_peg_1","975","975","0","[[0,0,0],[2,0],[1]]","6","[[1,0,0],[2,3],[0]]","5","0","","","","","","6","",""
"","","","","","single-stim-button","287","994113","0.0-3.0-25.5-1.5","5f489766dbc4a2364c0f4f93","B2","batch2","","1064","","","tol_toboard","","","","","","","","","tol_peg_2","1064","1064","0","[[0,0,0],[2,3],[1]]","6","[[1,0,0],[2,3],[0]]","5","0","","","","","","6","",""
"","","","","","single-stim-button","288","995297","0.0-3.0-25.6-0.6","5f489766dbc4a2364c0f4f93","B2","batch2","","1183","","","tol_tohand","","","","","","","","","tol_peg_3","1183","1183","0","[[0,0,0],[2,3],[0]]","7","[[1,0,0],[2,3],[0]]","5","0","","","","","","6","",""
"","","","","","single-stim-button","289","996745","0.0-3.0-25.6-1.6","5f489766dbc4a2364c0f4f93","B2","batch2","","1448","","","tol_toboard","","","","","","","","","tol_peg_1","1448","1448","0","[[1,0,0],[2,3],[0]]","7","[[1,0,0],[2,3],[0]]","5","0","","","","","","6","",""
"","","","","","poldrack-single-stim","290","997761","0.0-3.0-26.0","5f489766dbc4a2364c0f4f93","B2","batch2","","-1","","","tol_feedback","true","","","","","","","","","1000","1000","500","","","","","","-1","none","true","10935","19449","","",""
"","","","","","html-button-response","291","999385","0.0-3.0-27.0","5f489766dbc4a2364c0f4f93","B2","batch2","","1623.0999999940395","<div class = centerbox><p class = center-block-text>problem <strong>7</strong> out of 25 problems</p></div>","0","tol_trial_num","","","","","","","","","","","","","","","","","","","","","","","","",""
"","","","","","single-stim-button","292","1005665","0.0-3.0-28.0-0.0","5f489766dbc4a2364c0f4f93","B2","batch2","","6280","","","tol_tohand","","","","","","","","","tol_peg_1","6280","6280","0","[[2,0,0],[0,0],[3]]","1","[[1,2,0],[3,0],[0]]","6","0","","","","","","5","",""
"","","","","","single-stim-button","293","1010145","0.0-3.0-28.0-1.0","5f489766dbc4a2364c0f4f93","B2","batch2","","4480","","","tol_toboard","","","","","","","","","tol_peg_2","4480","4480","0","[[2,0,0],[1,0],[3]]","1","[[1,2,0],[3,0],[0]]","6","0","","","","","","5","",""
"","","","","","single-stim-button","294","1017546","0.0-3.0-28.1-0.1","5f489766dbc4a2364c0f4f93","B2","batch2","","7399","","","tol_tohand","","","","","","","","","tol_peg_3","7399","7399","0","[[2,0,0],[1,0],[0]]","2","[[1,2,0],[3,0],[0]]","6","0","","","","","","5","",""
"","","","","","single-stim-button","295","1018712","0.0-3.0-28.1-1.1","5f489766dbc4a2364c0f4f93","B2","batch2","","1166","","","tol_toboard","","","","","","","","","tol_peg_2","1166","1166","0","[[2,0,0],[1,3],[0]]","2","[[1,2,0],[3,0],[0]]","6","0","","","","","","5","",""
"","","","","","single-stim-button","296","1019744","0.0-3.0-28.2-0.2","5f489766dbc4a2364c0f4f93","B2","batch2","","1031","","","tol_tohand","","","","","","","","","tol_peg_1","1031","1031","0","[[0,0,0],[1,3],[0]]","3","[[1,2,0],[3,0],[0]]","6","0","","","","","","5","",""
"","","","","","single-stim-button","297","1020777","0.0-3.0-28.2-1.2","5f489766dbc4a2364c0f4f93","B2","batch2","","1032","","","tol_toboard","","","","","","","","","tol_peg_3","1032","1032","0","[[0,0,0],[1,3],[2]]","3","[[1,2,0],[3,0],[0]]","6","0","","","","","","5","",""
"","","","","","single-stim-button","298","1025209","0.0-3.0-28.3-0.3","5f489766dbc4a2364c0f4f93","B2","batch2","","4432","","","tol_tohand","","","","","","","","","tol_peg_2","4432","4432","0","[[0,0,0],[1,0],[2]]","4","[[1,2,0],[3,0],[0]]","6","0","","","","","","5","",""
"","","","","","single-stim-button","299","1029200","0.0-3.0-28.3-1.3","5f489766dbc4a2364c0f4f93","B2","batch2","","3991","","","tol_toboard","","","","","","","","","tol_peg_1","3991","3991","0","[[3,0,0],[1,0],[2]]","4","[[1,2,0],[3,0],[0]]","6","0","","","","","","5","",""
"","","","","","single-stim-button","300","1029921","0.0-3.0-28.4-0.4","5f489766dbc4a2364c0f4f93","B2","batch2","","720","","","tol_tohand","","","","","","","","","tol_peg_2","720","720","0","[[3,0,0],[0,0],[2]]","5","[[1,2,0],[3,0],[0]]","6","0","","","","","","5","",""
"","","","","","single-stim-button","301","1036481","0.0-3.0-28.4-1.4","5f489766dbc4a2364c0f4f93","B2","batch2","","6560","","","tol_toboard","","","","","","","","","tol_peg_2","6560","6560","0","[[3,0,0],[1,0],[2]]","5","[[1,2,0],[3,0],[0]]","6","0","","","","","","5","",""
"","","","","","single-stim-button","302","1041608","0.0-3.0-28.5-0.5","5f489766dbc4a2364c0f4f93","B2","batch2","","5127","","","tol_tohand","","","","","","","","","tol_peg_2","5127","5127","0","[[3,0,0],[0,0],[2]]","6","[[1,2,0],[3,0],[0]]","6","0","","","","","","5","",""
"","","","","","single-stim-button","303","1045857","0.0-3.0-28.5-1.5","5f489766dbc4a2364c0f4f93","B2","batch2","","4248","","","tol_toboard","","","","","","","","","tol_peg_2","4248","4248","0","[[3,0,0],[1,0],[2]]","6","[[1,2,0],[3,0],[0]]","6","0","","","","","","5","",""
"","","","","","single-stim-button","304","1046697","0.0-3.0-28.6-0.6","5f489766dbc4a2364c0f4f93","B2","batch2","","840","","","tol_tohand","","","","","","","","","tol_peg_3","840","840","0","[[3,0,0],[1,0],[0]]","7","[[1,2,0],[3,0],[0]]","6","0","","","","","","5","",""
"","","","","","single-stim-button","305","1048280","0.0-3.0-28.6-1.6","5f489766dbc4a2364c0f4f93","B2","batch2","","1583","","","tol_toboard","","","","","","","","","tol_peg_1","1583","1583","0","[[3,2,0],[1,0],[0]]","7","[[1,2,0],[3,0],[0]]","6","0","","","","","","5","",""
"","","","","","single-stim-button","306","1049312","0.0-3.0-28.7-0.7","5f489766dbc4a2364c0f4f93","B2","batch2","","1032","","","tol_tohand","","","","","","","","","tol_peg_2","1032","1032","0","[[3,2,0],[0,0],[0]]","8","[[1,2,0],[3,0],[0]]","6","0","","","","","","5","",""
"","","","","","single-stim-button","307","1055367","0.0-3.0-28.7-1.7","5f489766dbc4a2364c0f4f93","B2","batch2","","6055","","","tol_toboard","","","","","","","","","tol_peg_2","6055","6055","0","[[3,2,0],[1,0],[0]]","8","[[1,2,0],[3,0],[0]]","6","0","","","","","","5","",""
"","","","","","single-stim-button","308","1056191","0.0-3.0-28.8-0.8","5f489766dbc4a2364c0f4f93","B2","batch2","","823","","","tol_tohand","","","","","","","","","tol_peg_1","823","823","0","[[3,0,0],[1,0],[0]]","9","[[1,2,0],[3,0],[0]]","6","0","","","","","","5","",""
"","","","","","single-stim-button","309","1058569","0.0-3.0-28.8-1.8","5f489766dbc4a2364c0f4f93","B2","batch2","","2377","","","tol_toboard","","","","","","","","","tol_peg_3","2377","2377","0","[[3,0,0],[1,0],[2]]","9","[[1,2,0],[3,0],[0]]","6","0","","","","","","5","",""
"","","","","","single-stim-button","310","1059335","0.0-3.0-28.9-0.9","5f489766dbc4a2364c0f4f93","B2","batch2","","766","","","tol_tohand","","","","","","","","","tol_peg_1","766","766","0","[[0,0,0],[1,0],[2]]","10","[[1,2,0],[3,0],[0]]","6","0","","","","","","5","",""
"","","","","","single-stim-button","311","1062415","0.0-3.0-28.9-1.9","5f489766dbc4a2364c0f4f93","B2","batch2","","3079","","","tol_toboard","","","","","","","","","tol_peg_2","3079","3079","0","[[0,0,0],[1,3],[2]]","10","[[1,2,0],[3,0],[0]]","6","0","","","","","","5","",""
"","","","","","single-stim-button","312","1063944","0.0-3.0-28.10-0.10","5f489766dbc4a2364c0f4f93","B2","batch2","","1528","","","tol_tohand","","","","","","","","","tol_peg_3","1528","1528","0","[[0,0,0],[1,3],[0]]","11","[[1,2,0],[3,0],[0]]","6","0","","","","","","5","",""
"","","","","","single-stim-button","313","1072079","0.0-3.0-28.10-1.10","5f489766dbc4a2364c0f4f93","B2","batch2","","8135","","","tol_toboard","","","","","","","","","tol_peg_1","8135","8135","0","[[2,0,0],[1,3],[0]]","11","[[1,2,0],[3,0],[0]]","6","0","","","","","","5","",""
"","","","","","single-stim-button","314","1072743","0.0-3.0-28.11-0.11","5f489766dbc4a2364c0f4f93","B2","batch2","","664","","","tol_tohand","","","","","","","","","tol_peg_2","664","664","0","[[2,0,0],[1,0],[0]]","12","[[1,2,0],[3,0],[0]]","6","0","","","","","","5","",""
"","","","","","single-stim-button","315","1075080","0.0-3.0-28.11-1.11","5f489766dbc4a2364c0f4f93","B2","batch2","","2337","","","tol_toboard","","","","","","","","","tol_peg_1","2337","2337","0","[[2,3,0],[1,0],[0]]","12","[[1,2,0],[3,0],[0]]","6","0","","","","","","5","",""
"","","","","","single-stim-button","316","1076319","0.0-3.0-28.12-0.12","5f489766dbc4a2364c0f4f93","B2","batch2","","1239","","","tol_tohand","","","","","","","","","tol_peg_2","1239","1239","0","[[2,3,0],[0,0],[0]]","13","[[1,2,0],[3,0],[0]]","6","0","","","","","","5","",""
"","","","","","single-stim-button","317","1079591","0.0-3.0-28.12-1.12","5f489766dbc4a2364c0f4f93","B2","batch2","","3272","","","tol_toboard","","","","","","","","","tol_peg_3","3272","3272","0","[[2,3,0],[0,0],[1]]","13","[[1,2,0],[3,0],[0]]","6","0","","","","","","5","",""
"","","","","","single-stim-button","318","1080904","0.0-3.0-28.13-0.13","5f489766dbc4a2364c0f4f93","B2","batch2","","1311","","","tol_tohand","","","","","","","","","tol_peg_1","1311","1311","0","[[2,0,0],[0,0],[1]]","14","[[1,2,0],[3,0],[0]]","6","0","","","","","","5","",""
"","","","","","single-stim-button","319","1082359","0.0-3.0-28.13-1.13","5f489766dbc4a2364c0f4f93","B2","batch2","","1455","","","tol_toboard","","","","","","","","","tol_peg_2","1455","1455","0","[[2,0,0],[3,0],[1]]","14","[[1,2,0],[3,0],[0]]","6","0","","","","","","5","",""
"","","","","","single-stim-button","320","1083209","0.0-3.0-28.14-0.14","5f489766dbc4a2364c0f4f93","B2","batch2","","848","","","tol_tohand","","","","","","","","","tol_peg_1","848","848","0","[[0,0,0],[3,0],[1]]","15","[[1,2,0],[3,0],[0]]","6","0","","","","","","5","",""
"","","","","","single-stim-button","321","1084528","0.0-3.0-28.14-1.14","5f489766dbc4a2364c0f4f93","B2","batch2","","1318","","","tol_toboard","","","","","","","","","tol_peg_2","1318","1318","0","[[0,0,0],[3,2],[1]]","15","[[1,2,0],[3,0],[0]]","6","0","","","","","","5","",""
"","","","","","single-stim-button","322","1085511","0.0-3.0-28.15-0.15","5f489766dbc4a2364c0f4f93","B2","batch2","","983","","","tol_tohand","","","","","","","","","tol_peg_3","983","983","0","[[0,0,0],[3,2],[0]]","16","[[1,2,0],[3,0],[0]]","6","0","","","","","","5","",""
"","","","","","single-stim-button","323","1087711","0.0-3.0-28.15-1.15","5f489766dbc4a2364c0f4f93","B2","batch2","","2200","","","tol_toboard","","","","","","","","","tol_peg_1","2200","2200","0","[[1,0,0],[3,2],[0]]","16","[[1,2,0],[3,0],[0]]","6","0","","","","","","5","",""
"","","","","","single-stim-button","324","1088872","0.0-3.0-28.16-0.16","5f489766dbc4a2364c0f4f93","B2","batch2","","1160","","","tol_tohand","","","","","","","","","tol_peg_2","1160","1160","0","[[1,0,0],[3,0],[0]]","17","[[1,2,0],[3,0],[0]]","6","0","","","","","","5","",""
"","","","","","single-stim-button","325","1090304","0.0-3.0-28.16-1.16","5f489766dbc4a2364c0f4f93","B2","batch2","","1432","","","tol_toboard","","","","","","","","","tol_peg_1","1432","1432","0","[[1,2,0],[3,0],[0]]","17","[[1,2,0],[3,0],[0]]","6","0","","","","","","5","",""
"","","","","","poldrack-single-stim","326","1091306","0.0-3.0-29.0","5f489766dbc4a2364c0f4f93","B2","batch2","","-1","","","tol_feedback","true","","","","","","","","","1000","1000","500","","","","","","-1","none","true","6280","36183","","",""
"","","","","","html-button-response","327","1092688","0.0-3.0-30.0","5f489766dbc4a2364c0f4f93","B2","batch2","","1380.7000000029802","<div class = centerbox><p class = center-block-text>problem <strong>8</strong> out of 25 problems</p></div>","0","tol_trial_num","","","","","","","","","","","","","","","","","","","","","","","","",""
"","","","","","single-stim-button","328","1105287","0.0-3.0-31.0-0.0","5f489766dbc4a2364c0f4f93","B2","batch2","","12599","","","tol_tohand","","","","","","","","","tol_peg_3","12599","12599","0","[[0,0,0],[2,3],[0]]","1","[[1,2,0],[3,0],[0]]","7","0","","","","","","4","",""
"","","","","","single-stim-button","329","1107599","0.0-3.0-31.0-1.0","5f489766dbc4a2364c0f4f93","B2","batch2","","2311","","","tol_toboard","","","","","","","","","tol_peg_1","2311","2311","0","[[1,0,0],[2,3],[0]]","1","[[1,2,0],[3,0],[0]]","7","0","","","","","","4","",""
"","","","","","single-stim-button","330","1109439","0.0-3.0-31.1-0.1","5f489766dbc4a2364c0f4f93","B2","batch2","","1840","","","tol_tohand","","","","","","","","","tol_peg_2","1840","1840","0","[[1,0,0],[2,0],[0]]","2","[[1,2,0],[3,0],[0]]","7","0","","","","","","4","",""
"","","","","","single-stim-button","331","1110959","0.0-3.0-31.1-1.1","5f489766dbc4a2364c0f4f93","B2","batch2","","1518","","","tol_toboard","","","","","","","","","tol_peg_3","1518","1518","0","[[1,0,0],[2,0],[3]]","2","[[1,2,0],[3,0],[0]]","7","0","","","","","","4","",""
"","","","","","single-stim-button","332","1112056","0.0-3.0-31.2-0.2","5f489766dbc4a2364c0f4f93","B2","batch2","","1097","","","tol_tohand","","","","","","","","","tol_peg_2","1097","1097","0","[[1,0,0],[0,0],[3]]","3","[[1,2,0],[3,0],[0]]","7","0","","","","","","4","",""
"","","","","","single-stim-button","333","1113191","0.0-3.0-31.2-1.2","5f489766dbc4a2364c0f4f93","B2","batch2","","1135","","","tol_toboard","","","","","","","","","tol_peg_1","1135","1135","0","[[1,2,0],[0,0],[3]]","3","[[1,2,0],[3,0],[0]]","7","0","","","","","","4","",""
"","","","","","single-stim-button","334","1114223","0.0-3.0-31.3-0.3","5f489766dbc4a2364c0f4f93","B2","batch2","","1031","","","tol_tohand","","","","","","","","","tol_peg_3","1031","1031","0","[[1,2,0],[0,0],[0]]","4","[[1,2,0],[3,0],[0]]","7","0","","","","","","4","",""
"","","","","","single-stim-button","335","1115936","0.0-3.0-31.3-1.3","5f489766dbc4a2364c0f4f93","B2","batch2","","1712","","","tol_toboard","","","","","","","","","tol_peg_2","1712","1712","0","[[1,2,0],[3,0],[0]]","4","[[1,2,0],[3,0],[0]]","7","0","","","","","","4","",""
"","","","","","poldrack-single-stim","336","1116937","0.0-3.0-32.0","5f489766dbc4a2364c0f4f93","B2","batch2","","-1","","","tol_feedback","true","","","","","","","","","1000","1000","500","","","","","","-1","none","true","12599","16567","","",""
"","","","","","html-button-response","337","1118255","0.0-3.0-33.0","5f489766dbc4a2364c0f4f93","B2","batch2","","1316.4000000059605","<div class = centerbox><p class = center-block-text>problem <strong>9</strong> out of 25 problems</p></div>","0","tol_trial_num","","","","","","","","","","","","","","","","","","","","","","","","",""
"","","","","","single-stim-button","338","1128480","0.0-3.0-34.0-0.0","5f489766dbc4a2364c0f4f93","B2","batch2","","10225","","","tol_tohand","","","","","","","","","tol_peg_3","10225","10225","0","[[3,2,0],[0,0],[0]]","1","[[2,1,0],[3,0],[0]]","8","0","","","","","","6","",""
"","","","","","single-stim-button","339","1130047","0.0-3.0-34.0-1.0","5f489766dbc4a2364c0f4f93","B2","batch2","","1567","","","tol_toboard","","","","","","","","","tol_peg_2","1567","1567","0","[[3,2,0],[1,0],[0]]","1","[[2,1,0],[3,0],[0]]","8","0","","","","","","6","",""
"","","","","","single-stim-button","340","1131535","0.0-3.0-34.1-0.1","5f489766dbc4a2364c0f4f93","B2","batch2","","1487","","","tol_tohand","","","","","","","","","tol_peg_1","1487","1487","0","[[3,0,0],[1,0],[0]]","2","[[2,1,0],[3,0],[0]]","8","0","","","","","","6","",""
"","","","","","single-stim-button","341","1134679","0.0-3.0-34.1-1.1","5f489766dbc4a2364c0f4f93","B2","batch2","","3143","","","tol_toboard","","","","","","","","","tol_peg_3","3143","3143","0","[[3,0,0],[1,0],[2]]","2","[[2,1,0],[3,0],[0]]","8","0","","","","","","6","",""
"","","","","","single-stim-button","342","1135535","0.0-3.0-34.2-0.2","5f489766dbc4a2364c0f4f93","B2","batch2","","855","","","tol_tohand","","","","","","","","","tol_peg_1","855","855","0","[[0,0,0],[1,0],[2]]","3","[[2,1,0],[3,0],[0]]","8","0","","","","","","6","",""
"","","","","","single-stim-button","343","1136551","0.0-3.0-34.2-1.2","5f489766dbc4a2364c0f4f93","B2","batch2","","1014","","","tol_toboard","","","","","","","","","tol_peg_2","1014","1014","0","[[0,0,0],[1,3],[2]]","3","[[2,1,0],[3,0],[0]]","8","0","","","","","","6","",""
"","","","","","single-stim-button","344","1137567","0.0-3.0-34.3-0.3","5f489766dbc4a2364c0f4f93","B2","batch2","","1016","","","tol_tohand","","","","","","","","","tol_peg_3","1016","1016","0","[[0,0,0],[1,3],[0]]","4","[[2,1,0],[3,0],[0]]","8","0","","","","","","6","",""
"","","","","","single-stim-button","345","1139375","0.0-3.0-34.3-1.3","5f489766dbc4a2364c0f4f93","B2","batch2","","1807","","","tol_toboard","","","","","","","","","tol_peg_1","1807","1807","0","[[2,0,0],[1,3],[0]]","4","[[2,1,0],[3,0],[0]]","8","0","","","","","","6","",""
"","","","","","single-stim-button","346","1140487","0.0-3.0-34.4-0.4","5f489766dbc4a2364c0f4f93","B2","batch2","","1112","","","tol_tohand","","","","","","","","","tol_peg_2","1112","1112","0","[[2,0,0],[1,0],[0]]","5","[[2,1,0],[3,0],[0]]","8","0","","","","","","6","",""
"","","","","","single-stim-button","347","1141423","0.0-3.0-34.4-1.4","5f489766dbc4a2364c0f4f93","B2","batch2","","935","","","tol_toboard","","","","","","","","","tol_peg_3","935","935","0","[[2,0,0],[1,0],[3]]","5","[[2,1,0],[3,0],[0]]","8","0","","","","","","6","",""
