"success","timeout","failed_images","failed_audio","failed_video","trial_type","trial_index","time_elapsed","internal_node_id","subject_id","study_id","session_id","view_history","rt","stimulus","response","task","correct","answer","item","fiar_detect_rt","fiar_detect_correct","total_correct_fiar_detect","post_trial_gap","choices","mouse_click","stim_duration","block_duration","timing_post_trial","current_position","tol_num_moves_made","tol_target","tol_problem_id","tol_rt","key_press","possible_responses","tol_correct","preplanning","tol_rt_per_trial","tol_min_moves","spm_correct","spm_rt"
"true","false","[]","[]","[]","preload","0","762","0.0-0.0","5f48ad1ab90d143747dadfe9","F1","batch6","","","","","","","","","","","","","","","","","","","","","","","","","","","","","",""
"true","","","","","fullscreen","1","12450","0.0-1.0-0.0","5f48ad1ab90d143747dadfe9","F1","batch6","","","","","","","","","","","","","","","","","","","","","","","","","","","","","",""
"true","","","","","fullscreen","2","15428","0.0-2.0-0.0","5f48ad1ab90d143747dadfe9","F1","batch6","","","","","","","","","","","","","","","","","","","","","","","","","","","","","",""
"","","","","","instructions","3","28800","0.0-2.0-1.0-0.0","5f48ad1ab90d143747dadfe9","F1","batch6","[{""page_index"":0,""viewing_time"":6420.200000047684},{""page_index"":1,""viewing_time"":6950.700000047684}]","13371","","","","","","","","","","","","","","","","","","","","","","","","","","","",""
"","","","","","html-button-response","4","29951","0.0-2.0-1.0-1.0-0.0","5f48ad1ab90d143747dadfe9","F1","batch6","","1150.9000000953674","<p class=block-text> Let's answer a few questions <br>","0","pattern_enter_quiz","","","","","","","","","","","","","","","","","","","","","","","","",""
"","","","","","html-button-response","5","32370","0.0-2.0-1.0-1.0-1.0","5f48ad1ab90d143747dadfe9","F1","batch6","","2417.899999976158","<p class = block-text>True or False: You will have as much time as you want to make each choice. <br></p>","1","pattern_quiz","true","","","","","","","","","","","","","","","","","","","","","","","",""
"","","","","","html-button-response","6","33135","0.0-2.0-1.0-1.0-2.0","5f48ad1ab90d143747dadfe9","F1","batch6","","763.3999999761581","<p class = block-text>Correct! You should make your choice <strong> as fast as you can</strong>.</p>","0","pattern_quiz_feedback","","","","","","","","","","","","","","","","","","","","","","","","",""
"","","","","","html-button-response","7","36691","0.0-2.0-1.0-1.0-3.0","5f48ad1ab90d143747dadfe9","F1","batch6","","3553.9000000953674","<p class = block-text>True or False: You will look for 4 pieces in black or white color connected in a row either horizontally, vertically or diagonally. <br></p>","0","pattern_quiz","true","","","","","","","","","","","","","","","","","","","","","","","",""
"","","","","","html-button-response","8","37404","0.0-2.0-1.0-1.0-4.0","5f48ad1ab90d143747dadfe9","F1","batch6","","712.1000000238419","<p class = block-text>Correct! </p>","0","pattern_quiz_feedback","","","","","","","","","","","","","","","","","","","","","","","","",""
"","","","","","html-button-response","9","38900","0.0-2.0-2.0","5f48ad1ab90d143747dadfe9","F1","batch6","","1493.5","<p class=block-text> Now that you've understood the game, let's do a few practice trials before we start!<br> <br>","0","pattern_enter_practice","","","","","","","","","","","","","","","","","","","","","","","","",""
"","","","","","image-keyboard-response","10","41233","0.0-2.0-3.0-0.0","5f48ad1ab90d143747dadfe9","F1","batch6","","2326","stim/prac_yes_20_dia_b1.png","j","pattern_practice","false","f","","","","","","","","","","","","","","","","","","","","","","",""
"","","","","","html-keyboard-response","11","42240","0.0-2.0-3.0-1.0","5f48ad1ab90d143747dadfe9","F1","batch6","","null","<p style=""font-size:30px;color:red;"">Wrong.</p>","null","pattern_feedback","","","","","","","","","","","","","","","","","","","","","","","","",""
"","","","","","image-keyboard-response","12","43938","0.0-2.0-3.0-0.1","5f48ad1ab90d143747dadfe9","F1","batch6","","1695.5","stim/prac_no_18_1.png","j","pattern_practice","true","j","","","","","","","","","","","","","","","","","","","","","","",""
"","","","","","html-keyboard-response","13","44950","0.0-2.0-3.0-1.1","5f48ad1ab90d143747dadfe9","F1","batch6","","null","<p style=""font-size:30px;color:green;"">Correct!</p>","null","pattern_feedback","","","","","","","","","","","","","","","","","","","","","","","","",""
"","","","","","image-keyboard-response","14","46322","0.0-2.0-3.0-0.2","5f48ad1ab90d143747dadfe9","F1","batch6","","1369.6999999284744","stim/prac_no_16_1.png","j","pattern_practice","true","j","","","","","","","","","","","","","","","","","","","","","","",""
"","","","","","html-keyboard-response","15","47332","0.0-2.0-3.0-1.2","5f48ad1ab90d143747dadfe9","F1","batch6","","null","<p style=""font-size:30px;color:green;"">Correct!</p>","null","pattern_feedback","","","","","","","","","","","","","","","","","","","","","","","","",""
"","","","","","image-keyboard-response","16","48176","0.0-2.0-3.0-0.3","5f48ad1ab90d143747dadfe9","F1","batch6","","842.0999999046326","stim/prac_yes_18_hor_w1.png","f","pattern_practice","true","f","","","","","","","","","","","","","","","","","","","","","","",""
"","","","","","html-keyboard-response","17","49196","0.0-2.0-3.0-1.3","5f48ad1ab90d143747dadfe9","F1","batch6","","null","<p style=""font-size:30px;color:green;"">Correct!</p>","null","pattern_feedback","","","","","","","","","","","","","","","","","","","","","","","","",""
"","","","","","image-keyboard-response","18","49929","0.0-2.0-3.0-0.4","5f48ad1ab90d143747dadfe9","F1","batch6","","730","stim/prac_yes_16_ver_w1.png","f","pattern_practice","true","f","","","","","","","","","","","","","","","","","","","","","","",""
"","","","","","html-keyboard-response","19","50958","0.0-2.0-3.0-1.4","5f48ad1ab90d143747dadfe9","F1","batch6","","null","<p style=""font-size:30px;color:green;"">Correct!</p>","null","pattern_feedback","","","","","","","","","","","","","","","","","","","","","","","","",""
"","","","","","html-button-response","20","56157","0.0-2.0-4.0","5f48ad1ab90d143747dadfe9","F1","batch6","","5197","<p class=block-text> Good job! You are done with practice trials!<br>
        You responded correctly on 80% of the trials.<br>
        Press the button below to start official trials. Now you won't see any feedback about your response</p>","0","pattern_enter_official_trials","","","","","","","","","","","","","","","","","","","","","","","","",""
"","","","","","html-keyboard-response","21","56971","0.0-2.0-5.0-0.0","5f48ad1ab90d143747dadfe9","F1","batch6","","null","<p class=block-text>Trial 1 out of 78</p>","null","pattern_show_trial_num","","","","","","","","","","","","","","","","","","","","","","","","",""
"","","","","","image-keyboard-response","22","58697","0.0-2.0-5.0-1.0","5f48ad1ab90d143747dadfe9","F1","batch6","","1725.2999999523163","stim/yes_39_hor_w1_w.png","f","pattern_response","true","f","pattern_62","1725.2999999523163","true","1","","","","","","","","","","","","","","","","","","",""
"","","","","","html-keyboard-response","23","60024","0.0-2.0-5.0-0.1","5f48ad1ab90d143747dadfe9","F1","batch6","","null","<p class=block-text>Trial 2 out of 78</p>","null","pattern_show_trial_num","","","","","","","","","","","","","","","","","","","","","","","","",""
"","","","","","image-keyboard-response","24","60713","0.0-2.0-5.0-1.1","5f48ad1ab90d143747dadfe9","F1","batch6","","687","stim/yes_12_hor_w1_w.png","f","pattern_response","true","f","pattern_42","687","true","2","","","","","","","","","","","","","","","","","","",""
"","","","","","html-keyboard-response","25","62026","0.0-2.0-5.0-0.2","5f48ad1ab90d143747dadfe9","F1","batch6","","null","<p class=block-text>Trial 3 out of 78</p>","null","pattern_show_trial_num","","","","","","","","","","","","","","","","","","","","","","","","",""
"","","","","","image-keyboard-response","26","63412","0.0-2.0-5.0-1.2","5f48ad1ab90d143747dadfe9","F1","batch6","","1384.2000000476837","stim/yes_30_ver_b1_b.png","f","pattern_response","true","f","pattern_54","1384.2000000476837","true","3","","","","","","","","","","","","","","","","","","",""
"","","","","","html-keyboard-response","27","64721","0.0-2.0-5.0-0.3","5f48ad1ab90d143747dadfe9","F1","batch6","","null","<p class=block-text>Trial 4 out of 78</p>","null","pattern_show_trial_num","","","","","","","","","","","","","","","","","","","","","","","","",""
"","","","","","image-keyboard-response","28","66195","0.0-2.0-5.0-1.3","5f48ad1ab90d143747dadfe9","F1","batch6","","1472.5","stim/no_53_1_b.png","j","pattern_response","true","j","pattern_33","1472.5","true","4","","","","","","","","","","","","","","","","","","",""
"","","","","","html-keyboard-response","29","67506","0.0-2.0-5.0-0.4","5f48ad1ab90d143747dadfe9","F1","batch6","","null","<p class=block-text>Trial 5 out of 78</p>","null","pattern_show_trial_num","","","","","","","","","","","","","","","","","","","","","","","","",""
"","","","","","image-keyboard-response","30","68562","0.0-2.0-5.0-1.4","5f48ad1ab90d143747dadfe9","F1","batch6","","1053.2999999523163","stim/yes_23_ver_b1.png","f","pattern_response","true","f","pattern_48","1053.2999999523163","true","5","","","","","","","","","","","","","","","","","","",""
"","","","","","html-keyboard-response","31","69876","0.0-2.0-5.0-0.5","5f48ad1ab90d143747dadfe9","F1","batch6","","null","<p class=block-text>Trial 6 out of 78</p>","null","pattern_show_trial_num","","","","","","","","","","","","","","","","","","","","","","","","",""
"","","","","","image-keyboard-response","32","72230","0.0-2.0-5.0-1.5","5f48ad1ab90d143747dadfe9","F1","batch6","","2350.2999999523163","stim/yes_44_ver_w1_w.png","f","pattern_response","true","f","pattern_66","2350.2999999523163","true","6","","","","","","","","","","","","","","","","","","",""
"","","","","","html-keyboard-response","33","73545","0.0-2.0-5.0-0.6","5f48ad1ab90d143747dadfe9","F1","batch6","","null","<p class=block-text>Trial 7 out of 78</p>","null","pattern_show_trial_num","","","","","","","","","","","","","","","","","","","","","","","","",""
"","","","","","image-keyboard-response","34","75458","0.0-2.0-5.0-1.6","5f48ad1ab90d143747dadfe9","F1","batch6","","1910.5","stim/yes_58_dia_w1_w.png","f","pattern_response","true","f","pattern_76","1910.5","true","7","","","","","","","","","","","","","","","","","","",""
"","","","","","html-keyboard-response","35","76769","0.0-2.0-5.0-0.7","5f48ad1ab90d143747dadfe9","F1","batch6","","null","<p class=block-text>Trial 8 out of 78</p>","null","pattern_show_trial_num","","","","","","","","","","","","","","","","","","","","","","","","",""
"","","","","","image-keyboard-response","36","77475","0.0-2.0-5.0-1.7","5f48ad1ab90d143747dadfe9","F1","batch6","","702.4000000953674","stim/no_18_1_b.png","j","pattern_response","true","j","pattern_05","702.4000000953674","true","8","","","","","","","","","","","","","","","","","","",""
"","","","","","html-keyboard-response","37","78784","0.0-2.0-5.0-0.8","5f48ad1ab90d143747dadfe9","F1","batch6","","null","<p class=block-text>Trial 9 out of 78</p>","null","pattern_show_trial_num","","","","","","","","","","","","","","","","","","","","","","","","",""
"","","","","","image-keyboard-response","38","79904","0.0-2.0-5.0-1.8","5f48ad1ab90d143747dadfe9","F1","batch6","","1117.8999999761581","stim/no_43_2_b.png","j","pattern_response","true","j","pattern_23","1117.8999999761581","true","9","","","","","","","","","","","","","","","","","","",""
"","","","","","html-keyboard-response","39","81206","0.0-2.0-5.0-0.9","5f48ad1ab90d143747dadfe9","F1","batch6","","null","<p class=block-text>Trial 10 out of 78</p>","null","pattern_show_trial_num","","","","","","","","","","","","","","","","","","","","","","","","",""
"","","","","","image-keyboard-response","40","81940","0.0-2.0-5.0-1.9","5f48ad1ab90d143747dadfe9","F1","batch6","","731.1000000238419","stim/no_15_1_w.png","j","pattern_response","true","j","pattern_03","731.1000000238419","true","10","","","","","","","","","","","","","","","","","","",""
"","","","","","html-keyboard-response","41","83254","0.0-2.0-5.0-0.10","5f48ad1ab90d143747dadfe9","F1","batch6","","null","<p class=block-text>Trial 11 out of 78</p>","null","pattern_show_trial_num","","","","","","","","","","","","","","","","","","","","","","","","",""
"","","","","","image-keyboard-response","42","85065","0.0-2.0-5.0-1.10","5f48ad1ab90d143747dadfe9","F1","batch6","","1808.5","stim/no_36_1_b.png","f","pattern_response","false","j","pattern_17","1808.5","false","10","","","","","","","","","","","","","","","","","","",""
"","","","","","html-keyboard-response","43","86385","0.0-2.0-5.0-0.11","5f48ad1ab90d143747dadfe9","F1","batch6","","null","<p class=block-text>Trial 12 out of 78</p>","null","pattern_show_trial_num","","","","","","","","","","","","","","","","","","","","","","","","",""
"","","","","","image-keyboard-response","44","87319","0.0-2.0-5.0-1.11","5f48ad1ab90d143747dadfe9","F1","batch6","","933","stim/no_25_1_b.png","j","pattern_response","true","j","pattern_09","933","true","11","","","","","","","","","","","","","","","","","","",""
"","","","","","html-keyboard-response","45","88636","0.0-2.0-5.0-0.12","5f48ad1ab90d143747dadfe9","F1","batch6","","null","<p class=block-text>Trial 13 out of 78</p>","null","pattern_show_trial_num","","","","","","","","","","","","","","","","","","","","","","","","",""
"","","","","","image-keyboard-response","46","89717","0.0-2.0-5.0-1.12","5f48ad1ab90d143747dadfe9","F1","batch6","","1078.2000000476837","stim/yes_63_dia_b1.png","f","pattern_response","true","f","pattern_78","1078.2000000476837","true","12","","","","","","","","","","","","","","","","","","",""
"","","","","","html-keyboard-response","47","91023","0.0-2.0-5.0-0.13","5f48ad1ab90d143747dadfe9","F1","batch6","","null","<p class=block-text>Trial 14 out of 78</p>","null","pattern_show_trial_num","","","","","","","","","","","","","","","","","","","","","","","","",""
"","","","","","image-keyboard-response","48","91833","0.0-2.0-5.0-1.13","5f48ad1ab90d143747dadfe9","F1","batch6","","808.1000000238419","stim/yes_15_dia_b1u_b.png","j","pattern_response","false","f","pattern_44","808.1000000238419","false","12","","","","","","","","","","","","","","","","","","",""
"","","","","","html-keyboard-response","49","93147","0.0-2.0-5.0-0.14","5f48ad1ab90d143747dadfe9","F1","batch6","","null","<p class=block-text>Trial 15 out of 78</p>","null","pattern_show_trial_num","","","","","","","","","","","","","","","","","","","","","","","","",""
"","","","","","image-keyboard-response","50","94167","0.0-2.0-5.0-1.14","5f48ad1ab90d143747dadfe9","F1","batch6","","1017.5","stim/no_22_1_b.png","j","pattern_response","true","j","pattern_07","1017.5","true","13","","","","","","","","","","","","","","","","","","",""
"","","","","","html-keyboard-response","51","95479","0.0-2.0-5.0-0.15","5f48ad1ab90d143747dadfe9","F1","batch6","","null","<p class=block-text>Trial 16 out of 78</p>","null","pattern_show_trial_num","","","","","","","","","","","","","","","","","","","","","","","","",""
"","","","","","image-keyboard-response","52","97675","0.0-2.0-5.0-1.15","5f48ad1ab90d143747dadfe9","F1","batch6","","2193.399999976158","stim/no_58_1_w.png","f","pattern_response","false","j","pattern_35","2193.399999976158","false","13","","","","","","","","","","","","","","","","","","",""
"","","","","","html-keyboard-response","53","98985","0.0-2.0-5.0-0.16","5f48ad1ab90d143747dadfe9","F1","batch6","","null","<p class=block-text>Trial 17 out of 78</p>","null","pattern_show_trial_num","","","","","","","","","","","","","","","","","","","","","","","","",""
"","","","","","image-keyboard-response","54","101355","0.0-2.0-5.0-1.16","5f48ad1ab90d143747dadfe9","F1","batch6","","2367","stim/no_45_1_w.png","j","pattern_response","true","j","pattern_25","2367","true","14","","","","","","","","","","","","","","","","","","",""
"","","","","","html-keyboard-response","55","102670","0.0-2.0-5.0-0.17","5f48ad1ab90d143747dadfe9","F1","batch6","","null","<p class=block-text>Trial 18 out of 78</p>","null","pattern_show_trial_num","","","","","","","","","","","","","","","","","","","","","","","","",""
"","","","","","image-keyboard-response","56","105840","0.0-2.0-5.0-1.17","5f48ad1ab90d143747dadfe9","F1","batch6","","3167.100000023842","stim/no_47_1_b.png","j","pattern_response","true","j","pattern_27","3167.100000023842","true","15","","","","","","","","","","","","","","","","","","",""
"","","","","","html-keyboard-response","57","107149","0.0-2.0-5.0-0.18","5f48ad1ab90d143747dadfe9","F1","batch6","","null","<p class=block-text>Trial 19 out of 78</p>","null","pattern_show_trial_num","","","","","","","","","","","","","","","","","","","","","","","","",""
"","","","","","image-keyboard-response","58","108313","0.0-2.0-5.0-1.18","5f48ad1ab90d143747dadfe9","F1","batch6","","1160.5999999046326","stim/yes_70_ver_b1.png","f","pattern_response","true","f","pattern_80","1160.5999999046326","true","16","","","","","","","","","","","","","","","","","","",""
"","","","","","html-keyboard-response","59","109637","0.0-2.0-5.0-0.19","5f48ad1ab90d143747dadfe9","F1","batch6","","null","<p class=block-text>Trial 20 out of 78</p>","null","pattern_show_trial_num","","","","","","","","","","","","","","","","","","","","","","","","",""
"","","","","","image-keyboard-response","60","110453","0.0-2.0-5.0-1.19","5f48ad1ab90d143747dadfe9","F1","batch6","","813.5","stim/yes_17_ver_b1_b.png","f","pattern_response","true","f","pattern_46","813.5","true","17","","","","","","","","","","","","","","","","","","",""
"","","","","","html-keyboard-response","61","111766","0.0-2.0-5.0-0.20","5f48ad1ab90d143747dadfe9","F1","batch6","","null","<p class=block-text>Trial 21 out of 78</p>","null","pattern_show_trial_num","","","","","","","","","","","","","","","","","","","","","","","","",""
"","","","","","image-keyboard-response","62","113600","0.0-2.0-5.0-1.20","5f48ad1ab90d143747dadfe9","F1","batch6","","1831","stim/no_49_2_b.png","j","pattern_response","true","j","pattern_29","1831","true","18","","","","","","","","","","","","","","","","","","",""
"","","","","","html-keyboard-response","63","114915","0.0-2.0-5.0-0.21","5f48ad1ab90d143747dadfe9","F1","batch6","","null","<p class=block-text>Trial 22 out of 78</p>","null","pattern_show_trial_num","","","","","","","","","","","","","","","","","","","","","","","","",""
"","","","","","image-keyboard-response","64","116232","0.0-2.0-5.0-1.21","5f48ad1ab90d143747dadfe9","F1","batch6","","1315.7000000476837","stim/no_51_1.png","f","pattern_response","false","j","pattern_31","1315.7000000476837","false","18","","","","","","","","","","","","","","","","","","",""
"","","","","","html-keyboard-response","65","117541","0.0-2.0-5.0-0.22","5f48ad1ab90d143747dadfe9","F1","batch6","","null","<p class=block-text>Trial 23 out of 78</p>","null","pattern_show_trial_num","","","","","","","","","","","","","","","","","","","","","","","","",""
"","","","","","image-keyboard-response","66","118361","0.0-2.0-5.0-1.22","5f48ad1ab90d143747dadfe9","F1","batch6","","816.6000000238419","stim/yes_36_ver_w1_w.png","f","pattern_response","true","f","pattern_58","816.6000000238419","true","19","","","","","","","","","","","","","","","","","","",""
"","","","","","html-keyboard-response","67","119683","0.0-2.0-5.0-0.23","5f48ad1ab90d143747dadfe9","F1","batch6","","null","<p class=block-text>Trial 24 out of 78</p>","null","pattern_show_trial_num","","","","","","","","","","","","","","","","","","","","","","","","",""
"","","","","","image-keyboard-response","68","121111","0.0-2.0-5.0-1.23","5f48ad1ab90d143747dadfe9","F1","batch6","","1425.5","stim/yes_42_dia_w1_w.png","j","pattern_response","false","f","pattern_64","1425.5","false","19","","","","","","","","","","","","","","","","","","",""
"","","","","","html-keyboard-response","69","122423","0.0-2.0-5.0-0.24","5f48ad1ab90d143747dadfe9","F1","batch6","","null","<p class=block-text>Trial 25 out of 78</p>","null","pattern_show_trial_num","","","","","","","","","","","","","","","","","","","","","","","","",""
"","","","","","image-keyboard-response","70","123135","0.0-2.0-5.0-1.24","5f48ad1ab90d143747dadfe9","F1","batch6","","708.7000000476837","stim/no_12_1.png","j","pattern_response","true","j","pattern_01","708.7000000476837","true","20","","","","","","","","","","","","","","","","","","",""
"","","","","","html-keyboard-response","71","124450","0.0-2.0-5.0-0.25","5f48ad1ab90d143747dadfe9","F1","batch6","","null","<p class=block-text>Trial 26 out of 78</p>","null","pattern_show_trial_num","","","","","","","","","","","","","","","","","","","","","","","","",""
"","","","","","image-keyboard-response","72","125415","0.0-2.0-5.0-1.25","5f48ad1ab90d143747dadfe9","F1","batch6","","962.5999999046326","stim/no_33_1_b.png","j","pattern_response","true","j","pattern_15","962.5999999046326","true","21","","","","","","","","","","","","","","","","","","",""
"","","","","","html-keyboard-response","73","126740","0.0-2.0-5.0-0.26","5f48ad1ab90d143747dadfe9","F1","batch6","","null","<p class=block-text>Trial 27 out of 78</p>","null","pattern_show_trial_num","","","","","","","","","","","","","","","","","","","","","","","","",""
"","","","","","image-keyboard-response","74","128001","0.0-2.0-5.0-1.26","5f48ad1ab90d143747dadfe9","F1","batch6","","1259.1000000238419","stim/no_67_1.png","j","pattern_response","true","j","pattern_39","1259.1000000238419","true","22","","","","","","","","","","","","","","","","","","",""
"","","","","","html-keyboard-response","75","129316","0.0-2.0-5.0-0.27","5f48ad1ab90d143747dadfe9","F1","batch6","","null","<p class=block-text>Trial 28 out of 78</p>","null","pattern_show_trial_num","","","","","","","","","","","","","","","","","","","","","","","","",""
"","","","","","image-keyboard-response","76","130474","0.0-2.0-5.0-1.27","5f48ad1ab90d143747dadfe9","F1","batch6","","1155.8000000715256","stim/yes_49_hor_w1_b.png","f","pattern_response","true","f","pattern_70","1155.8000000715256","true","23","","","","","","","","","","","","","","","","","","",""
"","","","","","html-keyboard-response","77","131784","0.0-2.0-5.0-0.28","5f48ad1ab90d143747dadfe9","F1","batch6","","null","<p class=block-text>Trial 29 out of 78</p>","null","pattern_show_trial_num","","","","","","","","","","","","","","","","","","","","","","","","",""
"","","","","","image-keyboard-response","78","133427","0.0-2.0-5.0-1.28","5f48ad1ab90d143747dadfe9","F1","batch6","","1641.6000000238419","stim/no_28_2.png","j","pattern_response","true","j","pattern_11","1641.6000000238419","true","24","","","","","","","","","","","","","","","","","","",""
"","","","","","html-keyboard-response","79","134733","0.0-2.0-5.0-0.29","5f48ad1ab90d143747dadfe9","F1","batch6","","null","<p class=block-text>Trial 30 out of 78</p>","null","pattern_show_trial_num","","","","","","","","","","","","","","","","","","","","","","","","",""
"","","","","","image-keyboard-response","80","136042","0.0-2.0-5.0-1.29","5f48ad1ab90d143747dadfe9","F1","batch6","","1303.6999999284744","stim/yes_37_hor_w1_w.png","f","pattern_response","true","f","pattern_60","1303.6999999284744","true","25","","","","","","","","","","","","","","","","","","",""
"","","","","","html-keyboard-response","81","137356","0.0-2.0-5.0-0.30","5f48ad1ab90d143747dadfe9","F1","batch6","","null","<p class=block-text>Trial 31 out of 78</p>","null","pattern_show_trial_num","","","","","","","","","","","","","","","","","","","","","","","","",""
"","","","","","image-keyboard-response","82","138527","0.0-2.0-5.0-1.30","5f48ad1ab90d143747dadfe9","F1","batch6","","1168.8999999761581","stim/yes_53_ver_b1_b.png","f","pattern_response","true","f","pattern_74","1168.8999999761581","true","26","","","","","","","","","","","","","","","","","","",""
"","","","","","html-keyboard-response","83","139846","0.0-2.0-5.0-0.31","5f48ad1ab90d143747dadfe9","F1","batch6","","null","<p class=block-text>Trial 32 out of 78</p>","null","pattern_show_trial_num","","","","","","","","","","","","","","","","","","","","","","","","",""
"","","","","","image-keyboard-response","84","141054","0.0-2.0-5.0-1.31","5f48ad1ab90d143747dadfe9","F1","batch6","","1204.5","stim/yes_26_dia_w2_w.png","j","pattern_response","false","f","pattern_50","1204.5","false","26","","","","","","","","","","","","","","","","","","",""
"","","","","","html-keyboard-response","85","142376","0.0-2.0-5.0-0.32","5f48ad1ab90d143747dadfe9","F1","batch6","","null","<p class=block-text>Trial 33 out of 78</p>","null","pattern_show_trial_num","","","","","","","","","","","","","","","","","","","","","","","","",""
"","","","","","image-keyboard-response","86","143087","0.0-2.0-5.0-1.32","5f48ad1ab90d143747dadfe9","F1","batch6","","708.0999999046326","stim/no_30_1_b.png","j","pattern_response","true","j","pattern_13","708.0999999046326","true","27","","","","","","","","","","","","","","","","","","",""
"","","","","","html-keyboard-response","87","144395","0.0-2.0-5.0-0.33","5f48ad1ab90d143747dadfe9","F1","batch6","","null","<p class=block-text>Trial 34 out of 78</p>","null","pattern_show_trial_num","","","","","","","","","","","","","","","","","","","","","","","","",""
"","","","","","image-keyboard-response","88","145069","0.0-2.0-5.0-1.33","5f48ad1ab90d143747dadfe9","F1","batch6","","672.2999999523163","stim/yes_33_dia_w1_w.png","j","pattern_response","false","f","pattern_56","672.2999999523163","false","27","","","","","","","","","","","","","","","","","","",""
"","","","","","html-keyboard-response","89","146390","0.0-2.0-5.0-0.34","5f48ad1ab90d143747dadfe9","F1","batch6","","null","<p class=block-text>Trial 35 out of 78</p>","null","pattern_show_trial_num","","","","","","","","","","","","","","","","","","","","","","","","",""
"","","","","","image-keyboard-response","90","147159","0.0-2.0-5.0-1.34","5f48ad1ab90d143747dadfe9","F1","batch6","","766.8999999761581","stim/yes_46_ver_b1_b.png","f","pattern_response","true","f","pattern_68","766.8999999761581","true","28","","","","","","","","","","","","","","","","","","",""
"","","","","","html-keyboard-response","91","148480","0.0-2.0-5.0-0.35","5f48ad1ab90d143747dadfe9","F1","batch6","","null","<p class=block-text>Trial 36 out of 78</p>","null","pattern_show_trial_num","","","","","","","","","","","","","","","","","","","","","","","","",""
"","","","","","image-keyboard-response","92","149712","0.0-2.0-5.0-1.35","5f48ad1ab90d143747dadfe9","F1","batch6","","1229.8999999761581","stim/no_37_2_w.png","j","pattern_response","true","j","pattern_19","1229.8999999761581","true","29","","","","","","","","","","","","","","","","","","",""
"","","","","","html-keyboard-response","93","151021","0.0-2.0-5.0-0.36","5f48ad1ab90d143747dadfe9","F1","batch6","","null","<p class=block-text>Trial 37 out of 78</p>","null","pattern_show_trial_num","","","","","","","","","","","","","","","","","","","","","","","","",""
"","","","","","image-keyboard-response","94","152452","0.0-2.0-5.0-1.36","5f48ad1ab90d143747dadfe9","F1","batch6","","1429.5","stim/no_39_1_w.png","j","pattern_response","true","j","pattern_21","1429.5","true","30","","","","","","","","","","","","","","","","","","",""
"","","","","","html-keyboard-response","95","153757","0.0-2.0-5.0-0.37","5f48ad1ab90d143747dadfe9","F1","batch6","","null","<p class=block-text>Trial 38 out of 78</p>","null","pattern_show_trial_num","","","","","","","","","","","","","","","","","","","","","","","","",""
"","","","","","image-keyboard-response","96","155418","0.0-2.0-5.0-1.37","5f48ad1ab90d143747dadfe9","F1","batch6","","1658.7999999523163","stim/yes_51_dia_b1.png","j","pattern_response","false","f","pattern_72","1658.7999999523163","false","30","","","","","","","","","","","","","","","","","","",""
"","","","","","html-keyboard-response","97","156723","0.0-2.0-5.0-0.38","5f48ad1ab90d143747dadfe9","F1","batch6","","null","<p class=block-text>Trial 39 out of 78</p>","null","pattern_show_trial_num","","","","","","","","","","","","","","","","","","","","","","","","",""
"","","","","","image-keyboard-response","98","157473","0.0-2.0-5.0-1.38","5f48ad1ab90d143747dadfe9","F1","batch6","","747.5","stim/yes_29_hor_b1_b.png","f","pattern_response","true","f","pattern_52","747.5","true","31","","","","","","","","","","","","","","","","","","",""
"","","","","","image-keyboard-response","99","160043","0.0-2.0-6.0","5f48ad1ab90d143747dadfe9","F1","batch6","","2056.100000023842","stim/empty_board.png","j","attention_check","true","j","","","","","500","[""f"",""j""]","","","","","","","","","","","","","","","","",""
"","","","","","html-keyboard-response","100","160855","0.0-2.0-7.0-0.0","5f48ad1ab90d143747dadfe9","F1","batch6","","null","<p class=block-text>Trial 40 out of 78</p>","null","pattern_show_trial_num","","","","","","","","","","","","","","","","","","","","","","","","",""
"","","","","","image-keyboard-response","101","164723","0.0-2.0-7.0-1.0","5f48ad1ab90d143747dadfe9","F1","batch6","","3866.399999976158","stim/yes_48_dia_w1_w.png","f","pattern_response","true","f","pattern_69","3866.399999976158","true","32","","","","","","","","","","","","","","","","","","",""
"","","","","","html-keyboard-response","102","166037","0.0-2.0-7.0-0.1","5f48ad1ab90d143747dadfe9","F1","batch6","","null","<p class=block-text>Trial 41 out of 78</p>","null","pattern_show_trial_num","","","","","","","","","","","","","","","","","","","","","","","","",""
"","","","","","image-keyboard-response","103","168708","0.0-2.0-7.0-1.1","5f48ad1ab90d143747dadfe9","F1","batch6","","2668.100000023842","stim/yes_28_ver_b1.png","f","pattern_response","true","f","pattern_51","2668.100000023842","true","33","","","","","","","","","","","","","","","","","","",""
"","","","","","html-keyboard-response","104","170020","0.0-2.0-7.0-0.2","5f48ad1ab90d143747dadfe9","F1","batch6","","null","<p class=block-text>Trial 42 out of 78</p>","null","pattern_show_trial_num","","","","","","","","","","","","","","","","","","","","","","","","",""
"","","","","","image-keyboard-response","105","172322","0.0-2.0-7.0-1.2","5f48ad1ab90d143747dadfe9","F1","batch6","","2299.1999999284744","stim/yes_29_ver_w1.png","f","pattern_response","true","f","pattern_53","2299.1999999284744","true","34","","","","","","","","","","","","","","","","","","",""
"","","","","","html-keyboard-response","106","173625","0.0-2.0-7.0-0.3","5f48ad1ab90d143747dadfe9","F1","batch6","","null","<p class=block-text>Trial 43 out of 78</p>","null","pattern_show_trial_num","","","","","","","","","","","","","","","","","","","","","","","","",""
"","","","","","image-keyboard-response","107","175567","0.0-2.0-7.0-1.3","5f48ad1ab90d143747dadfe9","F1","batch6","","1939.7999999523163","stim/yes_40_dia_b1_b.png","j","pattern_response","false","f","pattern_63","1939.7999999523163","false","34","","","","","","","","","","","","","","","","","","",""
"","","","","","html-keyboard-response","108","176882","0.0-2.0-7.0-0.4","5f48ad1ab90d143747dadfe9","F1","batch6","","null","<p class=block-text>Trial 44 out of 78</p>","null","pattern_show_trial_num","","","","","","","","","","","","","","","","","","","","","","","","",""
"","","","","","image-keyboard-response","109","178390","0.0-2.0-7.0-1.4","5f48ad1ab90d143747dadfe9","F1","batch6","","1505.1000000238419","stim/yes_35_dia_b1.png","j","pattern_response","false","f","pattern_57","1505.1000000238419","false","34","","","","","","","","","","","","","","","","","","",""
"","","","","","html-keyboard-response","110","179708","0.0-2.0-7.0-0.5","5f48ad1ab90d143747dadfe9","F1","batch6","","null","<p class=block-text>Trial 45 out of 78</p>","null","pattern_show_trial_num","","","","","","","","","","","","","","","","","","","","","","","","",""
"","","","","","image-keyboard-response","111","181789","0.0-2.0-7.0-1.5","5f48ad1ab90d143747dadfe9","F1","batch6","","2077.3000000715256","stim/yes_43_ver_w1_w.png","f","pattern_response","true","f","pattern_65","2077.3000000715256","true","35","","","","","","","","","","","","","","","","","","",""
"","","","","","html-keyboard-response","112","183093","0.0-2.0-7.0-0.6","5f48ad1ab90d143747dadfe9","F1","batch6","","null","<p class=block-text>Trial 46 out of 78</p>","null","pattern_show_trial_num","","","","","","","","","","","","","","","","","","","","","","","","",""
"","","","","","image-keyboard-response","113","185617","0.0-2.0-7.0-1.6","5f48ad1ab90d143747dadfe9","F1","batch6","","2520.899999976158","stim/yes_50_dia_w1.png","j","pattern_response","false","f","pattern_71","2520.899999976158","false","35","","","","","","","","","","","","","","","","","","",""
"","","","","","html-keyboard-response","114","186943","0.0-2.0-7.0-0.7","5f48ad1ab90d143747dadfe9","F1","batch6","","null","<p class=block-text>Trial 47 out of 78</p>","null","pattern_show_trial_num","","","","","","","","","","","","","","","","","","","","","","","","",""
"","","","","","image-keyboard-response","115","187845","0.0-2.0-7.0-1.7","5f48ad1ab90d143747dadfe9","F1","batch6","","900.7000000476837","stim/yes_25_hor_b1_b.png","f","pattern_response","true","f","pattern_49","900.7000000476837","true","36","","","","","","","","","","","","","","","","","","",""
"","","","","","html-keyboard-response","116","189162","0.0-2.0-7.0-0.8","5f48ad1ab90d143747dadfe9","F1","batch6","","null","<p class=block-text>Trial 48 out of 78</p>","null","pattern_show_trial_num","","","","","","","","","","","","","","","","","","","","","","","","",""
"","","","","","image-keyboard-response","117","190791","0.0-2.0-7.0-1.8","5f48ad1ab90d143747dadfe9","F1","batch6","","1628.8999999761581","stim/no_36_2_w.png","j","pattern_response","true","j","pattern_18","1628.8999999761581","true","37","","","","","","","","","","","","","","","","","","",""
"","","","","","html-keyboard-response","118","192109","0.0-2.0-7.0-0.9","5f48ad1ab90d143747dadfe9","F1","batch6","","null","<p class=block-text>Trial 49 out of 78</p>","null","pattern_show_trial_num","","","","","","","","","","","","","","","","","","","","","","","","",""
"","","","","","image-keyboard-response","119","193718","0.0-2.0-7.0-1.9","5f48ad1ab90d143747dadfe9","F1","batch6","","1605.7999999523163","stim/yes_67_hor_b1.png","f","pattern_response","true","f","pattern_79","1605.7999999523163","true","38","","","","","","","","","","","","","","","","","","",""
"","","","","","html-keyboard-response","120","195021","0.0-2.0-7.0-0.10","5f48ad1ab90d143747dadfe9","F1","batch6","","null","<p class=block-text>Trial 50 out of 78</p>","null","pattern_show_trial_num","","","","","","","","","","","","","","","","","","","","","","","","",""
"","","","","","image-keyboard-response","121","197226","0.0-2.0-7.0-1.10","5f48ad1ab90d143747dadfe9","F1","batch6","","2203.0999999046326","stim/yes_60_ver_b1_b.png","j","pattern_response","false","f","pattern_77","2203.0999999046326","false","38","","","","","","","","","","","","","","","","","","",""
"","","","","","html-keyboard-response","122","198541","0.0-2.0-7.0-0.11","5f48ad1ab90d143747dadfe9","F1","batch6","","null","<p class=block-text>Trial 51 out of 78</p>","null","pattern_show_trial_num","","","","","","","","","","","","","","","","","","","","","","","","",""
"","","","","","image-keyboard-response","123","199679","0.0-2.0-7.0-1.11","5f48ad1ab90d143747dadfe9","F1","batch6","","1134.3000000715256","stim/yes_45_hor_b2_b.png","f","pattern_response","true","f","pattern_67","1134.3000000715256","true","39","","","","","","","","","","","","","","","","","","",""
"","","","","","html-keyboard-response","124","200990","0.0-2.0-7.0-0.12","5f48ad1ab90d143747dadfe9","F1","batch6","","null","<p class=block-text>Trial 52 out of 78</p>","null","pattern_show_trial_num","","","","","","","","","","","","","","","","","","","","","","","","",""
"","","","","","image-keyboard-response","125","201834","0.0-2.0-7.0-1.12","5f48ad1ab90d143747dadfe9","F1","batch6","","841.2999999523163","stim/no_32_1_w.png","j","pattern_response","true","j","pattern_14","841.2999999523163","true","40","","","","","","","","","","","","","","","","","","",""
"","","","","","html-keyboard-response","126","203150","0.0-2.0-7.0-0.13","5f48ad1ab90d143747dadfe9","F1","batch6","","null","<p class=block-text>Trial 53 out of 78</p>","null","pattern_show_trial_num","","","","","","","","","","","","","","","","","","","","","","","","",""
"","","","","","image-keyboard-response","127","204524","0.0-2.0-7.0-1.13","5f48ad1ab90d143747dadfe9","F1","batch6","","1372","stim/no_29_1_b.png","j","pattern_response","true","j","pattern_12","1372","true","41","","","","","","","","","","","","","","","","","","",""
"","","","","","html-keyboard-response","128","205845","0.0-2.0-7.0-0.14","5f48ad1ab90d143747dadfe9","F1","batch6","","null","<p class=block-text>Trial 54 out of 78</p>","null","pattern_show_trial_num","","","","","","","","","","","","","","","","","","","","","","","","",""
"","","","","","image-keyboard-response","129","208203","0.0-2.0-7.0-1.14","5f48ad1ab90d143747dadfe9","F1","batch6","","2354.7999999523163","stim/no_55_1_w.png","j","pattern_response","true","j","pattern_34","2354.7999999523163","true","42","","","","","","","","","","","","","","","","","","",""
"","","","","","html-keyboard-response","130","209524","0.0-2.0-7.0-0.15","5f48ad1ab90d143747dadfe9","F1","batch6","","null","<p class=block-text>Trial 55 out of 78</p>","null","pattern_show_trial_num","","","","","","","","","","","","","","","","","","","","","","","","",""
"","","","","","image-keyboard-response","131","210842","0.0-2.0-7.0-1.15","5f48ad1ab90d143747dadfe9","F1","batch6","","1313.8000000715256","stim/no_34_1_b.png","j","pattern_response","true","j","pattern_16","1313.8000000715256","true","43","","","","","","","","","","","","","","","","","","",""
"","","","","","html-keyboard-response","132","212162","0.0-2.0-7.0-0.16","5f48ad1ab90d143747dadfe9","F1","batch6","","null","<p class=block-text>Trial 56 out of 78</p>","null","pattern_show_trial_num","","","","","","","","","","","","","","","","","","","","","","","","",""
"","","","","","image-keyboard-response","133","212966","0.0-2.0-7.0-1.16","5f48ad1ab90d143747dadfe9","F1","batch6","","801.2000000476837","stim/no_20_1_w.png","j","pattern_response","true","j","pattern_06","801.2000000476837","true","44","","","","","","","","","","","","","","","","","","",""
"","","","","","html-keyboard-response","134","214286","0.0-2.0-7.0-0.17","5f48ad1ab90d143747dadfe9","F1","batch6","","null","<p class=block-text>Trial 57 out of 78</p>","null","pattern_show_trial_num","","","","","","","","","","","","","","","","","","","","","","","","",""
"","","","","","image-keyboard-response","135","216615","0.0-2.0-7.0-1.17","5f48ad1ab90d143747dadfe9","F1","batch6","","2326.399999976158","stim/no_44_1.png","j","pattern_response","true","j","pattern_24","2326.399999976158","true","45","","","","","","","","","","","","","","","","","","",""
"","","","","","html-keyboard-response","136","217929","0.0-2.0-7.0-0.18","5f48ad1ab90d143747dadfe9","F1","batch6","","null","<p class=block-text>Trial 58 out of 78</p>","null","pattern_show_trial_num","","","","","","","","","","","","","","","","","","","","","","","","",""
"","","","","","image-keyboard-response","137","219599","0.0-2.0-7.0-1.18","5f48ad1ab90d143747dadfe9","F1","batch6","","1667.3999999761581","stim/no_46_1_b.png","j","pattern_response","true","j","pattern_26","1667.3999999761581","true","46","","","","","","","","","","","","","","","","","","",""
"","","","","","html-keyboard-response","138","220919","0.0-2.0-7.0-0.19","5f48ad1ab90d143747dadfe9","F1","batch6","","null","<p class=block-text>Trial 59 out of 78</p>","null","pattern_show_trial_num","","","","","","","","","","","","","","","","","","","","","","","","",""
"","","","","","image-keyboard-response","139","222268","0.0-2.0-7.0-1.19","5f48ad1ab90d143747dadfe9","F1","batch6","","1347.7999999523163","stim/yes_52_ver_w1.png","f","pattern_response","true","f","pattern_73","1347.7999999523163","true","47","","","","","","","","","","","","","","","","","","",""
"","","","","","html-keyboard-response","140","223575","0.0-2.0-7.0-0.20","5f48ad1ab90d143747dadfe9","F1","batch6","","null","<p class=block-text>Trial 60 out of 78</p>","null","pattern_show_trial_num","","","","","","","","","","","","","","","","","","","","","","","","",""
"","","","","","image-keyboard-response","141","224559","0.0-2.0-7.0-1.20","5f48ad1ab90d143747dadfe9","F1","batch6","","981.9000000953674","stim/no_48_1_w.png","j","pattern_response","true","j","pattern_28","981.9000000953674","true","48","","","","","","","","","","","","","","","","","","",""
"","","","","","html-keyboard-response","142","225878","0.0-2.0-7.0-0.21","5f48ad1ab90d143747dadfe9","F1","batch6","","null","<p class=block-text>Trial 61 out of 78</p>","null","pattern_show_trial_num","","","","","","","","","","","","","","","","","","","","","","","","",""
"","","","","","image-keyboard-response","143","228278","0.0-2.0-7.0-1.21","5f48ad1ab90d143747dadfe9","F1","batch6","","2397.2999999523163","stim/no_70_2.png","f","pattern_response","false","j","pattern_40","2397.2999999523163","false","48","","","","","","","","","","","","","","","","","","",""
"","","","","","html-keyboard-response","144","229591","0.0-2.0-7.0-0.22","5f48ad1ab90d143747dadfe9","F1","batch6","","null","<p class=block-text>Trial 62 out of 78</p>","null","pattern_show_trial_num","","","","","","","","","","","","","","","","","","","","","","","","",""
"","","","","","image-keyboard-response","145","233098","0.0-2.0-7.0-1.22","5f48ad1ab90d143747dadfe9","F1","batch6","","3502.8000000715256","stim/no_38_1_b.png","j","pattern_response","true","j","pattern_20","3502.8000000715256","true","49","","","","","","","","","","","","","","","","","","",""
"","","","","","html-keyboard-response","146","234415","0.0-2.0-7.0-0.23","5f48ad1ab90d143747dadfe9","F1","batch6","","null","<p class=block-text>Trial 63 out of 78</p>","null","pattern_show_trial_num","","","","","","","","","","","","","","","","","","","","","","","","",""
"","","","","","image-keyboard-response","147","236198","0.0-2.0-7.0-1.23","5f48ad1ab90d143747dadfe9","F1","batch6","","1778.6000000238419","stim/no_65_1_b.png","j","pattern_response","true","j","pattern_38","1778.6000000238419","true","50","","","","","","","","","","","","","","","","","","",""
"","","","","","html-keyboard-response","148","237508","0.0-2.0-7.0-0.24","5f48ad1ab90d143747dadfe9","F1","batch6","","null","<p class=block-text>Trial 64 out of 78</p>","null","pattern_show_trial_num","","","","","","","","","","","","","","","","","","","","","","","","",""
"","","","","","image-keyboard-response","149","238390","0.0-2.0-7.0-1.24","5f48ad1ab90d143747dadfe9","F1","batch6","","881.6000000238419","stim/no_26_1_w.png","j","pattern_response","true","j","pattern_10","881.6000000238419","true","51","","","","","","","","","","","","","","","","","","",""
"","","","","","html-keyboard-response","150","239709","0.0-2.0-7.0-0.25","5f48ad1ab90d143747dadfe9","F1","batch6","","null","<p class=block-text>Trial 65 out of 78</p>","null","pattern_show_trial_num","","","","","","","","","","","","","","","","","","","","","","","","",""
"","","","","","image-keyboard-response","151","241102","0.0-2.0-7.0-1.25","5f48ad1ab90d143747dadfe9","F1","batch6","","1390.5","stim/no_17_1_w.png","j","pattern_response","true","j","pattern_04","1390.5","true","52","","","","","","","","","","","","","","","","","","",""
"","","","","","html-keyboard-response","152","242423","0.0-2.0-7.0-0.26","5f48ad1ab90d143747dadfe9","F1","batch6","","null","<p class=block-text>Trial 66 out of 78</p>","null","pattern_show_trial_num","","","","","","","","","","","","","","","","","","","","","","","","",""
"","","","","","image-keyboard-response","153","244054","0.0-2.0-7.0-1.26","5f48ad1ab90d143747dadfe9","F1","batch6","","1628.1000000238419","stim/yes_31_hor_b1.png","f","pattern_response","true","f","pattern_55","1628.1000000238419","true","53","","","","","","","","","","","","","","","","","","",""
"","","","","","html-keyboard-response","154","245364","0.0-2.0-7.0-0.27","5f48ad1ab90d143747dadfe9","F1","batch6","","null","<p class=block-text>Trial 67 out of 78</p>","null","pattern_show_trial_num","","","","","","","","","","","","","","","","","","","","","","","","",""
"","","","","","image-keyboard-response","155","246856","0.0-2.0-7.0-1.27","5f48ad1ab90d143747dadfe9","F1","batch6","","1490.7000000476837","stim/yes_37_dia_w1.png","j","pattern_response","false","f","pattern_59","1490.7000000476837","false","53","","","","","","","","","","","","","","","","","","",""
"","","","","","html-keyboard-response","156","248167","0.0-2.0-7.0-0.28","5f48ad1ab90d143747dadfe9","F1","batch6","","null","<p class=block-text>Trial 68 out of 78</p>","null","pattern_show_trial_num","","","","","","","","","","","","","","","","","","","","","","","","",""
"","","","","","image-keyboard-response","157","249423","0.0-2.0-7.0-1.28","5f48ad1ab90d143747dadfe9","F1","batch6","","1253.3999999761581","stim/yes_38_hor_b1_b.png","j","pattern_response","false","f","pattern_61","1253.3999999761581","false","53","","","","","","","","","","","","","","","","","","",""
"","","","","","html-keyboard-response","158","250738","0.0-2.0-7.0-0.29","5f48ad1ab90d143747dadfe9","F1","batch6","","null","<p class=block-text>Trial 69 out of 78</p>","null","pattern_show_trial_num","","","","","","","","","","","","","","","","","","","","","","","","",""
"","","","","","image-keyboard-response","159","251431","0.0-2.0-7.0-1.29","5f48ad1ab90d143747dadfe9","F1","batch6","","690.8999999761581","stim/yes_22_ver_w1.png","j","pattern_response","false","f","pattern_47","690.8999999761581","false","53","","","","","","","","","","","","","","","","","","",""
"","","","","","html-keyboard-response","160","252756","0.0-2.0-7.0-0.30","5f48ad1ab90d143747dadfe9","F1","batch6","","null","<p class=block-text>Trial 70 out of 78</p>","null","pattern_show_trial_num","","","","","","","","","","","","","","","","","","","","","","","","",""
"","","","","","image-keyboard-response","161","255853","0.0-2.0-7.0-1.30","5f48ad1ab90d143747dadfe9","F1","batch6","","3094.7999999523163","stim/no_62_1_w.png","j","pattern_response","true","j","pattern_36","3094.7999999523163","true","54","","","","","","","","","","","","","","","","","","",""
"","","","","","html-keyboard-response","162","257167","0.0-2.0-7.0-0.31","5f48ad1ab90d143747dadfe9","F1","batch6","","null","<p class=block-text>Trial 71 out of 78</p>","null","pattern_show_trial_num","","","","","","","","","","","","","","","","","","","","","","","","",""
"","","","","","image-keyboard-response","163","257923","0.0-2.0-7.0-1.31","5f48ad1ab90d143747dadfe9","F1","batch6","","751.1999999284744","stim/no_23_1.png","j","pattern_response","true","j","pattern_08","751.1999999284744","true","55","","","","","","","","","","","","","","","","","","",""
"","","","","","html-keyboard-response","164","259250","0.0-2.0-7.0-0.32","5f48ad1ab90d143747dadfe9","F1","batch6","","null","<p class=block-text>Trial 72 out of 78</p>","null","pattern_show_trial_num","","","","","","","","","","","","","","","","","","","","","","","","",""
"","","","","","image-keyboard-response","165","260049","0.0-2.0-7.0-1.32","5f48ad1ab90d143747dadfe9","F1","batch6","","796.3999999761581","stim/no_13_2_b.png","j","pattern_response","true","j","pattern_02","796.3999999761581","true","56","","","","","","","","","","","","","","","","","","",""
"","","","","","html-keyboard-response","166","261354","0.0-2.0-7.0-0.33","5f48ad1ab90d143747dadfe9","F1","batch6","","null","<p class=block-text>Trial 73 out of 78</p>","null","pattern_show_trial_num","","","","","","","","","","","","","","","","","","","","","","","","",""
"","","","","","image-keyboard-response","167","263119","0.0-2.0-7.0-1.33","5f48ad1ab90d143747dadfe9","F1","batch6","","1763.6999999284744","stim/no_50_1.png","j","pattern_response","true","j","pattern_30","1763.6999999284744","true","57","","","","","","","","","","","","","","","","","","",""
"","","","","","html-keyboard-response","168","264435","0.0-2.0-7.0-0.34","5f48ad1ab90d143747dadfe9","F1","batch6","","null","<p class=block-text>Trial 74 out of 78</p>","null","pattern_show_trial_num","","","","","","","","","","","","","","","","","","","","","","","","",""
"","","","","","image-keyboard-response","169","265189","0.0-2.0-7.0-1.34","5f48ad1ab90d143747dadfe9","F1","batch6","","750.7000000476837","stim/yes_14_hor_b1_w.png","j","pattern_response","false","f","pattern_43","750.7000000476837","false","57","","","","","","","","","","","","","","","","","","",""
"","","","","","html-keyboard-response","170","266508","0.0-2.0-7.0-0.35","5f48ad1ab90d143747dadfe9","F1","batch6","","null","<p class=block-text>Trial 75 out of 78</p>","null","pattern_show_trial_num","","","","","","","","","","","","","","","","","","","","","","","","",""
"","","","","","image-keyboard-response","171","268071","0.0-2.0-7.0-1.35","5f48ad1ab90d143747dadfe9","F1","batch6","","1561.7000000476837","stim/no_42_1_w.png","j","pattern_response","true","j","pattern_22","1561.7000000476837","true","58","","","","","","","","","","","","","","","","","","",""
"","","","","","html-keyboard-response","172","269380","0.0-2.0-7.0-0.36","5f48ad1ab90d143747dadfe9","F1","batch6","","null","<p class=block-text>Trial 76 out of 78</p>","null","pattern_show_trial_num","","","","","","","","","","","","","","","","","","","","","","","","",""
"","","","","","image-keyboard-response","173","271447","0.0-2.0-7.0-1.36","5f48ad1ab90d143747dadfe9","F1","batch6","","2065.100000023842","stim/no_52_1.png","j","pattern_response","true","j","pattern_32","2065.100000023842","true","59","","","","","","","","","","","","","","","","","","",""
"","","","","","html-keyboard-response","174","272757","0.0-2.0-7.0-0.37","5f48ad1ab90d143747dadfe9","F1","batch6","","null","<p class=block-text>Trial 77 out of 78</p>","null","pattern_show_trial_num","","","","","","","","","","","","","","","","","","","","","","","","",""
"","","","","","image-keyboard-response","175","274734","0.0-2.0-7.0-1.37","5f48ad1ab90d143747dadfe9","F1","batch6","","1976.1000000238419","stim/yes_17_dia_w1.png","f","pattern_response","true","f","pattern_45","1976.1000000238419","true","60","","","","","","","","","","","","","","","","","","",""
"","","","","","html-keyboard-response","176","276036","0.0-2.0-7.0-0.38","5f48ad1ab90d143747dadfe9","F1","batch6","","null","<p class=block-text>Trial 78 out of 78</p>","null","pattern_show_trial_num","","","","","","","","","","","","","","","","","","","","","","","","",""
"","","","","","image-keyboard-response","177","276857","0.0-2.0-7.0-1.38","5f48ad1ab90d143747dadfe9","F1","batch6","","819.8999999761581","stim/yes_55_hor_w1_w.png","f","pattern_response","true","f","pattern_75","819.8999999761581","true","61","","","","","","","","","","","","","","","","","","",""
"","","","","","html-button-response","178","281399","0.0-2.0-8.0","5f48ad1ab90d143747dadfe9","F1","batch6","","4032","<p class = block-text>This concludes the 4-in-a-row detection game.Thank you for your responses!<br>
            You responded correctly on 78% of the trials.<br>
            When you are ready, press ""Continue"" button to continue </p>","0","","","","","","","","","","","","","","","","","","","","","","","","","",""
"true","","","","","fullscreen","179","283763","0.0-3.0-0.0","5f48ad1ab90d143747dadfe9","F1","batch6","","","","","","","","","","","","","","","","","","","","","","","","","","","","","",""
"","","","","","instructions","180","323215","0.0-3.0-1.0-0.0-0.0","5f48ad1ab90d143747dadfe9","F1","batch6","[{""page_index"":0,""viewing_time"":9899.700000047684},{""page_index"":1,""viewing_time"":9171.600000023842},{""page_index"":2,""viewing_time"":2521.0999999046326},{""page_index"":3,""viewing_time"":6292},{""page_index"":4,""viewing_time"":3139.2000000476837},{""page_index"":5,""viewing_time"":6511.899999976158},{""page_index"":6,""viewing_time"":1914.8999999761581}]","39450.60000002384","","","tol-instructions","","","","","","","","","","","","","","","","","","","","","","","","",""
"","","","","","html-button-response","181","324144","0.0-3.0-1.0-1.0-0.0","5f48ad1ab90d143747dadfe9","F1","batch6","","927.7999999523163","<p class=block-text> Let's answer a few questions <br>","0","tol_enter_quiz","","","","","","","","","","","","","","","","","","","","","","","","",""
"","","","","","html-button-response","182","326765","0.0-3.0-1.0-1.0-1.0","5f48ad1ab90d143747dadfe9","F1","batch6","","2619.5","<p class = block-text>True or False: You can only move the ball on top of a peg. <br></p>","0","tol_quiz","true","","","","","","","","","","","","","","","","","","","","","","","",""
"","","","","","html-button-response","183","327510","0.0-3.0-1.0-1.0-2.0","5f48ad1ab90d143747dadfe9","F1","batch6","","743.2999999523163","<p class = block-text>Correct! You can only move the ball on top of a peg.</p>","0","tol_quiz_feedback","","","","","","","","","","","","","","","","","","","","","","","","",""
"","","","","","html-button-response","184","329821","0.0-3.0-1.0-1.0-3.0","5f48ad1ab90d143747dadfe9","F1","batch6","","2309.399999976158","<p class = block-text>True or False: You should try to match your board with the target board with fewest moves possible. <br></p>","0","tol_quiz","true","","","","","","","","","","","","","","","","","","","","","","","",""
"","","","","","html-button-response","185","330397","0.0-3.0-1.0-1.0-4.0","5f48ad1ab90d143747dadfe9","F1","batch6","","575","<p class = block-text>Correct! </p>","0","tol_quiz_feedback","","","","","","","","","","","","","","","","","","","","","","","","",""
"","","","","","html-button-response","186","331599","0.0-3.0-2.0","5f48ad1ab90d143747dadfe9","F1","batch6","","1199.8999999761581","<p class=block-text> Now that you've understood the game, let's practice a few easier examples before we start!<br> <br>","0","","","","","","","","","","","","","","","","","","","","","","","","","",""
"","","","","","single-stim-button","187","334171","0.0-3.0-3.0-0.0","5f48ad1ab90d143747dadfe9","F1","batch6","","2568","","","tol_practice","","","","","","","","","tol_peg_2","2568","2568","0","[[1,2,0],[0,0],[0]]","1","[[1,2,0],[0,0],[3]]","practice","2568","","","","","","","",""
"","","","","","single-stim-button","188","334921","0.0-3.0-3.0-1.0","5f48ad1ab90d143747dadfe9","F1","batch6","","747","","","tol_practice","","","","","","","","","tol_peg_3","747","747","0","[[1,2,0],[0,0],[3]]","1","[[1,2,0],[0,0],[3]]","practice","747","","","","","","","",""
"","","","","","poldrack-single-stim","189","335925","0.0-3.0-4.0","5f48ad1ab90d143747dadfe9","F1","batch6","","-1","","","tol_feedback","true","","","","","","","","","1000","1000","500","","","","","","-1","none","true","","0","","",""
"","","","","","single-stim-button","190","338193","0.0-3.0-5.0-0.0","5f48ad1ab90d143747dadfe9","F1","batch6","","2268","","","tol_practice","","","","","","","","","tol_peg_1","2268","2268","0","[[1,0,0],[3,0],[0]]","2","[[0,0,0],[3,1],[2]]","practice","2268","","","","","","","",""
"","","","","","single-stim-button","191","339692","0.0-3.0-5.0-1.0","5f48ad1ab90d143747dadfe9","F1","batch6","","1498","","","tol_practice","","","","","","","","","tol_peg_1","1498","1498","0","[[1,2,0],[3,0],[0]]","2","[[0,0,0],[3,1],[2]]","practice","1498","","","","","","","",""
"","","","","","single-stim-button","192","340444","0.0-3.0-5.1-0.1","5f48ad1ab90d143747dadfe9","F1","batch6","","752","","","tol_practice","","","","","","","","","tol_peg_1","752","752","0","[[1,0,0],[3,0],[0]]","3","[[0,0,0],[3,1],[2]]","practice","752","","","","","","","",""
"","","","","","single-stim-button","193","341500","0.0-3.0-5.1-1.1","5f48ad1ab90d143747dadfe9","F1","batch6","","1055","","","tol_practice","","","","","","","","","tol_peg_3","1055","1055","0","[[1,0,0],[3,0],[2]]","3","[[0,0,0],[3,1],[2]]","practice","1055","","","","","","","",""
"","","","","","single-stim-button","194","342151","0.0-3.0-5.2-0.2","5f48ad1ab90d143747dadfe9","F1","batch6","","648","","","tol_practice","","","","","","","","","tol_peg_1","648","648","0","[[0,0,0],[3,0],[2]]","4","[[0,0,0],[3,1],[2]]","practice","648","","","","","","","",""
"","","","","","single-stim-button","195","342695","0.0-3.0-5.2-1.2","5f48ad1ab90d143747dadfe9","F1","batch6","","542","","","tol_practice","","","","","","","","","tol_peg_2","542","542","0","[[0,0,0],[3,1],[2]]","4","[[0,0,0],[3,1],[2]]","practice","542","","","","","","","",""
"","","","","","poldrack-single-stim","196","343711","0.0-3.0-6.0","5f48ad1ab90d143747dadfe9","F1","batch6","","-1","","","tol_feedback","true","","","","","","","","","1000","1000","500","","","","","","-1","none","true","","0","","",""
"","","","","","single-stim-button","197","347402","0.0-3.0-7.0-0.0","5f48ad1ab90d143747dadfe9","F1","batch6","","3689","","","tol_practice","","","","","","","","","tol_peg_2","3689","3689","0","[[1,2,0],[0,0],[0]]","5","[[1,0,0],[2,0],[3]]","practice","3689","","","","","","","",""
"","","","","","single-stim-button","198","347892","0.0-3.0-7.0-1.0","5f48ad1ab90d143747dadfe9","F1","batch6","","488","","","tol_practice","","","","","","","","","tol_peg_3","488","488","0","[[1,2,0],[0,0],[3]]","5","[[1,0,0],[2,0],[3]]","practice","488","","","","","","","",""
"","","","","","single-stim-button","199","348517","0.0-3.0-7.1-0.1","5f48ad1ab90d143747dadfe9","F1","batch6","","624","","","tol_practice","","","","","","","","","tol_peg_1","624","624","0","[[1,0,0],[0,0],[3]]","6","[[1,0,0],[2,0],[3]]","practice","624","","","","","","","",""
"","","","","","single-stim-button","200","349011","0.0-3.0-7.1-1.1","5f48ad1ab90d143747dadfe9","F1","batch6","","494","","","tol_practice","","","","","","","","","tol_peg_2","494","494","0","[[1,0,0],[2,0],[3]]","6","[[1,0,0],[2,0],[3]]","practice","494","","","","","","","",""
"","","","","","poldrack-single-stim","201","350014","0.0-3.0-8.0","5f48ad1ab90d143747dadfe9","F1","batch6","","-1","","","tol_feedback","true","","","","","","","","","1000","1000","500","","","","","","-1","none","true","","0","","",""
"","","","","","html-button-response","202","352085","0.0-3.0-9.0","5f48ad1ab90d143747dadfe9","F1","batch6","","2069.899999976158","<div class = centerbox><p class = center-block-text>Great job! You are done with practice trials<br>You are about to start official trials.<br> <br> Problem <strong>1</strong> out of 25 problems</p></div>","0","tol_instruction","","","","","","","","","","","","","","","","","","","","","","","","",""
"","","","","","single-stim-button","203","357574","0.0-3.0-10.0-0.0","5f48ad1ab90d143747dadfe9","F1","batch6","","4487","","","tol_tohand","","","","","","","","","tol_peg_1","4487","4487","0","[[1,0,0],[3,0],[0]]","1","[[1,3,0],[2,0],[0]]","0","0","","","","","","3","",""
"","","","","","single-stim-button","204","358204","0.0-3.0-10.0-1.0","5f48ad1ab90d143747dadfe9","F1","batch6","","628","","","tol_toboard","","","","","","","","","tol_peg_3","628","628","0","[[1,0,0],[3,0],[2]]","1","[[1,3,0],[2,0],[0]]","0","0","","","","","","3","",""
"","","","","","single-stim-button","205","358596","0.0-3.0-10.1-0.1","5f48ad1ab90d143747dadfe9","F1","batch6","","390","","","tol_tohand","","","","","","","","","tol_peg_2","390","390","0","[[1,0,0],[0,0],[2]]","2","[[1,3,0],[2,0],[0]]","0","0","","","","","","3","",""
"","","","","","single-stim-button","206","360055","0.0-3.0-10.1-1.1","5f48ad1ab90d143747dadfe9","F1","batch6","","1458","","","tol_toboard","","","","","","","","","tol_peg_1","1458","1458","0","[[1,3,0],[0,0],[2]]","2","[[1,3,0],[2,0],[0]]","0","0","","","","","","3","",""
"","","","","","single-stim-button","207","360597","0.0-3.0-10.2-0.2","5f48ad1ab90d143747dadfe9","F1","batch6","","541","","","tol_tohand","","","","","","","","","tol_peg_3","541","541","0","[[1,3,0],[0,0],[0]]","3","[[1,3,0],[2,0],[0]]","0","0","","","","","","3","",""
"","","","","","single-stim-button","208","361029","0.0-3.0-10.2-1.2","5f48ad1ab90d143747dadfe9","F1","batch6","","432","","","tol_toboard","","","","","","","","","tol_peg_2","432","432","0","[[1,3,0],[2,0],[0]]","3","[[1,3,0],[2,0],[0]]","0","0","","","","","","3","",""
"","","","","","poldrack-single-stim","209","362031","0.0-3.0-11.0","5f48ad1ab90d143747dadfe9","F1","batch6","","-1","","","tol_feedback","true","","","","","","","","","1000","1000","500","","","","","","-1","none","true","4487","5418","","",""
"","","","","","html-button-response","210","362790","0.0-3.0-12.0","5f48ad1ab90d143747dadfe9","F1","batch6","","757.7000000476837","<div class = centerbox><p class = center-block-text>problem <strong>2</strong> out of 25 problems</p></div>","0","tol_trial_num","","","","","","","","","","","","","","","","","","","","","","","","",""
"","","","","","single-stim-button","211","366002","0.0-3.0-13.0-0.0","5f48ad1ab90d143747dadfe9","F1","batch6","","3209","","","tol_tohand","","","","","","","","","tol_peg_2","3209","3209","0","[[1,2,0],[0,0],[0]]","1","[[2,1,3],[0,0],[0]]","1","0","","","","","","5","",""
"","","","","","single-stim-button","212","366577","0.0-3.0-13.0-1.0","5f48ad1ab90d143747dadfe9","F1","batch6","","574","","","tol_toboard","","","","","","","","","tol_peg_3","574","574","0","[[1,2,0],[0,0],[3]]","1","[[2,1,3],[0,0],[0]]","1","0","","","","","","5","",""
"","","","","","single-stim-button","213","367189","0.0-3.0-13.1-0.1","5f48ad1ab90d143747dadfe9","F1","batch6","","611","","","tol_tohand","","","","","","","","","tol_peg_1","611","611","0","[[1,0,0],[0,0],[3]]","2","[[2,1,3],[0,0],[0]]","1","0","","","","","","5","",""
"","","","","","single-stim-button","214","367822","0.0-3.0-13.1-1.1","5f48ad1ab90d143747dadfe9","F1","batch6","","631","","","tol_toboard","","","","","","","","","tol_peg_2","631","631","0","[[1,0,0],[2,0],[3]]","2","[[2,1,3],[0,0],[0]]","1","0","","","","","","5","",""
"","","","","","single-stim-button","215","368398","0.0-3.0-13.2-0.2","5f48ad1ab90d143747dadfe9","F1","batch6","","573","","","tol_tohand","","","","","","","","","tol_peg_1","573","573","0","[[0,0,0],[2,0],[3]]","3","[[2,1,3],[0,0],[0]]","1","0","","","","","","5","",""
"","","","","","single-stim-button","216","368884","0.0-3.0-13.2-1.2","5f48ad1ab90d143747dadfe9","F1","batch6","","486","","","tol_toboard","","","","","","","","","tol_peg_2","486","486","0","[[0,0,0],[2,1],[3]]","3","[[2,1,3],[0,0],[0]]","1","0","","","","","","5","",""
"","","","","","single-stim-button","217","369430","0.0-3.0-13.3-0.3","5f48ad1ab90d143747dadfe9","F1","batch6","","545","","","tol_tohand","","","","","","","","","tol_peg_3","545","545","0","[[0,0,0],[2,1],[0]]","4","[[2,1,3],[0,0],[0]]","1","0","","","","","","5","",""
"","","","","","single-stim-button","218","371615","0.0-3.0-13.3-1.3","5f48ad1ab90d143747dadfe9","F1","batch6","","2183","","","tol_toboard","","","","","","","","","tol_peg_3","2183","2183","0","[[0,0,0],[2,1],[3]]","4","[[2,1,3],[0,0],[0]]","1","0","","","","","","5","",""
"","","","","","single-stim-button","219","372312","0.0-3.0-13.4-0.4","5f48ad1ab90d143747dadfe9","F1","batch6","","695","","","tol_tohand","","","","","","","","","tol_peg_2","695","695","0","[[0,0,0],[2,0],[3]]","5","[[2,1,3],[0,0],[0]]","1","0","","","","","","5","",""
"","","","","","single-stim-button","220","373085","0.0-3.0-13.4-1.4","5f48ad1ab90d143747dadfe9","F1","batch6","","772","","","tol_toboard","","","","","","","","","tol_peg_2","772","772","0","[[0,0,0],[2,1],[3]]","5","[[2,1,3],[0,0],[0]]","1","0","","","","","","5","",""
"","","","","","single-stim-button","221","374462","0.0-3.0-13.5-0.5","5f48ad1ab90d143747dadfe9","F1","batch6","","1376","","","tol_tohand","","","","","","","","","tol_peg_2","1376","1376","0","[[0,0,0],[2,0],[3]]","6","[[2,1,3],[0,0],[0]]","1","0","","","","","","5","",""
"","","","","","single-stim-button","222","375275","0.0-3.0-13.5-1.5","5f48ad1ab90d143747dadfe9","F1","batch6","","812","","","tol_toboard","","","","","","","","","tol_peg_2","812","812","0","[[0,0,0],[2,1],[3]]","6","[[2,1,3],[0,0],[0]]","1","0","","","","","","5","",""
"","","","","","single-stim-button","223","375860","0.0-3.0-13.6-0.6","5f48ad1ab90d143747dadfe9","F1","batch6","","585","","","tol_tohand","","","","","","","","","tol_peg_2","585","585","0","[[0,0,0],[2,0],[3]]","7","[[2,1,3],[0,0],[0]]","1","0","","","","","","5","",""
"","","","","","single-stim-button","224","376190","0.0-3.0-13.6-1.6","5f48ad1ab90d143747dadfe9","F1","batch6","","328","","","tol_toboard","","","","","","","","","tol_peg_1","328","328","0","[[1,0,0],[2,0],[3]]","7","[[2,1,3],[0,0],[0]]","1","0","","","","","","5","",""
"","","","","","single-stim-button","225","376897","0.0-3.0-13.7-0.7","5f48ad1ab90d143747dadfe9","F1","batch6","","707","","","tol_tohand","","","","","","","","","tol_peg_3","707","707","0","[[1,0,0],[2,0],[0]]","8","[[2,1,3],[0,0],[0]]","1","0","","","","","","5","",""
"","","","","","single-stim-button","226","377668","0.0-3.0-13.7-1.7","5f48ad1ab90d143747dadfe9","F1","batch6","","770","","","tol_toboard","","","","","","","","","tol_peg_2","770","770","0","[[1,0,0],[2,3],[0]]","8","[[2,1,3],[0,0],[0]]","1","0","","","","","","5","",""
"","","","","","single-stim-button","227","378261","0.0-3.0-13.8-0.8","5f48ad1ab90d143747dadfe9","F1","batch6","","591","","","tol_tohand","","","","","","","","","tol_peg_1","591","591","0","[[0,0,0],[2,3],[0]]","9","[[2,1,3],[0,0],[0]]","1","0","","","","","","5","",""
"","","","","","single-stim-button","228","378800","0.0-3.0-13.8-1.8","5f48ad1ab90d143747dadfe9","F1","batch6","","538","","","tol_toboard","","","","","","","","","tol_peg_3","538","538","0","[[0,0,0],[2,3],[1]]","9","[[2,1,3],[0,0],[0]]","1","0","","","","","","5","",""
"","","","","","single-stim-button","229","380214","0.0-3.0-13.9-0.9","5f48ad1ab90d143747dadfe9","F1","batch6","","1413","","","tol_tohand","","","","","","","","","tol_peg_2","1413","1413","0","[[0,0,0],[2,0],[1]]","10","[[2,1,3],[0,0],[0]]","1","0","","","","","","5","",""
"","","","","","single-stim-button","230","381034","0.0-3.0-13.9-1.9","5f48ad1ab90d143747dadfe9","F1","batch6","","819","","","tol_toboard","","","","","","","","","tol_peg_2","819","819","0","[[0,0,0],[2,3],[1]]","10","[[2,1,3],[0,0],[0]]","1","0","","","","","","5","",""
"","","","","","single-stim-button","231","381636","0.0-3.0-13.10-0.10","5f48ad1ab90d143747dadfe9","F1","batch6","","601","","","tol_tohand","","","","","","","","","tol_peg_2","601","601","0","[[0,0,0],[2,0],[1]]","11","[[2,1,3],[0,0],[0]]","1","0","","","","","","5","",""
"","","","","","single-stim-button","232","381954","0.0-3.0-13.10-1.10","5f48ad1ab90d143747dadfe9","F1","batch6","","318","","","tol_toboard","","","","","","","","","tol_peg_1","318","318","0","[[3,0,0],[2,0],[1]]","11","[[2,1,3],[0,0],[0]]","1","0","","","","","","5","",""
"","","","","","single-stim-button","233","383070","0.0-3.0-13.11-0.11","5f48ad1ab90d143747dadfe9","F1","batch6","","1114","","","tol_tohand","","","","","","","","","tol_peg_3","1114","1114","0","[[3,0,0],[2,0],[0]]","12","[[2,1,3],[0,0],[0]]","1","0","","","","","","5","",""
"","","","","","single-stim-button","234","384176","0.0-3.0-13.11-1.11","5f48ad1ab90d143747dadfe9","F1","batch6","","1105","","","tol_toboard","","","","","","","","","tol_peg_3","1105","1105","0","[[3,0,0],[2,0],[1]]","12","[[2,1,3],[0,0],[0]]","1","0","","","","","","5","",""
"","","","","","single-stim-button","235","384912","0.0-3.0-13.12-0.12","5f48ad1ab90d143747dadfe9","F1","batch6","","735","","","tol_tohand","","","","","","","","","tol_peg_2","735","735","0","[[3,0,0],[0,0],[1]]","13","[[2,1,3],[0,0],[0]]","1","0","","","","","","5","",""
"","","","","","single-stim-button","236","386234","0.0-3.0-13.12-1.12","5f48ad1ab90d143747dadfe9","F1","batch6","","1320","","","tol_toboard","","","","","","","","","tol_peg_1","1320","1320","0","[[3,2,0],[0,0],[1]]","13","[[2,1,3],[0,0],[0]]","1","0","","","","","","5","",""
"","","","","","single-stim-button","237","389205","0.0-3.0-13.13-0.13","5f48ad1ab90d143747dadfe9","F1","batch6","","2969","","","tol_tohand","","","","","","","","","tol_peg_3","2969","2969","0","[[3,2,0],[0,0],[0]]","14","[[2,1,3],[0,0],[0]]","1","0","","","","","","5","",""
"","","","","","single-stim-button","238","389887","0.0-3.0-13.13-1.13","5f48ad1ab90d143747dadfe9","F1","batch6","","680","","","tol_toboard","","","","","","","","","tol_peg_2","680","680","0","[[3,2,0],[1,0],[0]]","14","[[2,1,3],[0,0],[0]]","1","0","","","","","","5","",""
"","","","","","single-stim-button","239","391383","0.0-3.0-13.14-0.14","5f48ad1ab90d143747dadfe9","F1","batch6","","1494","","","tol_tohand","","","","","","","","","tol_peg_1","1494","1494","0","[[3,0,0],[1,0],[0]]","15","[[2,1,3],[0,0],[0]]","1","0","","","","","","5","",""
"","","","","","single-stim-button","240","391980","0.0-3.0-13.14-1.14","5f48ad1ab90d143747dadfe9","F1","batch6","","596","","","tol_toboard","","","","","","","","","tol_peg_3","596","596","0","[[3,0,0],[1,0],[2]]","15","[[2,1,3],[0,0],[0]]","1","0","","","","","","5","",""
"","","","","","single-stim-button","241","392722","0.0-3.0-13.15-0.15","5f48ad1ab90d143747dadfe9","F1","batch6","","742","","","tol_tohand","","","","","","","","","tol_peg_1","742","742","0","[[0,0,0],[1,0],[2]]","16","[[2,1,3],[0,0],[0]]","1","0","","","","","","5","",""
"","","","","","single-stim-button","242","393084","0.0-3.0-13.15-1.15","5f48ad1ab90d143747dadfe9","F1","batch6","","362","","","tol_toboard","","","","","","","","","tol_peg_2","362","362","0","[[0,0,0],[1,3],[2]]","16","[[2,1,3],[0,0],[0]]","1","0","","","","","","5","",""
"","","","","","single-stim-button","243","393519","0.0-3.0-13.16-0.16","5f48ad1ab90d143747dadfe9","F1","batch6","","435","","","tol_tohand","","","","","","","","","tol_peg_3","435","435","0","[[0,0,0],[1,3],[0]]","17","[[2,1,3],[0,0],[0]]","1","0","","","","","","5","",""
"","","","","","single-stim-button","244","394171","0.0-3.0-13.16-1.16","5f48ad1ab90d143747dadfe9","F1","batch6","","650","","","tol_toboard","","","","","","","","","tol_peg_1","650","650","0","[[2,0,0],[1,3],[0]]","17","[[2,1,3],[0,0],[0]]","1","0","","","","","","5","",""
"","","","","","single-stim-button","245","395272","0.0-3.0-13.17-0.17","5f48ad1ab90d143747dadfe9","F1","batch6","","1100","","","tol_tohand","","","","","","","","","tol_peg_2","1100","1100","0","[[2,0,0],[1,0],[0]]","18","[[2,1,3],[0,0],[0]]","1","0","","","","","","5","",""
"","","","","","single-stim-button","246","395758","0.0-3.0-13.17-1.17","5f48ad1ab90d143747dadfe9","F1","batch6","","486","","","tol_toboard","","","","","","","","","tol_peg_3","486","486","0","[[2,0,0],[1,0],[3]]","18","[[2,1,3],[0,0],[0]]","1","0","","","","","","5","",""
"","","","","","single-stim-button","247","396139","0.0-3.0-13.18-0.18","5f48ad1ab90d143747dadfe9","F1","batch6","","379","","","tol_tohand","","","","","","","","","tol_peg_2","379","379","0","[[2,0,0],[0,0],[3]]","19","[[2,1,3],[0,0],[0]]","1","0","","","","","","5","",""
"","","","","","single-stim-button","248","396707","0.0-3.0-13.18-1.18","5f48ad1ab90d143747dadfe9","F1","batch6","","568","","","tol_toboard","","","","","","","","","tol_peg_1","568","568","0","[[2,1,0],[0,0],[3]]","19","[[2,1,3],[0,0],[0]]","1","0","","","","","","5","",""
"","","","","","single-stim-button","249","397270","0.0-3.0-13.19-0.19","5f48ad1ab90d143747dadfe9","F1","batch6","","562","","","tol_tohand","","","","","","","","","tol_peg_3","562","562","0","[[2,1,0],[0,0],[0]]","20","[[2,1,3],[0,0],[0]]","1","0","","","","","","5","",""
"","","","","","single-stim-button","250","398020","0.0-3.0-13.19-1.19","5f48ad1ab90d143747dadfe9","F1","batch6","","750","","","tol_toboard","","","","","","","","","tol_peg_1","750","750","0","[[2,1,3],[0,0],[0]]","20","[[2,1,3],[0,0],[0]]","1","0","","","","","","5","",""
"","","","","","poldrack-single-stim","251","399021","0.0-3.0-14.0","5f48ad1ab90d143747dadfe9","F1","batch6","","-1","","","tol_feedback","true","","","","","","","","","1000","1000","500","","","","","","-1","none","true","3209","20436","","",""
"","","","","","html-button-response","252","399682","0.0-3.0-15.0","5f48ad1ab90d143747dadfe9","F1","batch6","","658.5","<div class = centerbox><p class = center-block-text>problem <strong>3</strong> out of 25 problems</p></div>","0","tol_trial_num","","","","","","","","","","","","","","","","","","","","","","","","",""
"","","","","","single-stim-button","253","403151","0.0-3.0-16.0-0.0","5f48ad1ab90d143747dadfe9","F1","batch6","","3467","","","tol_tohand","","","","","","","","","tol_peg_1","3467","3467","0","[[2,0,0],[0,0],[1]]","1","[[1,2,0],[3,0],[0]]","2","0","","","","","","4","",""
"","","","","","single-stim-button","254","403657","0.0-3.0-16.0-1.0","5f48ad1ab90d143747dadfe9","F1","batch6","","505","","","tol_toboard","","","","","","","","","tol_peg_2","505","505","0","[[2,0,0],[3,0],[1]]","1","[[1,2,0],[3,0],[0]]","2","0","","","","","","4","",""
"","","","","","single-stim-button","255","405196","0.0-3.0-16.1-0.1","5f48ad1ab90d143747dadfe9","F1","batch6","","1537","","","tol_tohand","","","","","","","","","tol_peg_1","1537","1537","0","[[0,0,0],[3,0],[1]]","2","[[1,2,0],[3,0],[0]]","2","0","","","","","","4","",""
"","","","","","single-stim-button","256","405630","0.0-3.0-16.1-1.1","5f48ad1ab90d143747dadfe9","F1","batch6","","434","","","tol_toboard","","","","","","","","","tol_peg_2","434","434","0","[[0,0,0],[3,2],[1]]","2","[[1,2,0],[3,0],[0]]","2","0","","","","","","4","",""
"","","","","","single-stim-button","257","406283","0.0-3.0-16.2-0.2","5f48ad1ab90d143747dadfe9","F1","batch6","","651","","","tol_tohand","","","","","","","","","tol_peg_3","651","651","0","[[0,0,0],[3,2],[0]]","3","[[1,2,0],[3,0],[0]]","2","0","","","","","","4","",""
"","","","","","single-stim-button","258","407023","0.0-3.0-16.2-1.2","5f48ad1ab90d143747dadfe9","F1","batch6","","739","","","tol_toboard","","","","","","","","","tol_peg_1","739","739","0","[[1,0,0],[3,2],[0]]","3","[[1,2,0],[3,0],[0]]","2","0","","","","","","4","",""
"","","","","","single-stim-button","259","407611","0.0-3.0-16.3-0.3","5f48ad1ab90d143747dadfe9","F1","batch6","","588","","","tol_tohand","","","","","","","","","tol_peg_2","588","588","0","[[1,0,0],[3,0],[0]]","4","[[1,2,0],[3,0],[0]]","2","0","","","","","","4","",""
"","","","","","single-stim-button","260","407939","0.0-3.0-16.3-1.3","5f48ad1ab90d143747dadfe9","F1","batch6","","327","","","tol_toboard","","","","","","","","","tol_peg_1","327","327","0","[[1,2,0],[3,0],[0]]","4","[[1,2,0],[3,0],[0]]","2","0","","","","","","4","",""
"","","","","","poldrack-single-stim","261","408941","0.0-3.0-17.0","5f48ad1ab90d143747dadfe9","F1","batch6","","-1","","","tol_feedback","true","","","","","","","","","1000","1000","500","","","","","","-1","none","true","3467","6243","","",""
"","","","","","html-button-response","262","409684","0.0-3.0-18.0","5f48ad1ab90d143747dadfe9","F1","batch6","","740.3999999761581","<div class = centerbox><p class = center-block-text>problem <strong>4</strong> out of 25 problems</p></div>","0","tol_trial_num","","","","","","","","","","","","","","","","","","","","","","","","",""
"","","","","","single-stim-button","263","413971","0.0-3.0-19.0-0.0","5f48ad1ab90d143747dadfe9","F1","batch6","","4287","","","tol_tohand","","","","","","","","","tol_peg_2","4287","4287","0","[[3,0,0],[2,0],[0]]","1","[[3,0,0],[1,0],[2]]","3","0","","","","","","3","",""
"","","","","","single-stim-button","264","414403","0.0-3.0-19.0-1.0","5f48ad1ab90d143747dadfe9","F1","batch6","","431","","","tol_toboard","","","","","","","","","tol_peg_1","431","431","0","[[3,1,0],[2,0],[0]]","1","[[3,0,0],[1,0],[2]]","3","0","","","","","","3","",""
"","","","","","single-stim-button","265","415332","0.0-3.0-19.1-0.1","5f48ad1ab90d143747dadfe9","F1","batch6","","927","","","tol_tohand","","","","","","","","","tol_peg_2","927","927","0","[[3,1,0],[0,0],[0]]","2","[[3,0,0],[1,0],[2]]","3","0","","","","","","3","",""
"","","","","","single-stim-button","266","415753","0.0-3.0-19.1-1.1","5f48ad1ab90d143747dadfe9","F1","batch6","","420","","","tol_toboard","","","","","","","","","tol_peg_3","420","420","0","[[3,1,0],[0,0],[2]]","2","[[3,0,0],[1,0],[2]]","3","0","","","","","","3","",""
"","","","","","single-stim-button","267","416580","0.0-3.0-19.2-0.2","5f48ad1ab90d143747dadfe9","F1","batch6","","826","","","tol_tohand","","","","","","","","","tol_peg_1","826","826","0","[[3,0,0],[0,0],[2]]","3","[[3,0,0],[1,0],[2]]","3","0","","","","","","3","",""
"","","","","","single-stim-button","268","416918","0.0-3.0-19.2-1.2","5f48ad1ab90d143747dadfe9","F1","batch6","","337","","","tol_toboard","","","","","","","","","tol_peg_2","337","337","0","[[3,0,0],[1,0],[2]]","3","[[3,0,0],[1,0],[2]]","3","0","","","","","","3","",""
"","","","","","poldrack-single-stim","269","417920","0.0-3.0-20.0","5f48ad1ab90d143747dadfe9","F1","batch6","","-1","","","tol_feedback","true","","","","","","","","","1000","1000","500","","","","","","-1","none","true","4287","6040","","",""
"","","","","","html-button-response","270","418574","0.0-3.0-21.0","5f48ad1ab90d143747dadfe9","F1","batch6","","653.8000000715256","<div class = centerbox><p class = center-block-text>problem <strong>5</strong> out of 25 problems</p></div>","0","tol_trial_num","","","","","","","","","","","","","","","","","","","","","","","","",""
"","","","","","single-stim-button","271","423841","0.0-3.0-22.0-0.0","5f48ad1ab90d143747dadfe9","F1","batch6","","5266","","","tol_tohand","","","","","","","","","tol_peg_2","5266","5266","0","[[1,0,0],[0,0],[3]]","1","[[0,0,0],[1,2],[3]]","4","0","","","","","","7","",""
"","","","","","single-stim-button","272","425510","0.0-3.0-22.0-1.0","5f48ad1ab90d143747dadfe9","F1","batch6","","1667","","","tol_toboard","","","","","","","","","tol_peg_2","1667","1667","0","[[1,0,0],[2,0],[3]]","1","[[0,0,0],[1,2],[3]]","4","0","","","","","","7","",""
"","","","","","single-stim-button","273","426007","0.0-3.0-22.1-0.1","5f48ad1ab90d143747dadfe9","F1","batch6","","495","","","tol_tohand","","","","","","","","","tol_peg_3","495","495","0","[[1,0,0],[2,0],[0]]","2","[[0,0,0],[1,2],[3]]","4","0","","","","","","7","",""
"","","","","","single-stim-button","274","426424","0.0-3.0-22.1-1.1","5f48ad1ab90d143747dadfe9","F1","batch6","","417","","","tol_toboard","","","","","","","","","tol_peg_2","417","417","0","[[1,0,0],[2,3],[0]]","2","[[0,0,0],[1,2],[3]]","4","0","","","","","","7","",""
"","","","","","single-stim-button","275","427877","0.0-3.0-22.2-0.2","5f48ad1ab90d143747dadfe9","F1","batch6","","1451","","","tol_tohand","","","","","","","","","tol_peg_1","1451","1451","0","[[0,0,0],[2,3],[0]]","3","[[0,0,0],[1,2],[3]]","4","0","","","","","","7","",""
"","","","","","single-stim-button","276","428542","0.0-3.0-22.2-1.2","5f48ad1ab90d143747dadfe9","F1","batch6","","664","","","tol_toboard","","","","","","","","","tol_peg_3","664","664","0","[[0,0,0],[2,3],[1]]","3","[[0,0,0],[1,2],[3]]","4","0","","","","","","7","",""
"","","","","","single-stim-button","277","429721","0.0-3.0-22.3-0.3","5f48ad1ab90d143747dadfe9","F1","batch6","","1179","","","tol_tohand","","","","","","","","","tol_peg_2","1179","1179","0","[[0,0,0],[2,0],[1]]","4","[[0,0,0],[1,2],[3]]","4","0","","","","","","7","",""
"","","","","","single-stim-button","278","430108","0.0-3.0-22.3-1.3","5f48ad1ab90d143747dadfe9","F1","batch6","","386","","","tol_toboard","","","","","","","","","tol_peg_1","386","386","0","[[3,0,0],[2,0],[1]]","4","[[0,0,0],[1,2],[3]]","4","0","","","","","","7","",""
"","","","","","single-stim-button","279","431836","0.0-3.0-22.4-0.4","5f48ad1ab90d143747dadfe9","F1","batch6","","1728","","","tol_tohand","","","","","","","","","tol_peg_2","1728","1728","0","[[3,0,0],[0,0],[1]]","5","[[0,0,0],[1,2],[3]]","4","0","","","","","","7","",""
"","","","","","single-stim-button","280","432240","0.0-3.0-22.4-1.4","5f48ad1ab90d143747dadfe9","F1","batch6","","403","","","tol_toboard","","","","","","","","","tol_peg_1","403","403","0","[[3,2,0],[0,0],[1]]","5","[[0,0,0],[1,2],[3]]","4","0","","","","","","7","",""
"","","","","","single-stim-button","281","432899","0.0-3.0-22.5-0.5","5f48ad1ab90d143747dadfe9","F1","batch6","","657","","","tol_tohand","","","","","","","","","tol_peg_3","657","657","0","[[3,2,0],[0,0],[0]]","6","[[0,0,0],[1,2],[3]]","4","0","","","","","","7","",""
"","","","","","single-stim-button","282","433197","0.0-3.0-22.5-1.5","5f48ad1ab90d143747dadfe9","F1","batch6","","296","","","tol_toboard","","","","","","","","","tol_peg_2","296","296","0","[[3,2,0],[1,0],[0]]","6","[[0,0,0],[1,2],[3]]","4","0","","","","","","7","",""
"","","","","","single-stim-button","283","433911","0.0-3.0-22.6-0.6","5f48ad1ab90d143747dadfe9","F1","batch6","","713","","","tol_tohand","","","","","","","","","tol_peg_1","713","713","0","[[3,0,0],[1,0],[0]]","7","[[0,0,0],[1,2],[3]]","4","0","","","","","","7","",""
"","","","","","single-stim-button","284","434275","0.0-3.0-22.6-1.6","5f48ad1ab90d143747dadfe9","F1","batch6","","363","","","tol_toboard","","","","","","","","","tol_peg_2","363","363","0","[[3,0,0],[1,2],[0]]","7","[[0,0,0],[1,2],[3]]","4","0","","","","","","7","",""
"","","","","","single-stim-button","285","434754","0.0-3.0-22.7-0.7","5f48ad1ab90d143747dadfe9","F1","batch6","","478","","","tol_tohand","","","","","","","","","tol_peg_1","478","478","0","[[0,0,0],[1,2],[0]]","8","[[0,0,0],[1,2],[3]]","4","0","","","","","","7","",""
"","","","","","single-stim-button","286","435390","0.0-3.0-22.7-1.7","5f48ad1ab90d143747dadfe9","F1","batch6","","635","","","tol_toboard","","","","","","","","","tol_peg_3","635","635","0","[[0,0,0],[1,2],[3]]","8","[[0,0,0],[1,2],[3]]","4","0","","","","","","7","",""
"","","","","","poldrack-single-stim","287","436399","0.0-3.0-23.0","5f48ad1ab90d143747dadfe9","F1","batch6","","-1","","","tol_feedback","true","","","","","","","","","1000","1000","500","","","","","","-1","none","true","5266","11967","","",""
"","","","","","html-button-response","288","437093","0.0-3.0-24.0","5f48ad1ab90d143747dadfe9","F1","batch6","","692.6000000238419","<div class = centerbox><p class = center-block-text>problem <strong>6</strong> out of 25 problems</p></div>","0","tol_trial_num","","","","","","","","","","","","","","","","","","","","","","","","",""
"","","","","","single-stim-button","289","441551","0.0-3.0-25.0-0.0","5f48ad1ab90d143747dadfe9","F1","batch6","","4456","","","tol_tohand","","","","","","","","","tol_peg_2","4456","4456","0","[[0,0,0],[1,0],[3]]","1","[[1,0,0],[2,3],[0]]","5","0","","","","","","6","",""
"","","","","","single-stim-button","290","443356","0.0-3.0-25.0-1.0","5f48ad1ab90d143747dadfe9","F1","batch6","","1803","","","tol_toboard","","","","","","","","","tol_peg_1","1803","1803","0","[[2,0,0],[1,0],[3]]","1","[[1,0,0],[2,3],[0]]","5","0","","","","","","6","",""
"","","","","","single-stim-button","291","444337","0.0-3.0-25.1-0.1","5f48ad1ab90d143747dadfe9","F1","batch6","","980","","","tol_tohand","","","","","","","","","tol_peg_3","980","980","0","[[2,0,0],[1,0],[0]]","2","[[1,0,0],[2,3],[0]]","5","0","","","","","","6","",""
"","","","","","single-stim-button","292","444802","0.0-3.0-25.1-1.1","5f48ad1ab90d143747dadfe9","F1","batch6","","464","","","tol_toboard","","","","","","","","","tol_peg_2","464","464","0","[[2,0,0],[1,3],[0]]","2","[[1,0,0],[2,3],[0]]","5","0","","","","","","6","",""
"","","","","","single-stim-button","293","446282","0.0-3.0-25.2-0.2","5f48ad1ab90d143747dadfe9","F1","batch6","","1480","","","tol_tohand","","","","","","","","","tol_peg_1","1480","1480","0","[[0,0,0],[1,3],[0]]","3","[[1,0,0],[2,3],[0]]","5","0","","","","","","6","",""
"","","","","","single-stim-button","294","446694","0.0-3.0-25.2-1.2","5f48ad1ab90d143747dadfe9","F1","batch6","","412","","","tol_toboard","","","","","","","","","tol_peg_3","412","412","0","[[0,0,0],[1,3],[2]]","3","[[1,0,0],[2,3],[0]]","5","0","","","","","","6","",""
"","","","","","single-stim-button","295","447498","0.0-3.0-25.3-0.3","5f48ad1ab90d143747dadfe9","F1","batch6","","802","","","tol_tohand","","","","","","","","","tol_peg_2","802","802","0","[[0,0,0],[1,0],[2]]","4","[[1,0,0],[2,3],[0]]","5","0","","","","","","6","",""
"","","","","","single-stim-button","296","448966","0.0-3.0-25.3-1.3","5f48ad1ab90d143747dadfe9","F1","batch6","","1468","","","tol_toboard","","","","","","","","","tol_peg_1","1468","1468","0","[[3,0,0],[1,0],[2]]","4","[[1,0,0],[2,3],[0]]","5","0","","","","","","6","",""
"","","","","","single-stim-button","297","449576","0.0-3.0-25.4-0.4","5f48ad1ab90d143747dadfe9","F1","batch6","","609","","","tol_tohand","","","","","","","","","tol_peg_2","609","609","0","[[3,0,0],[0,0],[2]]","5","[[1,0,0],[2,3],[0]]","5","0","","","","","","6","",""
"","","","","","single-stim-button","298","450681","0.0-3.0-25.4-1.4","5f48ad1ab90d143747dadfe9","F1","batch6","","1104","","","tol_toboard","","","","","","","","","tol_peg_1","1104","1104","0","[[3,1,0],[0,0],[2]]","5","[[1,0,0],[2,3],[0]]","5","0","","","","","","6","",""
"","","","","","single-stim-button","299","451087","0.0-3.0-25.5-0.5","5f48ad1ab90d143747dadfe9","F1","batch6","","404","","","tol_tohand","","","","","","","","","tol_peg_1","404","404","0","[[3,0,0],[0,0],[2]]","6","[[1,0,0],[2,3],[0]]","5","0","","","","","","6","",""
"","","","","","single-stim-button","300","451893","0.0-3.0-25.5-1.5","5f48ad1ab90d143747dadfe9","F1","batch6","","805","","","tol_toboard","","","","","","","","","tol_peg_2","805","805","0","[[3,0,0],[1,0],[2]]","6","[[1,0,0],[2,3],[0]]","5","0","","","","","","6","",""
"","","","","","single-stim-button","301","452457","0.0-3.0-25.6-0.6","5f48ad1ab90d143747dadfe9","F1","batch6","","562","","","tol_tohand","","","","","","","","","tol_peg_1","562","562","0","[[0,0,0],[1,0],[2]]","7","[[1,0,0],[2,3],[0]]","5","0","","","","","","6","",""
"","","","","","single-stim-button","302","453064","0.0-3.0-25.6-1.6","5f48ad1ab90d143747dadfe9","F1","batch6","","607","","","tol_toboard","","","","","","","","","tol_peg_2","607","607","0","[[0,0,0],[1,3],[2]]","7","[[1,0,0],[2,3],[0]]","5","0","","","","","","6","",""
"","","","","","single-stim-button","303","453542","0.0-3.0-25.7-0.7","5f48ad1ab90d143747dadfe9","F1","batch6","","476","","","tol_tohand","","","","","","","","","tol_peg_3","476","476","0","[[0,0,0],[1,3],[0]]","8","[[1,0,0],[2,3],[0]]","5","0","","","","","","6","",""
"","","","","","single-stim-button","304","454057","0.0-3.0-25.7-1.7","5f48ad1ab90d143747dadfe9","F1","batch6","","514","","","tol_toboard","","","","","","","","","tol_peg_1","514","514","0","[[2,0,0],[1,3],[0]]","8","[[1,0,0],[2,3],[0]]","5","0","","","","","","6","",""
"","","","","","single-stim-button","305","454935","0.0-3.0-25.8-0.8","5f48ad1ab90d143747dadfe9","F1","batch6","","875","","","tol_tohand","","","","","","","","","tol_peg_2","875","875","0","[[2,0,0],[1,0],[0]]","9","[[1,0,0],[2,3],[0]]","5","0","","","","","","6","",""
"","","","","","single-stim-button","306","455274","0.0-3.0-25.8-1.8","5f48ad1ab90d143747dadfe9","F1","batch6","","339","","","tol_toboard","","","","","","","","","tol_peg_3","339","339","0","[[2,0,0],[1,0],[3]]","9","[[1,0,0],[2,3],[0]]","5","0","","","","","","6","",""
"","","","","","single-stim-button","307","456548","0.0-3.0-25.9-0.9","5f48ad1ab90d143747dadfe9","F1","batch6","","1272","","","tol_tohand","","","","","","","","","tol_peg_1","1272","1272","0","[[0,0,0],[1,0],[3]]","10","[[1,0,0],[2,3],[0]]","5","0","","","","","","6","",""
"","","","","","single-stim-button","308","457330","0.0-3.0-25.9-1.9","5f48ad1ab90d143747dadfe9","F1","batch6","","780","","","tol_toboard","","","","","","","","","tol_peg_2","780","780","0","[[0,0,0],[1,2],[3]]","10","[[1,0,0],[2,3],[0]]","5","0","","","","","","6","",""
"","","","","","single-stim-button","309","457950","0.0-3.0-25.10-0.10","5f48ad1ab90d143747dadfe9","F1","batch6","","617","","","tol_tohand","","","","","","","","","tol_peg_2","617","617","0","[[0,0,0],[1,0],[3]]","11","[[1,0,0],[2,3],[0]]","5","0","","","","","","6","",""
"","","","","","single-stim-button","310","458460","0.0-3.0-25.10-1.10","5f48ad1ab90d143747dadfe9","F1","batch6","","510","","","tol_toboard","","","","","","","","","tol_peg_1","510","510","0","[[2,0,0],[1,0],[3]]","11","[[1,0,0],[2,3],[0]]","5","0","","","","","","6","",""
"","","","","","single-stim-button","311","459457","0.0-3.0-25.11-0.11","5f48ad1ab90d143747dadfe9","F1","batch6","","995","","","tol_tohand","","","","","","","","","tol_peg_2","995","995","0","[[2,0,0],[0,0],[3]]","12","[[1,0,0],[2,3],[0]]","5","0","","","","","","6","",""
"","","","","","single-stim-button","312","459943","0.0-3.0-25.11-1.11","5f48ad1ab90d143747dadfe9","F1","batch6","","484","","","tol_toboard","","","","","","","","","tol_peg_1","484","484","0","[[2,1,0],[0,0],[3]]","12","[[1,0,0],[2,3],[0]]","5","0","","","","","","6","",""
"","","","","","single-stim-button","313","460839","0.0-3.0-25.12-0.12","5f48ad1ab90d143747dadfe9","F1","batch6","","895","","","tol_tohand","","","","","","","","","tol_peg_1","895","895","0","[[2,0,0],[0,0],[3]]","13","[[1,0,0],[2,3],[0]]","5","0","","","","","","6","",""
"","","","","","single-stim-button","314","461938","0.0-3.0-25.12-1.12","5f48ad1ab90d143747dadfe9","F1","batch6","","1098","","","tol_toboard","","","","","","","","","tol_peg_1","1098","1098","0","[[2,1,0],[0,0],[3]]","13","[[1,0,0],[2,3],[0]]","5","0","","","","","","6","",""
"","","","","","single-stim-button","315","462570","0.0-3.0-25.13-0.13","5f48ad1ab90d143747dadfe9","F1","batch6","","631","","","tol_tohand","","","","","","","","","tol_peg_3","631","631","0","[[2,1,0],[0,0],[0]]","14","[[1,0,0],[2,3],[0]]","5","0","","","","","","6","",""
"","","","","","single-stim-button","316","463290","0.0-3.0-25.13-1.13","5f48ad1ab90d143747dadfe9","F1","batch6","","719","","","tol_toboard","","","","","","","","","tol_peg_2","719","719","0","[[2,1,0],[3,0],[0]]","14","[[1,0,0],[2,3],[0]]","5","0","","","","","","6","",""
"","","","","","single-stim-button","317","463726","0.0-3.0-25.14-0.14","5f48ad1ab90d143747dadfe9","F1","batch6","","436","","","tol_tohand","","","","","","","","","tol_peg_1","436","436","0","[[2,0,0],[3,0],[0]]","15","[[1,0,0],[2,3],[0]]","5","0","","","","","","6","",""
"","","","","","single-stim-button","318","464082","0.0-3.0-25.14-1.14","5f48ad1ab90d143747dadfe9","F1","batch6","","355","","","tol_toboard","","","","","","","","","tol_peg_3","355","355","0","[[2,0,0],[3,0],[1]]","15","[[1,0,0],[2,3],[0]]","5","0","","","","","","6","",""
"","","","","","single-stim-button","319","465063","0.0-3.0-25.15-0.15","5f48ad1ab90d143747dadfe9","F1","batch6","","980","","","tol_tohand","","","","","","","","","tol_peg_1","980","980","0","[[0,0,0],[3,0],[1]]","16","[[1,0,0],[2,3],[0]]","5","0","","","","","","6","",""
"","","","","","single-stim-button","320","465440","0.0-3.0-25.15-1.15","5f48ad1ab90d143747dadfe9","F1","batch6","","376","","","tol_toboard","","","","","","","","","tol_peg_2","376","376","0","[[0,0,0],[3,2],[1]]","16","[[1,0,0],[2,3],[0]]","5","0","","","","","","6","",""
"","","","","","single-stim-button","321","465951","0.0-3.0-25.16-0.16","5f48ad1ab90d143747dadfe9","F1","batch6","","511","","","tol_tohand","","","","","","","","","tol_peg_3","511","511","0","[[0,0,0],[3,2],[0]]","17","[[1,0,0],[2,3],[0]]","5","0","","","","","","6","",""
"","","","","","single-stim-button","322","466452","0.0-3.0-25.16-1.16","5f48ad1ab90d143747dadfe9","F1","batch6","","499","","","tol_toboard","","","","","","","","","tol_peg_1","499","499","0","[[1,0,0],[3,2],[0]]","17","[[1,0,0],[2,3],[0]]","5","0","","","","","","6","",""
"","","","","","single-stim-button","323","467972","0.0-3.0-25.17-0.17","5f48ad1ab90d143747dadfe9","F1","batch6","","1520","","","tol_tohand","","","","","","","","","tol_peg_2","1520","1520","0","[[1,0,0],[3,0],[0]]","18","[[1,0,0],[2,3],[0]]","5","0","","","","","","6","",""
"","","","","","single-stim-button","324","468607","0.0-3.0-25.17-1.17","5f48ad1ab90d143747dadfe9","F1","batch6","","634","","","tol_toboard","","","","","","","","","tol_peg_1","634","634","0","[[1,2,0],[3,0],[0]]","18","[[1,0,0],[2,3],[0]]","5","0","","","","","","6","",""
"","","","","","single-stim-button","325","470492","0.0-3.0-25.18-0.18","5f48ad1ab90d143747dadfe9","F1","batch6","","1883","","","tol_tohand","","","","","","","","","tol_peg_2","1883","1883","0","[[1,2,0],[0,0],[0]]","19","[[1,0,0],[2,3],[0]]","5","0","","","","","","6","",""
"","","","","","single-stim-button","326","470827","0.0-3.0-25.18-1.18","5f48ad1ab90d143747dadfe9","F1","batch6","","334","","","tol_toboard","","","","","","","","","tol_peg_3","334","334","0","[[1,2,0],[0,0],[3]]","19","[[1,0,0],[2,3],[0]]","5","0","","","","","","6","",""
"","","","","","single-stim-button","327","471333","0.0-3.0-25.19-0.19","5f48ad1ab90d143747dadfe9","F1","batch6","","504","","","tol_tohand","","","","","","","","","tol_peg_1","504","504","0","[[1,0,0],[0,0],[3]]","20","[[1,0,0],[2,3],[0]]","5","0","","","","","","6","",""
"","","","","","single-stim-button","328","471652","0.0-3.0-25.19-1.19","5f48ad1ab90d143747dadfe9","F1","batch6","","317","","","tol_toboard","","","","","","","","","tol_peg_2","317","317","0","[[1,0,0],[2,0],[3]]","20","[[1,0,0],[2,3],[0]]","5","0","","","","","","6","",""
"","","","","","single-stim-button","329","472032","0.0-3.0-25.20-0.20","5f48ad1ab90d143747dadfe9","F1","batch6","","379","","","tol_tohand","","","","","","","","","tol_peg_3","379","379","0","[[1,0,0],[2,0],[0]]","21","[[1,0,0],[2,3],[0]]","5","0","","","","","","6","",""
"","","","","","single-stim-button","330","472373","0.0-3.0-25.20-1.20","5f48ad1ab90d143747dadfe9","F1","batch6","","341","","","tol_toboard","","","","","","","","","tol_peg_2","341","341","0","[[1,0,0],[2,3],[0]]","21","[[1,0,0],[2,3],[0]]","5","0","","","","","","6","",""
"","","","","","poldrack-single-stim","331","473375","0.0-3.0-26.0","5f48ad1ab90d143747dadfe9","F1","batch6","","-1","","","tol_feedback","true","","","","","","","","","1000","1000","500","","","","","","-1","none","true","4456","21267","","",""
"","","","","","html-button-response","332","474105","0.0-3.0-27.0","5f48ad1ab90d143747dadfe9","F1","batch6","","728.1000000238419","<div class = centerbox><p class = center-block-text>problem <strong>7</strong> out of 25 problems</p></div>","0","tol_trial_num","","","","","","","","","","","","","","","","","","","","","","","","",""
"","","","","","single-stim-button","333","476983","0.0-3.0-28.0-0.0","5f48ad1ab90d143747dadfe9","F1","batch6","","2876","","","tol_tohand","","","","","","","","","tol_peg_1","2876","2876","0","[[2,0,0],[0,0],[3]]","1","[[1,2,0],[3,0],[0]]","6","0","","","","","","5","",""
"","","","","","single-stim-button","334","477327","0.0-3.0-28.0-1.0","5f48ad1ab90d143747dadfe9","F1","batch6","","342","","","tol_toboard","","","","","","","","","tol_peg_2","342","342","0","[[2,0,0],[1,0],[3]]","1","[[1,2,0],[3,0],[0]]","6","0","","","","","","5","",""
"","","","","","single-stim-button","335","478019","0.0-3.0-28.1-0.1","5f48ad1ab90d143747dadfe9","F1","batch6","","691","","","tol_tohand","","","","","","","","","tol_peg_1","691","691","0","[[0,0,0],[1,0],[3]]","2","[[1,2,0],[3,0],[0]]","6","0","","","","","","5","",""
"","","","","","single-stim-button","336","478587","0.0-3.0-28.1-1.1","5f48ad1ab90d143747dadfe9","F1","batch6","","568","","","tol_toboard","","","","","","","","","tol_peg_2","568","568","0","[[0,0,0],[1,2],[3]]","2","[[1,2,0],[3,0],[0]]","6","0","","","","","","5","",""
"","","","","","single-stim-button","337","480800","0.0-3.0-28.2-0.2","5f48ad1ab90d143747dadfe9","F1","batch6","","2211","","","tol_tohand","","","","","","","","","tol_peg_3","2211","2211","0","[[0,0,0],[1,2],[0]]","3","[[1,2,0],[3,0],[0]]","6","0","","","","","","5","",""
"","","","","","single-stim-button","338","482744","0.0-3.0-28.2-1.2","5f48ad1ab90d143747dadfe9","F1","batch6","","1943","","","tol_toboard","","","","","","","","","tol_peg_1","1943","1943","0","[[3,0,0],[1,2],[0]]","3","[[1,2,0],[3,0],[0]]","6","0","","","","","","5","",""
"","","","","","single-stim-button","339","483100","0.0-3.0-28.3-0.3","5f48ad1ab90d143747dadfe9","F1","batch6","","354","","","tol_tohand","","","","","","","","","tol_peg_2","354","354","0","[[3,0,0],[1,0],[0]]","4","[[1,2,0],[3,0],[0]]","6","0","","","","","","5","",""
"","","","","","single-stim-button","340","483415","0.0-3.0-28.3-1.3","5f48ad1ab90d143747dadfe9","F1","batch6","","315","","","tol_toboard","","","","","","","","","tol_peg_3","315","315","0","[[3,0,0],[1,0],[2]]","4","[[1,2,0],[3,0],[0]]","6","0","","","","","","5","",""
"","","","","","single-stim-button","341","484596","0.0-3.0-28.4-0.4","5f48ad1ab90d143747dadfe9","F1","batch6","","1179","","","tol_tohand","","","","","","","","","tol_peg_1","1179","1179","0","[[0,0,0],[1,0],[2]]","5","[[1,2,0],[3,0],[0]]","6","0","","","","","","5","",""
"","","","","","single-stim-button","342","484868","0.0-3.0-28.4-1.4","5f48ad1ab90d143747dadfe9","F1","batch6","","272","","","tol_toboard","","","","","","","","","tol_peg_2","272","272","0","[[0,0,0],[1,3],[2]]","5","[[1,2,0],[3,0],[0]]","6","0","","","","","","5","",""
"","","","","","single-stim-button","343","485562","0.0-3.0-28.5-0.5","5f48ad1ab90d143747dadfe9","F1","batch6","","692","","","tol_tohand","","","","","","","","","tol_peg_2","692","692","0","[[0,0,0],[1,0],[2]]","6","[[1,2,0],[3,0],[0]]","6","0","","","","","","5","",""
"","","","","","single-stim-button","344","486125","0.0-3.0-28.5-1.5","5f48ad1ab90d143747dadfe9","F1","batch6","","562","","","tol_toboard","","","","","","","","","tol_peg_2","562","562","0","[[0,0,0],[1,3],[2]]","6","[[1,2,0],[3,0],[0]]","6","0","","","","","","5","",""
"","","","","","single-stim-button","345","487671","0.0-3.0-28.6-0.6","5f48ad1ab90d143747dadfe9","F1","batch6","","1545","","","tol_tohand","","","","","","","","","tol_peg_3","1545","1545","0","[[0,0,0],[1,3],[0]]","7","[[1,2,0],[3,0],[0]]","6","0","","","","","","5","",""
"","","","","","single-stim-button","346","487938","0.0-3.0-28.6-1.6","5f48ad1ab90d143747dadfe9","F1","batch6","","266","","","tol_toboard","","","","","","","","","tol_peg_1","266","266","0","[[2,0,0],[1,3],[0]]","7","[[1,2,0],[3,0],[0]]","6","0","","","","","","5","",""
"","","","","","single-stim-button","347","488535","0.0-3.0-28.7-0.7","5f48ad1ab90d143747dadfe9","F1","batch6","","597","","","tol_tohand","","","","","","","","","tol_peg_2","597","597","0","[[2,0,0],[1,0],[0]]","8","[[1,2,0],[3,0],[0]]","6","0","","","","","","5","",""
"","","","","","single-stim-button","348","489047","0.0-3.0-28.7-1.7","5f48ad1ab90d143747dadfe9","F1","batch6","","511","","","tol_toboard","","","","","","","","","tol_peg_3","511","511","0","[[2,0,0],[1,0],[3]]","8","[[1,2,0],[3,0],[0]]","6","0","","","","","","5","",""
"","","","","","single-stim-button","349","491633","0.0-3.0-28.8-0.8","5f48ad1ab90d143747dadfe9","F1","batch6","","2585","","","tol_tohand","","","","","","","","","tol_peg_2","2585","2585","0","[[2,0,0],[0,0],[3]]","9","[[1,2,0],[3,0],[0]]","6","0","","","","","","5","",""
