"success","timeout","failed_images","failed_audio","failed_video","trial_type","trial_index","time_elapsed","internal_node_id","subject_id","study_id","session_id","view_history","rt","task","stimulus","response","correct","mouse_click","stim_duration","block_duration","timing_post_trial","current_position","tol_num_moves_made","tol_target","tol_problem_id","tol_rt","key_press","possible_responses","tol_correct","preplanning","tol_rt_per_trial","tol_min_moves","item","answer","spm_correct","spm_rt","fiar_detect_rt","fiar_detect_correct","total_correct_fiar_detect","post_trial_gap","choices"
"true","false","[]","[]","[]","preload","0","41","0.0-0.0","5f4dfdb3a7461bad5d3dd157","C3","batch3","","","","","","","","","","","","","","","","","","","","","","","","","","","","","",""
"true","","","","","fullscreen","1","2824","0.0-1.0-0.0","5f4dfdb3a7461bad5d3dd157","C3","batch3","","","","","","","","","","","","","","","","","","","","","","","","","","","","","",""
"true","","","","","fullscreen","2","5005","0.0-2.0-0.0","5f4dfdb3a7461bad5d3dd157","C3","batch3","","","","","","","","","","","","","","","","","","","","","","","","","","","","","",""
"","","","","","instructions","3","12545","0.0-2.0-1.0-0.0-0.0","5f4dfdb3a7461bad5d3dd157","C3","batch3","[{""page_index"":0,""viewing_time"":1433},{""page_index"":1,""viewing_time"":983},{""page_index"":2,""viewing_time"":1449},{""page_index"":3,""viewing_time"":800},{""page_index"":4,""viewing_time"":825},{""page_index"":5,""viewing_time"":949.0000000000018},{""page_index"":6,""viewing_time"":1097.9999999999982}]","7537","tol-instructions","","","","","","","","","","","","","","","","","","","","","","","","","","",""
"","","","","","html-button-response","4","13506","0.0-2.0-1.0-1.0-0.0","5f4dfdb3a7461bad5d3dd157","C3","batch3","","958","tol_enter_quiz","<p class=block-text> Let's answer a few questions <br>","0","","","","","","","","","","","","","","","","","","","","","","","","",""
"","","","","","html-button-response","5","15981","0.0-2.0-1.0-1.0-1.0","5f4dfdb3a7461bad5d3dd157","C3","batch3","","2472.999999999998","tol_quiz","<p class = block-text>True or False: You can only move the ball on top of a peg. <br></p>","0","true","","","","","","","","","","","","","","","","","","","","","","","",""
"","","","","","html-button-response","6","17114","0.0-2.0-1.0-1.0-2.0","5f4dfdb3a7461bad5d3dd157","C3","batch3","","1128.9999999999982","tol_quiz_feedback","<p class = block-text>Correct! You can only move the ball on top of a peg.</p>","0","","","","","","","","","","","","","","","","","","","","","","","","",""
"","","","","","html-button-response","7","18031","0.0-2.0-1.0-1.0-3.0","5f4dfdb3a7461bad5d3dd157","C3","batch3","","915","tol_quiz","<p class = block-text>True or False: You should try to match your board with the target board with fewest moves possible. <br></p>","0","true","","","","","","","","","","","","","","","","","","","","","","","",""
"","","","","","html-button-response","8","18991","0.0-2.0-1.0-1.0-4.0","5f4dfdb3a7461bad5d3dd157","C3","batch3","","957","tol_quiz_feedback","<p class = block-text>Correct! </p>","0","","","","","","","","","","","","","","","","","","","","","","","","",""
"","","","","","html-button-response","9","21095","0.0-2.0-2.0","5f4dfdb3a7461bad5d3dd157","C3","batch3","","2101.0000000000036","","<p class=block-text> Now that you've understood the game, let's practice a few easier examples before we start!<br> <br>","0","","","","","","","","","","","","","","","","","","","","","","","","",""
"","","","","","single-stim-button","10","23755","0.0-2.0-3.0-0.0","5f4dfdb3a7461bad5d3dd157","C3","batch3","","2653","tol_practice","","","","tol_peg_2","2653","2653","0","[[1,2,0],[0,0],[0]]","1","[[1,2,0],[0,0],[3]]","practice","2653","","","","","","","","","","","","","","",""
"","","","","","single-stim-button","11","24571","0.0-2.0-3.0-1.0","5f4dfdb3a7461bad5d3dd157","C3","batch3","","812","tol_practice","","","","tol_peg_3","812","812","0","[[1,2,0],[0,0],[3]]","1","[[1,2,0],[0,0],[3]]","practice","812","","","","","","","","","","","","","","",""
"","","","","","poldrack-single-stim","12","25578","0.0-2.0-4.0","5f4dfdb3a7461bad5d3dd157","C3","batch3","","-1","tol_feedback","","","true","","1000","1000","500","","","","","","-1","none","true","","0","","","","","","","","","",""
"","","","","","single-stim-button","13","28966","0.0-2.0-5.0-0.0","5f4dfdb3a7461bad5d3dd157","C3","batch3","","3385","tol_practice","","","","tol_peg_1","3385","3385","0","[[1,0,0],[3,0],[0]]","2","[[0,0,0],[3,1],[2]]","practice","3385","","","","","","","","","","","","","","",""
"","","","","","single-stim-button","14","29705","0.0-2.0-5.0-1.0","5f4dfdb3a7461bad5d3dd157","C3","batch3","","735","tol_practice","","","","tol_peg_3","735","735","0","[[1,0,0],[3,0],[2]]","2","[[0,0,0],[3,1],[2]]","practice","735","","","","","","","","","","","","","","",""
"","","","","","single-stim-button","15","31822","0.0-2.0-5.1-0.1","5f4dfdb3a7461bad5d3dd157","C3","batch3","","2114","tol_practice","","","","tol_peg_1","2114","2114","0","[[0,0,0],[3,0],[2]]","3","[[0,0,0],[3,1],[2]]","practice","2114","","","","","","","","","","","","","","",""
"","","","","","single-stim-button","16","32682","0.0-2.0-5.1-1.1","5f4dfdb3a7461bad5d3dd157","C3","batch3","","857","tol_practice","","","","tol_peg_2","857","857","0","[[0,0,0],[3,1],[2]]","3","[[0,0,0],[3,1],[2]]","practice","857","","","","","","","","","","","","","","",""
"","","","","","poldrack-single-stim","17","33686","0.0-2.0-6.0","5f4dfdb3a7461bad5d3dd157","C3","batch3","","-1","tol_feedback","","","true","","1000","1000","500","","","","","","-1","none","true","","0","","","","","","","","","",""
"","","","","","single-stim-button","18","36513","0.0-2.0-7.0-0.0","5f4dfdb3a7461bad5d3dd157","C3","batch3","","2824","tol_practice","","","","tol_peg_2","2824","2824","0","[[1,2,0],[0,0],[0]]","4","[[1,0,0],[2,0],[3]]","practice","2824","","","","","","","","","","","","","","",""
"","","","","","single-stim-button","19","37380","0.0-2.0-7.0-1.0","5f4dfdb3a7461bad5d3dd157","C3","batch3","","863","tol_practice","","","","tol_peg_3","863","863","0","[[1,2,0],[0,0],[3]]","4","[[1,0,0],[2,0],[3]]","practice","863","","","","","","","","","","","","","","",""
"","","","","","single-stim-button","20","38114","0.0-2.0-7.1-0.1","5f4dfdb3a7461bad5d3dd157","C3","batch3","","732","tol_practice","","","","tol_peg_1","732","732","0","[[1,0,0],[0,0],[3]]","5","[[1,0,0],[2,0],[3]]","practice","732","","","","","","","","","","","","","","",""
"","","","","","single-stim-button","21","38945","0.0-2.0-7.1-1.1","5f4dfdb3a7461bad5d3dd157","C3","batch3","","828","tol_practice","","","","tol_peg_2","828","828","0","[[1,0,0],[2,0],[3]]","5","[[1,0,0],[2,0],[3]]","practice","828","","","","","","","","","","","","","","",""
"","","","","","poldrack-single-stim","22","39950","0.0-2.0-8.0","5f4dfdb3a7461bad5d3dd157","C3","batch3","","-1","tol_feedback","","","true","","1000","1000","500","","","","","","-1","none","true","","0","","","","","","","","","",""
"","","","","","html-button-response","23","41228","0.0-2.0-9.0","5f4dfdb3a7461bad5d3dd157","C3","batch3","","1275","tol_instruction","<div class = centerbox><p class = center-block-text>Great job! You are done with practice trials<br>You are about to start official trials.<br> <br> Problem <strong>1</strong> out of 25 problems</p></div>","0","","","","","","","","","","","","","","","","","","","","","","","","",""
"","","","","","single-stim-button","24","46037","0.0-2.0-10.0-0.0","5f4dfdb3a7461bad5d3dd157","C3","batch3","","3805","tol_tohand","","","","tol_peg_1","3805","3805","0","[[1,0,0],[3,0],[0]]","1","[[1,3,0],[2,0],[0]]","0","0","","","","","","3","","","","","","","","",""
"","","","","","single-stim-button","25","47894","0.0-2.0-10.0-1.0","5f4dfdb3a7461bad5d3dd157","C3","batch3","","1854","tol_toboard","","","","tol_peg_3","1854","1854","0","[[1,0,0],[3,0],[2]]","1","[[1,3,0],[2,0],[0]]","0","0","","","","","","3","","","","","","","","",""
"","","","","","single-stim-button","26","48714","0.0-2.0-10.1-0.1","5f4dfdb3a7461bad5d3dd157","C3","batch3","","816","tol_tohand","","","","tol_peg_2","816","816","0","[[1,0,0],[0,0],[2]]","2","[[1,3,0],[2,0],[0]]","0","0","","","","","","3","","","","","","","","",""
"","","","","","single-stim-button","27","49613","0.0-2.0-10.1-1.1","5f4dfdb3a7461bad5d3dd157","C3","batch3","","896","tol_toboard","","","","tol_peg_1","896","896","0","[[1,3,0],[0,0],[2]]","2","[[1,3,0],[2,0],[0]]","0","0","","","","","","3","","","","","","","","",""
"","","","","","single-stim-button","28","50729","0.0-2.0-10.2-0.2","5f4dfdb3a7461bad5d3dd157","C3","batch3","","1114","tol_tohand","","","","tol_peg_3","1114","1114","0","[[1,3,0],[0,0],[0]]","3","[[1,3,0],[2,0],[0]]","0","0","","","","","","3","","","","","","","","",""
"","","","","","single-stim-button","29","51604","0.0-2.0-10.2-1.2","5f4dfdb3a7461bad5d3dd157","C3","batch3","","872","tol_toboard","","","","tol_peg_2","872","872","0","[[1,3,0],[2,0],[0]]","3","[[1,3,0],[2,0],[0]]","0","0","","","","","","3","","","","","","","","",""
"","","","","","poldrack-single-stim","30","52608","0.0-2.0-11.0","5f4dfdb3a7461bad5d3dd157","C3","batch3","","-1","tol_feedback","","","true","","1000","1000","500","","","","","","-1","none","true","3805","5735","","","","","","","","","",""
"","","","","","html-button-response","31","53886","0.0-2.0-12.0","5f4dfdb3a7461bad5d3dd157","C3","batch3","","1276","tol_trial_num","<div class = centerbox><p class = center-block-text>problem <strong>2</strong> out of 25 problems</p></div>","0","","","","","","","","","","","","","","","","","","","","","","","","",""
"","","","","","single-stim-button","32","57522","0.0-2.0-13.0-0.0","5f4dfdb3a7461bad5d3dd157","C3","batch3","","3633","tol_tohand","","","","tol_peg_1","3633","3633","0","[[1,0,0],[3,0],[0]]","1","[[2,1,3],[0,0],[0]]","1","0","","","","","","5","","","","","","","","",""
"","","","","","single-stim-button","33","58298","0.0-2.0-13.0-1.0","5f4dfdb3a7461bad5d3dd157","C3","batch3","","773","tol_toboard","","","","tol_peg_3","773","773","0","[[1,0,0],[3,0],[2]]","1","[[2,1,3],[0,0],[0]]","1","0","","","","","","5","","","","","","","","",""
"","","","","","single-stim-button","34","61497","0.0-2.0-13.1-0.1","5f4dfdb3a7461bad5d3dd157","C3","batch3","","3196","tol_tohand","","","","tol_peg_1","3196","3196","0","[[0,0,0],[3,0],[2]]","2","[[2,1,3],[0,0],[0]]","1","0","","","","","","5","","","","","","","","",""
"","","","","","single-stim-button","35","63262","0.0-2.0-13.1-1.1","5f4dfdb3a7461bad5d3dd157","C3","batch3","","1762","tol_toboard","","","","tol_peg_2","1762","1762","0","[[0,0,0],[3,1],[2]]","2","[[2,1,3],[0,0],[0]]","1","0","","","","","","5","","","","","","","","",""
"","","","","","single-stim-button","36","64445","0.0-2.0-13.2-0.2","5f4dfdb3a7461bad5d3dd157","C3","batch3","","1180","tol_tohand","","","","tol_peg_3","1180","1180","0","[[0,0,0],[3,1],[0]]","3","[[2,1,3],[0,0],[0]]","1","0","","","","","","5","","","","","","","","",""
"","","","","","single-stim-button","37","65320","0.0-2.0-13.2-1.2","5f4dfdb3a7461bad5d3dd157","C3","batch3","","872","tol_toboard","","","","tol_peg_1","872","872","0","[[2,0,0],[3,1],[0]]","3","[[2,1,3],[0,0],[0]]","1","0","","","","","","5","","","","","","","","",""
"","","","","","single-stim-button","38","66423","0.0-2.0-13.3-0.3","5f4dfdb3a7461bad5d3dd157","C3","batch3","","1100","tol_tohand","","","","tol_peg_2","1100","1100","0","[[2,0,0],[3,0],[0]]","4","[[2,1,3],[0,0],[0]]","1","0","","","","","","5","","","","","","","","",""
"","","","","","single-stim-button","39","67570","0.0-2.0-13.3-1.3","5f4dfdb3a7461bad5d3dd157","C3","batch3","","1144","tol_toboard","","","","tol_peg_1","1144","1144","0","[[2,1,0],[3,0],[0]]","4","[[2,1,3],[0,0],[0]]","1","0","","","","","","5","","","","","","","","",""
"","","","","","single-stim-button","40","68404","0.0-2.0-13.4-0.4","5f4dfdb3a7461bad5d3dd157","C3","batch3","","831","tol_tohand","","","","tol_peg_2","831","831","0","[[2,1,0],[0,0],[0]]","5","[[2,1,3],[0,0],[0]]","1","0","","","","","","5","","","","","","","","",""
"","","","","","single-stim-button","41","69478","0.0-2.0-13.4-1.4","5f4dfdb3a7461bad5d3dd157","C3","batch3","","1072","tol_toboard","","","","tol_peg_1","1072","1072","0","[[2,1,3],[0,0],[0]]","5","[[2,1,3],[0,0],[0]]","1","0","","","","","","5","","","","","","","","",""
"","","","","","poldrack-single-stim","42","70482","0.0-2.0-14.0","5f4dfdb3a7461bad5d3dd157","C3","batch3","","-1","tol_feedback","","","true","","1000","1000","500","","","","","","-1","none","true","3633","9940","","","","","","","","","",""
"","","","","","html-button-response","43","73293","0.0-2.0-15.0","5f4dfdb3a7461bad5d3dd157","C3","batch3","","2809","tol_trial_num","<div class = centerbox><p class = center-block-text>problem <strong>3</strong> out of 25 problems</p></div>","0","","","","","","","","","","","","","","","","","","","","","","","","",""
"","","","","","single-stim-button","44","75717","0.0-2.0-16.0-0.0","5f4dfdb3a7461bad5d3dd157","C3","batch3","","2422","tol_tohand","","","","tol_peg_1","2422","2422","0","[[2,0,0],[0,0],[1]]","1","[[1,2,0],[3,0],[0]]","2","0","","","","","","4","","","","","","","","",""
"","","","","","single-stim-button","45","76704","0.0-2.0-16.0-1.0","5f4dfdb3a7461bad5d3dd157","C3","batch3","","985","tol_toboard","","","","tol_peg_2","985","985","0","[[2,0,0],[3,0],[1]]","1","[[1,2,0],[3,0],[0]]","2","0","","","","","","4","","","","","","","","",""
"","","","","","single-stim-button","46","78320","0.0-2.0-16.1-0.1","5f4dfdb3a7461bad5d3dd157","C3","batch3","","1614","tol_tohand","","","","tol_peg_3","1614","1614","0","[[2,0,0],[3,0],[0]]","2","[[1,2,0],[3,0],[0]]","2","0","","","","","","4","","","","","","","","",""
"","","","","","single-stim-button","47","79129","0.0-2.0-16.1-1.1","5f4dfdb3a7461bad5d3dd157","C3","batch3","","807","tol_toboard","","","","tol_peg_2","807","807","0","[[2,0,0],[3,1],[0]]","2","[[1,2,0],[3,0],[0]]","2","0","","","","","","4","","","","","","","","",""
"","","","","","single-stim-button","48","80868","0.0-2.0-16.2-0.2","5f4dfdb3a7461bad5d3dd157","C3","batch3","","1731","tol_tohand","","","","tol_peg_1","1731","1731","0","[[0,0,0],[3,1],[0]]","3","[[1,2,0],[3,0],[0]]","2","0","","","","","","4","","","","","","","","",""
"","","","","","single-stim-button","49","81603","0.0-2.0-16.2-1.2","5f4dfdb3a7461bad5d3dd157","C3","batch3","","726","tol_toboard","","","","tol_peg_3","726","726","0","[[0,0,0],[3,1],[2]]","3","[[1,2,0],[3,0],[0]]","2","0","","","","","","4","","","","","","","","",""
"","","","","","single-stim-button","50","82118","0.0-2.0-16.3-0.3","5f4dfdb3a7461bad5d3dd157","C3","batch3","","510","tol_tohand","","","","tol_peg_2","510","510","0","[[0,0,0],[3,0],[2]]","4","[[1,2,0],[3,0],[0]]","2","0","","","","","","4","","","","","","","","",""
"","","","","","single-stim-button","51","83512","0.0-2.0-16.3-1.3","5f4dfdb3a7461bad5d3dd157","C3","batch3","","1391","tol_toboard","","","","tol_peg_1","1391","1391","0","[[1,0,0],[3,0],[2]]","4","[[1,2,0],[3,0],[0]]","2","0","","","","","","4","","","","","","","","",""
"","","","","","single-stim-button","52","84327","0.0-2.0-16.4-0.4","5f4dfdb3a7461bad5d3dd157","C3","batch3","","812","tol_tohand","","","","tol_peg_3","812","812","0","[[1,0,0],[3,0],[0]]","5","[[1,2,0],[3,0],[0]]","2","0","","","","","","4","","","","","","","","",""
"","","","","","single-stim-button","53","85087","0.0-2.0-16.4-1.4","5f4dfdb3a7461bad5d3dd157","C3","batch3","","756","tol_toboard","","","","tol_peg_1","756","756","0","[[1,2,0],[3,0],[0]]","5","[[1,2,0],[3,0],[0]]","2","0","","","","","","4","","","","","","","","",""
"","","","","","poldrack-single-stim","54","86092","0.0-2.0-17.0","5f4dfdb3a7461bad5d3dd157","C3","batch3","","-1","tol_feedback","","","true","","1000","1000","500","","","","","","-1","none","true","2422","7089","","","","","","","","","",""
"","","","","","html-button-response","55","87277","0.0-2.0-18.0","5f4dfdb3a7461bad5d3dd157","C3","batch3","","1183","tol_trial_num","<div class = centerbox><p class = center-block-text>problem <strong>4</strong> out of 25 problems</p></div>","0","","","","","","","","","","","","","","","","","","","","","","","","",""
"","","","","","single-stim-button","56","90261","0.0-2.0-19.0-0.0","5f4dfdb3a7461bad5d3dd157","C3","batch3","","2982","tol_tohand","","","","tol_peg_2","2982","2982","0","[[3,0,0],[2,0],[0]]","1","[[3,0,0],[1,0],[2]]","3","0","","","","","","3","","","","","","","","",""
"","","","","","single-stim-button","57","91377","0.0-2.0-19.0-1.0","5f4dfdb3a7461bad5d3dd157","C3","batch3","","1113","tol_toboard","","","","tol_peg_1","1113","1113","0","[[3,1,0],[2,0],[0]]","1","[[3,0,0],[1,0],[2]]","3","0","","","","","","3","","","","","","","","",""
"","","","","","single-stim-button","58","92119","0.0-2.0-19.1-0.1","5f4dfdb3a7461bad5d3dd157","C3","batch3","","739","tol_tohand","","","","tol_peg_2","739","739","0","[[3,1,0],[0,0],[0]]","2","[[3,0,0],[1,0],[2]]","3","0","","","","","","3","","","","","","","","",""
"","","","","","single-stim-button","59","93019","0.0-2.0-19.1-1.1","5f4dfdb3a7461bad5d3dd157","C3","batch3","","898","tol_toboard","","","","tol_peg_3","898","898","0","[[3,1,0],[0,0],[2]]","2","[[3,0,0],[1,0],[2]]","3","0","","","","","","3","","","","","","","","",""
"","","","","","single-stim-button","60","93813","0.0-2.0-19.2-0.2","5f4dfdb3a7461bad5d3dd157","C3","batch3","","792","tol_tohand","","","","tol_peg_1","792","792","0","[[3,0,0],[0,0],[2]]","3","[[3,0,0],[1,0],[2]]","3","0","","","","","","3","","","","","","","","",""
"","","","","","single-stim-button","61","94652","0.0-2.0-19.2-1.2","5f4dfdb3a7461bad5d3dd157","C3","batch3","","837","tol_toboard","","","","tol_peg_2","837","837","0","[[3,0,0],[1,0],[2]]","3","[[3,0,0],[1,0],[2]]","3","0","","","","","","3","","","","","","","","",""
"","","","","","poldrack-single-stim","62","95657","0.0-2.0-20.0","5f4dfdb3a7461bad5d3dd157","C3","batch3","","-1","tol_feedback","","","true","","1000","1000","500","","","","","","-1","none","true","2982","4513","","","","","","","","","",""
"","","","","","html-button-response","63","96818","0.0-2.0-21.0","5f4dfdb3a7461bad5d3dd157","C3","batch3","","1158.9999999999854","tol_trial_num","<div class = centerbox><p class = center-block-text>problem <strong>5</strong> out of 25 problems</p></div>","0","","","","","","","","","","","","","","","","","","","","","","","","",""
"","","","","","single-stim-button","64","104019","0.0-2.0-22.0-0.0","5f4dfdb3a7461bad5d3dd157","C3","batch3","","7199","tol_tohand","","","","tol_peg_2","7199","7199","0","[[1,0,0],[0,0],[3]]","1","[[0,0,0],[1,2],[3]]","4","0","","","","","","7","","","","","","","","",""
"","","","","","single-stim-button","65","105610","0.0-2.0-22.0-1.0","5f4dfdb3a7461bad5d3dd157","C3","batch3","","1588","tol_toboard","","","","tol_peg_1","1588","1588","0","[[1,2,0],[0,0],[3]]","1","[[0,0,0],[1,2],[3]]","4","0","","","","","","7","","","","","","","","",""
"","","","","","single-stim-button","66","107815","0.0-2.0-22.1-0.1","5f4dfdb3a7461bad5d3dd157","C3","batch3","","2202","tol_tohand","","","","tol_peg_1","2202","2202","0","[[1,0,0],[0,0],[3]]","2","[[0,0,0],[1,2],[3]]","4","0","","","","","","7","","","","","","","","",""
"","","","","","single-stim-button","67","110664","0.0-2.0-22.1-1.1","5f4dfdb3a7461bad5d3dd157","C3","batch3","","2847","tol_toboard","","","","tol_peg_1","2847","2847","0","[[1,2,0],[0,0],[3]]","2","[[0,0,0],[1,2],[3]]","4","0","","","","","","7","","","","","","","","",""
"","","","","","single-stim-button","68","111560","0.0-2.0-22.2-0.2","5f4dfdb3a7461bad5d3dd157","C3","batch3","","894","tol_tohand","","","","tol_peg_3","894","894","0","[[1,2,0],[0,0],[0]]","3","[[0,0,0],[1,2],[3]]","4","0","","","","","","7","","","","","","","","",""
"","","","","","single-stim-button","69","112346","0.0-2.0-22.2-1.2","5f4dfdb3a7461bad5d3dd157","C3","batch3","","783","tol_toboard","","","","tol_peg_2","783","783","0","[[1,2,0],[3,0],[0]]","3","[[0,0,0],[1,2],[3]]","4","0","","","","","","7","","","","","","","","",""
"","","","","","single-stim-button","70","113994","0.0-2.0-22.3-0.3","5f4dfdb3a7461bad5d3dd157","C3","batch3","","1645","tol_tohand","","","","tol_peg_1","1645","1645","0","[[1,0,0],[3,0],[0]]","4","[[0,0,0],[1,2],[3]]","4","0","","","","","","7","","","","","","","","",""
"","","","","","single-stim-button","71","114930","0.0-2.0-22.3-1.3","5f4dfdb3a7461bad5d3dd157","C3","batch3","","935","tol_toboard","","","","tol_peg_3","935","935","0","[[1,0,0],[3,0],[2]]","4","[[0,0,0],[1,2],[3]]","4","0","","","","","","7","","","","","","","","",""
"","","","","","single-stim-button","72","117336","0.0-2.0-22.4-0.4","5f4dfdb3a7461bad5d3dd157","C3","batch3","","2403","tol_tohand","","","","tol_peg_2","2403","2403","0","[[1,0,0],[0,0],[2]]","5","[[0,0,0],[1,2],[3]]","4","0","","","","","","7","","","","","","","","",""
"","","","","","single-stim-button","73","119951","0.0-2.0-22.4-1.4","5f4dfdb3a7461bad5d3dd157","C3","batch3","","2614","tol_toboard","","","","tol_peg_1","2614","2614","0","[[1,3,0],[0,0],[2]]","5","[[0,0,0],[1,2],[3]]","4","0","","","","","","7","","","","","","","","",""
"","","","","","single-stim-button","74","120992","0.0-2.0-22.5-0.5","5f4dfdb3a7461bad5d3dd157","C3","batch3","","1038","tol_tohand","","","","tol_peg_1","1038","1038","0","[[1,0,0],[0,0],[2]]","6","[[0,0,0],[1,2],[3]]","4","0","","","","","","7","","","","","","","","",""
"","","","","","single-stim-button","75","124005","0.0-2.0-22.5-1.5","5f4dfdb3a7461bad5d3dd157","C3","batch3","","3010","tol_toboard","","","","tol_peg_2","3010","3010","0","[[1,0,0],[3,0],[2]]","6","[[0,0,0],[1,2],[3]]","4","0","","","","","","7","","","","","","","","",""
"","","","","","single-stim-button","76","126749","0.0-2.0-22.6-0.6","5f4dfdb3a7461bad5d3dd157","C3","batch3","","2742","tol_tohand","","","","tol_peg_1","2742","2742","0","[[0,0,0],[3,0],[2]]","7","[[0,0,0],[1,2],[3]]","4","0","","","","","","7","","","","","","","","",""
"","","","","","single-stim-button","77","129791","0.0-2.0-22.6-1.6","5f4dfdb3a7461bad5d3dd157","C3","batch3","","3039","tol_toboard","","","","tol_peg_2","3039","3039","0","[[0,0,0],[3,1],[2]]","7","[[0,0,0],[1,2],[3]]","4","0","","","","","","7","","","","","","","","",""
"","","","","","single-stim-button","78","132106","0.0-2.0-22.7-0.7","5f4dfdb3a7461bad5d3dd157","C3","batch3","","2313","tol_tohand","","","","tol_peg_2","2313","2313","0","[[0,0,0],[3,0],[2]]","8","[[0,0,0],[1,2],[3]]","4","0","","","","","","7","","","","","","","","",""
"","","","","","single-stim-button","79","134761","0.0-2.0-22.7-1.7","5f4dfdb3a7461bad5d3dd157","C3","batch3","","2653","tol_toboard","","","","tol_peg_2","2653","2653","0","[[0,0,0],[3,1],[2]]","8","[[0,0,0],[1,2],[3]]","4","0","","","","","","7","","","","","","","","",""
"","","","","","single-stim-button","80","135268","0.0-2.0-22.8-0.8","5f4dfdb3a7461bad5d3dd157","C3","batch3","","504","tol_tohand","","","","tol_peg_3","504","504","0","[[0,0,0],[3,1],[0]]","9","[[0,0,0],[1,2],[3]]","4","0","","","","","","7","","","","","","","","",""
"","","","","","single-stim-button","81","136047","0.0-2.0-22.8-1.8","5f4dfdb3a7461bad5d3dd157","C3","batch3","","778","tol_toboard","","","","tol_peg_1","778","778","0","[[2,0,0],[3,1],[0]]","9","[[0,0,0],[1,2],[3]]","4","0","","","","","","7","","","","","","","","",""
"","","","","","single-stim-button","82","137233","0.0-2.0-22.9-0.9","5f4dfdb3a7461bad5d3dd157","C3","batch3","","1184","tol_tohand","","","","tol_peg_2","1184","1184","0","[[2,0,0],[3,0],[0]]","10","[[0,0,0],[1,2],[3]]","4","0","","","","","","7","","","","","","","","",""
"","","","","","single-stim-button","83","140159","0.0-2.0-22.9-1.9","5f4dfdb3a7461bad5d3dd157","C3","batch3","","2924","tol_toboard","","","","tol_peg_1","2924","2924","0","[[2,1,0],[3,0],[0]]","10","[[0,0,0],[1,2],[3]]","4","0","","","","","","7","","","","","","","","",""
"","","","","","single-stim-button","84","140865","0.0-2.0-22.10-0.10","5f4dfdb3a7461bad5d3dd157","C3","batch3","","704","tol_tohand","","","","tol_peg_2","704","704","0","[[2,1,0],[0,0],[0]]","11","[[0,0,0],[1,2],[3]]","4","0","","","","","","7","","","","","","","","",""
"","","","","","single-stim-button","85","141675","0.0-2.0-22.10-1.10","5f4dfdb3a7461bad5d3dd157","C3","batch3","","808","tol_toboard","","","","tol_peg_3","808","808","0","[[2,1,0],[0,0],[3]]","11","[[0,0,0],[1,2],[3]]","4","0","","","","","","7","","","","","","","","",""
"","","","","","single-stim-button","86","142426","0.0-2.0-22.11-0.11","5f4dfdb3a7461bad5d3dd157","C3","batch3","","747","tol_tohand","","","","tol_peg_1","747","747","0","[[2,0,0],[0,0],[3]]","12","[[0,0,0],[1,2],[3]]","4","0","","","","","","7","","","","","","","","",""
"","","","","","single-stim-button","87","142983","0.0-2.0-22.11-1.11","5f4dfdb3a7461bad5d3dd157","C3","batch3","","554","tol_toboard","","","","tol_peg_2","554","554","0","[[2,0,0],[1,0],[3]]","12","[[0,0,0],[1,2],[3]]","4","0","","","","","","7","","","","","","","","",""
"","","","","","single-stim-button","88","143717","0.0-2.0-22.12-0.12","5f4dfdb3a7461bad5d3dd157","C3","batch3","","732","tol_tohand","","","","tol_peg_1","732","732","0","[[0,0,0],[1,0],[3]]","13","[[0,0,0],[1,2],[3]]","4","0","","","","","","7","","","","","","","","",""
"","","","","","single-stim-button","89","144375","0.0-2.0-22.12-1.12","5f4dfdb3a7461bad5d3dd157","C3","batch3","","655","tol_toboard","","","","tol_peg_2","655","655","0","[[0,0,0],[1,2],[3]]","13","[[0,0,0],[1,2],[3]]","4","0","","","","","","7","","","","","","","","",""
"","","","","","poldrack-single-stim","90","145378","0.0-2.0-23.0","5f4dfdb3a7461bad5d3dd157","C3","batch3","","-1","tol_feedback","","","true","","1000","1000","500","","","","","","-1","none","true","7199","24307","","","","","","","","","",""
"","","","","","html-button-response","91","147329","0.0-2.0-24.0","5f4dfdb3a7461bad5d3dd157","C3","batch3","","1948","tol_trial_num","<div class = centerbox><p class = center-block-text>problem <strong>6</strong> out of 25 problems</p></div>","0","","","","","","","","","","","","","","","","","","","","","","","","",""
"","","","","","single-stim-button","92","152425","0.0-2.0-25.0-0.0","5f4dfdb3a7461bad5d3dd157","C3","batch3","","5095","tol_tohand","","","","tol_peg_2","5095","5095","0","[[0,0,0],[1,0],[3]]","1","[[1,0,0],[2,3],[0]]","5","0","","","","","","6","","","","","","","","",""
"","","","","","single-stim-button","93","153324","0.0-2.0-25.0-1.0","5f4dfdb3a7461bad5d3dd157","C3","batch3","","896","tol_toboard","","","","tol_peg_1","896","896","0","[[2,0,0],[1,0],[3]]","1","[[1,0,0],[2,3],[0]]","5","0","","","","","","6","","","","","","","","",""
"","","","","","single-stim-button","94","154991","0.0-2.0-25.1-0.1","5f4dfdb3a7461bad5d3dd157","C3","batch3","","1664","tol_tohand","","","","tol_peg_3","1664","1664","0","[[2,0,0],[1,0],[0]]","2","[[1,0,0],[2,3],[0]]","5","0","","","","","","6","","","","","","","","",""
"","","","","","single-stim-button","95","155749","0.0-2.0-25.1-1.1","5f4dfdb3a7461bad5d3dd157","C3","batch3","","755","tol_toboard","","","","tol_peg_1","755","755","0","[[2,3,0],[1,0],[0]]","2","[[1,0,0],[2,3],[0]]","5","0","","","","","","6","","","","","","","","",""
"","","","","","single-stim-button","96","156884","0.0-2.0-25.2-0.2","5f4dfdb3a7461bad5d3dd157","C3","batch3","","1133","tol_tohand","","","","tol_peg_2","1133","1133","0","[[2,3,0],[0,0],[0]]","3","[[1,0,0],[2,3],[0]]","5","0","","","","","","6","","","","","","","","",""
"","","","","","single-stim-button","97","157698","0.0-2.0-25.2-1.2","5f4dfdb3a7461bad5d3dd157","C3","batch3","","812","tol_toboard","","","","tol_peg_3","812","812","0","[[2,3,0],[0,0],[1]]","3","[[1,0,0],[2,3],[0]]","5","0","","","","","","6","","","","","","","","",""
"","","","","","single-stim-button","98","160374","0.0-2.0-25.3-0.3","5f4dfdb3a7461bad5d3dd157","C3","batch3","","2673","tol_tohand","","","","tol_peg_3","2673","2673","0","[[2,3,0],[0,0],[0]]","4","[[1,0,0],[2,3],[0]]","5","0","","","","","","6","","","","","","","","",""
"","","","","","single-stim-button","99","161189","0.0-2.0-25.3-1.3","5f4dfdb3a7461bad5d3dd157","C3","batch3","","813","tol_toboard","","","","tol_peg_2","813","813","0","[[2,3,0],[1,0],[0]]","4","[[1,0,0],[2,3],[0]]","5","0","","","","","","6","","","","","","","","",""
"","","","","","single-stim-button","100","162291","0.0-2.0-25.4-0.4","5f4dfdb3a7461bad5d3dd157","C3","batch3","","1100","tol_tohand","","","","tol_peg_1","1100","1100","0","[[2,0,0],[1,0],[0]]","5","[[1,0,0],[2,3],[0]]","5","0","","","","","","6","","","","","","","","",""
"","","","","","single-stim-button","101","163257","0.0-2.0-25.4-1.4","5f4dfdb3a7461bad5d3dd157","C3","batch3","","964","tol_toboard","","","","tol_peg_2","964","964","0","[[2,0,0],[1,3],[0]]","5","[[1,0,0],[2,3],[0]]","5","0","","","","","","6","","","","","","","","",""
"","","","","","single-stim-button","102","164071","0.0-2.0-25.5-0.5","5f4dfdb3a7461bad5d3dd157","C3","batch3","","812","tol_tohand","","","","tol_peg_1","812","812","0","[[0,0,0],[1,3],[0]]","6","[[1,0,0],[2,3],[0]]","5","0","","","","","","6","","","","","","","","",""
"","","","","","single-stim-button","103","165108","0.0-2.0-25.5-1.5","5f4dfdb3a7461bad5d3dd157","C3","batch3","","1035","tol_toboard","","","","tol_peg_3","1035","1035","0","[[0,0,0],[1,3],[2]]","6","[[1,0,0],[2,3],[0]]","5","0","","","","","","6","","","","","","","","",""
"","","","","","single-stim-button","104","171032","0.0-2.0-25.6-0.6","5f4dfdb3a7461bad5d3dd157","C3","batch3","","5922","tol_tohand","","","","tol_peg_2","5922","5922","0","[[0,0,0],[1,0],[2]]","7","[[1,0,0],[2,3],[0]]","5","0","","","","","","6","","","","","","","","",""
"","","","","","single-stim-button","105","172073","0.0-2.0-25.6-1.6","5f4dfdb3a7461bad5d3dd157","C3","batch3","","1038","tol_toboard","","","","tol_peg_1","1038","1038","0","[[3,0,0],[1,0],[2]]","7","[[1,0,0],[2,3],[0]]","5","0","","","","","","6","","","","","","","","",""
"","","","","","single-stim-button","106","173858","0.0-2.0-25.7-0.7","5f4dfdb3a7461bad5d3dd157","C3","batch3","","1783","tol_tohand","","","","tol_peg_2","1783","1783","0","[[3,0,0],[0,0],[2]]","8","[[1,0,0],[2,3],[0]]","5","0","","","","","","6","","","","","","","","",""
"","","","","","single-stim-button","107","174690","0.0-2.0-25.7-1.7","5f4dfdb3a7461bad5d3dd157","C3","batch3","","830","tol_toboard","","","","tol_peg_1","830","830","0","[[3,1,0],[0,0],[2]]","8","[[1,0,0],[2,3],[0]]","5","0","","","","","","6","","","","","","","","",""
"","","","","","single-stim-button","108","175674","0.0-2.0-25.8-0.8","5f4dfdb3a7461bad5d3dd157","C3","batch3","","982","tol_tohand","","","","tol_peg_3","982","982","0","[[3,1,0],[0,0],[0]]","9","[[1,0,0],[2,3],[0]]","5","0","","","","","","6","","","","","","","","",""
"","","","","","single-stim-button","109","176457","0.0-2.0-25.8-1.8","5f4dfdb3a7461bad5d3dd157","C3","batch3","","781","tol_toboard","","","","tol_peg_2","781","781","0","[[3,1,0],[2,0],[0]]","9","[[1,0,0],[2,3],[0]]","5","0","","","","","","6","","","","","","","","",""
"","","","","","single-stim-button","110","177090","0.0-2.0-25.9-0.9","5f4dfdb3a7461bad5d3dd157","C3","batch3","","631","tol_tohand","","","","tol_peg_1","631","631","0","[[3,0,0],[2,0],[0]]","10","[[1,0,0],[2,3],[0]]","5","0","","","","","","6","","","","","","","","",""
"","","","","","single-stim-button","111","177616","0.0-2.0-25.9-1.9","5f4dfdb3a7461bad5d3dd157","C3","batch3","","523","tol_toboard","","","","tol_peg_3","523","523","0","[[3,0,0],[2,0],[1]]","10","[[1,0,0],[2,3],[0]]","5","0","","","","","","6","","","","","","","","",""
"","","","","","single-stim-button","112","178382","0.0-2.0-25.10-0.10","5f4dfdb3a7461bad5d3dd157","C3","batch3","","764","tol_tohand","","","","tol_peg_1","764","764","0","[[0,0,0],[2,0],[1]]","11","[[1,0,0],[2,3],[0]]","5","0","","","","","","6","","","","","","","","",""
"","","","","","single-stim-button","113","179023","0.0-2.0-25.10-1.10","5f4dfdb3a7461bad5d3dd157","C3","batch3","","639","tol_toboard","","","","tol_peg_2","639","639","0","[[0,0,0],[2,3],[1]]","11","[[1,0,0],[2,3],[0]]","5","0","","","","","","6","","","","","","","","",""
"","","","","","single-stim-button","114","179686","0.0-2.0-25.11-0.11","5f4dfdb3a7461bad5d3dd157","C3","batch3","","661","tol_tohand","","","","tol_peg_3","661","661","0","[[0,0,0],[2,3],[0]]","12","[[1,0,0],[2,3],[0]]","5","0","","","","","","6","","","","","","","","",""
"","","","","","single-stim-button","115","181015","0.0-2.0-25.11-1.11","5f4dfdb3a7461bad5d3dd157","C3","batch3","","1327","tol_toboard","","","","tol_peg_1","1327","1327","0","[[1,0,0],[2,3],[0]]","12","[[1,0,0],[2,3],[0]]","5","0","","","","","","6","","","","","","","","",""
"","","","","","poldrack-single-stim","116","182020","0.0-2.0-26.0","5f4dfdb3a7461bad5d3dd157","C3","batch3","","-1","tol_feedback","","","true","","1000","1000","500","","","","","","-1","none","true","5095","23220","","","","","","","","","",""
"","","","","","html-button-response","117","183550","0.0-2.0-27.0","5f4dfdb3a7461bad5d3dd157","C3","batch3","","1528","tol_trial_num","<div class = centerbox><p class = center-block-text>problem <strong>7</strong> out of 25 problems</p></div>","0","","","","","","","","","","","","","","","","","","","","","","","","",""
"","","","","","single-stim-button","118","190890","0.0-2.0-28.0-0.0","5f4dfdb3a7461bad5d3dd157","C3","batch3","","7338","tol_tohand","","","","tol_peg_3","7338","7338","0","[[2,1,0],[0,0],[0]]","1","[[1,2,0],[3,0],[0]]","6","0","","","","","","5","","","","","","","","",""
"","","","","","single-stim-button","119","191614","0.0-2.0-28.0-1.0","5f4dfdb3a7461bad5d3dd157","C3","batch3","","721","tol_toboard","","","","tol_peg_2","721","721","0","[[2,1,0],[3,0],[0]]","1","[[1,2,0],[3,0],[0]]","6","0","","","","","","5","","","","","","","","",""
"","","","","","single-stim-button","120","192427","0.0-2.0-28.1-0.1","5f4dfdb3a7461bad5d3dd157","C3","batch3","","810","tol_tohand","","","","tol_peg_1","810","810","0","[[2,0,0],[3,0],[0]]","2","[[1,2,0],[3,0],[0]]","6","0","","","","","","5","","","","","","","","",""
"","","","","","single-stim-button","121","193398","0.0-2.0-28.1-1.1","5f4dfdb3a7461bad5d3dd157","C3","batch3","","969","tol_toboard","","","","tol_peg_3","969","969","0","[[2,0,0],[3,0],[1]]","2","[[1,2,0],[3,0],[0]]","6","0","","","","","","5","","","","","","","","",""
"","","","","","single-stim-button","122","194310","0.0-2.0-28.2-0.2","5f4dfdb3a7461bad5d3dd157","C3","batch3","","909","tol_tohand","","","","tol_peg_1","909","909","0","[[0,0,0],[3,0],[1]]","3","[[1,2,0],[3,0],[0]]","6","0","","","","","","5","","","","","","","","",""
"","","","","","single-stim-button","123","195301","0.0-2.0-28.2-1.2","5f4dfdb3a7461bad5d3dd157","C3","batch3","","989","tol_toboard","","","","tol_peg_2","989","989","0","[[0,0,0],[3,2],[1]]","3","[[1,2,0],[3,0],[0]]","6","0","","","","","","5","","","","","","","","",""
"","","","","","single-stim-button","124","195998","0.0-2.0-28.3-0.3","5f4dfdb3a7461bad5d3dd157","C3","batch3","","695","tol_tohand","","","","tol_peg_3","695","695","0","[[0,0,0],[3,2],[0]]","4","[[1,2,0],[3,0],[0]]","6","0","","","","","","5","","","","","","","","",""
"","","","","","single-stim-button","125","196720","0.0-2.0-28.3-1.3","5f4dfdb3a7461bad5d3dd157","C3","batch3","","719","tol_toboard","","","","tol_peg_1","719","719","0","[[1,0,0],[3,2],[0]]","4","[[1,2,0],[3,0],[0]]","6","0","","","","","","5","","","","","","","","",""
"","","","","","single-stim-button","126","197699","0.0-2.0-28.4-0.4","5f4dfdb3a7461bad5d3dd157","C3","batch3","","977","tol_tohand","","","","tol_peg_2","977","977","0","[[1,0,0],[3,0],[0]]","5","[[1,2,0],[3,0],[0]]","6","0","","","","","","5","","","","","","","","",""
"","","","","","single-stim-button","127","198500","0.0-2.0-28.4-1.4","5f4dfdb3a7461bad5d3dd157","C3","batch3","","799","tol_toboard","","","","tol_peg_1","799","799","0","[[1,2,0],[3,0],[0]]","5","[[1,2,0],[3,0],[0]]","6","0","","","","","","5","","","","","","","","",""
"","","","","","poldrack-single-stim","128","199504","0.0-2.0-29.0","5f4dfdb3a7461bad5d3dd157","C3","batch3","","-1","tol_feedback","","","true","","1000","1000","500","","","","","","-1","none","true","7338","10729","","","","","","","","","",""
"","","","","","html-button-response","129","200738","0.0-2.0-30.0","5f4dfdb3a7461bad5d3dd157","C3","batch3","","1232.999999999971","tol_trial_num","<div class = centerbox><p class = center-block-text>problem <strong>8</strong> out of 25 problems</p></div>","0","","","","","","","","","","","","","","","","","","","","","","","","",""
"","","","","","single-stim-button","130","206356","0.0-2.0-31.0-0.0","5f4dfdb3a7461bad5d3dd157","C3","batch3","","5615","tol_tohand","","","","tol_peg_2","5615","5615","0","[[0,0,0],[2,0],[1]]","1","[[1,2,0],[3,0],[0]]","7","0","","","","","","4","","","","","","","","",""
"","","","","","single-stim-button","131","207256","0.0-2.0-31.0-1.0","5f4dfdb3a7461bad5d3dd157","C3","batch3","","897","tol_toboard","","","","tol_peg_1","897","897","0","[[3,0,0],[2,0],[1]]","1","[[1,2,0],[3,0],[0]]","7","0","","","","","","4","","","","","","","","",""
"","","","","","single-stim-button","132","208572","0.0-2.0-31.1-0.1","5f4dfdb3a7461bad5d3dd157","C3","batch3","","1313","tol_tohand","","","","tol_peg_2","1313","1313","0","[[3,0,0],[0,0],[1]]","2","[[1,2,0],[3,0],[0]]","7","0","","","","","","4","","","","","","","","",""
"","","","","","single-stim-button","133","210389","0.0-2.0-31.1-1.1","5f4dfdb3a7461bad5d3dd157","C3","batch3","","1815","tol_toboard","","","","tol_peg_1","1815","1815","0","[[3,2,0],[0,0],[1]]","2","[[1,2,0],[3,0],[0]]","7","0","","","","","","4","","","","","","","","",""
"","","","","","single-stim-button","134","211948","0.0-2.0-31.2-0.2","5f4dfdb3a7461bad5d3dd157","C3","batch3","","1557","tol_tohand","","","","tol_peg_3","1557","1557","0","[[3,2,0],[0,0],[0]]","3","[[1,2,0],[3,0],[0]]","7","0","","","","","","4","","","","","","","","",""
"","","","","","single-stim-button","135","212738","0.0-2.0-31.2-1.2","5f4dfdb3a7461bad5d3dd157","C3","batch3","","788","tol_toboard","","","","tol_peg_2","788","788","0","[[3,2,0],[1,0],[0]]","3","[[1,2,0],[3,0],[0]]","7","0","","","","","","4","","","","","","","","",""
"","","","","","single-stim-button","136","213641","0.0-2.0-31.3-0.3","5f4dfdb3a7461bad5d3dd157","C3","batch3","","900","tol_tohand","","","","tol_peg_1","900","900","0","[[3,0,0],[1,0],[0]]","4","[[1,2,0],[3,0],[0]]","7","0","","","","","","4","","","","","","","","",""
"","","","","","single-stim-button","137","215413","0.0-2.0-31.3-1.3","5f4dfdb3a7461bad5d3dd157","C3","batch3","","1770","tol_toboard","","","","tol_peg_3","1770","1770","0","[[3,0,0],[1,0],[2]]","4","[[1,2,0],[3,0],[0]]","7","0","","","","","","4","","","","","","","","",""
"","","","","","single-stim-button","138","216884","0.0-2.0-31.4-0.4","5f4dfdb3a7461bad5d3dd157","C3","batch3","","1468","tol_tohand","","","","tol_peg_1","1468","1468","0","[[0,0,0],[1,0],[2]]","5","[[1,2,0],[3,0],[0]]","7","0","","","","","","4","","","","","","","","",""
"","","","","","single-stim-button","139","217764","0.0-2.0-31.4-1.4","5f4dfdb3a7461bad5d3dd157","C3","batch3","","878","tol_toboard","","","","tol_peg_2","878","878","0","[[0,0,0],[1,3],[2]]","5","[[1,2,0],[3,0],[0]]","7","0","","","","","","4","","","","","","","","",""
"","","","","","single-stim-button","140","219143","0.0-2.0-31.5-0.5","5f4dfdb3a7461bad5d3dd157","C3","batch3","","1376","tol_tohand","","","","tol_peg_2","1376","1376","0","[[0,0,0],[1,0],[2]]","6","[[1,2,0],[3,0],[0]]","7","0","","","","","","4","","","","","","","","",""
"","","","","","single-stim-button","141","220835","0.0-2.0-31.5-1.5","5f4dfdb3a7461bad5d3dd157","C3","batch3","","1690","tol_toboard","","","","tol_peg_1","1690","1690","0","[[3,0,0],[1,0],[2]]","6","[[1,2,0],[3,0],[0]]","7","0","","","","","","4","","","","","","","","",""
"","","","","","single-stim-button","142","222114","0.0-2.0-31.6-0.6","5f4dfdb3a7461bad5d3dd157","C3","batch3","","1276","tol_tohand","","","","tol_peg_3","1276","1276","0","[[3,0,0],[1,0],[0]]","7","[[1,2,0],[3,0],[0]]","7","0","","","","","","4","","","","","","","","",""
"","","","","","single-stim-button","143","222847","0.0-2.0-31.6-1.6","5f4dfdb3a7461bad5d3dd157","C3","batch3","","731","tol_toboard","","","","tol_peg_2","731","731","0","[[3,0,0],[1,2],[0]]","7","[[1,2,0],[3,0],[0]]","7","0","","","","","","4","","","","","","","","",""
"","","","","","single-stim-button","144","223479","0.0-2.0-31.7-0.7","5f4dfdb3a7461bad5d3dd157","C3","batch3","","629","tol_tohand","","","","tol_peg_1","629","629","0","[[0,0,0],[1,2],[0]]","8","[[1,2,0],[3,0],[0]]","7","0","","","","","","4","","","","","","","","",""
"","","","","","single-stim-button","145","224488","0.0-2.0-31.7-1.7","5f4dfdb3a7461bad5d3dd157","C3","batch3","","1007","tol_toboard","","","","tol_peg_3","1007","1007","0","[[0,0,0],[1,2],[3]]","8","[[1,2,0],[3,0],[0]]","7","0","","","","","","4","","","","","","","","",""
"","","","","","single-stim-button","146","227477","0.0-2.0-31.8-0.8","5f4dfdb3a7461bad5d3dd157","C3","batch3","","2988","tol_tohand","","","","tol_peg_2","2988","2988","0","[[0,0,0],[1,0],[3]]","9","[[1,2,0],[3,0],[0]]","7","0","","","","","","4","","","","","","","","",""
"","","","","","single-stim-button","147","234380","0.0-2.0-31.8-1.8","5f4dfdb3a7461bad5d3dd157","C3","batch3","","6901","tol_toboard","","","","tol_peg_2","6901","6901","0","[[0,0,0],[1,2],[3]]","9","[[1,2,0],[3,0],[0]]","7","0","","","","","","4","","","","","","","","",""
"","","","","","single-stim-button","148","234995","0.0-2.0-31.9-0.9","5f4dfdb3a7461bad5d3dd157","C3","batch3","","613","tol_tohand","","","","tol_peg_3","613","613","0","[[0,0,0],[1,2],[0]]","10","[[1,2,0],[3,0],[0]]","7","0","","","","","","4","","","","","","","","",""
"","","","","","single-stim-button","149","235880","0.0-2.0-31.9-1.9","5f4dfdb3a7461bad5d3dd157","C3","batch3","","883","tol_toboard","","","","tol_peg_1","883","883","0","[[3,0,0],[1,2],[0]]","10","[[1,2,0],[3,0],[0]]","7","0","","","","","","4","","","","","","","","",""
"","","","","","single-stim-button","150","238476","0.0-2.0-31.10-0.10","5f4dfdb3a7461bad5d3dd157","C3","batch3","","2595","tol_tohand","","","","tol_peg_2","2595","2595","0","[[3,0,0],[1,0],[0]]","11","[[1,2,0],[3,0],[0]]","7","0","","","","","","4","","","","","","","","",""
"","","","","","single-stim-button","151","238969","0.0-2.0-31.10-1.10","5f4dfdb3a7461bad5d3dd157","C3","batch3","","491","tol_toboard","","","","tol_peg_3","491","491","0","[[3,0,0],[1,0],[2]]","11","[[1,2,0],[3,0],[0]]","7","0","","","","","","4","","","","","","","","",""
"","","","","","single-stim-button","152","243244","0.0-2.0-31.11-0.11","5f4dfdb3a7461bad5d3dd157","C3","batch3","","4273","tol_tohand","","","","tol_peg_3","4273","4273","0","[[3,0,0],[1,0],[0]]","12","[[1,2,0],[3,0],[0]]","7","0","","","","","","4","","","","","","","","",""
"","","","","","single-stim-button","153","244044","0.0-2.0-31.11-1.11","5f4dfdb3a7461bad5d3dd157","C3","batch3","","798","tol_toboard","","","","tol_peg_1","798","798","0","[[3,2,0],[1,0],[0]]","12","[[1,2,0],[3,0],[0]]","7","0","","","","","","4","","","","","","","","",""
"","","","","","single-stim-button","154","244780","0.0-2.0-31.12-0.12","5f4dfdb3a7461bad5d3dd157","C3","batch3","","734","tol_tohand","","","","tol_peg_2","734","734","0","[[3,2,0],[0,0],[0]]","13","[[1,2,0],[3,0],[0]]","7","0","","","","","","4","","","","","","","","",""
"","","","","","single-stim-button","155","245360","0.0-2.0-31.12-1.12","5f4dfdb3a7461bad5d3dd157","C3","batch3","","578","tol_toboard","","","","tol_peg_3","578","578","0","[[3,2,0],[0,0],[1]]","13","[[1,2,0],[3,0],[0]]","7","0","","","","","","4","","","","","","","","",""
"","","","","","single-stim-button","156","246860","0.0-2.0-31.13-0.13","5f4dfdb3a7461bad5d3dd157","C3","batch3","","1497","tol_tohand","","","","tol_peg_1","1497","1497","0","[[3,0,0],[0,0],[1]]","14","[[1,2,0],[3,0],[0]]","7","0","","","","","","4","","","","","","","","",""
"","","","","","single-stim-button","157","249951","0.0-2.0-31.13-1.13","5f4dfdb3a7461bad5d3dd157","C3","batch3","","3090","tol_toboard","","","","tol_peg_2","3090","3090","0","[[3,0,0],[2,0],[1]]","14","[[1,2,0],[3,0],[0]]","7","0","","","","","","4","","","","","","","","",""
"","","","","","single-stim-button","158","253437","0.0-2.0-31.14-0.14","5f4dfdb3a7461bad5d3dd157","C3","batch3","","3483","tol_tohand","","","","tol_peg_1","3483","3483","0","[[0,0,0],[2,0],[1]]","15","[[1,2,0],[3,0],[0]]","7","0","","","","","","4","","","","","","","","",""
"","","","","","single-stim-button","159","254045","0.0-2.0-31.14-1.14","5f4dfdb3a7461bad5d3dd157","C3","batch3","","606","tol_toboard","","","","tol_peg_2","606","606","0","[[0,0,0],[2,3],[1]]","15","[[1,2,0],[3,0],[0]]","7","0","","","","","","4","","","","","","","","",""
"","","","","","single-stim-button","160","254585","0.0-2.0-31.15-0.15","5f4dfdb3a7461bad5d3dd157","C3","batch3","","538","tol_tohand","","","","tol_peg_3","538","538","0","[[0,0,0],[2,3],[0]]","16","[[1,2,0],[3,0],[0]]","7","0","","","","","","4","","","","","","","","",""
"","","","","","single-stim-button","161","255161","0.0-2.0-31.15-1.15","5f4dfdb3a7461bad5d3dd157","C3","batch3","","574","tol_toboard","","","","tol_peg_1","574","574","0","[[1,0,0],[2,3],[0]]","16","[[1,2,0],[3,0],[0]]","7","0","","","","","","4","","","","","","","","",""
"","","","","","single-stim-button","162","256237","0.0-2.0-31.16-0.16","5f4dfdb3a7461bad5d3dd157","C3","batch3","","1072","tol_tohand","","","","tol_peg_2","1072","1072","0","[[1,0,0],[2,0],[0]]","17","[[1,2,0],[3,0],[0]]","7","0","","","","","","4","","","","","","","","",""
"","","","","","single-stim-button","163","256937","0.0-2.0-31.16-1.16","5f4dfdb3a7461bad5d3dd157","C3","batch3","","698","tol_toboard","","","","tol_peg_3","698","698","0","[[1,0,0],[2,0],[3]]","17","[[1,2,0],[3,0],[0]]","7","0","","","","","","4","","","","","","","","",""
"","","","","","single-stim-button","164","257811","0.0-2.0-31.17-0.17","5f4dfdb3a7461bad5d3dd157","C3","batch3","","872","tol_tohand","","","","tol_peg_2","872","872","0","[[1,0,0],[0,0],[3]]","18","[[1,2,0],[3,0],[0]]","7","0","","","","","","4","","","","","","","","",""
"","","","","","single-stim-button","165","258430","0.0-2.0-31.17-1.17","5f4dfdb3a7461bad5d3dd157","C3","batch3","","617","tol_toboard","","","","tol_peg_1","617","617","0","[[1,2,0],[0,0],[3]]","18","[[1,2,0],[3,0],[0]]","7","0","","","","","","4","","","","","","","","",""
"","","","","","single-stim-button","166","262904","0.0-2.0-31.18-0.18","5f4dfdb3a7461bad5d3dd157","C3","batch3","","4471","tol_tohand","","","","tol_peg_3","4471","4471","0","[[1,2,0],[0,0],[0]]","19","[[1,2,0],[3,0],[0]]","7","0","","","","","","4","","","","","","","","",""
"","","","","","single-stim-button","167","263437","0.0-2.0-31.18-1.18","5f4dfdb3a7461bad5d3dd157","C3","batch3","","531","tol_toboard","","","","tol_peg_2","531","531","0","[[1,2,0],[3,0],[0]]","19","[[1,2,0],[3,0],[0]]","7","0","","","","","","4","","","","","","","","",""
"","","","","","poldrack-single-stim","168","264441","0.0-2.0-32.0","5f4dfdb3a7461bad5d3dd157","C3","batch3","","-1","tol_feedback","","","true","","1000","1000","500","","","","","","-1","none","true","5615","37270","","","","","","","","","",""
"","","","","","html-button-response","169","265744","0.0-2.0-33.0","5f4dfdb3a7461bad5d3dd157","C3","batch3","","1302","tol_trial_num","<div class = centerbox><p class = center-block-text>problem <strong>9</strong> out of 25 problems</p></div>","0","","","","","","","","","","","","","","","","","","","","","","","","",""
"","","","","","single-stim-button","170","271503","0.0-2.0-34.0-0.0","5f4dfdb3a7461bad5d3dd157","C3","batch3","","5757","tol_tohand","","","","tol_peg_1","5757","5757","0","[[3,0,0],[0,0],[1]]","1","[[2,1,0],[3,0],[0]]","8","0","","","","","","6","","","","","","","","",""
"","","","","","single-stim-button","171","272436","0.0-2.0-34.0-1.0","5f4dfdb3a7461bad5d3dd157","C3","batch3","","931","tol_toboard","","","","tol_peg_2","931","931","0","[[3,0,0],[2,0],[1]]","1","[[2,1,0],[3,0],[0]]","8","0","","","","","","6","","","","","","","","",""
"","","","","","single-stim-button","172","275994","0.0-2.0-34.1-0.1","5f4dfdb3a7461bad5d3dd157","C3","batch3","","3556","tol_tohand","","","","tol_peg_1","3556","3556","0","[[0,0,0],[2,0],[1]]","2","[[2,1,0],[3,0],[0]]","8","0","","","","","","6","","","","","","","","",""
"","","","","","single-stim-button","173","277794","0.0-2.0-34.1-1.1","5f4dfdb3a7461bad5d3dd157","C3","batch3","","1798","tol_toboard","","","","tol_peg_1","1798","1798","0","[[3,0,0],[2,0],[1]]","2","[[2,1,0],[3,0],[0]]","8","0","","","","","","6","","","","","","","","",""
"","","","","","single-stim-button","174","278640","0.0-2.0-34.2-0.2","5f4dfdb3a7461bad5d3dd157","C3","batch3","","844","tol_tohand","","","","tol_peg_3","844","844","0","[[3,0,0],[2,0],[0]]","3","[[2,1,0],[3,0],[0]]","8","0","","","","","","6","","","","","","","","",""
"","","","","","single-stim-button","175","280235","0.0-2.0-34.2-1.2","5f4dfdb3a7461bad5d3dd157","C3","batch3","","1594","tol_toboard","","","","tol_peg_2","1594","1594","0","[[3,0,0],[2,1],[0]]","3","[[2,1,0],[3,0],[0]]","8","0","","","","","","6","","","","","","","","",""
"","","","","","single-stim-button","176","281061","0.0-2.0-34.3-0.3","5f4dfdb3a7461bad5d3dd157","C3","batch3","","823","tol_tohand","","","","tol_peg_1","823","823","0","[[0,0,0],[2,1],[0]]","4","[[2,1,0],[3,0],[0]]","8","0","","","","","","6","","","","","","","","",""
"","","","","","single-stim-button","177","285025","0.0-2.0-34.3-1.3","5f4dfdb3a7461bad5d3dd157","C3","batch3","","3962","tol_toboard","","","","tol_peg_1","3962","3962","0","[[3,0,0],[2,1],[0]]","4","[[2,1,0],[3,0],[0]]","8","0","","","","","","6","","","","","","","","",""
"","","","","","single-stim-button","178","285920","0.0-2.0-34.4-0.4","5f4dfdb3a7461bad5d3dd157","C3","batch3","","892","tol_tohand","","","","tol_peg_2","892","892","0","[[3,0,0],[2,0],[0]]","5","[[2,1,0],[3,0],[0]]","8","0","","","","","","6","","","","","","","","",""
"","","","","","single-stim-button","179","290581","0.0-2.0-34.4-1.4","5f4dfdb3a7461bad5d3dd157","C3","batch3","","4655","tol_toboard","","","","tol_peg_3","4655","4655","0","[[3,0,0],[2,0],[1]]","5","[[2,1,0],[3,0],[0]]","8","0","","","","","","6","","","","","","","","",""
"","","","","","single-stim-button","180","293472","0.0-2.0-34.5-0.5","5f4dfdb3a7461bad5d3dd157","C3","batch3","","2889","tol_tohand","","","","tol_peg_3","2889","2889","0","[[3,0,0],[2,0],[0]]","6","[[2,1,0],[3,0],[0]]","8","0","","","","","","6","","","","","","","","",""
"","","","","","single-stim-button","181","296177","0.0-2.0-34.5-1.5","5f4dfdb3a7461bad5d3dd157","C3","batch3","","2704","tol_toboard","","","","tol_peg_1","2704","2704","0","[[3,1,0],[2,0],[0]]","6","[[2,1,0],[3,0],[0]]","8","0","","","","","","6","","","","","","","","",""
"","","","","","single-stim-button","182","296986","0.0-2.0-34.6-0.6","5f4dfdb3a7461bad5d3dd157","C3","batch3","","807","tol_tohand","","","","tol_peg_2","807","807","0","[[3,1,0],[0,0],[0]]","7","[[2,1,0],[3,0],[0]]","8","0","","","","","","6","","","","","","","","",""
"","","","","","single-stim-button","183","299044","0.0-2.0-34.6-1.6","5f4dfdb3a7461bad5d3dd157","C3","batch3","","2056","tol_toboard","","","","tol_peg_3","2056","2056","0","[[3,1,0],[0,0],[2]]","7","[[2,1,0],[3,0],[0]]","8","0","","","","","","6","","","","","","","","",""
"","","","","","single-stim-button","184","299976","0.0-2.0-34.7-0.7","5f4dfdb3a7461bad5d3dd157","C3","batch3","","930","tol_tohand","","","","tol_peg_1","930","930","0","[[3,0,0],[0,0],[2]]","8","[[2,1,0],[3,0],[0]]","8","0","","","","","","6","","","","","","","","",""
"","","","","","single-stim-button","185","302352","0.0-2.0-34.7-1.7","5f4dfdb3a7461bad5d3dd157","C3","batch3","","2373","tol_toboard","","","","tol_peg_2","2373","2373","0","[[3,0,0],[1,0],[2]]","8","[[2,1,0],[3,0],[0]]","8","0","","","","","","6","","","","","","","","",""
"","","","","","single-stim-button","186","303268","0.0-2.0-34.8-0.8","5f4dfdb3a7461bad5d3dd157","C3","batch3","","914","tol_tohand","","","","tol_peg_3","914","914","0","[[3,0,0],[1,0],[0]]","9","[[2,1,0],[3,0],[0]]","8","0","","","","","","6","","","","","","","","",""
"","","","","","single-stim-button","187","304943","0.0-2.0-34.8-1.8","5f4dfdb3a7461bad5d3dd157","C3","batch3","","1672","tol_toboard","","","","tol_peg_1","1672","1672","0","[[3,2,0],[1,0],[0]]","9","[[2,1,0],[3,0],[0]]","8","0","","","","","","6","","","","","","","","",""
"","","","","","single-stim-button","188","306169","0.0-2.0-34.9-0.9","5f4dfdb3a7461bad5d3dd157","C3","batch3","","1223","tol_tohand","","","","tol_peg_2","1223","1223","0","[[3,2,0],[0,0],[0]]","10","[[2,1,0],[3,0],[0]]","8","0","","","","","","6","","","","","","","","",""
"","","","","","single-stim-button","189","306718","0.0-2.0-34.9-1.9","5f4dfdb3a7461bad5d3dd157","C3","batch3","","547","tol_toboard","","","","tol_peg_3","547","547","0","[[3,2,0],[0,0],[1]]","10","[[2,1,0],[3,0],[0]]","8","0","","","","","","6","","","","","","","","",""
"","","","","","single-stim-button","190","308643","0.0-2.0-34.10-0.10","5f4dfdb3a7461bad5d3dd157","C3","batch3","","1923","tol_tohand","","","","tol_peg_1","1923","1923","0","[[3,0,0],[0,0],[1]]","11","[[2,1,0],[3,0],[0]]","8","0","","","","","","6","","","","","","","","",""
"","","","","","single-stim-button","191","309126","0.0-2.0-34.10-1.10","5f4dfdb3a7461bad5d3dd157","C3","batch3","","481","tol_toboard","","","","tol_peg_2","481","481","0","[[3,0,0],[2,0],[1]]","11","[[2,1,0],[3,0],[0]]","8","0","","","","","","6","","","","","","","","",""
"","","","","","single-stim-button","192","314452","0.0-2.0-34.11-0.11","5f4dfdb3a7461bad5d3dd157","C3","batch3","","5325","tol_tohand","","","","tol_peg_3","5325","5325","0","[[3,0,0],[2,0],[0]]","12","[[2,1,0],[3,0],[0]]","8","0","","","","","","6","","","","","","","","",""
"","","","","","single-stim-button","193","314927","0.0-2.0-34.11-1.11","5f4dfdb3a7461bad5d3dd157","C3","batch3","","473","tol_toboard","","","","tol_peg_1","473","473","0","[[3,1,0],[2,0],[0]]","12","[[2,1,0],[3,0],[0]]","8","0","","","","","","6","","","","","","","","",""
"","","","","","single-stim-button","194","315894","0.0-2.0-34.12-0.12","5f4dfdb3a7461bad5d3dd157","C3","batch3","","965","tol_tohand","","","","tol_peg_2","965","965","0","[[3,1,0],[0,0],[0]]","13","[[2,1,0],[3,0],[0]]","8","0","","","","","","6","","","","","","","","",""
"","","","","","single-stim-button","195","316505","0.0-2.0-34.12-1.12","5f4dfdb3a7461bad5d3dd157","C3","batch3","","608","tol_toboard","","","","tol_peg_3","608","608","0","[[3,1,0],[0,0],[2]]","13","[[2,1,0],[3,0],[0]]","8","0","","","","","","6","","","","","","","","",""
"","","","","","single-stim-button","196","319876","0.0-2.0-34.13-0.13","5f4dfdb3a7461bad5d3dd157","C3","batch3","","3369","tol_tohand","","","","tol_peg_1","3369","3369","0","[[3,0,0],[0,0],[2]]","14","[[2,1,0],[3,0],[0]]","8","0","","","","","","6","","","","","","","","",""
"","","","","","single-stim-button","197","320642","0.0-2.0-34.13-1.13","5f4dfdb3a7461bad5d3dd157","C3","batch3","","764","tol_toboard","","","","tol_peg_2","764","764","0","[[3,0,0],[1,0],[2]]","14","[[2,1,0],[3,0],[0]]","8","0","","","","","","6","","","","","","","","",""
"","","","","","single-stim-button","198","322259","0.0-2.0-34.14-0.14","5f4dfdb3a7461bad5d3dd157","C3","batch3","","1614","tol_tohand","","","","tol_peg_1","1614","1614","0","[[0,0,0],[1,0],[2]]","15","[[2,1,0],[3,0],[0]]","8","0","","","","","","6","","","","","","","","",""
"","","","","","single-stim-button","199","322808","0.0-2.0-34.14-1.14","5f4dfdb3a7461bad5d3dd157","C3","batch3","","546","tol_toboard","","","","tol_peg_2","546","546","0","[[0,0,0],[1,3],[2]]","15","[[2,1,0],[3,0],[0]]","8","0","","","","","","6","","","","","","","","",""
"","","","","","single-stim-button","200","323326","0.0-2.0-34.15-0.15","5f4dfdb3a7461bad5d3dd157","C3","batch3","","515","tol_tohand","","","","tol_peg_3","515","515","0","[[0,0,0],[1,3],[0]]","16","[[2,1,0],[3,0],[0]]","8","0","","","","","","6","","","","","","","","",""
"","","","","","single-stim-button","201","323958","0.0-2.0-34.15-1.15","5f4dfdb3a7461bad5d3dd157","C3","batch3","","630","tol_toboard","","","","tol_peg_1","630","630","0","[[2,0,0],[1,3],[0]]","16","[[2,1,0],[3,0],[0]]","8","0","","","","","","6","","","","","","","","",""
"","","","","","single-stim-button","202","324960","0.0-2.0-34.16-0.16","5f4dfdb3a7461bad5d3dd157","C3","batch3","","999","tol_tohand","","","","tol_peg_2","999","999","0","[[2,0,0],[1,0],[0]]","17","[[2,1,0],[3,0],[0]]","8","0","","","","","","6","","","","","","","","",""
"","","","","","single-stim-button","203","325709","0.0-2.0-34.16-1.16","5f4dfdb3a7461bad5d3dd157","C3","batch3","","748","tol_toboard","","","","tol_peg_1","748","748","0","[[2,3,0],[1,0],[0]]","17","[[2,1,0],[3,0],[0]]","8","0","","","","","","6","","","","","","","","",""
"","","","","","single-stim-button","204","326451","0.0-2.0-34.17-0.17","5f4dfdb3a7461bad5d3dd157","C3","batch3","","739","tol_tohand","","","","tol_peg_2","739","739","0","[[2,3,0],[0,0],[0]]","18","[[2,1,0],[3,0],[0]]","8","0","","","","","","6","","","","","","","","",""
"","","","","","single-stim-button","205","327317","0.0-2.0-34.17-1.17","5f4dfdb3a7461bad5d3dd157","C3","batch3","","863","tol_toboard","","","","tol_peg_3","863","863","0","[[2,3,0],[0,0],[1]]","18","[[2,1,0],[3,0],[0]]","8","0","","","","","","6","","","","","","","","",""
"","","","","","single-stim-button","206","328021","0.0-2.0-34.18-0.18","5f4dfdb3a7461bad5d3dd157","C3","batch3","","701","tol_tohand","","","","tol_peg_1","701","701","0","[[2,0,0],[0,0],[1]]","19","[[2,1,0],[3,0],[0]]","8","0","","","","","","6","","","","","","","","",""
"","","","","","single-stim-button","207","329500","0.0-2.0-34.18-1.18","5f4dfdb3a7461bad5d3dd157","C3","batch3","","1477","tol_toboard","","","","tol_peg_1","1477","1477","0","[[2,3,0],[0,0],[1]]","19","[[2,1,0],[3,0],[0]]","8","0","","","","","","6","","","","","","","","",""
"","","","","","single-stim-button","208","331071","0.0-2.0-34.19-0.19","5f4dfdb3a7461bad5d3dd157","C3","batch3","","1569","tol_tohand","","","","tol_peg_1","1569","1569","0","[[2,0,0],[0,0],[1]]","20","[[2,1,0],[3,0],[0]]","8","0","","","","","","6","","","","","","","","",""
"","","","","","single-stim-button","209","332533","0.0-2.0-34.19-1.19","5f4dfdb3a7461bad5d3dd157","C3","batch3","","1460","tol_toboard","","","","tol_peg_2","1460","1460","0","[[2,0,0],[3,0],[1]]","20","[[2,1,0],[3,0],[0]]","8","0","","","","","","6","","","","","","","","",""
"","","","","","single-stim-button","210","333270","0.0-2.0-34.20-0.20","5f4dfdb3a7461bad5d3dd157","C3","batch3","","734","tol_tohand","","","","tol_peg_3","734","734","0","[[2,0,0],[3,0],[0]]","21","[[2,1,0],[3,0],[0]]","8","0","","","","","","6","","","","","","","","",""
"","","","","","single-stim-button","211","333959","0.0-2.0-34.20-1.20","5f4dfdb3a7461bad5d3dd157","C3","batch3","","687","tol_toboard","","","","tol_peg_1","687","687","0","[[2,1,0],[3,0],[0]]","21","[[2,1,0],[3,0],[0]]","8","0","","","","","","6","","","","","","","","",""
"","","","","","poldrack-single-stim","212","334963","0.0-2.0-35.0","5f4dfdb3a7461bad5d3dd157","C3","batch3","","-1","tol_feedback","","","true","","1000","1000","500","","","","","","-1","none","true","5757","37088","","","","","","","","","",""
"","","","","","html-button-response","213","336208","0.0-2.0-36.0","5f4dfdb3a7461bad5d3dd157","C3","batch3","","1242","tol_trial_num","<div class = centerbox><p class = center-block-text>problem <strong>10</strong> out of 25 problems</p></div>","0","","","","","","","","","","","","","","","","","","","","","","","","",""
"","","","","","single-stim-button","214","341692","0.0-2.0-37.0-0.0","5f4dfdb3a7461bad5d3dd157","C3","batch3","","5482","tol_tohand","","","","tol_peg_2","5482","5482","0","[[3,0,0],[0,0],[2]]","1","[[3,0,0],[2,1],[0]]","9","0","","","","","","3","","","","","","","","",""
"","","","","","single-stim-button","215","342708","0.0-2.0-37.0-1.0","5f4dfdb3a7461bad5d3dd157","C3","batch3","","1014","tol_toboard","","","","tol_peg_1","1014","1014","0","[[3,1,0],[0,0],[2]]","1","[[3,0,0],[2,1],[0]]","9","0","","","","","","3","","","","","","","","",""
"","","","","","single-stim-button","216","343392","0.0-2.0-37.1-0.1","5f4dfdb3a7461bad5d3dd157","C3","batch3","","681","tol_tohand","","","","tol_peg_3","681","681","0","[[3,1,0],[0,0],[0]]","2","[[3,0,0],[2,1],[0]]","9","0","","","","","","3","","","","","","","","",""
"","","","","","single-stim-button","217","343949","0.0-2.0-37.1-1.1","5f4dfdb3a7461bad5d3dd157","C3","batch3","","555","tol_toboard","","","","tol_peg_2","555","555","0","[[3,1,0],[2,0],[0]]","2","[[3,0,0],[2,1],[0]]","9","0","","","","","","3","","","","","","","","",""
"","","","","","single-stim-button","218","344908","0.0-2.0-37.2-0.2","5f4dfdb3a7461bad5d3dd157","C3","batch3","","956","tol_tohand","","","","tol_peg_1","956","956","0","[[3,0,0],[2,0],[0]]","3","[[3,0,0],[2,1],[0]]","9","0","","","","","","3","","","","","","","","",""
"","","","","","single-stim-button","219","345592","0.0-2.0-37.2-1.2","5f4dfdb3a7461bad5d3dd157","C3","batch3","","681","tol_toboard","","","","tol_peg_2","681","681","0","[[3,0,0],[2,1],[0]]","3","[[3,0,0],[2,1],[0]]","9","0","","","","","","3","","","","","","","","",""
"","","","","","poldrack-single-stim","220","346597","0.0-2.0-38.0","5f4dfdb3a7461bad5d3dd157","C3","batch3","","-1","tol_feedback","","","true","","1000","1000","500","","","","","","-1","none","true","5482","7119","","","","","","","","","",""
"","","","","","html-button-response","221","347723","0.0-2.0-39.0","5f4dfdb3a7461bad5d3dd157","C3","batch3","","1125","tol_trial_num","<div class = centerbox><p class = center-block-text>problem <strong>11</strong> out of 25 problems</p></div>","0","","","","","","","","","","","","","","","","","","","","","","","","",""
"","","","","","single-stim-button","222","354195","0.0-2.0-40.0-0.0","5f4dfdb3a7461bad5d3dd157","C3","batch3","","6469","tol_tohand","","","","tol_peg_2","6469","6469","0","[[1,2,0],[0,0],[0]]","1","[[2,0,0],[1,3],[0]]","10","0","","","","","","6","","","","","","","","",""
"","","","","","single-stim-button","223","356132","0.0-2.0-40.0-1.0","5f4dfdb3a7461bad5d3dd157","C3","batch3","","1935","tol_toboard","","","","tol_peg_3","1935","1935","0","[[1,2,0],[0,0],[3]]","1","[[2,0,0],[1,3],[0]]","10","0","","","","","","6","","","","","","","","",""
"","","","","","single-stim-button","224","357020","0.0-2.0-40.1-0.1","5f4dfdb3a7461bad5d3dd157","C3","batch3","","885","tol_tohand","","","","tol_peg_1","885","885","0","[[1,0,0],[0,0],[3]]","2","[[2,0,0],[1,3],[0]]","10","0","","","","","","6","","","","","","","","",""
"","","","","","single-stim-button","225","360800","0.0-2.0-40.1-1.1","5f4dfdb3a7461bad5d3dd157","C3","batch3","","3778","tol_toboard","","","","tol_peg_1","3778","3778","0","[[1,2,0],[0,0],[3]]","2","[[2,0,0],[1,3],[0]]","10","0","","","","","","6","","","","","","","","",""
"","","","","","single-stim-button","226","361701","0.0-2.0-40.2-0.2","5f4dfdb3a7461bad5d3dd157","C3","batch3","","897","tol_tohand","","","","tol_peg_3","897","897","0","[[1,2,0],[0,0],[0]]","3","[[2,0,0],[1,3],[0]]","10","0","","","","","","6","","","","","","","","",""
"","","","","","single-stim-button","227","362223","0.0-2.0-40.2-1.2","5f4dfdb3a7461bad5d3dd157","C3","batch3","","520","tol_toboard","","","","tol_peg_2","520","520","0","[[1,2,0],[3,0],[0]]","3","[[2,0,0],[1,3],[0]]","10","0","","","","","","6","","","","","","","","",""
"","","","","","single-stim-button","228","362716","0.0-2.0-40.3-0.3","5f4dfdb3a7461bad5d3dd157","C3","batch3","","490","tol_tohand","","","","tol_peg_1","490","490","0","[[1,0,0],[3,0],[0]]","4","[[2,0,0],[1,3],[0]]","10","0","","","","","","6","","","","","","","","",""
"","","","","","single-stim-button","229","363474","0.0-2.0-40.3-1.3","5f4dfdb3a7461bad5d3dd157","C3","batch3","","756","tol_toboard","","","","tol_peg_3","756","756","0","[[1,0,0],[3,0],[2]]","4","[[2,0,0],[1,3],[0]]","10","0","","","","","","6","","","","","","","","",""
"","","","","","single-stim-button","230","364362","0.0-2.0-40.4-0.4","5f4dfdb3a7461bad5d3dd157","C3","batch3","","885","tol_tohand","","","","tol_peg_1","885","885","0","[[0,0,0],[3,0],[2]]","5","[[2,0,0],[1,3],[0]]","10","0","","","","","","6","","","","","","","","",""
"","","","","","single-stim-button","231","366166","0.0-2.0-40.4-1.4","5f4dfdb3a7461bad5d3dd157","C3","batch3","","1802","tol_toboard","","","","tol_peg_2","1802","1802","0","[[0,0,0],[3,1],[2]]","5","[[2,0,0],[1,3],[0]]","10","0","","","","","","6","","","","","","","","",""
"","","","","","single-stim-button","232","367370","0.0-2.0-40.5-0.5","5f4dfdb3a7461bad5d3dd157","C3","batch3","","1201","tol_tohand","","","","tol_peg_3","1201","1201","0","[[0,0,0],[3,1],[0]]","6","[[2,0,0],[1,3],[0]]","10","0","","","","","","6","","","","","","","","",""
"","","","","","single-stim-button","233","369474","0.0-2.0-40.5-1.5","5f4dfdb3a7461bad5d3dd157","C3","batch3","","2102","tol_toboard","","","","tol_peg_1","2102","2102","0","[[2,0,0],[3,1],[0]]","6","[[2,0,0],[1,3],[0]]","10","0","","","","","","6","","","","","","","","",""
"","","","","","single-stim-button","234","370220","0.0-2.0-40.6-0.6","5f4dfdb3a7461bad5d3dd157","C3","batch3","","744","tol_tohand","","","","tol_peg_2","744","744","0","[[2,0,0],[3,0],[0]]","7","[[2,0,0],[1,3],[0]]","10","0","","","","","","6","","","","","","","","",""
"","","","","","single-stim-button","235","371308","0.0-2.0-40.6-1.6","5f4dfdb3a7461bad5d3dd157","C3","batch3","","1085","tol_toboard","","","","tol_peg_2","1085","1085","0","[[2,0,0],[3,1],[0]]","7","[[2,0,0],[1,3],[0]]","10","0","","","","","","6","","","","","","","","",""
"","","","","","single-stim-button","236","372491","0.0-2.0-40.7-0.7","5f4dfdb3a7461bad5d3dd157","C3","batch3","","1181","tol_tohand","","","","tol_peg_1","1181","1181","0","[[0,0,0],[3,1],[0]]","8","[[2,0,0],[1,3],[0]]","10","0","","","","","","6","","","","","","","","",""
"","","","","","single-stim-button","237","373866","0.0-2.0-40.7-1.7","5f4dfdb3a7461bad5d3dd157","C3","batch3","","1374","tol_toboard","","","","tol_peg_1","1374","1374","0","[[2,0,0],[3,1],[0]]","8","[[2,0,0],[1,3],[0]]","10","0","","","","","","6","","","","","","","","",""
"","","","","","single-stim-button","238","374700","0.0-2.0-40.8-0.8","5f4dfdb3a7461bad5d3dd157","C3","batch3","","831","tol_tohand","","","","tol_peg_2","831","831","0","[[2,0,0],[3,0],[0]]","9","[[2,0,0],[1,3],[0]]","10","0","","","","","","6","","","","","","","","",""
"","","","","","single-stim-button","239","375188","0.0-2.0-40.8-1.8","5f4dfdb3a7461bad5d3dd157","C3","batch3","","487","tol_toboard","","","","tol_peg_1","487","487","0","[[2,1,0],[3,0],[0]]","9","[[2,0,0],[1,3],[0]]","10","0","","","","","","6","","","","","","","","",""
"","","","","","single-stim-button","240","376256","0.0-2.0-40.9-0.9","5f4dfdb3a7461bad5d3dd157","C3","batch3","","1065","tol_tohand","","","","tol_peg_2","1065","1065","0","[[2,1,0],[0,0],[0]]","10","[[2,0,0],[1,3],[0]]","10","0","","","","","","6","","","","","","","","",""
"","","","","","single-stim-button","241","377362","0.0-2.0-40.9-1.9","5f4dfdb3a7461bad5d3dd157","C3","batch3","","1104","tol_toboard","","","","tol_peg_3","1104","1104","0","[[2,1,0],[0,0],[3]]","10","[[2,0,0],[1,3],[0]]","10","0","","","","","","6","","","","","","","","",""
"","","","","","single-stim-button","242","379031","0.0-2.0-40.10-0.10","5f4dfdb3a7461bad5d3dd157","C3","batch3","","1668","tol_tohand","","","","tol_peg_1","1668","1668","0","[[2,0,0],[0,0],[3]]","11","[[2,0,0],[1,3],[0]]","10","0","","","","","","6","","","","","","","","",""
"","","","","","single-stim-button","243","379517","0.0-2.0-40.10-1.10","5f4dfdb3a7461bad5d3dd157","C3","batch3","","485","tol_toboard","","","","tol_peg_2","485","485","0","[[2,0,0],[1,0],[3]]","11","[[2,0,0],[1,3],[0]]","10","0","","","","","","6","","","","","","","","",""
"","","","","","single-stim-button","244","380361","0.0-2.0-40.11-0.11","5f4dfdb3a7461bad5d3dd157","C3","batch3","","842","tol_tohand","","","","tol_peg_3","842","842","0","[[2,0,0],[1,0],[0]]","12","[[2,0,0],[1,3],[0]]","10","0","","","","","","6","","","","","","","","",""
"","","","","","single-stim-button","245","383065","0.0-2.0-40.11-1.11","5f4dfdb3a7461bad5d3dd157","C3","batch3","","2702","tol_toboard","","","","tol_peg_2","2702","2702","0","[[2,0,0],[1,3],[0]]","12","[[2,0,0],[1,3],[0]]","10","0","","","","","","6","","","","","","","","",""
"","","","","","poldrack-single-stim","246","384069","0.0-2.0-41.0","5f4dfdb3a7461bad5d3dd157","C3","batch3","","-1","tol_feedback","","","true","","1000","1000","500","","","","","","-1","none","true","6469","17158","","","","","","","","","",""
"","","","","","html-button-response","247","385639","0.0-2.0-42.0","5f4dfdb3a7461bad5d3dd157","C3","batch3","","1568","tol_trial_num","<div class = centerbox><p class = center-block-text>problem <strong>12</strong> out of 25 problems</p></div>","0","","","","","","","","","","","","","","","","","","","","","","","","",""
"","","","","","single-stim-button","248","395046","0.0-2.0-43.0-0.0","5f4dfdb3a7461bad5d3dd157","C3","batch3","","9405","tol_tohand","","","","tol_peg_1","9405","9405","0","[[1,0,0],[3,0],[0]]","1","[[2,3,0],[0,0],[1]]","11","0","","","","","","4","","","","","","","","",""
"","","","","","single-stim-button","249","395515","0.0-2.0-43.0-1.0","5f4dfdb3a7461bad5d3dd157","C3","batch3","","466","tol_toboard","","","","tol_peg_2","466","466","0","[[1,0,0],[3,2],[0]]","1","[[2,3,0],[0,0],[1]]","11","0","","","","","","4","","","","","","","","",""
"","","","","","single-stim-button","250","397947","0.0-2.0-43.1-0.1","5f4dfdb3a7461bad5d3dd157","C3","batch3","","2430","tol_tohand","","","","tol_peg_1","2430","2430","0","[[0,0,0],[3,2],[0]]","2","[[2,3,0],[0,0],[1]]","11","0","","","","","","4","","","","","","","","",""
"","","","","","single-stim-button","251","398747","0.0-2.0-43.1-1.1","5f4dfdb3a7461bad5d3dd157","C3","batch3","","798","tol_toboard","","","","tol_peg_3","798","798","0","[[0,0,0],[3,2],[1]]","2","[[2,3,0],[0,0],[1]]","11","0","","","","","","4","","","","","","","","",""
"","","","","","single-stim-button","252","400351","0.0-2.0-43.2-0.2","5f4dfdb3a7461bad5d3dd157","C3","batch3","","1602","tol_tohand","","","","tol_peg_3","1602","1602","0","[[0,0,0],[3,2],[0]]","3","[[2,3,0],[0,0],[1]]","11","0","","","","","","4","","","","","","","","",""
"","","","","","single-stim-button","253","402759","0.0-2.0-43.2-1.2","5f4dfdb3a7461bad5d3dd157","C3","batch3","","2406","tol_toboard","","","","tol_peg_1","2406","2406","0","[[1,0,0],[3,2],[0]]","3","[[2,3,0],[0,0],[1]]","11","0","","","","","","4","","","","","","","","",""
"","","","","","single-stim-button","254","403590","0.0-2.0-43.3-0.3","5f4dfdb3a7461bad5d3dd157","C3","batch3","","829","tol_tohand","","","","tol_peg_2","829","829","0","[[1,0,0],[3,0],[0]]","4","[[2,3,0],[0,0],[1]]","11","0","","","","","","4","","","","","","","","",""
"","","","","","single-stim-button","255","404155","0.0-2.0-43.3-1.3","5f4dfdb3a7461bad5d3dd157","C3","batch3","","563","tol_toboard","","","","tol_peg_3","563","563","0","[[1,0,0],[3,0],[2]]","4","[[2,3,0],[0,0],[1]]","11","0","","","","","","4","","","","","","","","",""
"","","","","","single-stim-button","256","406678","0.0-2.0-43.4-0.4","5f4dfdb3a7461bad5d3dd157","C3","batch3","","2520","tol_tohand","","","","tol_peg_2","2520","2520","0","[[1,0,0],[0,0],[2]]","5","[[2,3,0],[0,0],[1]]","11","0","","","","","","4","","","","","","","","",""
"","","","","","single-stim-button","257","409556","0.0-2.0-43.4-1.4","5f4dfdb3a7461bad5d3dd157","C3","batch3","","2876","tol_toboard","","","","tol_peg_1","2876","2876","0","[[1,3,0],[0,0],[2]]","5","[[2,3,0],[0,0],[1]]","11","0","","","","","","4","","","","","","","","",""
"","","","","","single-stim-button","258","410347","0.0-2.0-43.5-0.5","5f4dfdb3a7461bad5d3dd157","C3","batch3","","787","tol_tohand","","","","tol_peg_3","787","787","0","[[1,3,0],[0,0],[0]]","6","[[2,3,0],[0,0],[1]]","11","0","","","","","","4","","","","","","","","",""
"","","","","","single-stim-button","259","412717","0.0-2.0-43.5-1.5","5f4dfdb3a7461bad5d3dd157","C3","batch3","","2368","tol_toboard","","","","tol_peg_1","2368","2368","0","[[1,3,2],[0,0],[0]]","6","[[2,3,0],[0,0],[1]]","11","0","","","","","","4","","","","","","","","",""
"","","","","","single-stim-button","260","415506","0.0-2.0-43.6-0.6","5f4dfdb3a7461bad5d3dd157","C3","batch3","","2787","tol_tohand","","","","tol_peg_1","2787","2787","0","[[1,3,0],[0,0],[0]]","7","[[2,3,0],[0,0],[1]]","11","0","","","","","","4","","","","","","","","",""
"","","","","","single-stim-button","261","416466","0.0-2.0-43.6-1.6","5f4dfdb3a7461bad5d3dd157","C3","batch3","","958","tol_toboard","","","","tol_peg_2","958","958","0","[[1,3,0],[2,0],[0]]","7","[[2,3,0],[0,0],[1]]","11","0","","","","","","4","","","","","","","","",""
"","","","","","single-stim-button","262","417873","0.0-2.0-43.7-0.7","5f4dfdb3a7461bad5d3dd157","C3","batch3","","1404","tol_tohand","","","","tol_peg_1","1404","1404","0","[[1,0,0],[2,0],[0]]","8","[[2,3,0],[0,0],[1]]","11","0","","","","","","4","","","","","","","","",""
"","","","","","single-stim-button","263","419104","0.0-2.0-43.7-1.7","5f4dfdb3a7461bad5d3dd157","C3","batch3","","1229","tol_toboard","","","","tol_peg_2","1229","1229","0","[[1,0,0],[2,3],[0]]","8","[[2,3,0],[0,0],[1]]","11","0","","","","","","4","","","","","","","","",""
"","","","","","single-stim-button","264","422525","0.0-2.0-43.8-0.8","5f4dfdb3a7461bad5d3dd157","C3","batch3","","3418","tol_tohand","","","","tol_peg_2","3418","3418","0","[[1,0,0],[2,0],[0]]","9","[[2,3,0],[0,0],[1]]","11","0","","","","","","4","","","","","","","","",""
"","","","","","single-stim-button","265","425172","0.0-2.0-43.8-1.8","5f4dfdb3a7461bad5d3dd157","C3","batch3","","2645","tol_toboard","","","","tol_peg_1","2645","2645","0","[[1,3,0],[2,0],[0]]","9","[[2,3,0],[0,0],[1]]","11","0","","","","","","4","","","","","","","","",""
"","","","","","single-stim-button","266","426507","0.0-2.0-43.9-0.9","5f4dfdb3a7461bad5d3dd157","C3","batch3","","1333","tol_tohand","","","","tol_peg_2","1333","1333","0","[[1,3,0],[0,0],[0]]","10","[[2,3,0],[0,0],[1]]","11","0","","","","","","4","","","","","","","","",""
"","","","","","single-stim-button","267","427321","0.0-2.0-43.9-1.9","5f4dfdb3a7461bad5d3dd157","C3","batch3","","811","tol_toboard","","","","tol_peg_3","811","811","0","[[1,3,0],[0,0],[2]]","10","[[2,3,0],[0,0],[1]]","11","0","","","","","","4","","","","","","","","",""
"","","","","","single-stim-button","268","428955","0.0-2.0-43.10-0.10","5f4dfdb3a7461bad5d3dd157","C3","batch3","","1632","tol_tohand","","","","tol_peg_1","1632","1632","0","[[1,0,0],[0,0],[2]]","11","[[2,3,0],[0,0],[1]]","11","0","","","","","","4","","","","","","","","",""
"","","","","","single-stim-button","269","431965","0.0-2.0-43.10-1.10","5f4dfdb3a7461bad5d3dd157","C3","batch3","","3008","tol_toboard","","","","tol_peg_2","3008","3008","0","[[1,0,0],[3,0],[2]]","11","[[2,3,0],[0,0],[1]]","11","0","","","","","","4","","","","","","","","",""
"","","","","","single-stim-button","270","433049","0.0-2.0-43.11-0.11","5f4dfdb3a7461bad5d3dd157","C3","batch3","","1081","tol_tohand","","","","tol_peg_1","1081","1081","0","[[0,0,0],[3,0],[2]]","12","[[2,3,0],[0,0],[1]]","11","0","","","","","","4","","","","","","","","",""
"","","","","","single-stim-button","271","433812","0.0-2.0-43.11-1.11","5f4dfdb3a7461bad5d3dd157","C3","batch3","","761","tol_toboard","","","","tol_peg_2","761","761","0","[[0,0,0],[3,1],[2]]","12","[[2,3,0],[0,0],[1]]","11","0","","","","","","4","","","","","","","","",""
"","","","","","single-stim-button","272","434631","0.0-2.0-43.12-0.12","5f4dfdb3a7461bad5d3dd157","C3","batch3","","816","tol_tohand","","","","tol_peg_3","816","816","0","[[0,0,0],[3,1],[0]]","13","[[2,3,0],[0,0],[1]]","11","0","","","","","","4","","","","","","","","",""
"","","","","","single-stim-button","273","435337","0.0-2.0-43.12-1.12","5f4dfdb3a7461bad5d3dd157","C3","batch3","","704","tol_toboard","","","","tol_peg_1","704","704","0","[[2,0,0],[3,1],[0]]","13","[[2,3,0],[0,0],[1]]","11","0","","","","","","4","","","","","","","","",""
"","","","","","single-stim-button","274","436104","0.0-2.0-43.13-0.13","5f4dfdb3a7461bad5d3dd157","C3","batch3","","765","tol_tohand","","","","tol_peg_2","765","765","0","[[2,0,0],[3,0],[0]]","14","[[2,3,0],[0,0],[1]]","11","0","","","","","","4","","","","","","","","",""
"","","","","","single-stim-button","275","436730","0.0-2.0-43.13-1.13","5f4dfdb3a7461bad5d3dd157","C3","batch3","","624","tol_toboard","","","","tol_peg_3","624","624","0","[[2,0,0],[3,0],[1]]","14","[[2,3,0],[0,0],[1]]","11","0","","","","","","4","","","","","","","","",""
"","","","","","single-stim-button","276","437454","0.0-2.0-43.14-0.14","5f4dfdb3a7461bad5d3dd157","C3","batch3","","722","tol_tohand","","","","tol_peg_2","722","722","0","[[2,0,0],[0,0],[1]]","15","[[2,3,0],[0,0],[1]]","11","0","","","","","","4","","","","","","","","",""
"","","","","","single-stim-button","277","438047","0.0-2.0-43.14-1.14","5f4dfdb3a7461bad5d3dd157","C3","batch3","","591","tol_toboard","","","","tol_peg_1","591","591","0","[[2,3,0],[0,0],[1]]","15","[[2,3,0],[0,0],[1]]","11","0","","","","","","4","","","","","","","","",""
"","","","","","poldrack-single-stim","278","439051","0.0-2.0-44.0","5f4dfdb3a7461bad5d3dd157","C3","batch3","","-1","tol_feedback","","","true","","1000","1000","500","","","","","","-1","none","true","9405","31531","","","","","","","","","",""
"","","","","","html-button-response","279","440228","0.0-2.0-45.0","5f4dfdb3a7461bad5d3dd157","C3","batch3","","1174.0000000000582","tol_trial_num","<div class = centerbox><p class = center-block-text>problem <strong>13</strong> out of 25 problems</p></div>","0","","","","","","","","","","","","","","","","","","","","","","","","",""
"","","","","","single-stim-button","280","444912","0.0-2.0-46.0-0.0","5f4dfdb3a7461bad5d3dd157","C3","batch3","","4682","tol_tohand","","","","tol_peg_1","4682","4682","0","[[1,0,0],[3,0],[0]]","1","[[0,0,0],[2,3],[1]]","12","0","","","","","","4","","","","","","","","",""
"","","","","","single-stim-button","281","445654","0.0-2.0-46.0-1.0","5f4dfdb3a7461bad5d3dd157","C3","batch3","","740","tol_toboard","","","","tol_peg_3","740","740","0","[[1,0,0],[3,0],[2]]","1","[[0,0,0],[2,3],[1]]","12","0","","","","","","4","","","","","","","","",""
"","","","","","single-stim-button","282","446795","0.0-2.0-46.1-0.1","5f4dfdb3a7461bad5d3dd157","C3","batch3","","1139","tol_tohand","","","","tol_peg_2","1139","1139","0","[[1,0,0],[0,0],[2]]","2","[[0,0,0],[2,3],[1]]","12","0","","","","","","4","","","","","","","","",""
"","","","","","single-stim-button","283","447662","0.0-2.0-46.1-1.1","5f4dfdb3a7461bad5d3dd157","C3","batch3","","864","tol_toboard","","","","tol_peg_1","864","864","0","[[1,3,0],[0,0],[2]]","2","[[0,0,0],[2,3],[1]]","12","0","","","","","","4","","","","","","","","",""
"","","","","","single-stim-button","284","449778","0.0-2.0-46.2-0.2","5f4dfdb3a7461bad5d3dd157","C3","batch3","","2113","tol_tohand","","","","tol_peg_3","2113","2113","0","[[1,3,0],[0,0],[0]]","3","[[0,0,0],[2,3],[1]]","12","0","","","","","","4","","","","","","","","",""
"","","","","","single-stim-button","285","450745","0.0-2.0-46.2-1.2","5f4dfdb3a7461bad5d3dd157","C3","batch3","","964","tol_toboard","","","","tol_peg_2","964","964","0","[[1,3,0],[2,0],[0]]","3","[[0,0,0],[2,3],[1]]","12","0","","","","","","4","","","","","","","","",""
"","","","","","single-stim-button","286","451590","0.0-2.0-46.3-0.3","5f4dfdb3a7461bad5d3dd157","C3","batch3","","842","tol_tohand","","","","tol_peg_1","842","842","0","[[1,0,0],[2,0],[0]]","4","[[0,0,0],[2,3],[1]]","12","0","","","","","","4","","","","","","","","",""
"","","","","","single-stim-button","287","452261","0.0-2.0-46.3-1.3","5f4dfdb3a7461bad5d3dd157","C3","batch3","","669","tol_toboard","","","","tol_peg_2","669","669","0","[[1,0,0],[2,3],[0]]","4","[[0,0,0],[2,3],[1]]","12","0","","","","","","4","","","","","","","","",""
"","","","","","single-stim-button","288","453014","0.0-2.0-46.4-0.4","5f4dfdb3a7461bad5d3dd157","C3","batch3","","750","tol_tohand","","","","tol_peg_1","750","750","0","[[0,0,0],[2,3],[0]]","5","[[0,0,0],[2,3],[1]]","12","0","","","","","","4","","","","","","","","",""
"","","","","","single-stim-button","289","453747","0.0-2.0-46.4-1.4","5f4dfdb3a7461bad5d3dd157","C3","batch3","","731","tol_toboard","","","","tol_peg_3","731","731","0","[[0,0,0],[2,3],[1]]","5","[[0,0,0],[2,3],[1]]","12","0","","","","","","4","","","","","","","","",""
"","","","","","poldrack-single-stim","290","454751","0.0-2.0-47.0","5f4dfdb3a7461bad5d3dd157","C3","batch3","","-1","tol_feedback","","","true","","1000","1000","500","","","","","","-1","none","true","4682","9526","","","","","","","","","",""
"","","","","","html-button-response","291","467027","0.0-2.0-48.0","5f4dfdb3a7461bad5d3dd157","C3","batch3","","12274","attention_check","<p class = block-text>How many balls are in your board<br></p>","1","true","","","","","","","","","","","","","","","","","","","","","","","",""
"","","","","","html-button-response","292","468227","0.0-2.0-49.0","5f4dfdb3a7461bad5d3dd157","C3","batch3","","1198.0000000000582","tol_trial_num","<div class = centerbox><p class = center-block-text>problem <strong>14</strong> out of 25 problems</p></div>","0","","","","","","","","","","","","","","","","","","","","","","","","",""
"","","","","","single-stim-button","293","471853","0.0-2.0-50.0-0.0","5f4dfdb3a7461bad5d3dd157","C3","batch3","","3624","tol_tohand","","","","tol_peg_1","3624","3624","0","[[2,0,0],[3,0],[0]]","1","[[1,2,0],[3,0],[0]]","13","0","","","","","","4","","","","","","","","",""
"","","","","","single-stim-button","294","472560","0.0-2.0-50.0-1.0","5f4dfdb3a7461bad5d3dd157","C3","batch3","","705","tol_toboard","","","","tol_peg_2","705","705","0","[[2,0,0],[3,1],[0]]","1","[[1,2,0],[3,0],[0]]","13","0","","","","","","4","","","","","","","","",""
"","","","","","single-stim-button","295","473609","0.0-2.0-50.1-0.1","5f4dfdb3a7461bad5d3dd157","C3","batch3","","1048","tol_tohand","","","","tol_peg_1","1048","1048","0","[[0,0,0],[3,1],[0]]","2","[[1,2,0],[3,0],[0]]","13","0","","","","","","4","","","","","","","","",""
"","","","","","single-stim-button","296","474511","0.0-2.0-50.1-1.1","5f4dfdb3a7461bad5d3dd157","C3","batch3","","900","tol_toboard","","","","tol_peg_3","900","900","0","[[0,0,0],[3,1],[2]]","2","[[1,2,0],[3,0],[0]]","13","0","","","","","","4","","","","","","","","",""
"","","","","","single-stim-button","297","475812","0.0-2.0-50.2-0.2","5f4dfdb3a7461bad5d3dd157","C3","batch3","","1298","tol_tohand","","","","tol_peg_2","1298","1298","0","[[0,0,0],[3,0],[2]]","3","[[1,2,0],[3,0],[0]]","13","0","","","","","","4","","","","","","","","",""
"","","","","","single-stim-button","298","476295","0.0-2.0-50.2-1.2","5f4dfdb3a7461bad5d3dd157","C3","batch3","","481","tol_toboard","","","","tol_peg_1","481","481","0","[[1,0,0],[3,0],[2]]","3","[[1,2,0],[3,0],[0]]","13","0","","","","","","4","","","","","","","","",""
"","","","","","single-stim-button","299","477086","0.0-2.0-50.3-0.3","5f4dfdb3a7461bad5d3dd157","C3","batch3","","788","tol_tohand","","","","tol_peg_3","788","788","0","[[1,0,0],[3,0],[0]]","4","[[1,2,0],[3,0],[0]]","13","0","","","","","","4","","","","","","","","",""
"","","","","","single-stim-button","300","477735","0.0-2.0-50.3-1.3","5f4dfdb3a7461bad5d3dd157","C3","batch3","","646","tol_toboard","","","","tol_peg_1","646","646","0","[[1,2,0],[3,0],[0]]","4","[[1,2,0],[3,0],[0]]","13","0","","","","","","4","","","","","","","","",""
"","","","","","poldrack-single-stim","301","478740","0.0-2.0-51.0","5f4dfdb3a7461bad5d3dd157","C3","batch3","","-1","tol_feedback","","","true","","1000","1000","500","","","","","","-1","none","true","3624","6758","","","","","","","","","",""
"","","","","","html-button-response","302","480226","0.0-2.0-52.0","5f4dfdb3a7461bad5d3dd157","C3","batch3","","1484","tol_trial_num","<div class = centerbox><p class = center-block-text>problem <strong>15</strong> out of 25 problems</p></div>","0","","","","","","","","","","","","","","","","","","","","","","","","",""
"","","","","","single-stim-button","303","483119","0.0-2.0-53.0-0.0","5f4dfdb3a7461bad5d3dd157","C3","batch3","","2891","tol_tohand","","","","tol_peg_1","2891","2891","0","[[1,0,0],[3,0],[0]]","1","[[2,0,0],[3,0],[1]]","14","0","","","","","","3","","","","","","","","",""
"","","","","","single-stim-button","304","483810","0.0-2.0-53.0-1.0","5f4dfdb3a7461bad5d3dd157","C3","batch3","","689","tol_toboard","","","","tol_peg_2","689","689","0","[[1,0,0],[3,2],[0]]","1","[[2,0,0],[3,0],[1]]","14","0","","","","","","3","","","","","","","","",""
"","","","","","single-stim-button","305","484861","0.0-2.0-53.1-0.1","5f4dfdb3a7461bad5d3dd157","C3","batch3","","1048","tol_tohand","","","","tol_peg_1","1048","1048","0","[[0,0,0],[3,2],[0]]","2","[[2,0,0],[3,0],[1]]","14","0","","","","","","3","","","","","","","","",""
"","","","","","single-stim-button","306","485861","0.0-2.0-53.1-1.1","5f4dfdb3a7461bad5d3dd157","C3","batch3","","998","tol_toboard","","","","tol_peg_3","998","998","0","[[0,0,0],[3,2],[1]]","2","[[2,0,0],[3,0],[1]]","14","0","","","","","","3","","","","","","","","",""
"","","","","","single-stim-button","307","486777","0.0-2.0-53.2-0.2","5f4dfdb3a7461bad5d3dd157","C3","batch3","","913","tol_tohand","","","","tol_peg_2","913","913","0","[[0,0,0],[3,0],[1]]","3","[[2,0,0],[3,0],[1]]","14","0","","","","","","3","","","","","","","","",""
"","","","","","single-stim-button","308","487551","0.0-2.0-53.2-1.2","5f4dfdb3a7461bad5d3dd157","C3","batch3","","771","tol_toboard","","","","tol_peg_1","771","771","0","[[2,0,0],[3,0],[1]]","3","[[2,0,0],[3,0],[1]]","14","0","","","","","","3","","","","","","","","",""
"","","","","","poldrack-single-stim","309","488555","0.0-2.0-54.0","5f4dfdb3a7461bad5d3dd157","C3","batch3","","-1","tol_feedback","","","true","","1000","1000","500","","","","","","-1","none","true","2891","4852","","","","","","","","","",""
"","","","","","html-button-response","310","489709","0.0-2.0-55.0","5f4dfdb3a7461bad5d3dd157","C3","batch3","","1151.0000000000582","tol_trial_num","<div class = centerbox><p class = center-block-text>problem <strong>16</strong> out of 25 problems</p></div>","0","","","","","","","","","","","","","","","","","","","","","","","","",""
"","","","","","single-stim-button","311","496294","0.0-2.0-56.0-0.0","5f4dfdb3a7461bad5d3dd157","C3","batch3","","6583","tol_tohand","","","","tol_peg_3","6583","6583","0","[[0,0,0],[2,3],[0]]","1","[[2,3,0],[1,0],[0]]","15","0","","","","","","7","","","","","","","","",""
"","","","","","single-stim-button","312","496744","0.0-2.0-56.0-1.0","5f4dfdb3a7461bad5d3dd157","C3","batch3","","448","tol_toboard","","","","tol_peg_1","448","448","0","[[1,0,0],[2,3],[0]]","1","[[2,3,0],[1,0],[0]]","15","0","","","","","","7","","","","","","","","",""
"","","","","","single-stim-button","313","499701","0.0-2.0-56.1-0.1","5f4dfdb3a7461bad5d3dd157","C3","batch3","","2954","tol_tohand","","","","tol_peg_2","2954","2954","0","[[1,0,0],[2,0],[0]]","2","[[2,3,0],[1,0],[0]]","15","0","","","","","","7","","","","","","","","",""
"","","","","","single-stim-button","314","500593","0.0-2.0-56.1-1.1","5f4dfdb3a7461bad5d3dd157","C3","batch3","","890","tol_toboard","","","","tol_peg_1","890","890","0","[[1,3,0],[2,0],[0]]","2","[[2,3,0],[1,0],[0]]","15","0","","","","","","7","","","","","","","","",""
"","","","","","single-stim-button","315","501451","0.0-2.0-56.2-0.2","5f4dfdb3a7461bad5d3dd157","C3","batch3","","855","tol_tohand","","","","tol_peg_2","855","855","0","[[1,3,0],[0,0],[0]]","3","[[2,3,0],[1,0],[0]]","15","0","","","","","","7","","","","","","","","",""
"","","","","","single-stim-button","316","501984","0.0-2.0-56.2-1.2","5f4dfdb3a7461bad5d3dd157","C3","batch3","","530","tol_toboard","","","","tol_peg_3","530","530","0","[[1,3,0],[0,0],[2]]","3","[[2,3,0],[1,0],[0]]","15","0","","","","","","7","","","","","","","","",""
"","","","","","single-stim-button","317","504994","0.0-2.0-56.3-0.3","5f4dfdb3a7461bad5d3dd157","C3","batch3","","3007","tol_tohand","","","","tol_peg_1","3007","3007","0","[[1,0,0],[0,0],[2]]","4","[[2,3,0],[1,0],[0]]","15","0","","","","","","7","","","","","","","","",""
"","","","","","single-stim-button","318","505676","0.0-2.0-56.3-1.3","5f4dfdb3a7461bad5d3dd157","C3","batch3","","680","tol_toboard","","","","tol_peg_2","680","680","0","[[1,0,0],[3,0],[2]]","4","[[2,3,0],[1,0],[0]]","15","0","","","","","","7","","","","","","","","",""
"","","","","","single-stim-button","319","506660","0.0-2.0-56.4-0.4","5f4dfdb3a7461bad5d3dd157","C3","batch3","","981","tol_tohand","","","","tol_peg_1","981","981","0","[[0,0,0],[3,0],[2]]","5","[[2,3,0],[1,0],[0]]","15","0","","","","","","7","","","","","","","","",""
"","","","","","single-stim-button","320","507559","0.0-2.0-56.4-1.4","5f4dfdb3a7461bad5d3dd157","C3","batch3","","896","tol_toboard","","","","tol_peg_2","896","896","0","[[0,0,0],[3,1],[2]]","5","[[2,3,0],[1,0],[0]]","15","0","","","","","","7","","","","","","","","",""
"","","","","","single-stim-button","321","508299","0.0-2.0-56.5-0.5","5f4dfdb3a7461bad5d3dd157","C3","batch3","","737","tol_tohand","","","","tol_peg_3","737","737","0","[[0,0,0],[3,1],[0]]","6","[[2,3,0],[1,0],[0]]","15","0","","","","","","7","","","","","","","","",""
"","","","","","single-stim-button","322","508751","0.0-2.0-56.5-1.5","5f4dfdb3a7461bad5d3dd157","C3","batch3","","450","tol_toboard","","","","tol_peg_1","450","450","0","[[2,0,0],[3,1],[0]]","6","[[2,3,0],[1,0],[0]]","15","0","","","","","","7","","","","","","","","",""
"","","","","","single-stim-button","323","509454","0.0-2.0-56.6-0.6","5f4dfdb3a7461bad5d3dd157","C3","batch3","","701","tol_tohand","","","","tol_peg_2","701","701","0","[[2,0,0],[3,0],[0]]","7","[[2,3,0],[1,0],[0]]","15","0","","","","","","7","","","","","","","","",""
"","","","","","single-stim-button","324","510925","0.0-2.0-56.6-1.6","5f4dfdb3a7461bad5d3dd157","C3","batch3","","1469","tol_toboard","","","","tol_peg_3","1469","1469","0","[[2,0,0],[3,0],[1]]","7","[[2,3,0],[1,0],[0]]","15","0","","","","","","7","","","","","","","","",""
"","","","","","single-stim-button","325","512343","0.0-2.0-56.7-0.7","5f4dfdb3a7461bad5d3dd157","C3","batch3","","1415","tol_tohand","","","","tol_peg_1","1415","1415","0","[[0,0,0],[3,0],[1]]","8","[[2,3,0],[1,0],[0]]","15","0","","","","","","7","","","","","","","","",""
"","","","","","single-stim-button","326","513634","0.0-2.0-56.7-1.7","5f4dfdb3a7461bad5d3dd157","C3","batch3","","1288","tol_toboard","","","","tol_peg_1","1288","1288","0","[[2,0,0],[3,0],[1]]","8","[[2,3,0],[1,0],[0]]","15","0","","","","","","7","","","","","","","","",""
"","","","","","single-stim-button","327","514459","0.0-2.0-56.8-0.8","5f4dfdb3a7461bad5d3dd157","C3","batch3","","822","tol_tohand","","","","tol_peg_2","822","822","0","[[2,0,0],[0,0],[1]]","9","[[2,3,0],[1,0],[0]]","15","0","","","","","","7","","","","","","","","",""
"","","","","","single-stim-button","328","515176","0.0-2.0-56.8-1.8","5f4dfdb3a7461bad5d3dd157","C3","batch3","","715","tol_toboard","","","","tol_peg_1","715","715","0","[[2,3,0],[0,0],[1]]","9","[[2,3,0],[1,0],[0]]","15","0","","","","","","7","","","","","","","","",""
"","","","","","single-stim-button","329","516274","0.0-2.0-56.9-0.9","5f4dfdb3a7461bad5d3dd157","C3","batch3","","1096","tol_tohand","","","","tol_peg_3","1096","1096","0","[[2,3,0],[0,0],[0]]","10","[[2,3,0],[1,0],[0]]","15","0","","","","","","7","","","","","","","","",""
"","","","","","single-stim-button","330","517318","0.0-2.0-56.9-1.9","5f4dfdb3a7461bad5d3dd157","C3","batch3","","1042","tol_toboard","","","","tol_peg_2","1042","1042","0","[[2,3,0],[1,0],[0]]","10","[[2,3,0],[1,0],[0]]","15","0","","","","","","7","","","","","","","","",""
"","","","","","poldrack-single-stim","331","518322","0.0-2.0-57.0","5f4dfdb3a7461bad5d3dd157","C3","batch3","","-1","tol_feedback","","","true","","1000","1000","500","","","","","","-1","none","true","6583","19151","","","","","","","","","",""
"","","","","","html-button-response","332","519474","0.0-2.0-58.0","5f4dfdb3a7461bad5d3dd157","C3","batch3","","1150","tol_trial_num","<div class = centerbox><p class = center-block-text>problem <strong>17</strong> out of 25 problems</p></div>","0","","","","","","","","","","","","","","","","","","","","","","","","",""
"","","","","","single-stim-button","333","525143","0.0-2.0-59.0-0.0","5f4dfdb3a7461bad5d3dd157","C3","batch3","","5667","tol_tohand","","","","tol_peg_1","5667","5667","0","[[1,0,0],[3,0],[0]]","1","[[3,1,0],[2,0],[0]]","16","0","","","","","","5","","","","","","","","",""
"","","","","","single-stim-button","334","525709","0.0-2.0-59.0-1.0","5f4dfdb3a7461bad5d3dd157","C3","batch3","","563","tol_toboard","","","","tol_peg_3","563","563","0","[[1,0,0],[3,0],[2]]","1","[[3,1,0],[2,0],[0]]","16","0","","","","","","5","","","","","","","","",""
"","","","","","single-stim-button","335","526651","0.0-2.0-59.1-0.1","5f4dfdb3a7461bad5d3dd157","C3","batch3","","939","tol_tohand","","","","tol_peg_1","939","939","0","[[0,0,0],[3,0],[2]]","2","[[3,1,0],[2,0],[0]]","16","0","","","","","","5","","","","","","","","",""
"","","","","","single-stim-button","336","527550","0.0-2.0-59.1-1.1","5f4dfdb3a7461bad5d3dd157","C3","batch3","","897","tol_toboard","","","","tol_peg_2","897","897","0","[[0,0,0],[3,1],[2]]","2","[[3,1,0],[2,0],[0]]","16","0","","","","","","5","","","","","","","","",""
"","","","","","single-stim-button","337","528553","0.0-2.0-59.2-0.2","5f4dfdb3a7461bad5d3dd157","C3","batch3","","1000","tol_tohand","","","","tol_peg_3","1000","1000","0","[[0,0,0],[3,1],[0]]","3","[[3,1,0],[2,0],[0]]","16","0","","","","","","5","","","","","","","","",""
"","","","","","single-stim-button","338","530034","0.0-2.0-59.2-1.2","5f4dfdb3a7461bad5d3dd157","C3","batch3","","1479","tol_toboard","","","","tol_peg_1","1479","1479","0","[[2,0,0],[3,1],[0]]","3","[[3,1,0],[2,0],[0]]","16","0","","","","","","5","","","","","","","","",""
"","","","","","single-stim-button","339","530759","0.0-2.0-59.3-0.3","5f4dfdb3a7461bad5d3dd157","C3","batch3","","722","tol_tohand","","","","tol_peg_2","722","722","0","[[2,0,0],[3,0],[0]]","4","[[3,1,0],[2,0],[0]]","16","0","","","","","","5","","","","","","","","",""
"","","","","","single-stim-button","340","533200","0.0-2.0-59.3-1.3","5f4dfdb3a7461bad5d3dd157","C3","batch3","","2438","tol_toboard","","","","tol_peg_1","2438","2438","0","[[2,1,0],[3,0],[0]]","4","[[3,1,0],[2,0],[0]]","16","0","","","","","","5","","","","","","","","",""
"","","","","","single-stim-button","341","538901","0.0-2.0-59.4-0.4","5f4dfdb3a7461bad5d3dd157","C3","batch3","","5698","tol_tohand","","","","tol_peg_1","5698","5698","0","[[2,0,0],[3,0],[0]]","5","[[3,1,0],[2,0],[0]]","16","0","","","","","","5","","","","","","","","",""
"","","","","","single-stim-button","342","539407","0.0-2.0-59.4-1.4","5f4dfdb3a7461bad5d3dd157","C3","batch3","","504","tol_toboard","","","","tol_peg_3","504","504","0","[[2,0,0],[3,0],[1]]","5","[[3,1,0],[2,0],[0]]","16","0","","","","","","5","","","","","","","","",""
"","","","","","single-stim-button","343","541636","0.0-2.0-59.5-0.5","5f4dfdb3a7461bad5d3dd157","C3","batch3","","2228","tol_tohand","","","","tol_peg_2","2228","2228","0","[[2,0,0],[0,0],[1]]","6","[[3,1,0],[2,0],[0]]","16","0","","","","","","5","","","","","","","","",""
"","","","","","single-stim-button","344","543333","0.0-2.0-59.5-1.5","5f4dfdb3a7461bad5d3dd157","C3","batch3","","1694","tol_toboard","","","","tol_peg_1","1694","1694","0","[[2,3,0],[0,0],[1]]","6","[[3,1,0],[2,0],[0]]","16","0","","","","","","5","","","","","","","","",""
"","","","","","single-stim-button","345","544066","0.0-2.0-59.6-0.6","5f4dfdb3a7461bad5d3dd157","C3","batch3","","730","tol_tohand","","","","tol_peg_3","730","730","0","[[2,3,0],[0,0],[0]]","7","[[3,1,0],[2,0],[0]]","16","0","","","","","","5","","","","","","","","",""
"","","","","","single-stim-button","346","544507","0.0-2.0-59.6-1.6","5f4dfdb3a7461bad5d3dd157","C3","batch3","","440","tol_toboard","","","","tol_peg_2","440","440","0","[[2,3,0],[1,0],[0]]","7","[[3,1,0],[2,0],[0]]","16","0","","","","","","5","","","","","","","","",""
"","","","","","single-stim-button","347","545487","0.0-2.0-59.7-0.7","5f4dfdb3a7461bad5d3dd157","C3","batch3","","977","tol_tohand","","","","tol_peg_1","977","977","0","[[2,0,0],[1,0],[0]]","8","[[3,1,0],[2,0],[0]]","16","0","","","","","","5","","","","","","","","",""
"","","","","","single-stim-button","348","547041","0.0-2.0-59.7-1.7","5f4dfdb3a7461bad5d3dd157","C3","batch3","","1552","tol_toboard","","","","tol_peg_3","1552","1552","0","[[2,0,0],[1,0],[3]]","8","[[3,1,0],[2,0],[0]]","16","0","","","","","","5","","","","","","","","",""
"","","","","","single-stim-button","349","547925","0.0-2.0-59.8-0.8","5f4dfdb3a7461bad5d3dd157","C3","batch3","","882","tol_tohand","","","","tol_peg_1","882","882","0","[[0,0,0],[1,0],[3]]","9","[[3,1,0],[2,0],[0]]","16","0","","","","","","5","","","","","","","","",""
"","","","","","single-stim-button","350","548439","0.0-2.0-59.8-1.8","5f4dfdb3a7461bad5d3dd157","C3","batch3","","513","tol_toboard","","","","tol_peg_2","513","513","0","[[0,0,0],[1,2],[3]]","9","[[3,1,0],[2,0],[0]]","16","0","","","","","","5","","","","","","","","",""
"","","","","","single-stim-button","351","549388","0.0-2.0-59.9-0.9","5f4dfdb3a7461bad5d3dd157","C3","batch3","","946","tol_tohand","","","","tol_peg_2","946","946","0","[[0,0,0],[1,0],[3]]","10","[[3,1,0],[2,0],[0]]","16","0","","","","","","5","","","","","","","","",""
"","","","","","single-stim-button","352","551116","0.0-2.0-59.9-1.9","5f4dfdb3a7461bad5d3dd157","C3","batch3","","1726","tol_toboard","","","","tol_peg_2","1726","1726","0","[[0,0,0],[1,2],[3]]","10","[[3,1,0],[2,0],[0]]","16","0","","","","","","5","","","","","","","","",""
"","","","","","single-stim-button","353","553485","0.0-2.0-59.10-0.10","5f4dfdb3a7461bad5d3dd157","C3","batch3","","2367","tol_tohand","","","","tol_peg_2","2367","2367","0","[[0,0,0],[1,0],[3]]","11","[[3,1,0],[2,0],[0]]","16","0","","","","","","5","","","","","","","","",""
"","","","","","single-stim-button","354","555475","0.0-2.0-59.10-1.10","5f4dfdb3a7461bad5d3dd157","C3","batch3","","1987","tol_toboard","","","","tol_peg_2","1987","1987","0","[[0,0,0],[1,2],[3]]","11","[[3,1,0],[2,0],[0]]","16","0","","","","","","5","","","","","","","","",""
"","","","","","single-stim-button","355","557250","0.0-2.0-59.11-0.11","5f4dfdb3a7461bad5d3dd157","C3","batch3","","1772","tol_tohand","","","","tol_peg_3","1772","1772","0","[[0,0,0],[1,2],[0]]","12","[[3,1,0],[2,0],[0]]","16","0","","","","","","5","","","","","","","","",""
"","","","","","single-stim-button","356","558016","0.0-2.0-59.11-1.11","5f4dfdb3a7461bad5d3dd157","C3","batch3","","764","tol_toboard","","","","tol_peg_1","764","764","0","[[3,0,0],[1,2],[0]]","12","[[3,1,0],[2,0],[0]]","16","0","","","","","","5","","","","","","","","",""
