"success","timeout","failed_images","failed_audio","failed_video","trial_type","trial_index","time_elapsed","internal_node_id","subject_id","study_id","session_id","view_history","rt","task","stimulus","response","correct","mouse_click","stim_duration","block_duration","timing_post_trial","current_position","tol_num_moves_made","tol_target","tol_problem_id","tol_rt","key_press","possible_responses","tol_correct","preplanning","tol_rt_per_trial","tol_min_moves","answer","item","fiar_detect_rt","fiar_detect_correct","total_correct_fiar_detect","post_trial_gap","choices","spm_correct","spm_rt"
"true","false","[]","[]","[]","preload","0","7034","0.0-0.0","5f4d5f9f835880a2aca8b996","C3","batch3","","","","","","","","","","","","","","","","","","","","","","","","","","","","","",""
"true","","","","","fullscreen","1","25047","0.0-1.0-0.0","5f4d5f9f835880a2aca8b996","C3","batch3","","","","","","","","","","","","","","","","","","","","","","","","","","","","","",""
"true","","","","","fullscreen","2","29325","0.0-2.0-0.0","5f4d5f9f835880a2aca8b996","C3","batch3","","","","","","","","","","","","","","","","","","","","","","","","","","","","","",""
"","","","","","instructions","3","142303","0.0-2.0-1.0-0.0-0.0","5f4d5f9f835880a2aca8b996","C3","batch3","[{""page_index"":0,""viewing_time"":26864},{""page_index"":1,""viewing_time"":14044},{""page_index"":2,""viewing_time"":12894.199999809265},{""page_index"":3,""viewing_time"":20601.900000095367},{""page_index"":4,""viewing_time"":18901.200000286102},{""page_index"":5,""viewing_time"":14930},{""page_index"":6,""viewing_time"":4740.099999904633}]","112975.69999980927","tol-instructions","","","","","","","","","","","","","","","","","","","","","","","","","","",""
"","","","","","html-button-response","4","143155","0.0-2.0-1.0-1.0-0.0","5f4d5f9f835880a2aca8b996","C3","batch3","","850.8000001907349","tol_enter_quiz","<p class=block-text> Let's answer a few questions <br>","0","","","","","","","","","","","","","","","","","","","","","","","","",""
"","","","","","html-button-response","5","149169","0.0-2.0-1.0-1.0-1.0","5f4d5f9f835880a2aca8b996","C3","batch3","","6012.900000095367","tol_quiz","<p class = block-text>True or False: You can only move the ball on top of a peg. <br></p>","0","true","","","","","","","","","","","","","","","","","","","","","","","",""
"","","","","","html-button-response","6","151695","0.0-2.0-1.0-1.0-2.0","5f4d5f9f835880a2aca8b996","C3","batch3","","2524.699999809265","tol_quiz_feedback","<p class = block-text>Correct! You can only move the ball on top of a peg.</p>","0","","","","","","","","","","","","","","","","","","","","","","","","",""
"","","","","","html-button-response","7","156325","0.0-2.0-1.0-1.0-3.0","5f4d5f9f835880a2aca8b996","C3","batch3","","4628.800000190735","tol_quiz","<p class = block-text>True or False: You should try to match your board with the target board with fewest moves possible. <br></p>","0","true","","","","","","","","","","","","","","","","","","","","","","","",""
"","","","","","html-button-response","8","157075","0.0-2.0-1.0-1.0-4.0","5f4d5f9f835880a2aca8b996","C3","batch3","","749.2000002861023","tol_quiz_feedback","<p class = block-text>Correct! </p>","0","","","","","","","","","","","","","","","","","","","","","","","","",""
"","","","","","html-button-response","9","158421","0.0-2.0-2.0","5f4d5f9f835880a2aca8b996","C3","batch3","","1345.1999998092651","","<p class=block-text> Now that you've understood the game, let's practice a few easier examples before we start!<br> <br>","0","","","","","","","","","","","","","","","","","","","","","","","","",""
"","","","","","single-stim-button","10","163156","0.0-2.0-3.0-0.0","5f4d5f9f835880a2aca8b996","C3","batch3","","4733","tol_practice","","","","tol_peg_2","4733","4733","0","[[1,2,0],[0,0],[0]]","1","[[1,2,0],[0,0],[3]]","practice","4733","","","","","","","","","","","","","","",""
"","","","","","single-stim-button","11","165857","0.0-2.0-3.0-1.0","5f4d5f9f835880a2aca8b996","C3","batch3","","2701","tol_practice","","","","tol_peg_3","2701","2701","0","[[1,2,0],[0,0],[3]]","1","[[1,2,0],[0,0],[3]]","practice","2701","","","","","","","","","","","","","","",""
"","","","","","poldrack-single-stim","12","166880","0.0-2.0-4.0","5f4d5f9f835880a2aca8b996","C3","batch3","","-1","tol_feedback","","","true","","1000","1000","500","","","","","","-1","none","true","","0","","","","","","","","","",""
"","","","","","single-stim-button","13","171121","0.0-2.0-5.0-0.0","5f4d5f9f835880a2aca8b996","C3","batch3","","4240","tol_practice","","","","tol_peg_1","4240","4240","0","[[1,0,0],[3,0],[0]]","2","[[0,0,0],[3,1],[2]]","practice","4240","","","","","","","","","","","","","","",""
"","","","","","single-stim-button","14","172645","0.0-2.0-5.0-1.0","5f4d5f9f835880a2aca8b996","C3","batch3","","1523","tol_practice","","","","tol_peg_3","1523","1523","0","[[1,0,0],[3,0],[2]]","2","[[0,0,0],[3,1],[2]]","practice","1523","","","","","","","","","","","","","","",""
"","","","","","single-stim-button","15","187239","0.0-2.0-5.1-0.1","5f4d5f9f835880a2aca8b996","C3","batch3","","14593","tol_practice","","","","tol_peg_3","14593","14593","0","[[1,0,0],[3,0],[0]]","3","[[0,0,0],[3,1],[2]]","practice","14593","","","","","","","","","","","","","","",""
"","","","","","single-stim-button","16","188202","0.0-2.0-5.1-1.1","5f4d5f9f835880a2aca8b996","C3","batch3","","962","tol_practice","","","","tol_peg_1","962","962","0","[[1,2,0],[3,0],[0]]","3","[[0,0,0],[3,1],[2]]","practice","962","","","","","","","","","","","","","","",""
"","","","","","single-stim-button","17","189115","0.0-2.0-5.2-0.2","5f4d5f9f835880a2aca8b996","C3","batch3","","913","tol_practice","","","","tol_peg_2","913","913","0","[[1,2,0],[0,0],[0]]","4","[[0,0,0],[3,1],[2]]","practice","913","","","","","","","","","","","","","","",""
"","","","","","single-stim-button","18","189696","0.0-2.0-5.2-1.2","5f4d5f9f835880a2aca8b996","C3","batch3","","579","tol_practice","","","","tol_peg_3","579","579","0","[[1,2,0],[0,0],[3]]","4","[[0,0,0],[3,1],[2]]","practice","579","","","","","","","","","","","","","","",""
"","","","","","single-stim-button","19","190461","0.0-2.0-5.3-0.3","5f4d5f9f835880a2aca8b996","C3","batch3","","765","tol_practice","","","","tol_peg_1","765","765","0","[[1,0,0],[0,0],[3]]","5","[[0,0,0],[3,1],[2]]","practice","765","","","","","","","","","","","","","","",""
"","","","","","single-stim-button","20","191187","0.0-2.0-5.3-1.3","5f4d5f9f835880a2aca8b996","C3","batch3","","726","tol_practice","","","","tol_peg_2","726","726","0","[[1,0,0],[2,0],[3]]","5","[[0,0,0],[3,1],[2]]","practice","726","","","","","","","","","","","","","","",""
"","","","","","single-stim-button","21","193426","0.0-2.0-5.4-0.4","5f4d5f9f835880a2aca8b996","C3","batch3","","2239","tol_practice","","","","tol_peg_1","2239","2239","0","[[0,0,0],[2,0],[3]]","6","[[0,0,0],[3,1],[2]]","practice","2239","","","","","","","","","","","","","","",""
"","","","","","single-stim-button","22","194137","0.0-2.0-5.4-1.4","5f4d5f9f835880a2aca8b996","C3","batch3","","709","tol_practice","","","","tol_peg_2","709","709","0","[[0,0,0],[2,1],[3]]","6","[[0,0,0],[3,1],[2]]","practice","709","","","","","","","","","","","","","","",""
"","","","","","single-stim-button","23","194700","0.0-2.0-5.5-0.5","5f4d5f9f835880a2aca8b996","C3","batch3","","563","tol_practice","","","","tol_peg_3","563","563","0","[[0,0,0],[2,1],[0]]","7","[[0,0,0],[3,1],[2]]","practice","563","","","","","","","","","","","","","","",""
"","","","","","single-stim-button","24","195997","0.0-2.0-5.5-1.5","5f4d5f9f835880a2aca8b996","C3","batch3","","1297","tol_practice","","","","tol_peg_1","1297","1297","0","[[3,0,0],[2,1],[0]]","7","[[0,0,0],[3,1],[2]]","practice","1297","","","","","","","","","","","","","","",""
"","","","","","single-stim-button","25","196553","0.0-2.0-5.6-0.6","5f4d5f9f835880a2aca8b996","C3","batch3","","555","tol_practice","","","","tol_peg_2","555","555","0","[[3,0,0],[2,0],[0]]","8","[[0,0,0],[3,1],[2]]","practice","555","","","","","","","","","","","","","","",""
"","","","","","single-stim-button","26","197217","0.0-2.0-5.6-1.6","5f4d5f9f835880a2aca8b996","C3","batch3","","664","tol_practice","","","","tol_peg_1","664","664","0","[[3,1,0],[2,0],[0]]","8","[[0,0,0],[3,1],[2]]","practice","664","","","","","","","","","","","","","","",""
"","","","","","single-stim-button","27","201807","0.0-2.0-5.7-0.7","5f4d5f9f835880a2aca8b996","C3","batch3","","4589","tol_practice","","","","tol_peg_2","4589","4589","0","[[3,1,0],[0,0],[0]]","9","[[0,0,0],[3,1],[2]]","practice","4589","","","","","","","","","","","","","","",""
"","","","","","single-stim-button","28","202692","0.0-2.0-5.7-1.7","5f4d5f9f835880a2aca8b996","C3","batch3","","885","tol_practice","","","","tol_peg_3","885","885","0","[[3,1,0],[0,0],[2]]","9","[[0,0,0],[3,1],[2]]","practice","885","","","","","","","","","","","","","","",""
"","","","","","single-stim-button","29","203920","0.0-2.0-5.8-0.8","5f4d5f9f835880a2aca8b996","C3","batch3","","1227","tol_practice","","","","tol_peg_1","1227","1227","0","[[3,0,0],[0,0],[2]]","10","[[0,0,0],[3,1],[2]]","practice","1227","","","","","","","","","","","","","","",""
"","","","","","single-stim-button","30","211674","0.0-2.0-5.8-1.8","5f4d5f9f835880a2aca8b996","C3","batch3","","7754","tol_practice","","","","tol_peg_2","7754","7754","0","[[3,0,0],[1,0],[2]]","10","[[0,0,0],[3,1],[2]]","practice","7754","","","","","","","","","","","","","","",""
"","","","","","single-stim-button","31","212583","0.0-2.0-5.9-0.9","5f4d5f9f835880a2aca8b996","C3","batch3","","907","tol_practice","","","","tol_peg_3","907","907","0","[[3,0,0],[1,0],[0]]","11","[[0,0,0],[3,1],[2]]","practice","907","","","","","","","","","","","","","","",""
"","","","","","single-stim-button","32","213303","0.0-2.0-5.9-1.9","5f4d5f9f835880a2aca8b996","C3","batch3","","720","tol_practice","","","","tol_peg_2","720","720","0","[[3,0,0],[1,2],[0]]","11","[[0,0,0],[3,1],[2]]","practice","720","","","","","","","","","","","","","","",""
"","","","","","single-stim-button","33","213898","0.0-2.0-5.10-0.10","5f4d5f9f835880a2aca8b996","C3","batch3","","594","tol_practice","","","","tol_peg_1","594","594","0","[[0,0,0],[1,2],[0]]","12","[[0,0,0],[3,1],[2]]","practice","594","","","","","","","","","","","","","","",""
"","","","","","single-stim-button","34","215076","0.0-2.0-5.10-1.10","5f4d5f9f835880a2aca8b996","C3","batch3","","1177","tol_practice","","","","tol_peg_3","1177","1177","0","[[0,0,0],[1,2],[3]]","12","[[0,0,0],[3,1],[2]]","practice","1177","","","","","","","","","","","","","","",""
"","","","","","single-stim-button","35","216813","0.0-2.0-5.11-0.11","5f4d5f9f835880a2aca8b996","C3","batch3","","1736","tol_practice","","","","tol_peg_2","1736","1736","0","[[0,0,0],[1,0],[3]]","13","[[0,0,0],[3,1],[2]]","practice","1736","","","","","","","","","","","","","","",""
"","","","","","single-stim-button","36","217361","0.0-2.0-5.11-1.11","5f4d5f9f835880a2aca8b996","C3","batch3","","547","tol_practice","","","","tol_peg_1","547","547","0","[[2,0,0],[1,0],[3]]","13","[[0,0,0],[3,1],[2]]","practice","547","","","","","","","","","","","","","","",""
"","","","","","single-stim-button","37","219760","0.0-2.0-5.12-0.12","5f4d5f9f835880a2aca8b996","C3","batch3","","2399","tol_practice","","","","tol_peg_2","2399","2399","0","[[2,0,0],[0,0],[3]]","14","[[0,0,0],[3,1],[2]]","practice","2399","","","","","","","","","","","","","","",""
"","","","","","single-stim-button","38","220443","0.0-2.0-5.12-1.12","5f4d5f9f835880a2aca8b996","C3","batch3","","682","tol_practice","","","","tol_peg_1","682","682","0","[[2,1,0],[0,0],[3]]","14","[[0,0,0],[3,1],[2]]","practice","682","","","","","","","","","","","","","","",""
"","","","","","single-stim-button","39","220936","0.0-2.0-5.13-0.13","5f4d5f9f835880a2aca8b996","C3","batch3","","493","tol_practice","","","","tol_peg_3","493","493","0","[[2,1,0],[0,0],[0]]","15","[[0,0,0],[3,1],[2]]","practice","493","","","","","","","","","","","","","","",""
"","","","","","single-stim-button","40","221482","0.0-2.0-5.13-1.13","5f4d5f9f835880a2aca8b996","C3","batch3","","545","tol_practice","","","","tol_peg_2","545","545","0","[[2,1,0],[3,0],[0]]","15","[[0,0,0],[3,1],[2]]","practice","545","","","","","","","","","","","","","","",""
"","","","","","single-stim-button","41","222147","0.0-2.0-5.14-0.14","5f4d5f9f835880a2aca8b996","C3","batch3","","663","tol_practice","","","","tol_peg_1","663","663","0","[[2,0,0],[3,0],[0]]","16","[[0,0,0],[3,1],[2]]","practice","663","","","","","","","","","","","","","","",""
"","","","","","single-stim-button","42","222741","0.0-2.0-5.14-1.14","5f4d5f9f835880a2aca8b996","C3","batch3","","593","tol_practice","","","","tol_peg_2","593","593","0","[[2,0,0],[3,1],[0]]","16","[[0,0,0],[3,1],[2]]","practice","593","","","","","","","","","","","","","","",""
"","","","","","single-stim-button","43","223500","0.0-2.0-5.15-0.15","5f4d5f9f835880a2aca8b996","C3","batch3","","759","tol_practice","","","","tol_peg_1","759","759","0","[[0,0,0],[3,1],[0]]","17","[[0,0,0],[3,1],[2]]","practice","759","","","","","","","","","","","","","","",""
"","","","","","single-stim-button","44","224320","0.0-2.0-5.15-1.15","5f4d5f9f835880a2aca8b996","C3","batch3","","820","tol_practice","","","","tol_peg_3","820","820","0","[[0,0,0],[3,1],[2]]","17","[[0,0,0],[3,1],[2]]","practice","820","","","","","","","","","","","","","","",""
"","","","","","poldrack-single-stim","45","225322","0.0-2.0-6.0","5f4d5f9f835880a2aca8b996","C3","batch3","","-1","tol_feedback","","","true","","1000","1000","500","","","","","","-1","none","true","","0","","","","","","","","","",""
"","","","","","single-stim-button","46","228707","0.0-2.0-7.0-0.0","5f4d5f9f835880a2aca8b996","C3","batch3","","3383","tol_practice","","","","tol_peg_2","3383","3383","0","[[1,2,0],[0,0],[0]]","18","[[1,0,0],[2,0],[3]]","practice","3383","","","","","","","","","","","","","","",""
"","","","","","single-stim-button","47","229348","0.0-2.0-7.0-1.0","5f4d5f9f835880a2aca8b996","C3","batch3","","641","tol_practice","","","","tol_peg_3","641","641","0","[[1,2,0],[0,0],[3]]","18","[[1,0,0],[2,0],[3]]","practice","641","","","","","","","","","","","","","","",""
"","","","","","single-stim-button","48","230209","0.0-2.0-7.1-0.1","5f4d5f9f835880a2aca8b996","C3","batch3","","860","tol_practice","","","","tol_peg_1","860","860","0","[[1,0,0],[0,0],[3]]","19","[[1,0,0],[2,0],[3]]","practice","860","","","","","","","","","","","","","","",""
"","","","","","single-stim-button","49","230944","0.0-2.0-7.1-1.1","5f4d5f9f835880a2aca8b996","C3","batch3","","735","tol_practice","","","","tol_peg_2","735","735","0","[[1,0,0],[2,0],[3]]","19","[[1,0,0],[2,0],[3]]","practice","735","","","","","","","","","","","","","","",""
"","","","","","poldrack-single-stim","50","231961","0.0-2.0-8.0","5f4d5f9f835880a2aca8b996","C3","batch3","","-1","tol_feedback","","","true","","1000","1000","500","","","","","","-1","none","true","","0","","","","","","","","","",""
"","","","","","html-button-response","51","235566","0.0-2.0-9.0","5f4d5f9f835880a2aca8b996","C3","batch3","","3604.7000002861023","tol_instruction","<div class = centerbox><p class = center-block-text>Great job! You are done with practice trials<br>You are about to start official trials.<br> <br> Problem <strong>1</strong> out of 25 problems</p></div>","0","","","","","","","","","","","","","","","","","","","","","","","","",""
"","","","","","single-stim-button","52","241820","0.0-2.0-10.0-0.0","5f4d5f9f835880a2aca8b996","C3","batch3","","5249","tol_tohand","","","","tol_peg_1","5249","5249","0","[[1,0,0],[3,0],[0]]","1","[[1,3,0],[2,0],[0]]","0","0","","","","","","3","","","","","","","","",""
"","","","","","single-stim-button","53","243009","0.0-2.0-10.0-1.0","5f4d5f9f835880a2aca8b996","C3","batch3","","1188","tol_toboard","","","","tol_peg_3","1188","1188","0","[[1,0,0],[3,0],[2]]","1","[[1,3,0],[2,0],[0]]","0","0","","","","","","3","","","","","","","","",""
"","","","","","single-stim-button","54","246145","0.0-2.0-10.1-0.1","5f4d5f9f835880a2aca8b996","C3","batch3","","3135","tol_tohand","","","","tol_peg_2","3135","3135","0","[[1,0,0],[0,0],[2]]","2","[[1,3,0],[2,0],[0]]","0","0","","","","","","3","","","","","","","","",""
"","","","","","single-stim-button","55","247287","0.0-2.0-10.1-1.1","5f4d5f9f835880a2aca8b996","C3","batch3","","1140","tol_toboard","","","","tol_peg_1","1140","1140","0","[[1,3,0],[0,0],[2]]","2","[[1,3,0],[2,0],[0]]","0","0","","","","","","3","","","","","","","","",""
"","","","","","single-stim-button","56","248663","0.0-2.0-10.2-0.2","5f4d5f9f835880a2aca8b996","C3","batch3","","1376","tol_tohand","","","","tol_peg_3","1376","1376","0","[[1,3,0],[0,0],[0]]","3","[[1,3,0],[2,0],[0]]","0","0","","","","","","3","","","","","","","","",""
"","","","","","single-stim-button","57","249421","0.0-2.0-10.2-1.2","5f4d5f9f835880a2aca8b996","C3","batch3","","758","tol_toboard","","","","tol_peg_2","758","758","0","[[1,3,0],[2,0],[0]]","3","[[1,3,0],[2,0],[0]]","0","0","","","","","","3","","","","","","","","",""
"","","","","","poldrack-single-stim","58","250435","0.0-2.0-11.0","5f4d5f9f835880a2aca8b996","C3","batch3","","-1","tol_feedback","","","true","","1000","1000","500","","","","","","-1","none","true","5249","9760","","","","","","","","","",""
"","","","","","html-button-response","59","251337","0.0-2.0-12.0","5f4d5f9f835880a2aca8b996","C3","batch3","","900.3000001907349","tol_trial_num","<div class = centerbox><p class = center-block-text>problem <strong>2</strong> out of 25 problems</p></div>","0","","","","","","","","","","","","","","","","","","","","","","","","",""
"","","","","","single-stim-button","60","255935","0.0-2.0-13.0-0.0","5f4d5f9f835880a2aca8b996","C3","batch3","","4598","tol_tohand","","","","tol_peg_1","4598","4598","0","[[1,0,0],[3,0],[0]]","1","[[2,1,3],[0,0],[0]]","1","0","","","","","","5","","","","","","","","",""
"","","","","","single-stim-button","61","258539","0.0-2.0-13.0-1.0","5f4d5f9f835880a2aca8b996","C3","batch3","","2603","tol_toboard","","","","tol_peg_3","2603","2603","0","[[1,0,0],[3,0],[2]]","1","[[2,1,3],[0,0],[0]]","1","0","","","","","","5","","","","","","","","",""
"","","","","","single-stim-button","62","259682","0.0-2.0-13.1-0.1","5f4d5f9f835880a2aca8b996","C3","batch3","","1143","tol_tohand","","","","tol_peg_1","1143","1143","0","[[0,0,0],[3,0],[2]]","2","[[2,1,3],[0,0],[0]]","1","0","","","","","","5","","","","","","","","",""
"","","","","","single-stim-button","63","260237","0.0-2.0-13.1-1.1","5f4d5f9f835880a2aca8b996","C3","batch3","","554","tol_toboard","","","","tol_peg_2","554","554","0","[[0,0,0],[3,1],[2]]","2","[[2,1,3],[0,0],[0]]","1","0","","","","","","5","","","","","","","","",""
"","","","","","single-stim-button","64","260832","0.0-2.0-13.2-0.2","5f4d5f9f835880a2aca8b996","C3","batch3","","594","tol_tohand","","","","tol_peg_3","594","594","0","[[0,0,0],[3,1],[0]]","3","[[2,1,3],[0,0],[0]]","1","0","","","","","","5","","","","","","","","",""
"","","","","","single-stim-button","65","261761","0.0-2.0-13.2-1.2","5f4d5f9f835880a2aca8b996","C3","batch3","","929","tol_toboard","","","","tol_peg_1","929","929","0","[[2,0,0],[3,1],[0]]","3","[[2,1,3],[0,0],[0]]","1","0","","","","","","5","","","","","","","","",""
"","","","","","single-stim-button","66","262841","0.0-2.0-13.3-0.3","5f4d5f9f835880a2aca8b996","C3","batch3","","1080","tol_tohand","","","","tol_peg_2","1080","1080","0","[[2,0,0],[3,0],[0]]","4","[[2,1,3],[0,0],[0]]","1","0","","","","","","5","","","","","","","","",""
"","","","","","single-stim-button","67","263537","0.0-2.0-13.3-1.3","5f4d5f9f835880a2aca8b996","C3","batch3","","696","tol_toboard","","","","tol_peg_1","696","696","0","[[2,1,0],[3,0],[0]]","4","[[2,1,3],[0,0],[0]]","1","0","","","","","","5","","","","","","","","",""
"","","","","","single-stim-button","68","264062","0.0-2.0-13.4-0.4","5f4d5f9f835880a2aca8b996","C3","batch3","","525","tol_tohand","","","","tol_peg_2","525","525","0","[[2,1,0],[0,0],[0]]","5","[[2,1,3],[0,0],[0]]","1","0","","","","","","5","","","","","","","","",""
"","","","","","single-stim-button","69","264951","0.0-2.0-13.4-1.4","5f4d5f9f835880a2aca8b996","C3","batch3","","889","tol_toboard","","","","tol_peg_1","889","889","0","[[2,1,3],[0,0],[0]]","5","[[2,1,3],[0,0],[0]]","1","0","","","","","","5","","","","","","","","",""
"","","","","","poldrack-single-stim","70","265962","0.0-2.0-14.0","5f4d5f9f835880a2aca8b996","C3","batch3","","-1","tol_feedback","","","true","","1000","1000","500","","","","","","-1","none","true","4598","7940","","","","","","","","","",""
"","","","","","html-button-response","71","266977","0.0-2.0-15.0","5f4d5f9f835880a2aca8b996","C3","batch3","","1013.7999997138977","tol_trial_num","<div class = centerbox><p class = center-block-text>problem <strong>3</strong> out of 25 problems</p></div>","0","","","","","","","","","","","","","","","","","","","","","","","","",""
"","","","","","single-stim-button","72","268526","0.0-2.0-16.0-0.0","5f4d5f9f835880a2aca8b996","C3","batch3","","1549","tol_tohand","","","","tol_peg_1","1549","1549","0","[[2,0,0],[0,0],[1]]","1","[[1,2,0],[3,0],[0]]","2","0","","","","","","4","","","","","","","","",""
"","","","","","single-stim-button","73","270052","0.0-2.0-16.0-1.0","5f4d5f9f835880a2aca8b996","C3","batch3","","1525","tol_toboard","","","","tol_peg_2","1525","1525","0","[[2,0,0],[3,0],[1]]","1","[[1,2,0],[3,0],[0]]","2","0","","","","","","4","","","","","","","","",""
"","","","","","single-stim-button","74","271256","0.0-2.0-16.1-0.1","5f4d5f9f835880a2aca8b996","C3","batch3","","1203","tol_tohand","","","","tol_peg_1","1203","1203","0","[[0,0,0],[3,0],[1]]","2","[[1,2,0],[3,0],[0]]","2","0","","","","","","4","","","","","","","","",""
"","","","","","single-stim-button","75","272365","0.0-2.0-16.1-1.1","5f4d5f9f835880a2aca8b996","C3","batch3","","1109","tol_toboard","","","","tol_peg_2","1109","1109","0","[[0,0,0],[3,2],[1]]","2","[[1,2,0],[3,0],[0]]","2","0","","","","","","4","","","","","","","","",""
"","","","","","single-stim-button","76","272866","0.0-2.0-16.2-0.2","5f4d5f9f835880a2aca8b996","C3","batch3","","500","tol_tohand","","","","tol_peg_3","500","500","0","[[0,0,0],[3,2],[0]]","3","[[1,2,0],[3,0],[0]]","2","0","","","","","","4","","","","","","","","",""
"","","","","","single-stim-button","77","273679","0.0-2.0-16.2-1.2","5f4d5f9f835880a2aca8b996","C3","batch3","","813","tol_toboard","","","","tol_peg_1","813","813","0","[[1,0,0],[3,2],[0]]","3","[[1,2,0],[3,0],[0]]","2","0","","","","","","4","","","","","","","","",""
"","","","","","single-stim-button","78","274156","0.0-2.0-16.3-0.3","5f4d5f9f835880a2aca8b996","C3","batch3","","476","tol_tohand","","","","tol_peg_2","476","476","0","[[1,0,0],[3,0],[0]]","4","[[1,2,0],[3,0],[0]]","2","0","","","","","","4","","","","","","","","",""
"","","","","","single-stim-button","79","274601","0.0-2.0-16.3-1.3","5f4d5f9f835880a2aca8b996","C3","batch3","","445","tol_toboard","","","","tol_peg_1","445","445","0","[[1,2,0],[3,0],[0]]","4","[[1,2,0],[3,0],[0]]","2","0","","","","","","4","","","","","","","","",""
"","","","","","poldrack-single-stim","80","275612","0.0-2.0-17.0","5f4d5f9f835880a2aca8b996","C3","batch3","","-1","tol_feedback","","","true","","1000","1000","500","","","","","","-1","none","true","1549","3728","","","","","","","","","",""
"","","","","","html-button-response","81","276668","0.0-2.0-18.0","5f4d5f9f835880a2aca8b996","C3","batch3","","1054.4000000953674","tol_trial_num","<div class = centerbox><p class = center-block-text>problem <strong>4</strong> out of 25 problems</p></div>","0","","","","","","","","","","","","","","","","","","","","","","","","",""
"","","","","","single-stim-button","82","280186","0.0-2.0-19.0-0.0","5f4d5f9f835880a2aca8b996","C3","batch3","","3518","tol_tohand","","","","tol_peg_2","3518","3518","0","[[3,0,0],[2,0],[0]]","1","[[3,0,0],[1,0],[2]]","3","0","","","","","","3","","","","","","","","",""
"","","","","","single-stim-button","83","281015","0.0-2.0-19.0-1.0","5f4d5f9f835880a2aca8b996","C3","batch3","","829","tol_toboard","","","","tol_peg_1","829","829","0","[[3,1,0],[2,0],[0]]","1","[[3,0,0],[1,0],[2]]","3","0","","","","","","3","","","","","","","","",""
"","","","","","single-stim-button","84","281553","0.0-2.0-19.1-0.1","5f4d5f9f835880a2aca8b996","C3","batch3","","538","tol_tohand","","","","tol_peg_2","538","538","0","[[3,1,0],[0,0],[0]]","2","[[3,0,0],[1,0],[2]]","3","0","","","","","","3","","","","","","","","",""
"","","","","","single-stim-button","85","282008","0.0-2.0-19.1-1.1","5f4d5f9f835880a2aca8b996","C3","batch3","","454","tol_toboard","","","","tol_peg_3","454","454","0","[[3,1,0],[0,0],[2]]","2","[[3,0,0],[1,0],[2]]","3","0","","","","","","3","","","","","","","","",""
"","","","","","single-stim-button","86","282633","0.0-2.0-19.2-0.2","5f4d5f9f835880a2aca8b996","C3","batch3","","624","tol_tohand","","","","tol_peg_1","624","624","0","[[3,0,0],[0,0],[2]]","3","[[3,0,0],[1,0],[2]]","3","0","","","","","","3","","","","","","","","",""
"","","","","","single-stim-button","87","283173","0.0-2.0-19.2-1.2","5f4d5f9f835880a2aca8b996","C3","batch3","","540","tol_toboard","","","","tol_peg_2","540","540","0","[[3,0,0],[1,0],[2]]","3","[[3,0,0],[1,0],[2]]","3","0","","","","","","3","","","","","","","","",""
"","","","","","poldrack-single-stim","88","284175","0.0-2.0-20.0","5f4d5f9f835880a2aca8b996","C3","batch3","","-1","tol_feedback","","","true","","1000","1000","500","","","","","","-1","none","true","3518","4680","","","","","","","","","",""
"","","","","","html-button-response","89","285049","0.0-2.0-21.0","5f4d5f9f835880a2aca8b996","C3","batch3","","873.3999996185303","tol_trial_num","<div class = centerbox><p class = center-block-text>problem <strong>5</strong> out of 25 problems</p></div>","0","","","","","","","","","","","","","","","","","","","","","","","","",""
"","","","","","single-stim-button","90","288201","0.0-2.0-22.0-0.0","5f4d5f9f835880a2aca8b996","C3","batch3","","3151","tol_tohand","","","","tol_peg_2","3151","3151","0","[[1,0,0],[0,0],[3]]","1","[[0,0,0],[1,2],[3]]","4","0","","","","","","7","","","","","","","","",""
"","","","","","single-stim-button","91","293746","0.0-2.0-22.0-1.0","5f4d5f9f835880a2aca8b996","C3","batch3","","5544","tol_toboard","","","","tol_peg_1","5544","5544","0","[[1,2,0],[0,0],[3]]","1","[[0,0,0],[1,2],[3]]","4","0","","","","","","7","","","","","","","","",""
"","","","","","single-stim-button","92","296865","0.0-2.0-22.1-0.1","5f4d5f9f835880a2aca8b996","C3","batch3","","3119","tol_tohand","","","","tol_peg_3","3119","3119","0","[[1,2,0],[0,0],[0]]","2","[[0,0,0],[1,2],[3]]","4","0","","","","","","7","","","","","","","","",""
"","","","","","single-stim-button","93","298751","0.0-2.0-22.1-1.1","5f4d5f9f835880a2aca8b996","C3","batch3","","1885","tol_toboard","","","","tol_peg_2","1885","1885","0","[[1,2,0],[3,0],[0]]","2","[[0,0,0],[1,2],[3]]","4","0","","","","","","7","","","","","","","","",""
"","","","","","single-stim-button","94","299853","0.0-2.0-22.2-0.2","5f4d5f9f835880a2aca8b996","C3","batch3","","1102","tol_tohand","","","","tol_peg_1","1102","1102","0","[[1,0,0],[3,0],[0]]","3","[[0,0,0],[1,2],[3]]","4","0","","","","","","7","","","","","","","","",""
"","","","","","single-stim-button","95","300509","0.0-2.0-22.2-1.2","5f4d5f9f835880a2aca8b996","C3","batch3","","655","tol_toboard","","","","tol_peg_3","655","655","0","[[1,0,0],[3,0],[2]]","3","[[0,0,0],[1,2],[3]]","4","0","","","","","","7","","","","","","","","",""
"","","","","","single-stim-button","96","306101","0.0-2.0-22.3-0.3","5f4d5f9f835880a2aca8b996","C3","batch3","","5592","tol_tohand","","","","tol_peg_2","5592","5592","0","[[1,0,0],[0,0],[2]]","4","[[0,0,0],[1,2],[3]]","4","0","","","","","","7","","","","","","","","",""
"","","","","","single-stim-button","97","308331","0.0-2.0-22.3-1.3","5f4d5f9f835880a2aca8b996","C3","batch3","","2229","tol_toboard","","","","tol_peg_1","2229","2229","0","[[1,3,0],[0,0],[2]]","4","[[0,0,0],[1,2],[3]]","4","0","","","","","","7","","","","","","","","",""
"","","","","","single-stim-button","98","308823","0.0-2.0-22.4-0.4","5f4d5f9f835880a2aca8b996","C3","batch3","","492","tol_tohand","","","","tol_peg_3","492","492","0","[[1,3,0],[0,0],[0]]","5","[[0,0,0],[1,2],[3]]","4","0","","","","","","7","","","","","","","","",""
"","","","","","single-stim-button","99","309417","0.0-2.0-22.4-1.4","5f4d5f9f835880a2aca8b996","C3","batch3","","594","tol_toboard","","","","tol_peg_2","594","594","0","[[1,3,0],[2,0],[0]]","5","[[0,0,0],[1,2],[3]]","4","0","","","","","","7","","","","","","","","",""
"","","","","","single-stim-button","100","309925","0.0-2.0-22.5-0.5","5f4d5f9f835880a2aca8b996","C3","batch3","","507","tol_tohand","","","","tol_peg_1","507","507","0","[[1,0,0],[2,0],[0]]","6","[[0,0,0],[1,2],[3]]","4","0","","","","","","7","","","","","","","","",""
"","","","","","single-stim-button","101","310855","0.0-2.0-22.5-1.5","5f4d5f9f835880a2aca8b996","C3","batch3","","930","tol_toboard","","","","tol_peg_3","930","930","0","[[1,0,0],[2,0],[3]]","6","[[0,0,0],[1,2],[3]]","4","0","","","","","","7","","","","","","","","",""
"","","","","","single-stim-button","102","312123","0.0-2.0-22.6-0.6","5f4d5f9f835880a2aca8b996","C3","batch3","","1267","tol_tohand","","","","tol_peg_1","1267","1267","0","[[0,0,0],[2,0],[3]]","7","[[0,0,0],[1,2],[3]]","4","0","","","","","","7","","","","","","","","",""
"","","","","","single-stim-button","103","312677","0.0-2.0-22.6-1.6","5f4d5f9f835880a2aca8b996","C3","batch3","","553","tol_toboard","","","","tol_peg_2","553","553","0","[[0,0,0],[2,1],[3]]","7","[[0,0,0],[1,2],[3]]","4","0","","","","","","7","","","","","","","","",""
"","","","","","single-stim-button","104","315361","0.0-2.0-22.7-0.7","5f4d5f9f835880a2aca8b996","C3","batch3","","2683","tol_tohand","","","","tol_peg_2","2683","2683","0","[[0,0,0],[2,0],[3]]","8","[[0,0,0],[1,2],[3]]","4","0","","","","","","7","","","","","","","","",""
"","","","","","single-stim-button","105","316487","0.0-2.0-22.7-1.7","5f4d5f9f835880a2aca8b996","C3","batch3","","1125","tol_toboard","","","","tol_peg_1","1125","1125","0","[[1,0,0],[2,0],[3]]","8","[[0,0,0],[1,2],[3]]","4","0","","","","","","7","","","","","","","","",""
"","","","","","single-stim-button","106","316955","0.0-2.0-22.8-0.8","5f4d5f9f835880a2aca8b996","C3","batch3","","467","tol_tohand","","","","tol_peg_2","467","467","0","[[1,0,0],[0,0],[3]]","9","[[0,0,0],[1,2],[3]]","4","0","","","","","","7","","","","","","","","",""
"","","","","","single-stim-button","107","317495","0.0-2.0-22.8-1.8","5f4d5f9f835880a2aca8b996","C3","batch3","","540","tol_toboard","","","","tol_peg_1","540","540","0","[[1,2,0],[0,0],[3]]","9","[[0,0,0],[1,2],[3]]","4","0","","","","","","7","","","","","","","","",""
"","","","","","single-stim-button","108","318389","0.0-2.0-22.9-0.9","5f4d5f9f835880a2aca8b996","C3","batch3","","893","tol_tohand","","","","tol_peg_3","893","893","0","[[1,2,0],[0,0],[0]]","10","[[0,0,0],[1,2],[3]]","4","0","","","","","","7","","","","","","","","",""
"","","","","","single-stim-button","109","320295","0.0-2.0-22.9-1.9","5f4d5f9f835880a2aca8b996","C3","batch3","","1906","tol_toboard","","","","tol_peg_2","1906","1906","0","[[1,2,0],[3,0],[0]]","10","[[0,0,0],[1,2],[3]]","4","0","","","","","","7","","","","","","","","",""
"","","","","","single-stim-button","110","320828","0.0-2.0-22.10-0.10","5f4d5f9f835880a2aca8b996","C3","batch3","","532","tol_tohand","","","","tol_peg_1","532","532","0","[[1,0,0],[3,0],[0]]","11","[[0,0,0],[1,2],[3]]","4","0","","","","","","7","","","","","","","","",""
"","","","","","single-stim-button","111","321311","0.0-2.0-22.10-1.10","5f4d5f9f835880a2aca8b996","C3","batch3","","483","tol_toboard","","","","tol_peg_2","483","483","0","[[1,0,0],[3,2],[0]]","11","[[0,0,0],[1,2],[3]]","4","0","","","","","","7","","","","","","","","",""
"","","","","","single-stim-button","112","322937","0.0-2.0-22.11-0.11","5f4d5f9f835880a2aca8b996","C3","batch3","","1626","tol_tohand","","","","tol_peg_1","1626","1626","0","[[0,0,0],[3,2],[0]]","12","[[0,0,0],[1,2],[3]]","4","0","","","","","","7","","","","","","","","",""
"","","","","","single-stim-button","113","323883","0.0-2.0-22.11-1.11","5f4d5f9f835880a2aca8b996","C3","batch3","","946","tol_toboard","","","","tol_peg_3","946","946","0","[[0,0,0],[3,2],[1]]","12","[[0,0,0],[1,2],[3]]","4","0","","","","","","7","","","","","","","","",""
"","","","","","single-stim-button","114","327419","0.0-2.0-22.12-0.12","5f4d5f9f835880a2aca8b996","C3","batch3","","3536","tol_tohand","","","","tol_peg_2","3536","3536","0","[[0,0,0],[3,0],[1]]","13","[[0,0,0],[1,2],[3]]","4","0","","","","","","7","","","","","","","","",""
"","","","","","single-stim-button","115","328045","0.0-2.0-22.12-1.12","5f4d5f9f835880a2aca8b996","C3","batch3","","626","tol_toboard","","","","tol_peg_1","626","626","0","[[2,0,0],[3,0],[1]]","13","[[0,0,0],[1,2],[3]]","4","0","","","","","","7","","","","","","","","",""
"","","","","","single-stim-button","116","328468","0.0-2.0-22.13-0.13","5f4d5f9f835880a2aca8b996","C3","batch3","","422","tol_tohand","","","","tol_peg_2","422","422","0","[[2,0,0],[0,0],[1]]","14","[[0,0,0],[1,2],[3]]","4","0","","","","","","7","","","","","","","","",""
"","","","","","single-stim-button","117","328873","0.0-2.0-22.13-1.13","5f4d5f9f835880a2aca8b996","C3","batch3","","405","tol_toboard","","","","tol_peg_1","405","405","0","[[2,3,0],[0,0],[1]]","14","[[0,0,0],[1,2],[3]]","4","0","","","","","","7","","","","","","","","",""
"","","","","","single-stim-button","118","329663","0.0-2.0-22.14-0.14","5f4d5f9f835880a2aca8b996","C3","batch3","","790","tol_tohand","","","","tol_peg_3","790","790","0","[[2,3,0],[0,0],[0]]","15","[[0,0,0],[1,2],[3]]","4","0","","","","","","7","","","","","","","","",""
"","","","","","single-stim-button","119","330289","0.0-2.0-22.14-1.14","5f4d5f9f835880a2aca8b996","C3","batch3","","626","tol_toboard","","","","tol_peg_2","626","626","0","[[2,3,0],[1,0],[0]]","15","[[0,0,0],[1,2],[3]]","4","0","","","","","","7","","","","","","","","",""
"","","","","","single-stim-button","120","331235","0.0-2.0-22.15-0.15","5f4d5f9f835880a2aca8b996","C3","batch3","","946","tol_tohand","","","","tol_peg_1","946","946","0","[[2,0,0],[1,0],[0]]","16","[[0,0,0],[1,2],[3]]","4","0","","","","","","7","","","","","","","","",""
"","","","","","single-stim-button","121","331939","0.0-2.0-22.15-1.15","5f4d5f9f835880a2aca8b996","C3","batch3","","704","tol_toboard","","","","tol_peg_3","704","704","0","[[2,0,0],[1,0],[3]]","16","[[0,0,0],[1,2],[3]]","4","0","","","","","","7","","","","","","","","",""
"","","","","","single-stim-button","122","332682","0.0-2.0-22.16-0.16","5f4d5f9f835880a2aca8b996","C3","batch3","","742","tol_tohand","","","","tol_peg_1","742","742","0","[[0,0,0],[1,0],[3]]","17","[[0,0,0],[1,2],[3]]","4","0","","","","","","7","","","","","","","","",""
"","","","","","single-stim-button","123","333229","0.0-2.0-22.16-1.16","5f4d5f9f835880a2aca8b996","C3","batch3","","547","tol_toboard","","","","tol_peg_2","547","547","0","[[0,0,0],[1,2],[3]]","17","[[0,0,0],[1,2],[3]]","4","0","","","","","","7","","","","","","","","",""
"","","","","","poldrack-single-stim","124","334233","0.0-2.0-23.0","5f4d5f9f835880a2aca8b996","C3","batch3","","-1","tol_feedback","","","true","","1000","1000","500","","","","","","-1","none","true","3151","27867","","","","","","","","","",""
"","","","","","html-button-response","125","334974","0.0-2.0-24.0","5f4d5f9f835880a2aca8b996","C3","batch3","","738.8000001907349","tol_trial_num","<div class = centerbox><p class = center-block-text>problem <strong>6</strong> out of 25 problems</p></div>","0","","","","","","","","","","","","","","","","","","","","","","","","",""
"","","","","","single-stim-button","126","344577","0.0-2.0-25.0-0.0","5f4d5f9f835880a2aca8b996","C3","batch3","","9603","tol_tohand","","","","tol_peg_3","9603","9603","0","[[0,0,0],[1,2],[0]]","1","[[1,0,0],[2,3],[0]]","5","0","","","","","","6","","","","","","","","",""
"","","","","","single-stim-button","127","345373","0.0-2.0-25.0-1.0","5f4d5f9f835880a2aca8b996","C3","batch3","","796","tol_toboard","","","","tol_peg_1","796","796","0","[[3,0,0],[1,2],[0]]","1","[[1,0,0],[2,3],[0]]","5","0","","","","","","6","","","","","","","","",""
"","","","","","single-stim-button","128","348689","0.0-2.0-25.1-0.1","5f4d5f9f835880a2aca8b996","C3","batch3","","3315","tol_tohand","","","","tol_peg_2","3315","3315","0","[[3,0,0],[1,0],[0]]","2","[[1,0,0],[2,3],[0]]","5","0","","","","","","6","","","","","","","","",""
"","","","","","single-stim-button","129","351286","0.0-2.0-25.1-1.1","5f4d5f9f835880a2aca8b996","C3","batch3","","2596","tol_toboard","","","","tol_peg_1","2596","2596","0","[[3,2,0],[1,0],[0]]","2","[[1,0,0],[2,3],[0]]","5","0","","","","","","6","","","","","","","","",""
"","","","","","single-stim-button","130","351702","0.0-2.0-25.2-0.2","5f4d5f9f835880a2aca8b996","C3","batch3","","416","tol_tohand","","","","tol_peg_2","416","416","0","[[3,2,0],[0,0],[0]]","3","[[1,0,0],[2,3],[0]]","5","0","","","","","","6","","","","","","","","",""
"","","","","","single-stim-button","131","352169","0.0-2.0-25.2-1.2","5f4d5f9f835880a2aca8b996","C3","batch3","","467","tol_toboard","","","","tol_peg_3","467","467","0","[[3,2,0],[0,0],[1]]","3","[[1,0,0],[2,3],[0]]","5","0","","","","","","6","","","","","","","","",""
"","","","","","single-stim-button","132","352992","0.0-2.0-25.3-0.3","5f4d5f9f835880a2aca8b996","C3","batch3","","822","tol_tohand","","","","tol_peg_1","822","822","0","[[3,0,0],[0,0],[1]]","4","[[1,0,0],[2,3],[0]]","5","0","","","","","","6","","","","","","","","",""
"","","","","","single-stim-button","133","353875","0.0-2.0-25.3-1.3","5f4d5f9f835880a2aca8b996","C3","batch3","","883","tol_toboard","","","","tol_peg_2","883","883","0","[[3,0,0],[2,0],[1]]","4","[[1,0,0],[2,3],[0]]","5","0","","","","","","6","","","","","","","","",""
"","","","","","single-stim-button","134","354515","0.0-2.0-25.4-0.4","5f4d5f9f835880a2aca8b996","C3","batch3","","640","tol_tohand","","","","tol_peg_1","640","640","0","[[0,0,0],[2,0],[1]]","5","[[1,0,0],[2,3],[0]]","5","0","","","","","","6","","","","","","","","",""
"","","","","","single-stim-button","135","355015","0.0-2.0-25.4-1.4","5f4d5f9f835880a2aca8b996","C3","batch3","","500","tol_toboard","","","","tol_peg_2","500","500","0","[[0,0,0],[2,3],[1]]","5","[[1,0,0],[2,3],[0]]","5","0","","","","","","6","","","","","","","","",""
"","","","","","single-stim-button","136","355493","0.0-2.0-25.5-0.5","5f4d5f9f835880a2aca8b996","C3","batch3","","477","tol_tohand","","","","tol_peg_3","477","477","0","[[0,0,0],[2,3],[0]]","6","[[1,0,0],[2,3],[0]]","5","0","","","","","","6","","","","","","","","",""
"","","","","","single-stim-button","137","356259","0.0-2.0-25.5-1.5","5f4d5f9f835880a2aca8b996","C3","batch3","","766","tol_toboard","","","","tol_peg_1","766","766","0","[[1,0,0],[2,3],[0]]","6","[[1,0,0],[2,3],[0]]","5","0","","","","","","6","","","","","","","","",""
"","","","","","poldrack-single-stim","138","357270","0.0-2.0-26.0","5f4d5f9f835880a2aca8b996","C3","batch3","","-1","tol_feedback","","","true","","1000","1000","500","","","","","","-1","none","true","9603","15273","","","","","","","","","",""
"","","","","","html-button-response","139","358192","0.0-2.0-27.0","5f4d5f9f835880a2aca8b996","C3","batch3","","920.5","tol_trial_num","<div class = centerbox><p class = center-block-text>problem <strong>7</strong> out of 25 problems</p></div>","0","","","","","","","","","","","","","","","","","","","","","","","","",""
"","","","","","single-stim-button","140","373887","0.0-2.0-28.0-0.0","5f4d5f9f835880a2aca8b996","C3","batch3","","15695","tol_tohand","","","","tol_peg_1","15695","15695","0","[[2,0,0],[0,0],[3]]","1","[[1,2,0],[3,0],[0]]","6","0","","","","","","5","","","","","","","","",""
"","","","","","single-stim-button","141","374693","0.0-2.0-28.0-1.0","5f4d5f9f835880a2aca8b996","C3","batch3","","805","tol_toboard","","","","tol_peg_2","805","805","0","[[2,0,0],[1,0],[3]]","1","[[1,2,0],[3,0],[0]]","6","0","","","","","","5","","","","","","","","",""
"","","","","","single-stim-button","142","377860","0.0-2.0-28.1-0.1","5f4d5f9f835880a2aca8b996","C3","batch3","","3167","tol_tohand","","","","tol_peg_3","3167","3167","0","[[2,0,0],[1,0],[0]]","2","[[1,2,0],[3,0],[0]]","6","0","","","","","","5","","","","","","","","",""
"","","","","","single-stim-button","143","378359","0.0-2.0-28.1-1.1","5f4d5f9f835880a2aca8b996","C3","batch3","","499","tol_toboard","","","","tol_peg_2","499","499","0","[[2,0,0],[1,3],[0]]","2","[[1,2,0],[3,0],[0]]","6","0","","","","","","5","","","","","","","","",""
"","","","","","single-stim-button","144","378814","0.0-2.0-28.2-0.2","5f4d5f9f835880a2aca8b996","C3","batch3","","454","tol_tohand","","","","tol_peg_1","454","454","0","[[0,0,0],[1,3],[0]]","3","[[1,2,0],[3,0],[0]]","6","0","","","","","","5","","","","","","","","",""
"","","","","","single-stim-button","145","379501","0.0-2.0-28.2-1.2","5f4d5f9f835880a2aca8b996","C3","batch3","","687","tol_toboard","","","","tol_peg_3","687","687","0","[[0,0,0],[1,3],[2]]","3","[[1,2,0],[3,0],[0]]","6","0","","","","","","5","","","","","","","","",""
"","","","","","single-stim-button","146","386719","0.0-2.0-28.3-0.3","5f4d5f9f835880a2aca8b996","C3","batch3","","7217","tol_tohand","","","","tol_peg_2","7217","7217","0","[[0,0,0],[1,0],[2]]","4","[[1,2,0],[3,0],[0]]","6","0","","","","","","5","","","","","","","","",""
"","","","","","single-stim-button","147","387337","0.0-2.0-28.3-1.3","5f4d5f9f835880a2aca8b996","C3","batch3","","618","tol_toboard","","","","tol_peg_1","618","618","0","[[3,0,0],[1,0],[2]]","4","[[1,2,0],[3,0],[0]]","6","0","","","","","","5","","","","","","","","",""
"","","","","","single-stim-button","148","391491","0.0-2.0-28.4-0.4","5f4d5f9f835880a2aca8b996","C3","batch3","","4153","tol_tohand","","","","tol_peg_2","4153","4153","0","[[3,0,0],[0,0],[2]]","5","[[1,2,0],[3,0],[0]]","6","0","","","","","","5","","","","","","","","",""
"","","","","","single-stim-button","149","392500","0.0-2.0-28.4-1.4","5f4d5f9f835880a2aca8b996","C3","batch3","","1009","tol_toboard","","","","tol_peg_1","1009","1009","0","[[3,1,0],[0,0],[2]]","5","[[1,2,0],[3,0],[0]]","6","0","","","","","","5","","","","","","","","",""
"","","","","","single-stim-button","150","396809","0.0-2.0-28.5-0.5","5f4d5f9f835880a2aca8b996","C3","batch3","","4309","tol_tohand","","","","tol_peg_3","4309","4309","0","[[3,1,0],[0,0],[0]]","6","[[1,2,0],[3,0],[0]]","6","0","","","","","","5","","","","","","","","",""
"","","","","","single-stim-button","151","397551","0.0-2.0-28.5-1.5","5f4d5f9f835880a2aca8b996","C3","batch3","","740","tol_toboard","","","","tol_peg_2","740","740","0","[[3,1,0],[2,0],[0]]","6","[[1,2,0],[3,0],[0]]","6","0","","","","","","5","","","","","","","","",""
"","","","","","single-stim-button","152","398177","0.0-2.0-28.6-0.6","5f4d5f9f835880a2aca8b996","C3","batch3","","626","tol_tohand","","","","tol_peg_1","626","626","0","[[3,0,0],[2,0],[0]]","7","[[1,2,0],[3,0],[0]]","6","0","","","","","","5","","","","","","","","",""
"","","","","","single-stim-button","153","398849","0.0-2.0-28.6-1.6","5f4d5f9f835880a2aca8b996","C3","batch3","","672","tol_toboard","","","","tol_peg_3","672","672","0","[[3,0,0],[2,0],[1]]","7","[[1,2,0],[3,0],[0]]","6","0","","","","","","5","","","","","","","","",""
"","","","","","single-stim-button","154","399844","0.0-2.0-28.7-0.7","5f4d5f9f835880a2aca8b996","C3","batch3","","994","tol_tohand","","","","tol_peg_1","994","994","0","[[0,0,0],[2,0],[1]]","8","[[1,2,0],[3,0],[0]]","6","0","","","","","","5","","","","","","","","",""
"","","","","","single-stim-button","155","400295","0.0-2.0-28.7-1.7","5f4d5f9f835880a2aca8b996","C3","batch3","","450","tol_toboard","","","","tol_peg_2","450","450","0","[[0,0,0],[2,3],[1]]","8","[[1,2,0],[3,0],[0]]","6","0","","","","","","5","","","","","","","","",""
"","","","","","single-stim-button","156","403331","0.0-2.0-28.8-0.8","5f4d5f9f835880a2aca8b996","C3","batch3","","3035","tol_tohand","","","","tol_peg_3","3035","3035","0","[[0,0,0],[2,3],[0]]","9","[[1,2,0],[3,0],[0]]","6","0","","","","","","5","","","","","","","","",""
"","","","","","single-stim-button","157","404019","0.0-2.0-28.8-1.8","5f4d5f9f835880a2aca8b996","C3","batch3","","687","tol_toboard","","","","tol_peg_1","687","687","0","[[1,0,0],[2,3],[0]]","9","[[1,2,0],[3,0],[0]]","6","0","","","","","","5","","","","","","","","",""
"","","","","","single-stim-button","158","405302","0.0-2.0-28.9-0.9","5f4d5f9f835880a2aca8b996","C3","batch3","","1283","tol_tohand","","","","tol_peg_2","1283","1283","0","[[1,0,0],[2,0],[0]]","10","[[1,2,0],[3,0],[0]]","6","0","","","","","","5","","","","","","","","",""
"","","","","","single-stim-button","159","405817","0.0-2.0-28.9-1.9","5f4d5f9f835880a2aca8b996","C3","batch3","","515","tol_toboard","","","","tol_peg_3","515","515","0","[[1,0,0],[2,0],[3]]","10","[[1,2,0],[3,0],[0]]","6","0","","","","","","5","","","","","","","","",""
"","","","","","single-stim-button","160","406304","0.0-2.0-28.10-0.10","5f4d5f9f835880a2aca8b996","C3","batch3","","487","tol_tohand","","","","tol_peg_2","487","487","0","[[1,0,0],[0,0],[3]]","11","[[1,2,0],[3,0],[0]]","6","0","","","","","","5","","","","","","","","",""
"","","","","","single-stim-button","161","406811","0.0-2.0-28.10-1.10","5f4d5f9f835880a2aca8b996","C3","batch3","","507","tol_toboard","","","","tol_peg_1","507","507","0","[[1,2,0],[0,0],[3]]","11","[[1,2,0],[3,0],[0]]","6","0","","","","","","5","","","","","","","","",""
"","","","","","single-stim-button","162","408148","0.0-2.0-28.11-0.11","5f4d5f9f835880a2aca8b996","C3","batch3","","1337","tol_tohand","","","","tol_peg_3","1337","1337","0","[[1,2,0],[0,0],[0]]","12","[[1,2,0],[3,0],[0]]","6","0","","","","","","5","","","","","","","","",""
"","","","","","single-stim-button","163","408735","0.0-2.0-28.11-1.11","5f4d5f9f835880a2aca8b996","C3","batch3","","586","tol_toboard","","","","tol_peg_2","586","586","0","[[1,2,0],[3,0],[0]]","12","[[1,2,0],[3,0],[0]]","6","0","","","","","","5","","","","","","","","",""
"","","","","","poldrack-single-stim","164","409749","0.0-2.0-29.0","5f4d5f9f835880a2aca8b996","C3","batch3","","-1","tol_feedback","","","true","","1000","1000","500","","","","","","-1","none","true","15695","42757","","","","","","","","","",""
"","","","","","html-button-response","165","410517","0.0-2.0-30.0","5f4d5f9f835880a2aca8b996","C3","batch3","","766.0999999046326","tol_trial_num","<div class = centerbox><p class = center-block-text>problem <strong>8</strong> out of 25 problems</p></div>","0","","","","","","","","","","","","","","","","","","","","","","","","",""
"","","","","","single-stim-button","166","414669","0.0-2.0-31.0-0.0","5f4d5f9f835880a2aca8b996","C3","batch3","","4152","tol_tohand","","","","tol_peg_3","4152","4152","0","[[0,0,0],[2,3],[0]]","1","[[1,2,0],[3,0],[0]]","7","0","","","","","","4","","","","","","","","",""
"","","","","","single-stim-button","167","415483","0.0-2.0-31.0-1.0","5f4d5f9f835880a2aca8b996","C3","batch3","","813","tol_toboard","","","","tol_peg_1","813","813","0","[[1,0,0],[2,3],[0]]","1","[[1,2,0],[3,0],[0]]","7","0","","","","","","4","","","","","","","","",""
"","","","","","single-stim-button","168","416483","0.0-2.0-31.1-0.1","5f4d5f9f835880a2aca8b996","C3","batch3","","999","tol_tohand","","","","tol_peg_2","999","999","0","[[1,0,0],[2,0],[0]]","2","[[1,2,0],[3,0],[0]]","7","0","","","","","","4","","","","","","","","",""
"","","","","","single-stim-button","169","417171","0.0-2.0-31.1-1.1","5f4d5f9f835880a2aca8b996","C3","batch3","","687","tol_toboard","","","","tol_peg_3","687","687","0","[[1,0,0],[2,0],[3]]","2","[[1,2,0],[3,0],[0]]","7","0","","","","","","4","","","","","","","","",""
"","","","","","single-stim-button","170","417768","0.0-2.0-31.2-0.2","5f4d5f9f835880a2aca8b996","C3","batch3","","596","tol_tohand","","","","tol_peg_2","596","596","0","[[1,0,0],[0,0],[3]]","3","[[1,2,0],[3,0],[0]]","7","0","","","","","","4","","","","","","","","",""
"","","","","","single-stim-button","171","418292","0.0-2.0-31.2-1.2","5f4d5f9f835880a2aca8b996","C3","batch3","","523","tol_toboard","","","","tol_peg_1","523","523","0","[[1,2,0],[0,0],[3]]","3","[[1,2,0],[3,0],[0]]","7","0","","","","","","4","","","","","","","","",""
"","","","","","single-stim-button","172","418939","0.0-2.0-31.3-0.3","5f4d5f9f835880a2aca8b996","C3","batch3","","647","tol_tohand","","","","tol_peg_3","647","647","0","[[1,2,0],[0,0],[0]]","4","[[1,2,0],[3,0],[0]]","7","0","","","","","","4","","","","","","","","",""
"","","","","","single-stim-button","173","419509","0.0-2.0-31.3-1.3","5f4d5f9f835880a2aca8b996","C3","batch3","","569","tol_toboard","","","","tol_peg_2","569","569","0","[[1,2,0],[3,0],[0]]","4","[[1,2,0],[3,0],[0]]","7","0","","","","","","4","","","","","","","","",""
"","","","","","poldrack-single-stim","174","420511","0.0-2.0-32.0","5f4d5f9f835880a2aca8b996","C3","batch3","","-1","tol_feedback","","","true","","1000","1000","500","","","","","","-1","none","true","4152","6394","","","","","","","","","",""
"","","","","","html-button-response","175","421237","0.0-2.0-33.0","5f4d5f9f835880a2aca8b996","C3","batch3","","724.8000001907349","tol_trial_num","<div class = centerbox><p class = center-block-text>problem <strong>9</strong> out of 25 problems</p></div>","0","","","","","","","","","","","","","","","","","","","","","","","","",""
"","","","","","single-stim-button","176","428113","0.0-2.0-34.0-0.0","5f4d5f9f835880a2aca8b996","C3","batch3","","6876","tol_tohand","","","","tol_peg_3","6876","6876","0","[[3,2,0],[0,0],[0]]","1","[[2,1,0],[3,0],[0]]","8","0","","","","","","6","","","","","","","","",""
"","","","","","single-stim-button","177","428746","0.0-2.0-34.0-1.0","5f4d5f9f835880a2aca8b996","C3","batch3","","632","tol_toboard","","","","tol_peg_2","632","632","0","[[3,2,0],[1,0],[0]]","1","[[2,1,0],[3,0],[0]]","8","0","","","","","","6","","","","","","","","",""
"","","","","","single-stim-button","178","429552","0.0-2.0-34.1-0.1","5f4d5f9f835880a2aca8b996","C3","batch3","","806","tol_tohand","","","","tol_peg_1","806","806","0","[[3,0,0],[1,0],[0]]","2","[[2,1,0],[3,0],[0]]","8","0","","","","","","6","","","","","","","","",""
"","","","","","single-stim-button","179","430404","0.0-2.0-34.1-1.1","5f4d5f9f835880a2aca8b996","C3","batch3","","852","tol_toboard","","","","tol_peg_3","852","852","0","[[3,0,0],[1,0],[2]]","2","[[2,1,0],[3,0],[0]]","8","0","","","","","","6","","","","","","","","",""
"","","","","","single-stim-button","180","435095","0.0-2.0-34.2-0.2","5f4d5f9f835880a2aca8b996","C3","batch3","","4690","tol_tohand","","","","tol_peg_1","4690","4690","0","[[0,0,0],[1,0],[2]]","3","[[2,1,0],[3,0],[0]]","8","0","","","","","","6","","","","","","","","",""
"","","","","","single-stim-button","181","435644","0.0-2.0-34.2-1.2","5f4d5f9f835880a2aca8b996","C3","batch3","","549","tol_toboard","","","","tol_peg_2","549","549","0","[[0,0,0],[1,3],[2]]","3","[[2,1,0],[3,0],[0]]","8","0","","","","","","6","","","","","","","","",""
"","","","","","single-stim-button","182","436176","0.0-2.0-34.3-0.3","5f4d5f9f835880a2aca8b996","C3","batch3","","532","tol_tohand","","","","tol_peg_3","532","532","0","[[0,0,0],[1,3],[0]]","4","[[2,1,0],[3,0],[0]]","8","0","","","","","","6","","","","","","","","",""
"","","","","","single-stim-button","183","437169","0.0-2.0-34.3-1.3","5f4d5f9f835880a2aca8b996","C3","batch3","","993","tol_toboard","","","","tol_peg_1","993","993","0","[[2,0,0],[1,3],[0]]","4","[[2,1,0],[3,0],[0]]","8","0","","","","","","6","","","","","","","","",""
"","","","","","single-stim-button","184","438381","0.0-2.0-34.4-0.4","5f4d5f9f835880a2aca8b996","C3","batch3","","1211","tol_tohand","","","","tol_peg_2","1211","1211","0","[[2,0,0],[1,0],[0]]","5","[[2,1,0],[3,0],[0]]","8","0","","","","","","6","","","","","","","","",""
"","","","","","single-stim-button","185","438976","0.0-2.0-34.4-1.4","5f4d5f9f835880a2aca8b996","C3","batch3","","593","tol_toboard","","","","tol_peg_3","593","593","0","[[2,0,0],[1,0],[3]]","5","[[2,1,0],[3,0],[0]]","8","0","","","","","","6","","","","","","","","",""
"","","","","","single-stim-button","186","439381","0.0-2.0-34.5-0.5","5f4d5f9f835880a2aca8b996","C3","batch3","","405","tol_tohand","","","","tol_peg_2","405","405","0","[[2,0,0],[0,0],[3]]","6","[[2,1,0],[3,0],[0]]","8","0","","","","","","6","","","","","","","","",""
"","","","","","single-stim-button","187","439959","0.0-2.0-34.5-1.5","5f4d5f9f835880a2aca8b996","C3","batch3","","577","tol_toboard","","","","tol_peg_1","577","577","0","[[2,1,0],[0,0],[3]]","6","[[2,1,0],[3,0],[0]]","8","0","","","","","","6","","","","","","","","",""
"","","","","","single-stim-button","188","441618","0.0-2.0-34.6-0.6","5f4d5f9f835880a2aca8b996","C3","batch3","","1658","tol_tohand","","","","tol_peg_3","1658","1658","0","[[2,1,0],[0,0],[0]]","7","[[2,1,0],[3,0],[0]]","8","0","","","","","","6","","","","","","","","",""
"","","","","","single-stim-button","189","442383","0.0-2.0-34.6-1.6","5f4d5f9f835880a2aca8b996","C3","batch3","","764","tol_toboard","","","","tol_peg_2","764","764","0","[[2,1,0],[3,0],[0]]","7","[[2,1,0],[3,0],[0]]","8","0","","","","","","6","","","","","","","","",""
"","","","","","poldrack-single-stim","190","443385","0.0-2.0-35.0","5f4d5f9f835880a2aca8b996","C3","batch3","","-1","tol_feedback","","","true","","1000","1000","500","","","","","","-1","none","true","6876","16178","","","","","","","","","",""
"","","","","","html-button-response","191","444119","0.0-2.0-36.0","5f4d5f9f835880a2aca8b996","C3","batch3","","733","tol_trial_num","<div class = centerbox><p class = center-block-text>problem <strong>10</strong> out of 25 problems</p></div>","0","","","","","","","","","","","","","","","","","","","","","","","","",""
"","","","","","single-stim-button","192","447873","0.0-2.0-37.0-0.0","5f4d5f9f835880a2aca8b996","C3","batch3","","3754","tol_tohand","","","","tol_peg_2","3754","3754","0","[[3,0,0],[0,0],[2]]","1","[[3,0,0],[2,1],[0]]","9","0","","","","","","3","","","","","","","","",""
"","","","","","single-stim-button","193","448491","0.0-2.0-37.0-1.0","5f4d5f9f835880a2aca8b996","C3","batch3","","617","tol_toboard","","","","tol_peg_1","617","617","0","[[3,1,0],[0,0],[2]]","1","[[3,0,0],[2,1],[0]]","9","0","","","","","","3","","","","","","","","",""
"","","","","","single-stim-button","194","449822","0.0-2.0-37.1-0.1","5f4d5f9f835880a2aca8b996","C3","batch3","","1330","tol_tohand","","","","tol_peg_3","1330","1330","0","[[3,1,0],[0,0],[0]]","2","[[3,0,0],[2,1],[0]]","9","0","","","","","","3","","","","","","","","",""
"","","","","","single-stim-button","195","450368","0.0-2.0-37.1-1.1","5f4d5f9f835880a2aca8b996","C3","batch3","","545","tol_toboard","","","","tol_peg_2","545","545","0","[[3,1,0],[2,0],[0]]","2","[[3,0,0],[2,1],[0]]","9","0","","","","","","3","","","","","","","","",""
"","","","","","single-stim-button","196","450884","0.0-2.0-37.2-0.2","5f4d5f9f835880a2aca8b996","C3","batch3","","515","tol_tohand","","","","tol_peg_1","515","515","0","[[3,0,0],[2,0],[0]]","3","[[3,0,0],[2,1],[0]]","9","0","","","","","","3","","","","","","","","",""
"","","","","","single-stim-button","197","451697","0.0-2.0-37.2-1.2","5f4d5f9f835880a2aca8b996","C3","batch3","","813","tol_toboard","","","","tol_peg_2","813","813","0","[[3,0,0],[2,1],[0]]","3","[[3,0,0],[2,1],[0]]","9","0","","","","","","3","","","","","","","","",""
"","","","","","poldrack-single-stim","198","452707","0.0-2.0-38.0","5f4d5f9f835880a2aca8b996","C3","batch3","","-1","tol_feedback","","","true","","1000","1000","500","","","","","","-1","none","true","3754","5599","","","","","","","","","",""
"","","","","","html-button-response","199","453544","0.0-2.0-39.0","5f4d5f9f835880a2aca8b996","C3","batch3","","835.3000001907349","tol_trial_num","<div class = centerbox><p class = center-block-text>problem <strong>11</strong> out of 25 problems</p></div>","0","","","","","","","","","","","","","","","","","","","","","","","","",""
"","","","","","single-stim-button","200","456709","0.0-2.0-40.0-0.0","5f4d5f9f835880a2aca8b996","C3","batch3","","3165","tol_tohand","","","","tol_peg_2","3165","3165","0","[[1,2,0],[0,0],[0]]","1","[[2,0,0],[1,3],[0]]","10","0","","","","","","6","","","","","","","","",""
"","","","","","single-stim-button","201","458063","0.0-2.0-40.0-1.0","5f4d5f9f835880a2aca8b996","C3","batch3","","1353","tol_toboard","","","","tol_peg_3","1353","1353","0","[[1,2,0],[0,0],[3]]","1","[[2,0,0],[1,3],[0]]","10","0","","","","","","6","","","","","","","","",""
"","","","","","single-stim-button","202","460315","0.0-2.0-40.1-0.1","5f4d5f9f835880a2aca8b996","C3","batch3","","2251","tol_tohand","","","","tol_peg_1","2251","2251","0","[[1,0,0],[0,0],[3]]","2","[[2,0,0],[1,3],[0]]","10","0","","","","","","6","","","","","","","","",""
"","","","","","single-stim-button","203","462662","0.0-2.0-40.1-1.1","5f4d5f9f835880a2aca8b996","C3","batch3","","2345","tol_toboard","","","","tol_peg_2","2345","2345","0","[[1,0,0],[2,0],[3]]","2","[[2,0,0],[1,3],[0]]","10","0","","","","","","6","","","","","","","","",""
"","","","","","single-stim-button","204","468090","0.0-2.0-40.2-0.2","5f4d5f9f835880a2aca8b996","C3","batch3","","5428","tol_tohand","","","","tol_peg_1","5428","5428","0","[[0,0,0],[2,0],[3]]","3","[[2,0,0],[1,3],[0]]","10","0","","","","","","6","","","","","","","","",""
"","","","","","single-stim-button","205","468654","0.0-2.0-40.2-1.2","5f4d5f9f835880a2aca8b996","C3","batch3","","564","tol_toboard","","","","tol_peg_2","564","564","0","[[0,0,0],[2,1],[3]]","3","[[2,0,0],[1,3],[0]]","10","0","","","","","","6","","","","","","","","",""
"","","","","","single-stim-button","206","469256","0.0-2.0-40.3-0.3","5f4d5f9f835880a2aca8b996","C3","batch3","","602","tol_tohand","","","","tol_peg_3","602","602","0","[[0,0,0],[2,1],[0]]","4","[[2,0,0],[1,3],[0]]","10","0","","","","","","6","","","","","","","","",""
"","","","","","single-stim-button","207","469849","0.0-2.0-40.3-1.3","5f4d5f9f835880a2aca8b996","C3","batch3","","592","tol_toboard","","","","tol_peg_1","592","592","0","[[3,0,0],[2,1],[0]]","4","[[2,0,0],[1,3],[0]]","10","0","","","","","","6","","","","","","","","",""
"","","","","","single-stim-button","208","470929","0.0-2.0-40.4-0.4","5f4d5f9f835880a2aca8b996","C3","batch3","","1079","tol_tohand","","","","tol_peg_2","1079","1079","0","[[3,0,0],[2,0],[0]]","5","[[2,0,0],[1,3],[0]]","10","0","","","","","","6","","","","","","","","",""
"","","","","","single-stim-button","209","471648","0.0-2.0-40.4-1.4","5f4d5f9f835880a2aca8b996","C3","batch3","","717","tol_toboard","","","","tol_peg_3","717","717","0","[[3,0,0],[2,0],[1]]","5","[[2,0,0],[1,3],[0]]","10","0","","","","","","6","","","","","","","","",""
"","","","","","single-stim-button","210","474558","0.0-2.0-40.5-0.5","5f4d5f9f835880a2aca8b996","C3","batch3","","2909","tol_tohand","","","","tol_peg_1","2909","2909","0","[[0,0,0],[2,0],[1]]","6","[[2,0,0],[1,3],[0]]","10","0","","","","","","6","","","","","","","","",""
"","","","","","single-stim-button","211","475801","0.0-2.0-40.5-1.5","5f4d5f9f835880a2aca8b996","C3","batch3","","1243","tol_toboard","","","","tol_peg_2","1243","1243","0","[[0,0,0],[2,3],[1]]","6","[[2,0,0],[1,3],[0]]","10","0","","","","","","6","","","","","","","","",""
"","","","","","single-stim-button","212","476239","0.0-2.0-40.6-0.6","5f4d5f9f835880a2aca8b996","C3","batch3","","437","tol_tohand","","","","tol_peg_3","437","437","0","[[0,0,0],[2,3],[0]]","7","[[2,0,0],[1,3],[0]]","10","0","","","","","","6","","","","","","","","",""
"","","","","","single-stim-button","213","477051","0.0-2.0-40.6-1.6","5f4d5f9f835880a2aca8b996","C3","batch3","","812","tol_toboard","","","","tol_peg_1","812","812","0","[[1,0,0],[2,3],[0]]","7","[[2,0,0],[1,3],[0]]","10","0","","","","","","6","","","","","","","","",""
"","","","","","single-stim-button","214","477677","0.0-2.0-40.7-0.7","5f4d5f9f835880a2aca8b996","C3","batch3","","626","tol_tohand","","","","tol_peg_2","626","626","0","[[1,0,0],[2,0],[0]]","8","[[2,0,0],[1,3],[0]]","10","0","","","","","","6","","","","","","","","",""
"","","","","","single-stim-button","215","478381","0.0-2.0-40.7-1.7","5f4d5f9f835880a2aca8b996","C3","batch3","","703","tol_toboard","","","","tol_peg_3","703","703","0","[[1,0,0],[2,0],[3]]","8","[[2,0,0],[1,3],[0]]","10","0","","","","","","6","","","","","","","","",""
"","","","","","single-stim-button","216","480243","0.0-2.0-40.8-0.8","5f4d5f9f835880a2aca8b996","C3","batch3","","1861","tol_tohand","","","","tol_peg_2","1861","1861","0","[[1,0,0],[0,0],[3]]","9","[[2,0,0],[1,3],[0]]","10","0","","","","","","6","","","","","","","","",""
"","","","","","single-stim-button","217","481682","0.0-2.0-40.8-1.8","5f4d5f9f835880a2aca8b996","C3","batch3","","1439","tol_toboard","","","","tol_peg_1","1439","1439","0","[[1,2,0],[0,0],[3]]","9","[[2,0,0],[1,3],[0]]","10","0","","","","","","6","","","","","","","","",""
"","","","","","single-stim-button","218","483482","0.0-2.0-40.9-0.9","5f4d5f9f835880a2aca8b996","C3","batch3","","1799","tol_tohand","","","","tol_peg_3","1799","1799","0","[[1,2,0],[0,0],[0]]","10","[[2,0,0],[1,3],[0]]","10","0","","","","","","6","","","","","","","","",""
"","","","","","single-stim-button","219","484535","0.0-2.0-40.9-1.9","5f4d5f9f835880a2aca8b996","C3","batch3","","1053","tol_toboard","","","","tol_peg_2","1053","1053","0","[[1,2,0],[3,0],[0]]","10","[[2,0,0],[1,3],[0]]","10","0","","","","","","6","","","","","","","","",""
"","","","","","single-stim-button","220","485566","0.0-2.0-40.10-0.10","5f4d5f9f835880a2aca8b996","C3","batch3","","1031","tol_tohand","","","","tol_peg_1","1031","1031","0","[[1,0,0],[3,0],[0]]","11","[[2,0,0],[1,3],[0]]","10","0","","","","","","6","","","","","","","","",""
"","","","","","single-stim-button","221","487085","0.0-2.0-40.10-1.10","5f4d5f9f835880a2aca8b996","C3","batch3","","1518","tol_toboard","","","","tol_peg_3","1518","1518","0","[[1,0,0],[3,0],[2]]","11","[[2,0,0],[1,3],[0]]","10","0","","","","","","6","","","","","","","","",""
"","","","","","single-stim-button","222","488406","0.0-2.0-40.11-0.11","5f4d5f9f835880a2aca8b996","C3","batch3","","1320","tol_tohand","","","","tol_peg_1","1320","1320","0","[[0,0,0],[3,0],[2]]","12","[[2,0,0],[1,3],[0]]","10","0","","","","","","6","","","","","","","","",""
"","","","","","single-stim-button","223","493052","0.0-2.0-40.11-1.11","5f4d5f9f835880a2aca8b996","C3","batch3","","4646","tol_toboard","","","","tol_peg_2","4646","4646","0","[[0,0,0],[3,1],[2]]","12","[[2,0,0],[1,3],[0]]","10","0","","","","","","6","","","","","","","","",""
"","","","","","single-stim-button","224","493606","0.0-2.0-40.12-0.12","5f4d5f9f835880a2aca8b996","C3","batch3","","553","tol_tohand","","","","tol_peg_3","553","553","0","[[0,0,0],[3,1],[0]]","13","[[2,0,0],[1,3],[0]]","10","0","","","","","","6","","","","","","","","",""
"","","","","","single-stim-button","225","494505","0.0-2.0-40.12-1.12","5f4d5f9f835880a2aca8b996","C3","batch3","","899","tol_toboard","","","","tol_peg_1","899","899","0","[[2,0,0],[3,1],[0]]","13","[[2,0,0],[1,3],[0]]","10","0","","","","","","6","","","","","","","","",""
"","","","","","single-stim-button","226","495124","0.0-2.0-40.13-0.13","5f4d5f9f835880a2aca8b996","C3","batch3","","618","tol_tohand","","","","tol_peg_2","618","618","0","[[2,0,0],[3,0],[0]]","14","[[2,0,0],[1,3],[0]]","10","0","","","","","","6","","","","","","","","",""
"","","","","","single-stim-button","227","500762","0.0-2.0-40.13-1.13","5f4d5f9f835880a2aca8b996","C3","batch3","","5637","tol_toboard","","","","tol_peg_1","5637","5637","0","[[2,1,0],[3,0],[0]]","14","[[2,0,0],[1,3],[0]]","10","0","","","","","","6","","","","","","","","",""
"","","","","","single-stim-button","228","501270","0.0-2.0-40.14-0.14","5f4d5f9f835880a2aca8b996","C3","batch3","","507","tol_tohand","","","","tol_peg_2","507","507","0","[[2,1,0],[0,0],[0]]","15","[[2,0,0],[1,3],[0]]","10","0","","","","","","6","","","","","","","","",""
"","","","","","single-stim-button","229","501850","0.0-2.0-40.14-1.14","5f4d5f9f835880a2aca8b996","C3","batch3","","580","tol_toboard","","","","tol_peg_3","580","580","0","[[2,1,0],[0,0],[3]]","15","[[2,0,0],[1,3],[0]]","10","0","","","","","","6","","","","","","","","",""
"","","","","","single-stim-button","230","502883","0.0-2.0-40.15-0.15","5f4d5f9f835880a2aca8b996","C3","batch3","","1033","tol_tohand","","","","tol_peg_1","1033","1033","0","[[2,0,0],[0,0],[3]]","16","[[2,0,0],[1,3],[0]]","10","0","","","","","","6","","","","","","","","",""
"","","","","","single-stim-button","231","503547","0.0-2.0-40.15-1.15","5f4d5f9f835880a2aca8b996","C3","batch3","","663","tol_toboard","","","","tol_peg_2","663","663","0","[[2,0,0],[1,0],[3]]","16","[[2,0,0],[1,3],[0]]","10","0","","","","","","6","","","","","","","","",""
"","","","","","single-stim-button","232","503993","0.0-2.0-40.16-0.16","5f4d5f9f835880a2aca8b996","C3","batch3","","446","tol_tohand","","","","tol_peg_3","446","446","0","[[2,0,0],[1,0],[0]]","17","[[2,0,0],[1,3],[0]]","10","0","","","","","","6","","","","","","","","",""
"","","","","","single-stim-button","233","504586","0.0-2.0-40.16-1.16","5f4d5f9f835880a2aca8b996","C3","batch3","","593","tol_toboard","","","","tol_peg_2","593","593","0","[[2,0,0],[1,3],[0]]","17","[[2,0,0],[1,3],[0]]","10","0","","","","","","6","","","","","","","","",""
"","","","","","poldrack-single-stim","234","505599","0.0-2.0-41.0","5f4d5f9f835880a2aca8b996","C3","batch3","","-1","tol_feedback","","","true","","1000","1000","500","","","","","","-1","none","true","3165","25665","","","","","","","","","",""
"","","","","","html-button-response","235","506392","0.0-2.0-42.0","5f4d5f9f835880a2aca8b996","C3","batch3","","791.7000002861023","tol_trial_num","<div class = centerbox><p class = center-block-text>problem <strong>12</strong> out of 25 problems</p></div>","0","","","","","","","","","","","","","","","","","","","","","","","","",""
"","","","","","single-stim-button","236","510772","0.0-2.0-43.0-0.0","5f4d5f9f835880a2aca8b996","C3","batch3","","4380","tol_tohand","","","","tol_peg_1","4380","4380","0","[[1,0,0],[3,0],[0]]","1","[[2,3,0],[0,0],[1]]","11","0","","","","","","4","","","","","","","","",""
"","","","","","single-stim-button","237","511672","0.0-2.0-43.0-1.0","5f4d5f9f835880a2aca8b996","C3","batch3","","899","tol_toboard","","","","tol_peg_3","899","899","0","[[1,0,0],[3,0],[2]]","1","[[2,3,0],[0,0],[1]]","11","0","","","","","","4","","","","","","","","",""
"","","","","","single-stim-button","238","515294","0.0-2.0-43.1-0.1","5f4d5f9f835880a2aca8b996","C3","batch3","","3622","tol_tohand","","","","tol_peg_1","3622","3622","0","[[0,0,0],[3,0],[2]]","2","[[2,3,0],[0,0],[1]]","11","0","","","","","","4","","","","","","","","",""
"","","","","","single-stim-button","239","516045","0.0-2.0-43.1-1.1","5f4d5f9f835880a2aca8b996","C3","batch3","","749","tol_toboard","","","","tol_peg_2","749","749","0","[[0,0,0],[3,1],[2]]","2","[[2,3,0],[0,0],[1]]","11","0","","","","","","4","","","","","","","","",""
"","","","","","single-stim-button","240","516639","0.0-2.0-43.2-0.2","5f4d5f9f835880a2aca8b996","C3","batch3","","594","tol_tohand","","","","tol_peg_3","594","594","0","[[0,0,0],[3,1],[0]]","3","[[2,3,0],[0,0],[1]]","11","0","","","","","","4","","","","","","","","",""
"","","","","","single-stim-button","241","517444","0.0-2.0-43.2-1.2","5f4d5f9f835880a2aca8b996","C3","batch3","","805","tol_toboard","","","","tol_peg_1","805","805","0","[[2,0,0],[3,1],[0]]","3","[[2,3,0],[0,0],[1]]","11","0","","","","","","4","","","","","","","","",""
"","","","","","single-stim-button","242","518399","0.0-2.0-43.3-0.3","5f4d5f9f835880a2aca8b996","C3","batch3","","954","tol_tohand","","","","tol_peg_2","954","954","0","[[2,0,0],[3,0],[0]]","4","[[2,3,0],[0,0],[1]]","11","0","","","","","","4","","","","","","","","",""
"","","","","","single-stim-button","243","518992","0.0-2.0-43.3-1.3","5f4d5f9f835880a2aca8b996","C3","batch3","","593","tol_toboard","","","","tol_peg_3","593","593","0","[[2,0,0],[3,0],[1]]","4","[[2,3,0],[0,0],[1]]","11","0","","","","","","4","","","","","","","","",""
"","","","","","single-stim-button","244","519822","0.0-2.0-43.4-0.4","5f4d5f9f835880a2aca8b996","C3","batch3","","830","tol_tohand","","","","tol_peg_2","830","830","0","[[2,0,0],[0,0],[1]]","5","[[2,3,0],[0,0],[1]]","11","0","","","","","","4","","","","","","","","",""
"","","","","","single-stim-button","245","520298","0.0-2.0-43.4-1.4","5f4d5f9f835880a2aca8b996","C3","batch3","","475","tol_toboard","","","","tol_peg_1","475","475","0","[[2,3,0],[0,0],[1]]","5","[[2,3,0],[0,0],[1]]","11","0","","","","","","4","","","","","","","","",""
"","","","","","poldrack-single-stim","246","521301","0.0-2.0-44.0","5f4d5f9f835880a2aca8b996","C3","batch3","","-1","tol_feedback","","","true","","1000","1000","500","","","","","","-1","none","true","4380","10380","","","","","","","","","",""
"","","","","","html-button-response","247","521940","0.0-2.0-45.0","5f4d5f9f835880a2aca8b996","C3","batch3","","637.4000000953674","tol_trial_num","<div class = centerbox><p class = center-block-text>problem <strong>13</strong> out of 25 problems</p></div>","0","","","","","","","","","","","","","","","","","","","","","","","","",""
"","","","","","single-stim-button","248","524146","0.0-2.0-46.0-0.0","5f4d5f9f835880a2aca8b996","C3","batch3","","2206","tol_tohand","","","","tol_peg_1","2206","2206","0","[[1,0,0],[3,0],[0]]","1","[[0,0,0],[2,3],[1]]","12","0","","","","","","4","","","","","","","","",""
"","","","","","single-stim-button","249","525498","0.0-2.0-46.0-1.0","5f4d5f9f835880a2aca8b996","C3","batch3","","1351","tol_toboard","","","","tol_peg_3","1351","1351","0","[[1,0,0],[3,0],[2]]","1","[[0,0,0],[2,3],[1]]","12","0","","","","","","4","","","","","","","","",""
"","","","","","single-stim-button","250","529918","0.0-2.0-46.1-0.1","5f4d5f9f835880a2aca8b996","C3","batch3","","4419","tol_tohand","","","","tol_peg_2","4419","4419","0","[[1,0,0],[0,0],[2]]","2","[[0,0,0],[2,3],[1]]","12","0","","","","","","4","","","","","","","","",""
"","","","","","single-stim-button","251","530599","0.0-2.0-46.1-1.1","5f4d5f9f835880a2aca8b996","C3","batch3","","681","tol_toboard","","","","tol_peg_1","681","681","0","[[1,3,0],[0,0],[2]]","2","[[0,0,0],[2,3],[1]]","12","0","","","","","","4","","","","","","","","",""
"","","","","","single-stim-button","252","531380","0.0-2.0-46.2-0.2","5f4d5f9f835880a2aca8b996","C3","batch3","","781","tol_tohand","","","","tol_peg_3","781","781","0","[[1,3,0],[0,0],[0]]","3","[[0,0,0],[2,3],[1]]","12","0","","","","","","4","","","","","","","","",""
"","","","","","single-stim-button","253","532068","0.0-2.0-46.2-1.2","5f4d5f9f835880a2aca8b996","C3","batch3","","688","tol_toboard","","","","tol_peg_2","688","688","0","[[1,3,0],[2,0],[0]]","3","[[0,0,0],[2,3],[1]]","12","0","","","","","","4","","","","","","","","",""
"","","","","","single-stim-button","254","532554","0.0-2.0-46.3-0.3","5f4d5f9f835880a2aca8b996","C3","batch3","","486","tol_tohand","","","","tol_peg_1","486","486","0","[[1,0,0],[2,0],[0]]","4","[[0,0,0],[2,3],[1]]","12","0","","","","","","4","","","","","","","","",""
"","","","","","single-stim-button","255","533172","0.0-2.0-46.3-1.3","5f4d5f9f835880a2aca8b996","C3","batch3","","618","tol_toboard","","","","tol_peg_2","618","618","0","[[1,0,0],[2,3],[0]]","4","[[0,0,0],[2,3],[1]]","12","0","","","","","","4","","","","","","","","",""
"","","","","","single-stim-button","256","533775","0.0-2.0-46.4-0.4","5f4d5f9f835880a2aca8b996","C3","batch3","","603","tol_tohand","","","","tol_peg_1","603","603","0","[[0,0,0],[2,3],[0]]","5","[[0,0,0],[2,3],[1]]","12","0","","","","","","4","","","","","","","","",""
"","","","","","single-stim-button","257","534376","0.0-2.0-46.4-1.4","5f4d5f9f835880a2aca8b996","C3","batch3","","601","tol_toboard","","","","tol_peg_3","601","601","0","[[0,0,0],[2,3],[1]]","5","[[0,0,0],[2,3],[1]]","12","0","","","","","","4","","","","","","","","",""
"","","","","","poldrack-single-stim","258","535379","0.0-2.0-47.0","5f4d5f9f835880a2aca8b996","C3","batch3","","-1","tol_feedback","","","true","","1000","1000","500","","","","","","-1","none","true","2206","8495","","","","","","","","","",""
"","","","","","html-button-response","259","567057","0.0-2.0-48.0","5f4d5f9f835880a2aca8b996","C3","batch3","","31678.299999713898","attention_check","<p class = block-text>How many balls are in your board<br></p>","1","true","","","","","","","","","","","","","","","","","","","","","","","",""
"","","","","","html-button-response","260","570803","0.0-2.0-49.0","5f4d5f9f835880a2aca8b996","C3","batch3","","3744.4000000953674","tol_trial_num","<div class = centerbox><p class = center-block-text>problem <strong>14</strong> out of 25 problems</p></div>","0","","","","","","","","","","","","","","","","","","","","","","","","",""
"","","","","","single-stim-button","261","582613","0.0-2.0-50.0-0.0","5f4d5f9f835880a2aca8b996","C3","batch3","","11810","tol_tohand","","","","tol_peg_1","11810","11810","0","[[2,0,0],[3,0],[0]]","1","[[1,2,0],[3,0],[0]]","13","0","","","","","","4","","","","","","","","",""
"","","","","","single-stim-button","262","583441","0.0-2.0-50.0-1.0","5f4d5f9f835880a2aca8b996","C3","batch3","","828","tol_toboard","","","","tol_peg_3","828","828","0","[[2,0,0],[3,0],[1]]","1","[[1,2,0],[3,0],[0]]","13","0","","","","","","4","","","","","","","","",""
"","","","","","single-stim-button","263","583942","0.0-2.0-50.1-0.1","5f4d5f9f835880a2aca8b996","C3","batch3","","500","tol_tohand","","","","tol_peg_1","500","500","0","[[0,0,0],[3,0],[1]]","2","[[1,2,0],[3,0],[0]]","13","0","","","","","","4","","","","","","","","",""
"","","","","","single-stim-button","264","584951","0.0-2.0-50.1-1.1","5f4d5f9f835880a2aca8b996","C3","batch3","","1009","tol_toboard","","","","tol_peg_2","1009","1009","0","[[0,0,0],[3,2],[1]]","2","[[1,2,0],[3,0],[0]]","13","0","","","","","","4","","","","","","","","",""
"","","","","","single-stim-button","265","585546","0.0-2.0-50.2-0.2","5f4d5f9f835880a2aca8b996","C3","batch3","","594","tol_tohand","","","","tol_peg_3","594","594","0","[[0,0,0],[3,2],[0]]","3","[[1,2,0],[3,0],[0]]","13","0","","","","","","4","","","","","","","","",""
"","","","","","single-stim-button","266","586131","0.0-2.0-50.2-1.2","5f4d5f9f835880a2aca8b996","C3","batch3","","585","tol_toboard","","","","tol_peg_1","585","585","0","[[1,0,0],[3,2],[0]]","3","[[1,2,0],[3,0],[0]]","13","0","","","","","","4","","","","","","","","",""
"","","","","","single-stim-button","267","586664","0.0-2.0-50.3-0.3","5f4d5f9f835880a2aca8b996","C3","batch3","","533","tol_tohand","","","","tol_peg_2","533","533","0","[[1,0,0],[3,0],[0]]","4","[[1,2,0],[3,0],[0]]","13","0","","","","","","4","","","","","","","","",""
"","","","","","single-stim-button","268","587195","0.0-2.0-50.3-1.3","5f4d5f9f835880a2aca8b996","C3","batch3","","531","tol_toboard","","","","tol_peg_1","531","531","0","[[1,2,0],[3,0],[0]]","4","[[1,2,0],[3,0],[0]]","13","0","","","","","","4","","","","","","","","",""
"","","","","","poldrack-single-stim","269","588207","0.0-2.0-51.0","5f4d5f9f835880a2aca8b996","C3","batch3","","-1","tol_feedback","","","true","","1000","1000","500","","","","","","-1","none","true","11810","13437","","","","","","","","","",""
"","","","","","html-button-response","270","589275","0.0-2.0-52.0","5f4d5f9f835880a2aca8b996","C3","batch3","","1067.0999999046326","tol_trial_num","<div class = centerbox><p class = center-block-text>problem <strong>15</strong> out of 25 problems</p></div>","0","","","","","","","","","","","","","","","","","","","","","","","","",""
"","","","","","single-stim-button","271","598755","0.0-2.0-53.0-0.0","5f4d5f9f835880a2aca8b996","C3","batch3","","9480","tol_tohand","","","","tol_peg_1","9480","9480","0","[[1,0,0],[3,0],[0]]","1","[[2,0,0],[3,0],[1]]","14","0","","","","","","3","","","","","","","","",""
"","","","","","single-stim-button","272","599599","0.0-2.0-53.0-1.0","5f4d5f9f835880a2aca8b996","C3","batch3","","844","tol_toboard","","","","tol_peg_2","844","844","0","[[1,0,0],[3,2],[0]]","1","[[2,0,0],[3,0],[1]]","14","0","","","","","","3","","","","","","","","",""
"","","","","","single-stim-button","273","600069","0.0-2.0-53.1-0.1","5f4d5f9f835880a2aca8b996","C3","batch3","","470","tol_tohand","","","","tol_peg_1","470","470","0","[[0,0,0],[3,2],[0]]","2","[[2,0,0],[3,0],[1]]","14","0","","","","","","3","","","","","","","","",""
"","","","","","single-stim-button","274","600609","0.0-2.0-53.1-1.1","5f4d5f9f835880a2aca8b996","C3","batch3","","540","tol_toboard","","","","tol_peg_3","540","540","0","[[0,0,0],[3,2],[1]]","2","[[2,0,0],[3,0],[1]]","14","0","","","","","","3","","","","","","","","",""
"","","","","","single-stim-button","275","603033","0.0-2.0-53.2-0.2","5f4d5f9f835880a2aca8b996","C3","batch3","","2424","tol_tohand","","","","tol_peg_2","2424","2424","0","[[0,0,0],[3,0],[1]]","3","[[2,0,0],[3,0],[1]]","14","0","","","","","","3","","","","","","","","",""
"","","","","","single-stim-button","276","603697","0.0-2.0-53.2-1.2","5f4d5f9f835880a2aca8b996","C3","batch3","","663","tol_toboard","","","","tol_peg_1","663","663","0","[[2,0,0],[3,0],[1]]","3","[[2,0,0],[3,0],[1]]","14","0","","","","","","3","","","","","","","","",""
"","","","","","poldrack-single-stim","277","604702","0.0-2.0-54.0","5f4d5f9f835880a2aca8b996","C3","batch3","","-1","tol_feedback","","","true","","1000","1000","500","","","","","","-1","none","true","9480","12374","","","","","","","","","",""
"","","","","","html-button-response","278","605569","0.0-2.0-55.0","5f4d5f9f835880a2aca8b996","C3","batch3","","866","tol_trial_num","<div class = centerbox><p class = center-block-text>problem <strong>16</strong> out of 25 problems</p></div>","0","","","","","","","","","","","","","","","","","","","","","","","","",""
"","","","","","single-stim-button","279","609792","0.0-2.0-56.0-0.0","5f4d5f9f835880a2aca8b996","C3","batch3","","4223","tol_tohand","","","","tol_peg_3","4223","4223","0","[[0,0,0],[2,3],[0]]","1","[[2,3,0],[1,0],[0]]","15","0","","","","","","7","","","","","","","","",""
"","","","","","single-stim-button","280","610581","0.0-2.0-56.0-1.0","5f4d5f9f835880a2aca8b996","C3","batch3","","789","tol_toboard","","","","tol_peg_1","789","789","0","[[1,0,0],[2,3],[0]]","1","[[2,3,0],[1,0],[0]]","15","0","","","","","","7","","","","","","","","",""
"","","","","","single-stim-button","281","611153","0.0-2.0-56.1-0.1","5f4d5f9f835880a2aca8b996","C3","batch3","","571","tol_tohand","","","","tol_peg_2","571","571","0","[[1,0,0],[2,0],[0]]","2","[[2,3,0],[1,0],[0]]","15","0","","","","","","7","","","","","","","","",""
"","","","","","single-stim-button","282","612825","0.0-2.0-56.1-1.1","5f4d5f9f835880a2aca8b996","C3","batch3","","1671","tol_toboard","","","","tol_peg_3","1671","1671","0","[[1,0,0],[2,0],[3]]","2","[[2,3,0],[1,0],[0]]","15","0","","","","","","7","","","","","","","","",""
"","","","","","single-stim-button","283","617269","0.0-2.0-56.2-0.2","5f4d5f9f835880a2aca8b996","C3","batch3","","4443","tol_tohand","","","","tol_peg_2","4443","4443","0","[[1,0,0],[0,0],[3]]","3","[[2,3,0],[1,0],[0]]","15","0","","","","","","7","","","","","","","","",""
"","","","","","single-stim-button","284","617848","0.0-2.0-56.2-1.2","5f4d5f9f835880a2aca8b996","C3","batch3","","577","tol_toboard","","","","tol_peg_1","577","577","0","[[1,2,0],[0,0],[3]]","3","[[2,3,0],[1,0],[0]]","15","0","","","","","","7","","","","","","","","",""
"","","","","","single-stim-button","285","618778","0.0-2.0-56.3-0.3","5f4d5f9f835880a2aca8b996","C3","batch3","","930","tol_tohand","","","","tol_peg_3","930","930","0","[[1,2,0],[0,0],[0]]","4","[[2,3,0],[1,0],[0]]","15","0","","","","","","7","","","","","","","","",""
"","","","","","single-stim-button","286","619427","0.0-2.0-56.3-1.3","5f4d5f9f835880a2aca8b996","C3","batch3","","649","tol_toboard","","","","tol_peg_2","649","649","0","[[1,2,0],[3,0],[0]]","4","[[2,3,0],[1,0],[0]]","15","0","","","","","","7","","","","","","","","",""
"","","","","","single-stim-button","287","622531","0.0-2.0-56.4-0.4","5f4d5f9f835880a2aca8b996","C3","batch3","","3104","tol_tohand","","","","tol_peg_1","3104","3104","0","[[1,0,0],[3,0],[0]]","5","[[2,3,0],[1,0],[0]]","15","0","","","","","","7","","","","","","","","",""
"","","","","","single-stim-button","288","625887","0.0-2.0-56.4-1.4","5f4d5f9f835880a2aca8b996","C3","batch3","","3356","tol_toboard","","","","tol_peg_2","3356","3356","0","[[1,0,0],[3,2],[0]]","5","[[2,3,0],[1,0],[0]]","15","0","","","","","","7","","","","","","","","",""
"","","","","","single-stim-button","289","626356","0.0-2.0-56.5-0.5","5f4d5f9f835880a2aca8b996","C3","batch3","","467","tol_tohand","","","","tol_peg_1","467","467","0","[[0,0,0],[3,2],[0]]","6","[[2,3,0],[1,0],[0]]","15","0","","","","","","7","","","","","","","","",""
"","","","","","single-stim-button","290","627035","0.0-2.0-56.5-1.5","5f4d5f9f835880a2aca8b996","C3","batch3","","679","tol_toboard","","","","tol_peg_3","679","679","0","[[0,0,0],[3,2],[1]]","6","[[2,3,0],[1,0],[0]]","15","0","","","","","","7","","","","","","","","",""
"","","","","","single-stim-button","291","628217","0.0-2.0-56.6-0.6","5f4d5f9f835880a2aca8b996","C3","batch3","","1182","tol_tohand","","","","tol_peg_2","1182","1182","0","[[0,0,0],[3,0],[1]]","7","[[2,3,0],[1,0],[0]]","15","0","","","","","","7","","","","","","","","",""
"","","","","","single-stim-button","292","628983","0.0-2.0-56.6-1.6","5f4d5f9f835880a2aca8b996","C3","batch3","","766","tol_toboard","","","","tol_peg_1","766","766","0","[[2,0,0],[3,0],[1]]","7","[[2,3,0],[1,0],[0]]","15","0","","","","","","7","","","","","","","","",""
"","","","","","single-stim-button","293","630642","0.0-2.0-56.7-0.7","5f4d5f9f835880a2aca8b996","C3","batch3","","1659","tol_tohand","","","","tol_peg_2","1659","1659","0","[[2,0,0],[0,0],[1]]","8","[[2,3,0],[1,0],[0]]","15","0","","","","","","7","","","","","","","","",""
"","","","","","single-stim-button","294","631219","0.0-2.0-56.7-1.7","5f4d5f9f835880a2aca8b996","C3","batch3","","576","tol_toboard","","","","tol_peg_1","576","576","0","[[2,3,0],[0,0],[1]]","8","[[2,3,0],[1,0],[0]]","15","0","","","","","","7","","","","","","","","",""
"","","","","","single-stim-button","295","632041","0.0-2.0-56.8-0.8","5f4d5f9f835880a2aca8b996","C3","batch3","","821","tol_tohand","","","","tol_peg_3","821","821","0","[[2,3,0],[0,0],[0]]","9","[[2,3,0],[1,0],[0]]","15","0","","","","","","7","","","","","","","","",""
"","","","","","single-stim-button","296","632581","0.0-2.0-56.8-1.8","5f4d5f9f835880a2aca8b996","C3","batch3","","540","tol_toboard","","","","tol_peg_2","540","540","0","[[2,3,0],[1,0],[0]]","9","[[2,3,0],[1,0],[0]]","15","0","","","","","","7","","","","","","","","",""
"","","","","","poldrack-single-stim","297","633582","0.0-2.0-57.0","5f4d5f9f835880a2aca8b996","C3","batch3","","-1","tol_feedback","","","true","","1000","1000","500","","","","","","-1","none","true","4223","17400","","","","","","","","","",""
"","","","","","html-button-response","298","634379","0.0-2.0-58.0","5f4d5f9f835880a2aca8b996","C3","batch3","","795.5999999046326","tol_trial_num","<div class = centerbox><p class = center-block-text>problem <strong>17</strong> out of 25 problems</p></div>","0","","","","","","","","","","","","","","","","","","","","","","","","",""
"","","","","","single-stim-button","299","636249","0.0-2.0-59.0-0.0","5f4d5f9f835880a2aca8b996","C3","batch3","","1870","tol_tohand","","","","tol_peg_1","1870","1870","0","[[1,0,0],[3,0],[0]]","1","[[3,1,0],[2,0],[0]]","16","0","","","","","","5","","","","","","","","",""
"","","","","","single-stim-button","300","637634","0.0-2.0-59.0-1.0","5f4d5f9f835880a2aca8b996","C3","batch3","","1384","tol_toboard","","","","tol_peg_3","1384","1384","0","[[1,0,0],[3,0],[2]]","1","[[3,1,0],[2,0],[0]]","16","0","","","","","","5","","","","","","","","",""
"","","","","","single-stim-button","301","645547","0.0-2.0-59.1-0.1","5f4d5f9f835880a2aca8b996","C3","batch3","","7913","tol_tohand","","","","tol_peg_3","7913","7913","0","[[1,0,0],[3,0],[0]]","2","[[3,1,0],[2,0],[0]]","16","0","","","","","","5","","","","","","","","",""
"","","","","","single-stim-button","302","646408","0.0-2.0-59.1-1.1","5f4d5f9f835880a2aca8b996","C3","batch3","","861","tol_toboard","","","","tol_peg_2","861","861","0","[[1,0,0],[3,2],[0]]","2","[[3,1,0],[2,0],[0]]","16","0","","","","","","5","","","","","","","","",""
"","","","","","single-stim-button","303","646861","0.0-2.0-59.2-0.2","5f4d5f9f835880a2aca8b996","C3","batch3","","453","tol_tohand","","","","tol_peg_1","453","453","0","[[0,0,0],[3,2],[0]]","3","[[3,1,0],[2,0],[0]]","16","0","","","","","","5","","","","","","","","",""
"","","","","","single-stim-button","304","647713","0.0-2.0-59.2-1.2","5f4d5f9f835880a2aca8b996","C3","batch3","","852","tol_toboard","","","","tol_peg_3","852","852","0","[[0,0,0],[3,2],[1]]","3","[[3,1,0],[2,0],[0]]","16","0","","","","","","5","","","","","","","","",""
"","","","","","single-stim-button","305","651671","0.0-2.0-59.3-0.3","5f4d5f9f835880a2aca8b996","C3","batch3","","3957","tol_tohand","","","","tol_peg_2","3957","3957","0","[[0,0,0],[3,0],[1]]","4","[[3,1,0],[2,0],[0]]","16","0","","","","","","5","","","","","","","","",""
"","","","","","single-stim-button","306","657529","0.0-2.0-59.3-1.3","5f4d5f9f835880a2aca8b996","C3","batch3","","5858","tol_toboard","","","","tol_peg_1","5858","5858","0","[[2,0,0],[3,0],[1]]","4","[[3,1,0],[2,0],[0]]","16","0","","","","","","5","","","","","","","","",""
"","","","","","single-stim-button","307","658001","0.0-2.0-59.4-0.4","5f4d5f9f835880a2aca8b996","C3","batch3","","470","tol_tohand","","","","tol_peg_2","470","470","0","[[2,0,0],[0,0],[1]]","5","[[3,1,0],[2,0],[0]]","16","0","","","","","","5","","","","","","","","",""
"","","","","","single-stim-button","308","658647","0.0-2.0-59.4-1.4","5f4d5f9f835880a2aca8b996","C3","batch3","","646","tol_toboard","","","","tol_peg_1","646","646","0","[[2,3,0],[0,0],[1]]","5","[[3,1,0],[2,0],[0]]","16","0","","","","","","5","","","","","","","","",""
"","","","","","single-stim-button","309","659736","0.0-2.0-59.5-0.5","5f4d5f9f835880a2aca8b996","C3","batch3","","1087","tol_tohand","","","","tol_peg_3","1087","1087","0","[[2,3,0],[0,0],[0]]","6","[[3,1,0],[2,0],[0]]","16","0","","","","","","5","","","","","","","","",""
"","","","","","single-stim-button","310","660408","0.0-2.0-59.5-1.5","5f4d5f9f835880a2aca8b996","C3","batch3","","672","tol_toboard","","","","tol_peg_2","672","672","0","[[2,3,0],[1,0],[0]]","6","[[3,1,0],[2,0],[0]]","16","0","","","","","","5","","","","","","","","",""
"","","","","","single-stim-button","311","661174","0.0-2.0-59.6-0.6","5f4d5f9f835880a2aca8b996","C3","batch3","","766","tol_tohand","","","","tol_peg_1","766","766","0","[[2,0,0],[1,0],[0]]","7","[[3,1,0],[2,0],[0]]","16","0","","","","","","5","","","","","","","","",""
"","","","","","single-stim-button","312","661627","0.0-2.0-59.6-1.6","5f4d5f9f835880a2aca8b996","C3","batch3","","453","tol_toboard","","","","tol_peg_2","453","453","0","[[2,0,0],[1,3],[0]]","7","[[3,1,0],[2,0],[0]]","16","0","","","","","","5","","","","","","","","",""
"","","","","","single-stim-button","313","662173","0.0-2.0-59.7-0.7","5f4d5f9f835880a2aca8b996","C3","batch3","","546","tol_tohand","","","","tol_peg_1","546","546","0","[[0,0,0],[1,3],[0]]","8","[[3,1,0],[2,0],[0]]","16","0","","","","","","5","","","","","","","","",""
"","","","","","single-stim-button","314","662949","0.0-2.0-59.7-1.7","5f4d5f9f835880a2aca8b996","C3","batch3","","776","tol_toboard","","","","tol_peg_3","776","776","0","[[0,0,0],[1,3],[2]]","8","[[3,1,0],[2,0],[0]]","16","0","","","","","","5","","","","","","","","",""
"","","","","","single-stim-button","315","664067","0.0-2.0-59.8-0.8","5f4d5f9f835880a2aca8b996","C3","batch3","","1117","tol_tohand","","","","tol_peg_2","1117","1117","0","[[0,0,0],[1,0],[2]]","9","[[3,1,0],[2,0],[0]]","16","0","","","","","","5","","","","","","","","",""
"","","","","","single-stim-button","316","664620","0.0-2.0-59.8-1.8","5f4d5f9f835880a2aca8b996","C3","batch3","","552","tol_toboard","","","","tol_peg_1","552","552","0","[[3,0,0],[1,0],[2]]","9","[[3,1,0],[2,0],[0]]","16","0","","","","","","5","","","","","","","","",""
"","","","","","single-stim-button","317","665081","0.0-2.0-59.9-0.9","5f4d5f9f835880a2aca8b996","C3","batch3","","461","tol_tohand","","","","tol_peg_2","461","461","0","[[3,0,0],[0,0],[2]]","10","[[3,1,0],[2,0],[0]]","16","0","","","","","","5","","","","","","","","",""
"","","","","","single-stim-button","318","665559","0.0-2.0-59.9-1.9","5f4d5f9f835880a2aca8b996","C3","batch3","","477","tol_toboard","","","","tol_peg_1","477","477","0","[[3,1,0],[0,0],[2]]","10","[[3,1,0],[2,0],[0]]","16","0","","","","","","5","","","","","","","","",""
"","","","","","single-stim-button","319","666592","0.0-2.0-59.10-0.10","5f4d5f9f835880a2aca8b996","C3","batch3","","1033","tol_tohand","","","","tol_peg_3","1033","1033","0","[[3,1,0],[0,0],[0]]","11","[[3,1,0],[2,0],[0]]","16","0","","","","","","5","","","","","","","","",""
"","","","","","single-stim-button","320","666943","0.0-2.0-59.10-1.10","5f4d5f9f835880a2aca8b996","C3","batch3","","351","tol_toboard","","","","tol_peg_2","351","351","0","[[3,1,0],[2,0],[0]]","11","[[3,1,0],[2,0],[0]]","16","0","","","","","","5","","","","","","","","",""
"","","","","","poldrack-single-stim","321","667956","0.0-2.0-60.0","5f4d5f9f835880a2aca8b996","C3","batch3","","-1","tol_feedback","","","true","","1000","1000","500","","","","","","-1","none","true","1870","19673","","","","","","","","","",""
"","","","","","html-button-response","322","668594","0.0-2.0-61.0","5f4d5f9f835880a2aca8b996","C3","batch3","","636.5","tol_trial_num","<div class = centerbox><p class = center-block-text>problem <strong>18</strong> out of 25 problems</p></div>","0","","","","","","","","","","","","","","","","","","","","","","","","",""
"","","","","","single-stim-button","323","675702","0.0-2.0-62.0-0.0","5f4d5f9f835880a2aca8b996","C3","batch3","","7108","tol_tohand","","","","tol_peg_2","7108","7108","0","[[1,2,0],[0,0],[0]]","1","[[3,0,0],[2,0],[1]]","17","0","","","","","","5","","","","","","","","",""
"","","","","","single-stim-button","324","676711","0.0-2.0-62.0-1.0","5f4d5f9f835880a2aca8b996","C3","batch3","","1009","tol_toboard","","","","tol_peg_3","1009","1009","0","[[1,2,0],[0,0],[3]]","1","[[3,0,0],[2,0],[1]]","17","0","","","","","","5","","","","","","","","",""
"","","","","","single-stim-button","325","678032","0.0-2.0-62.1-0.1","5f4d5f9f835880a2aca8b996","C3","batch3","","1320","tol_tohand","","","","tol_peg_1","1320","1320","0","[[1,0,0],[0,0],[3]]","2","[[3,0,0],[2,0],[1]]","17","0","","","","","","5","","","","","","","","",""
"","","","","","single-stim-button","326","679071","0.0-2.0-62.1-1.1","5f4d5f9f835880a2aca8b996","C3","batch3","","1039","tol_toboard","","","","tol_peg_2","1039","1039","0","[[1,0,0],[2,0],[3]]","2","[[3,0,0],[2,0],[1]]","17","0","","","","","","5","","","","","","","","",""
"","","","","","single-stim-button","327","680348","0.0-2.0-62.2-0.2","5f4d5f9f835880a2aca8b996","C3","batch3","","1276","tol_tohand","","","","tol_peg_1","1276","1276","0","[[0,0,0],[2,0],[3]]","3","[[3,0,0],[2,0],[1]]","17","0","","","","","","5","","","","","","","","",""
"","","","","","single-stim-button","328","680966","0.0-2.0-62.2-1.2","5f4d5f9f835880a2aca8b996","C3","batch3","","618","tol_toboard","","","","tol_peg_2","618","618","0","[[0,0,0],[2,1],[3]]","3","[[3,0,0],[2,0],[1]]","17","0","","","","","","5","","","","","","","","",""
"","","","","","single-stim-button","329","681380","0.0-2.0-62.3-0.3","5f4d5f9f835880a2aca8b996","C3","batch3","","413","tol_tohand","","","","tol_peg_3","413","413","0","[[0,0,0],[2,1],[0]]","4","[[3,0,0],[2,0],[1]]","17","0","","","","","","5","","","","","","","","",""
"","","","","","single-stim-button","330","681935","0.0-2.0-62.3-1.3","5f4d5f9f835880a2aca8b996","C3","batch3","","555","tol_toboard","","","","tol_peg_1","555","555","0","[[3,0,0],[2,1],[0]]","4","[[3,0,0],[2,0],[1]]","17","0","","","","","","5","","","","","","","","",""
"","","","","","single-stim-button","331","682568","0.0-2.0-62.4-0.4","5f4d5f9f835880a2aca8b996","C3","batch3","","632","tol_tohand","","","","tol_peg_2","632","632","0","[[3,0,0],[2,0],[0]]","5","[[3,0,0],[2,0],[1]]","17","0","","","","","","5","","","","","","","","",""
"","","","","","single-stim-button","332","683225","0.0-2.0-62.4-1.4","5f4d5f9f835880a2aca8b996","C3","batch3","","656","tol_toboard","","","","tol_peg_3","656","656","0","[[3,0,0],[2,0],[1]]","5","[[3,0,0],[2,0],[1]]","17","0","","","","","","5","","","","","","","","",""
"","","","","","poldrack-single-stim","333","684228","0.0-2.0-63.0","5f4d5f9f835880a2aca8b996","C3","batch3","","-1","tol_feedback","","","true","","1000","1000","500","","","","","","-1","none","true","7108","10749","","","","","","","","","",""
"","","","","","html-button-response","334","684921","0.0-2.0-64.0","5f4d5f9f835880a2aca8b996","C3","batch3","","692","tol_trial_num","<div class = centerbox><p class = center-block-text>problem <strong>19</strong> out of 25 problems</p></div>","0","","","","","","","","","","","","","","","","","","","","","","","","",""
"","","","","","single-stim-button","335","686383","0.0-2.0-65.0-0.0","5f4d5f9f835880a2aca8b996","C3","batch3","","1461","tol_tohand","","","","tol_peg_2","1461","1461","0","[[1,2,0],[0,0],[0]]","1","[[0,0,0],[1,2],[3]]","18","0","","","","","","7","","","","","","","","",""
"","","","","","single-stim-button","336","686924","0.0-2.0-65.0-1.0","5f4d5f9f835880a2aca8b996","C3","batch3","","539","tol_toboard","","","","tol_peg_3","539","539","0","[[1,2,0],[0,0],[3]]","1","[[0,0,0],[1,2],[3]]","18","0","","","","","","7","","","","","","","","",""
"","","","","","single-stim-button","337","690272","0.0-2.0-65.1-0.1","5f4d5f9f835880a2aca8b996","C3","batch3","","3348","tol_tohand","","","","tol_peg_1","3348","3348","0","[[1,0,0],[0,0],[3]]","2","[[0,0,0],[1,2],[3]]","18","0","","","","","","7","","","","","","","","",""
"","","","","","single-stim-button","338","698647","0.0-2.0-65.1-1.1","5f4d5f9f835880a2aca8b996","C3","batch3","","8375","tol_toboard","","","","tol_peg_2","8375","8375","0","[[1,0,0],[2,0],[3]]","2","[[0,0,0],[1,2],[3]]","18","0","","","","","","7","","","","","","","","",""
"","","","","","single-stim-button","339","703990","0.0-2.0-65.2-0.2","5f4d5f9f835880a2aca8b996","C3","batch3","","5342","tol_tohand","","","","tol_peg_1","5342","5342","0","[[0,0,0],[2,0],[3]]","3","[[0,0,0],[1,2],[3]]","18","0","","","","","","7","","","","","","","","",""
"","","","","","single-stim-button","340","704435","0.0-2.0-65.2-1.2","5f4d5f9f835880a2aca8b996","C3","batch3","","445","tol_toboard","","","","tol_peg_2","445","445","0","[[0,0,0],[2,1],[3]]","3","[[0,0,0],[1,2],[3]]","18","0","","","","","","7","","","","","","","","",""
"","","","","","single-stim-button","341","704865","0.0-2.0-65.3-0.3","5f4d5f9f835880a2aca8b996","C3","batch3","","429","tol_tohand","","","","tol_peg_3","429","429","0","[[0,0,0],[2,1],[0]]","4","[[0,0,0],[1,2],[3]]","18","0","","","","","","7","","","","","","","","",""
"","","","","","single-stim-button","342","705609","0.0-2.0-65.3-1.3","5f4d5f9f835880a2aca8b996","C3","batch3","","742","tol_toboard","","","","tol_peg_1","742","742","0","[[3,0,0],[2,1],[0]]","4","[[0,0,0],[1,2],[3]]","18","0","","","","","","7","","","","","","","","",""
"","","","","","single-stim-button","343","707274","0.0-2.0-65.4-0.4","5f4d5f9f835880a2aca8b996","C3","batch3","","1665","tol_tohand","","","","tol_peg_2","1665","1665","0","[[3,0,0],[2,0],[0]]","5","[[0,0,0],[1,2],[3]]","18","0","","","","","","7","","","","","","","","",""
"","","","","","single-stim-button","344","709243","0.0-2.0-65.4-1.4","5f4d5f9f835880a2aca8b996","C3","batch3","","1968","tol_toboard","","","","tol_peg_1","1968","1968","0","[[3,1,0],[2,0],[0]]","5","[[0,0,0],[1,2],[3]]","18","0","","","","","","7","","","","","","","","",""
"","","","","","single-stim-button","345","709666","0.0-2.0-65.5-0.5","5f4d5f9f835880a2aca8b996","C3","batch3","","422","tol_tohand","","","","tol_peg_2","422","422","0","[[3,1,0],[0,0],[0]]","6","[[0,0,0],[1,2],[3]]","18","0","","","","","","7","","","","","","","","",""
"","","","","","single-stim-button","346","710684","0.0-2.0-65.5-1.5","5f4d5f9f835880a2aca8b996","C3","batch3","","1018","tol_toboard","","","","tol_peg_3","1018","1018","0","[[3,1,0],[0,0],[2]]","6","[[0,0,0],[1,2],[3]]","18","0","","","","","","7","","","","","","","","",""
"","","","","","single-stim-button","347","711646","0.0-2.0-65.6-0.6","5f4d5f9f835880a2aca8b996","C3","batch3","","962","tol_tohand","","","","tol_peg_1","962","962","0","[[3,0,0],[0,0],[2]]","7","[[0,0,0],[1,2],[3]]","18","0","","","","","","7","","","","","","","","",""
"","","","","","single-stim-button","348","712325","0.0-2.0-65.6-1.6","5f4d5f9f835880a2aca8b996","C3","batch3","","678","tol_toboard","","","","tol_peg_2","678","678","0","[[3,0,0],[1,0],[2]]","7","[[0,0,0],[1,2],[3]]","18","0","","","","","","7","","","","","","","","",""
"","","","","","single-stim-button","349","712896","0.0-2.0-65.7-0.7","5f4d5f9f835880a2aca8b996","C3","batch3","","570","tol_tohand","","","","tol_peg_3","570","570","0","[[3,0,0],[1,0],[0]]","8","[[0,0,0],[1,2],[3]]","18","0","","","","","","7","","","","","","","","",""
"","","","","","single-stim-button","350","713498","0.0-2.0-65.7-1.7","5f4d5f9f835880a2aca8b996","C3","batch3","","601","tol_toboard","","","","tol_peg_2","601","601","0","[[3,0,0],[1,2],[0]]","8","[[0,0,0],[1,2],[3]]","18","0","","","","","","7","","","","","","","","",""
"","","","","","single-stim-button","351","713959","0.0-2.0-65.8-0.8","5f4d5f9f835880a2aca8b996","C3","batch3","","460","tol_tohand","","","","tol_peg_1","460","460","0","[[0,0,0],[1,2],[0]]","9","[[0,0,0],[1,2],[3]]","18","0","","","","","","7","","","","","","","","",""
"","","","","","single-stim-button","352","714475","0.0-2.0-65.8-1.8","5f4d5f9f835880a2aca8b996","C3","batch3","","516","tol_toboard","","","","tol_peg_3","516","516","0","[[0,0,0],[1,2],[3]]","9","[[0,0,0],[1,2],[3]]","18","0","","","","","","7","","","","","","","","",""
"","","","","","poldrack-single-stim","353","715491","0.0-2.0-66.0","5f4d5f9f835880a2aca8b996","C3","batch3","","-1","tol_feedback","","","true","","1000","1000","500","","","","","","-1","none","true","1461","14659","","","","","","","","","",""
"","","","","","html-button-response","354","716439","0.0-2.0-67.0","5f4d5f9f835880a2aca8b996","C3","batch3","","947.2000002861023","tol_trial_num","<div class = centerbox><p class = center-block-text>problem <strong>20</strong> out of 25 problems</p></div>","0","","","","","","","","","","","","","","","","","","","","","","","","",""
"","","","","","single-stim-button","355","718794","0.0-2.0-68.0-0.0","5f4d5f9f835880a2aca8b996","C3","batch3","","2354","tol_tohand","","","","tol_peg_2","2354","2354","0","[[1,2,0],[0,0],[0]]","1","[[2,1,0],[0,0],[3]]","19","0","","","","","","5","","","","","","","","",""
