"success","timeout","failed_images","failed_audio","failed_video","trial_type","trial_index","time_elapsed","internal_node_id","subject_id","study_id","session_id","view_history","rt","stimulus","response","task","correct","answer","item","fiar_detect_rt","fiar_detect_correct","total_correct_fiar_detect","post_trial_gap","choices","mouse_click","stim_duration","block_duration","timing_post_trial","current_position","tol_num_moves_made","tol_target","tol_problem_id","tol_rt","key_press","possible_responses","tol_correct","preplanning","tol_rt_per_trial","tol_min_moves","spm_correct","spm_rt"
"true","false","[]","[]","[]","preload","0","846","0.0-0.0","5f4fe4f1af0392121538a250","A3","batch1","","","","","","","","","","","","","","","","","","","","","","","","","","","","","",""
"true","","","","","fullscreen","1","8353","0.0-1.0-0.0","5f4fe4f1af0392121538a250","A3","batch1","","","","","","","","","","","","","","","","","","","","","","","","","","","","","",""
"true","","","","","fullscreen","2","12080","0.0-2.0-0.0","5f4fe4f1af0392121538a250","A3","batch1","","","","","","","","","","","","","","","","","","","","","","","","","","","","","",""
"","","","","","instructions","3","25750","0.0-2.0-1.0-0.0","5f4fe4f1af0392121538a250","A3","batch1","[{""page_index"":0,""viewing_time"":7898},{""page_index"":1,""viewing_time"":1078.1999998092651},{""page_index"":0,""viewing_time"":841.5},{""page_index"":1,""viewing_time"":3850.800000190735}]","13668.699999809265","","","","","","","","","","","","","","","","","","","","","","","","","","","",""
"","","","","","html-button-response","4","26894","0.0-2.0-1.0-1.0-0.0","5f4fe4f1af0392121538a250","A3","batch1","","1143.5","<p class=block-text> Let's answer a few questions <br>","0","pattern_enter_quiz","","","","","","","","","","","","","","","","","","","","","","","","",""
"","","","","","html-button-response","5","28862","0.0-2.0-1.0-1.0-1.0","5f4fe4f1af0392121538a250","A3","batch1","","1966.3000001907349","<p class = block-text>True or False: You will have as much time as you want to make each choice. <br></p>","1","pattern_quiz","true","","","","","","","","","","","","","","","","","","","","","","","",""
"","","","","","html-button-response","6","29526","0.0-2.0-1.0-1.0-2.0","5f4fe4f1af0392121538a250","A3","batch1","","663.6999998092651","<p class = block-text>Correct! You should make your choice <strong> as fast as you can</strong>.</p>","0","pattern_quiz_feedback","","","","","","","","","","","","","","","","","","","","","","","","",""
"","","","","","html-button-response","7","31839","0.0-2.0-1.0-1.0-3.0","5f4fe4f1af0392121538a250","A3","batch1","","2311.7999997138977","<p class = block-text>True or False: You will look for 4 pieces in black or white color connected in a row either horizontally, vertically or diagonally. <br></p>","0","pattern_quiz","true","","","","","","","","","","","","","","","","","","","","","","","",""
"","","","","","html-button-response","8","32440","0.0-2.0-1.0-1.0-4.0","5f4fe4f1af0392121538a250","A3","batch1","","600.3000001907349","<p class = block-text>Correct! </p>","0","pattern_quiz_feedback","","","","","","","","","","","","","","","","","","","","","","","","",""
"","","","","","html-button-response","9","33696","0.0-2.0-2.0","5f4fe4f1af0392121538a250","A3","batch1","","1255","<p class=block-text> Now that you've understood the game, let's do a few practice trials before we start!<br> <br>","0","pattern_enter_practice","","","","","","","","","","","","","","","","","","","","","","","","",""
"","","","","","image-keyboard-response","10","35399","0.0-2.0-3.0-0.0","5f4fe4f1af0392121538a250","A3","batch1","","1699.7000002861023","stim/prac_no_18_1.png","j","pattern_practice","true","j","","","","","","","","","","","","","","","","","","","","","","",""
"","","","","","html-keyboard-response","11","36401","0.0-2.0-3.0-1.0","5f4fe4f1af0392121538a250","A3","batch1","","null","<p style=""font-size:30px;color:green;"">Correct!</p>","null","pattern_feedback","","","","","","","","","","","","","","","","","","","","","","","","",""
"","","","","","image-keyboard-response","12","38836","0.0-2.0-3.0-0.1","5f4fe4f1af0392121538a250","A3","batch1","","2434.5","stim/prac_no_16_1.png","j","pattern_practice","true","j","","","","","","","","","","","","","","","","","","","","","","",""
"","","","","","html-keyboard-response","13","39845","0.0-2.0-3.0-1.1","5f4fe4f1af0392121538a250","A3","batch1","","null","<p style=""font-size:30px;color:green;"">Correct!</p>","null","pattern_feedback","","","","","","","","","","","","","","","","","","","","","","","","",""
"","","","","","image-keyboard-response","14","40813","0.0-2.0-3.0-0.2","5f4fe4f1af0392121538a250","A3","batch1","","967.3000001907349","stim/prac_yes_18_hor_w1.png","f","pattern_practice","true","f","","","","","","","","","","","","","","","","","","","","","","",""
"","","","","","html-keyboard-response","15","41821","0.0-2.0-3.0-1.2","5f4fe4f1af0392121538a250","A3","batch1","","null","<p style=""font-size:30px;color:green;"">Correct!</p>","null","pattern_feedback","","","","","","","","","","","","","","","","","","","","","","","","",""
"","","","","","image-keyboard-response","16","42896","0.0-2.0-3.0-0.3","5f4fe4f1af0392121538a250","A3","batch1","","1074.0999999046326","stim/prac_yes_16_ver_w1.png","f","pattern_practice","true","f","","","","","","","","","","","","","","","","","","","","","","",""
"","","","","","html-keyboard-response","17","43899","0.0-2.0-3.0-1.3","5f4fe4f1af0392121538a250","A3","batch1","","null","<p style=""font-size:30px;color:green;"">Correct!</p>","null","pattern_feedback","","","","","","","","","","","","","","","","","","","","","","","","",""
"","","","","","image-keyboard-response","18","45826","0.0-2.0-3.0-0.4","5f4fe4f1af0392121538a250","A3","batch1","","1926.8000001907349","stim/prac_yes_20_dia_b1.png","f","pattern_practice","true","f","","","","","","","","","","","","","","","","","","","","","","",""
"","","","","","html-keyboard-response","19","46829","0.0-2.0-3.0-1.4","5f4fe4f1af0392121538a250","A3","batch1","","null","<p style=""font-size:30px;color:green;"">Correct!</p>","null","pattern_feedback","","","","","","","","","","","","","","","","","","","","","","","","",""
"","","","","","html-button-response","20","48812","0.0-2.0-4.0","5f4fe4f1af0392121538a250","A3","batch1","","1981.9000000953674","<p class=block-text> Good job! You are done with practice trials!<br>
        You responded correctly on 100% of the trials.<br>
        Press the button below to start official trials. Now you won't see any feedback about your response</p>","0","pattern_enter_official_trials","","","","","","","","","","","","","","","","","","","","","","","","",""
"","","","","","html-keyboard-response","21","49618","0.0-2.0-5.0-0.0","5f4fe4f1af0392121538a250","A3","batch1","","null","<p class=block-text>Trial 1 out of 78</p>","null","pattern_show_trial_num","","","","","","","","","","","","","","","","","","","","","","","","",""
"","","","","","image-keyboard-response","22","57489","0.0-2.0-5.0-1.0","5f4fe4f1af0392121538a250","A3","batch1","","7869.599999904633","stim/no_51_1.png","j","pattern_response","true","j","pattern_31","7869.599999904633","true","1","","","","","","","","","","","","","","","","","","",""
"","","","","","html-keyboard-response","23","58790","0.0-2.0-5.0-0.1","5f4fe4f1af0392121538a250","A3","batch1","","null","<p class=block-text>Trial 2 out of 78</p>","null","pattern_show_trial_num","","","","","","","","","","","","","","","","","","","","","","","","",""
"","","","","","image-keyboard-response","24","59753","0.0-2.0-5.0-1.1","5f4fe4f1af0392121538a250","A3","batch1","","961.0999999046326","stim/yes_44_ver_w1_w.png","f","pattern_response","true","f","pattern_66","961.0999999046326","true","2","","","","","","","","","","","","","","","","","","",""
"","","","","","html-keyboard-response","25","61054","0.0-2.0-5.0-0.2","5f4fe4f1af0392121538a250","A3","batch1","","null","<p class=block-text>Trial 3 out of 78</p>","null","pattern_show_trial_num","","","","","","","","","","","","","","","","","","","","","","","","",""
"","","","","","image-keyboard-response","26","62563","0.0-2.0-5.0-1.2","5f4fe4f1af0392121538a250","A3","batch1","","1508","stim/yes_49_hor_w1_b.png","f","pattern_response","true","f","pattern_70","1508","true","3","","","","","","","","","","","","","","","","","","",""
"","","","","","html-keyboard-response","27","63865","0.0-2.0-5.0-0.3","5f4fe4f1af0392121538a250","A3","batch1","","null","<p class=block-text>Trial 4 out of 78</p>","null","pattern_show_trial_num","","","","","","","","","","","","","","","","","","","","","","","","",""
"","","","","","image-keyboard-response","28","65622","0.0-2.0-5.0-1.3","5f4fe4f1af0392121538a250","A3","batch1","","1755.7999997138977","stim/no_15_1_w.png","j","pattern_response","true","j","pattern_03","1755.7999997138977","true","4","","","","","","","","","","","","","","","","","","",""
"","","","","","html-keyboard-response","29","66924","0.0-2.0-5.0-0.4","5f4fe4f1af0392121538a250","A3","batch1","","null","<p class=block-text>Trial 5 out of 78</p>","null","pattern_show_trial_num","","","","","","","","","","","","","","","","","","","","","","","","",""
"","","","","","image-keyboard-response","30","69679","0.0-2.0-5.0-1.4","5f4fe4f1af0392121538a250","A3","batch1","","2753.9000000953674","stim/no_25_1_b.png","j","pattern_response","true","j","pattern_09","2753.9000000953674","true","5","","","","","","","","","","","","","","","","","","",""
"","","","","","html-keyboard-response","31","70980","0.0-2.0-5.0-0.5","5f4fe4f1af0392121538a250","A3","batch1","","null","<p class=block-text>Trial 6 out of 78</p>","null","pattern_show_trial_num","","","","","","","","","","","","","","","","","","","","","","","","",""
"","","","","","image-keyboard-response","32","72044","0.0-2.0-5.0-1.5","5f4fe4f1af0392121538a250","A3","batch1","","1062.8999996185303","stim/yes_17_ver_b1_b.png","f","pattern_response","true","f","pattern_46","1062.8999996185303","true","6","","","","","","","","","","","","","","","","","","",""
"","","","","","html-keyboard-response","33","73348","0.0-2.0-5.0-0.6","5f4fe4f1af0392121538a250","A3","batch1","","null","<p class=block-text>Trial 7 out of 78</p>","null","pattern_show_trial_num","","","","","","","","","","","","","","","","","","","","","","","","",""
"","","","","","image-keyboard-response","34","78571","0.0-2.0-5.0-1.6","5f4fe4f1af0392121538a250","A3","batch1","","5222.200000286102","stim/no_53_1_b.png","j","pattern_response","true","j","pattern_33","5222.200000286102","true","7","","","","","","","","","","","","","","","","","","",""
"","","","","","html-keyboard-response","35","79872","0.0-2.0-5.0-0.7","5f4fe4f1af0392121538a250","A3","batch1","","null","<p class=block-text>Trial 8 out of 78</p>","null","pattern_show_trial_num","","","","","","","","","","","","","","","","","","","","","","","","",""
"","","","","","image-keyboard-response","36","83096","0.0-2.0-5.0-1.7","5f4fe4f1af0392121538a250","A3","batch1","","3222.9000000953674","stim/no_33_1_b.png","j","pattern_response","true","j","pattern_15","3222.9000000953674","true","8","","","","","","","","","","","","","","","","","","",""
"","","","","","html-keyboard-response","37","84398","0.0-2.0-5.0-0.8","5f4fe4f1af0392121538a250","A3","batch1","","null","<p class=block-text>Trial 9 out of 78</p>","null","pattern_show_trial_num","","","","","","","","","","","","","","","","","","","","","","","","",""
"","","","","","image-keyboard-response","38","85162","0.0-2.0-5.0-1.8","5f4fe4f1af0392121538a250","A3","batch1","","763","stim/yes_70_ver_b1.png","f","pattern_response","true","f","pattern_80","763","true","9","","","","","","","","","","","","","","","","","","",""
"","","","","","html-keyboard-response","39","86472","0.0-2.0-5.0-0.9","5f4fe4f1af0392121538a250","A3","batch1","","null","<p class=block-text>Trial 10 out of 78</p>","null","pattern_show_trial_num","","","","","","","","","","","","","","","","","","","","","","","","",""
"","","","","","image-keyboard-response","40","92498","0.0-2.0-5.0-1.9","5f4fe4f1af0392121538a250","A3","batch1","","6025.599999904633","stim/no_58_1_w.png","j","pattern_response","true","j","pattern_35","6025.599999904633","true","10","","","","","","","","","","","","","","","","","","",""
"","","","","","html-keyboard-response","41","93800","0.0-2.0-5.0-0.10","5f4fe4f1af0392121538a250","A3","batch1","","null","<p class=block-text>Trial 11 out of 78</p>","null","pattern_show_trial_num","","","","","","","","","","","","","","","","","","","","","","","","",""
"","","","","","image-keyboard-response","42","94679","0.0-2.0-5.0-1.10","5f4fe4f1af0392121538a250","A3","batch1","","877.0999999046326","stim/yes_39_hor_w1_w.png","f","pattern_response","true","f","pattern_62","877.0999999046326","true","11","","","","","","","","","","","","","","","","","","",""
"","","","","","html-keyboard-response","43","95981","0.0-2.0-5.0-0.11","5f4fe4f1af0392121538a250","A3","batch1","","null","<p class=block-text>Trial 12 out of 78</p>","null","pattern_show_trial_num","","","","","","","","","","","","","","","","","","","","","","","","",""
"","","","","","image-keyboard-response","44","96739","0.0-2.0-5.0-1.11","5f4fe4f1af0392121538a250","A3","batch1","","756.8000001907349","stim/yes_29_hor_b1_b.png","f","pattern_response","true","f","pattern_52","756.8000001907349","true","12","","","","","","","","","","","","","","","","","","",""
"","","","","","html-keyboard-response","45","98042","0.0-2.0-5.0-0.12","5f4fe4f1af0392121538a250","A3","batch1","","null","<p class=block-text>Trial 13 out of 78</p>","null","pattern_show_trial_num","","","","","","","","","","","","","","","","","","","","","","","","",""
"","","","","","image-keyboard-response","46","98671","0.0-2.0-5.0-1.12","5f4fe4f1af0392121538a250","A3","batch1","","628","stim/yes_36_ver_w1_w.png","f","pattern_response","true","f","pattern_58","628","true","13","","","","","","","","","","","","","","","","","","",""
"","","","","","html-keyboard-response","47","99974","0.0-2.0-5.0-0.13","5f4fe4f1af0392121538a250","A3","batch1","","null","<p class=block-text>Trial 14 out of 78</p>","null","pattern_show_trial_num","","","","","","","","","","","","","","","","","","","","","","","","",""
"","","","","","image-keyboard-response","48","101948","0.0-2.0-5.0-1.13","5f4fe4f1af0392121538a250","A3","batch1","","1973.5","stim/no_28_2.png","j","pattern_response","true","j","pattern_11","1973.5","true","14","","","","","","","","","","","","","","","","","","",""
"","","","","","html-keyboard-response","49","103259","0.0-2.0-5.0-0.14","5f4fe4f1af0392121538a250","A3","batch1","","null","<p class=block-text>Trial 15 out of 78</p>","null","pattern_show_trial_num","","","","","","","","","","","","","","","","","","","","","","","","",""
"","","","","","image-keyboard-response","50","110162","0.0-2.0-5.0-1.14","5f4fe4f1af0392121538a250","A3","batch1","","6902","stim/yes_63_dia_b1.png","f","pattern_response","true","f","pattern_78","6902","true","15","","","","","","","","","","","","","","","","","","",""
"","","","","","html-keyboard-response","51","111463","0.0-2.0-5.0-0.15","5f4fe4f1af0392121538a250","A3","batch1","","null","<p class=block-text>Trial 16 out of 78</p>","null","pattern_show_trial_num","","","","","","","","","","","","","","","","","","","","","","","","",""
"","","","","","image-keyboard-response","52","112346","0.0-2.0-5.0-1.15","5f4fe4f1af0392121538a250","A3","batch1","","882.2999997138977","stim/yes_15_dia_b1u_b.png","f","pattern_response","true","f","pattern_44","882.2999997138977","true","16","","","","","","","","","","","","","","","","","","",""
"","","","","","html-keyboard-response","53","113655","0.0-2.0-5.0-0.16","5f4fe4f1af0392121538a250","A3","batch1","","null","<p class=block-text>Trial 17 out of 78</p>","null","pattern_show_trial_num","","","","","","","","","","","","","","","","","","","","","","","","",""
"","","","","","image-keyboard-response","54","121096","0.0-2.0-5.0-1.16","5f4fe4f1af0392121538a250","A3","batch1","","7440.199999809265","stim/yes_58_dia_w1_w.png","j","pattern_response","false","f","pattern_76","7440.199999809265","false","16","","","","","","","","","","","","","","","","","","",""
"","","","","","html-keyboard-response","55","122399","0.0-2.0-5.0-0.17","5f4fe4f1af0392121538a250","A3","batch1","","null","<p class=block-text>Trial 18 out of 78</p>","null","pattern_show_trial_num","","","","","","","","","","","","","","","","","","","","","","","","",""
"","","","","","image-keyboard-response","56","124832","0.0-2.0-5.0-1.17","5f4fe4f1af0392121538a250","A3","batch1","","2431.7000002861023","stim/no_30_1_b.png","j","pattern_response","true","j","pattern_13","2431.7000002861023","true","17","","","","","","","","","","","","","","","","","","",""
"","","","","","html-keyboard-response","57","126134","0.0-2.0-5.0-0.18","5f4fe4f1af0392121538a250","A3","batch1","","null","<p class=block-text>Trial 19 out of 78</p>","null","pattern_show_trial_num","","","","","","","","","","","","","","","","","","","","","","","","",""
"","","","","","image-keyboard-response","58","130844","0.0-2.0-5.0-1.18","5f4fe4f1af0392121538a250","A3","batch1","","4708.800000190735","stim/no_47_1_b.png","j","pattern_response","true","j","pattern_27","4708.800000190735","true","18","","","","","","","","","","","","","","","","","","",""
"","","","","","html-keyboard-response","59","132145","0.0-2.0-5.0-0.19","5f4fe4f1af0392121538a250","A3","batch1","","null","<p class=block-text>Trial 20 out of 78</p>","null","pattern_show_trial_num","","","","","","","","","","","","","","","","","","","","","","","","",""
"","","","","","image-keyboard-response","60","133113","0.0-2.0-5.0-1.19","5f4fe4f1af0392121538a250","A3","batch1","","966.1000003814697","stim/yes_26_dia_w2_w.png","f","pattern_response","true","f","pattern_50","966.1000003814697","true","19","","","","","","","","","","","","","","","","","","",""
"","","","","","html-keyboard-response","61","134413","0.0-2.0-5.0-0.20","5f4fe4f1af0392121538a250","A3","batch1","","null","<p class=block-text>Trial 21 out of 78</p>","null","pattern_show_trial_num","","","","","","","","","","","","","","","","","","","","","","","","",""
"","","","","","image-keyboard-response","62","136732","0.0-2.0-5.0-1.20","5f4fe4f1af0392121538a250","A3","batch1","","2318.2999997138977","stim/no_43_2_b.png","j","pattern_response","true","j","pattern_23","2318.2999997138977","true","20","","","","","","","","","","","","","","","","","","",""
"","","","","","html-keyboard-response","63","138035","0.0-2.0-5.0-0.21","5f4fe4f1af0392121538a250","A3","batch1","","null","<p class=block-text>Trial 22 out of 78</p>","null","pattern_show_trial_num","","","","","","","","","","","","","","","","","","","","","","","","",""
"","","","","","image-keyboard-response","64","143684","0.0-2.0-5.0-1.21","5f4fe4f1af0392121538a250","A3","batch1","","5648.39999961853","stim/yes_53_ver_b1_b.png","j","pattern_response","false","f","pattern_74","5648.39999961853","false","20","","","","","","","","","","","","","","","","","","",""
"","","","","","html-keyboard-response","65","144986","0.0-2.0-5.0-0.22","5f4fe4f1af0392121538a250","A3","batch1","","null","<p class=block-text>Trial 23 out of 78</p>","null","pattern_show_trial_num","","","","","","","","","","","","","","","","","","","","","","","","",""
"","","","","","image-keyboard-response","66","147884","0.0-2.0-5.0-1.22","5f4fe4f1af0392121538a250","A3","batch1","","2897.8999996185303","stim/yes_51_dia_b1.png","f","pattern_response","true","f","pattern_72","2897.8999996185303","true","21","","","","","","","","","","","","","","","","","","",""
"","","","","","html-keyboard-response","67","149187","0.0-2.0-5.0-0.23","5f4fe4f1af0392121538a250","A3","batch1","","null","<p class=block-text>Trial 24 out of 78</p>","null","pattern_show_trial_num","","","","","","","","","","","","","","","","","","","","","","","","",""
"","","","","","image-keyboard-response","68","150354","0.0-2.0-5.0-1.23","5f4fe4f1af0392121538a250","A3","batch1","","1165.7999997138977","stim/no_12_1.png","j","pattern_response","true","j","pattern_01","1165.7999997138977","true","22","","","","","","","","","","","","","","","","","","",""
"","","","","","html-keyboard-response","69","151657","0.0-2.0-5.0-0.24","5f4fe4f1af0392121538a250","A3","batch1","","null","<p class=block-text>Trial 25 out of 78</p>","null","pattern_show_trial_num","","","","","","","","","","","","","","","","","","","","","","","","",""
"","","","","","image-keyboard-response","70","154121","0.0-2.0-5.0-1.24","5f4fe4f1af0392121538a250","A3","batch1","","2462.4000000953674","stim/yes_46_ver_b1_b.png","f","pattern_response","true","f","pattern_68","2462.4000000953674","true","23","","","","","","","","","","","","","","","","","","",""
"","","","","","html-keyboard-response","71","155423","0.0-2.0-5.0-0.25","5f4fe4f1af0392121538a250","A3","batch1","","null","<p class=block-text>Trial 26 out of 78</p>","null","pattern_show_trial_num","","","","","","","","","","","","","","","","","","","","","","","","",""
"","","","","","image-keyboard-response","72","156655","0.0-2.0-5.0-1.25","5f4fe4f1af0392121538a250","A3","batch1","","1232","stim/yes_30_ver_b1_b.png","f","pattern_response","true","f","pattern_54","1232","true","24","","","","","","","","","","","","","","","","","","",""
"","","","","","html-keyboard-response","73","157957","0.0-2.0-5.0-0.26","5f4fe4f1af0392121538a250","A3","batch1","","null","<p class=block-text>Trial 27 out of 78</p>","null","pattern_show_trial_num","","","","","","","","","","","","","","","","","","","","","","","","",""
"","","","","","image-keyboard-response","74","161600","0.0-2.0-5.0-1.26","5f4fe4f1af0392121538a250","A3","batch1","","3642.699999809265","stim/yes_42_dia_w1_w.png","j","pattern_response","false","f","pattern_64","3642.699999809265","false","24","","","","","","","","","","","","","","","","","","",""
"","","","","","html-keyboard-response","75","162904","0.0-2.0-5.0-0.27","5f4fe4f1af0392121538a250","A3","batch1","","null","<p class=block-text>Trial 28 out of 78</p>","null","pattern_show_trial_num","","","","","","","","","","","","","","","","","","","","","","","","",""
"","","","","","image-keyboard-response","76","163647","0.0-2.0-5.0-1.27","5f4fe4f1af0392121538a250","A3","batch1","","741.5999999046326","stim/yes_12_hor_w1_w.png","f","pattern_response","true","f","pattern_42","741.5999999046326","true","25","","","","","","","","","","","","","","","","","","",""
"","","","","","html-keyboard-response","77","164949","0.0-2.0-5.0-0.28","5f4fe4f1af0392121538a250","A3","batch1","","null","<p class=block-text>Trial 29 out of 78</p>","null","pattern_show_trial_num","","","","","","","","","","","","","","","","","","","","","","","","",""
"","","","","","image-keyboard-response","78","168403","0.0-2.0-5.0-1.28","5f4fe4f1af0392121538a250","A3","batch1","","3452.2999997138977","stim/no_39_1_w.png","j","pattern_response","true","j","pattern_21","3452.2999997138977","true","26","","","","","","","","","","","","","","","","","","",""
"","","","","","html-keyboard-response","79","169716","0.0-2.0-5.0-0.29","5f4fe4f1af0392121538a250","A3","batch1","","null","<p class=block-text>Trial 30 out of 78</p>","null","pattern_show_trial_num","","","","","","","","","","","","","","","","","","","","","","","","",""
"","","","","","image-keyboard-response","80","174898","0.0-2.0-5.0-1.29","5f4fe4f1af0392121538a250","A3","batch1","","5180.900000095367","stim/no_45_1_w.png","j","pattern_response","true","j","pattern_25","5180.900000095367","true","27","","","","","","","","","","","","","","","","","","",""
"","","","","","html-keyboard-response","81","176200","0.0-2.0-5.0-0.30","5f4fe4f1af0392121538a250","A3","batch1","","null","<p class=block-text>Trial 31 out of 78</p>","null","pattern_show_trial_num","","","","","","","","","","","","","","","","","","","","","","","","",""
"","","","","","image-keyboard-response","82","177696","0.0-2.0-5.0-1.30","5f4fe4f1af0392121538a250","A3","batch1","","1494.4000000953674","stim/yes_23_ver_b1.png","f","pattern_response","true","f","pattern_48","1494.4000000953674","true","28","","","","","","","","","","","","","","","","","","",""
"","","","","","html-keyboard-response","83","179004","0.0-2.0-5.0-0.31","5f4fe4f1af0392121538a250","A3","batch1","","null","<p class=block-text>Trial 32 out of 78</p>","null","pattern_show_trial_num","","","","","","","","","","","","","","","","","","","","","","","","",""
"","","","","","image-keyboard-response","84","179898","0.0-2.0-5.0-1.31","5f4fe4f1af0392121538a250","A3","batch1","","892.5","stim/yes_37_hor_w1_w.png","f","pattern_response","true","f","pattern_60","892.5","true","29","","","","","","","","","","","","","","","","","","",""
"","","","","","html-keyboard-response","85","181199","0.0-2.0-5.0-0.32","5f4fe4f1af0392121538a250","A3","batch1","","null","<p class=block-text>Trial 33 out of 78</p>","null","pattern_show_trial_num","","","","","","","","","","","","","","","","","","","","","","","","",""
"","","","","","image-keyboard-response","86","183484","0.0-2.0-5.0-1.32","5f4fe4f1af0392121538a250","A3","batch1","","2283.699999809265","stim/no_22_1_b.png","j","pattern_response","true","j","pattern_07","2283.699999809265","true","30","","","","","","","","","","","","","","","","","","",""
"","","","","","html-keyboard-response","87","184785","0.0-2.0-5.0-0.33","5f4fe4f1af0392121538a250","A3","batch1","","null","<p class=block-text>Trial 34 out of 78</p>","null","pattern_show_trial_num","","","","","","","","","","","","","","","","","","","","","","","","",""
"","","","","","image-keyboard-response","88","187288","0.0-2.0-5.0-1.33","5f4fe4f1af0392121538a250","A3","batch1","","2501.7999997138977","stim/no_36_1_b.png","j","pattern_response","true","j","pattern_17","2501.7999997138977","true","31","","","","","","","","","","","","","","","","","","",""
"","","","","","html-keyboard-response","89","188590","0.0-2.0-5.0-0.34","5f4fe4f1af0392121538a250","A3","batch1","","null","<p class=block-text>Trial 35 out of 78</p>","null","pattern_show_trial_num","","","","","","","","","","","","","","","","","","","","","","","","",""
"","","","","","image-keyboard-response","90","192477","0.0-2.0-5.0-1.34","5f4fe4f1af0392121538a250","A3","batch1","","3885.6000003814697","stim/no_37_2_w.png","j","pattern_response","true","j","pattern_19","3885.6000003814697","true","32","","","","","","","","","","","","","","","","","","",""
"","","","","","html-keyboard-response","91","193779","0.0-2.0-5.0-0.35","5f4fe4f1af0392121538a250","A3","batch1","","null","<p class=block-text>Trial 36 out of 78</p>","null","pattern_show_trial_num","","","","","","","","","","","","","","","","","","","","","","","","",""
"","","","","","image-keyboard-response","92","195287","0.0-2.0-5.0-1.35","5f4fe4f1af0392121538a250","A3","batch1","","1506.1999998092651","stim/no_18_1_b.png","j","pattern_response","true","j","pattern_05","1506.1999998092651","true","33","","","","","","","","","","","","","","","","","","",""
"","","","","","html-keyboard-response","93","196602","0.0-2.0-5.0-0.36","5f4fe4f1af0392121538a250","A3","batch1","","null","<p class=block-text>Trial 37 out of 78</p>","null","pattern_show_trial_num","","","","","","","","","","","","","","","","","","","","","","","","",""
"","","","","","image-keyboard-response","94","198267","0.0-2.0-5.0-1.36","5f4fe4f1af0392121538a250","A3","batch1","","1663.5","stim/yes_33_dia_w1_w.png","f","pattern_response","true","f","pattern_56","1663.5","true","34","","","","","","","","","","","","","","","","","","",""
"","","","","","html-keyboard-response","95","199568","0.0-2.0-5.0-0.37","5f4fe4f1af0392121538a250","A3","batch1","","null","<p class=block-text>Trial 38 out of 78</p>","null","pattern_show_trial_num","","","","","","","","","","","","","","","","","","","","","","","","",""
"","","","","","image-keyboard-response","96","206018","0.0-2.0-5.0-1.37","5f4fe4f1af0392121538a250","A3","batch1","","6448.599999904633","stim/no_67_1.png","j","pattern_response","true","j","pattern_39","6448.599999904633","true","35","","","","","","","","","","","","","","","","","","",""
"","","","","","html-keyboard-response","97","207319","0.0-2.0-5.0-0.38","5f4fe4f1af0392121538a250","A3","batch1","","null","<p class=block-text>Trial 39 out of 78</p>","null","pattern_show_trial_num","","","","","","","","","","","","","","","","","","","","","","","","",""
"","","","","","image-keyboard-response","98","210508","0.0-2.0-5.0-1.38","5f4fe4f1af0392121538a250","A3","batch1","","3187.300000190735","stim/no_49_2_b.png","j","pattern_response","true","j","pattern_29","3187.300000190735","true","36","","","","","","","","","","","","","","","","","","",""
"","","","","","image-keyboard-response","99","212573","0.0-2.0-6.0","5f4fe4f1af0392121538a250","A3","batch1","","1562.0999999046326","stim/empty_board.png","j","attention_check","true","j","","","","","500","[""f"",""j""]","","","","","","","","","","","","","","","","",""
"","","","","","html-keyboard-response","100","213388","0.0-2.0-7.0-0.0","5f4fe4f1af0392121538a250","A3","batch1","","null","<p class=block-text>Trial 40 out of 78</p>","null","pattern_show_trial_num","","","","","","","","","","","","","","","","","","","","","","","","",""
"","","","","","image-keyboard-response","101","215307","0.0-2.0-7.0-1.0","5f4fe4f1af0392121538a250","A3","batch1","","1917.9000000953674","stim/yes_38_hor_b1_b.png","f","pattern_response","true","f","pattern_61","1917.9000000953674","true","37","","","","","","","","","","","","","","","","","","",""
"","","","","","html-keyboard-response","102","216608","0.0-2.0-7.0-0.1","5f4fe4f1af0392121538a250","A3","batch1","","null","<p class=block-text>Trial 41 out of 78</p>","null","pattern_show_trial_num","","","","","","","","","","","","","","","","","","","","","","","","",""
"","","","","","image-keyboard-response","103","221664","0.0-2.0-7.0-1.1","5f4fe4f1af0392121538a250","A3","batch1","","5054","stim/no_52_1.png","j","pattern_response","true","j","pattern_32","5054","true","38","","","","","","","","","","","","","","","","","","",""
"","","","","","html-keyboard-response","104","222965","0.0-2.0-7.0-0.2","5f4fe4f1af0392121538a250","A3","batch1","","null","<p class=block-text>Trial 42 out of 78</p>","null","pattern_show_trial_num","","","","","","","","","","","","","","","","","","","","","","","","",""
"","","","","","image-keyboard-response","105","226090","0.0-2.0-7.0-1.2","5f4fe4f1af0392121538a250","A3","batch1","","3123.5999999046326","stim/no_34_1_b.png","j","pattern_response","true","j","pattern_16","3123.5999999046326","true","39","","","","","","","","","","","","","","","","","","",""
"","","","","","html-keyboard-response","106","227392","0.0-2.0-7.0-0.3","5f4fe4f1af0392121538a250","A3","batch1","","null","<p class=block-text>Trial 43 out of 78</p>","null","pattern_show_trial_num","","","","","","","","","","","","","","","","","","","","","","","","",""
"","","","","","image-keyboard-response","107","229090","0.0-2.0-7.0-1.3","5f4fe4f1af0392121538a250","A3","batch1","","1696.6999998092651","stim/no_13_2_b.png","j","pattern_response","true","j","pattern_02","1696.6999998092651","true","40","","","","","","","","","","","","","","","","","","",""
"","","","","","html-keyboard-response","108","230392","0.0-2.0-7.0-0.4","5f4fe4f1af0392121538a250","A3","batch1","","null","<p class=block-text>Trial 44 out of 78</p>","null","pattern_show_trial_num","","","","","","","","","","","","","","","","","","","","","","","","",""
"","","","","","image-keyboard-response","109","234599","0.0-2.0-7.0-1.4","5f4fe4f1af0392121538a250","A3","batch1","","4206","stim/no_62_1_w.png","j","pattern_response","true","j","pattern_36","4206","true","41","","","","","","","","","","","","","","","","","","",""
"","","","","","html-keyboard-response","110","235901","0.0-2.0-7.0-0.5","5f4fe4f1af0392121538a250","A3","batch1","","null","<p class=block-text>Trial 45 out of 78</p>","null","pattern_show_trial_num","","","","","","","","","","","","","","","","","","","","","","","","",""
"","","","","","image-keyboard-response","111","236993","0.0-2.0-7.0-1.5","5f4fe4f1af0392121538a250","A3","batch1","","1088.3999996185303","stim/yes_17_dia_w1.png","f","pattern_response","true","f","pattern_45","1088.3999996185303","true","42","","","","","","","","","","","","","","","","","","",""
"","","","","","html-keyboard-response","112","238296","0.0-2.0-7.0-0.6","5f4fe4f1af0392121538a250","A3","batch1","","null","<p class=block-text>Trial 46 out of 78</p>","null","pattern_show_trial_num","","","","","","","","","","","","","","","","","","","","","","","","",""
"","","","","","image-keyboard-response","113","239535","0.0-2.0-7.0-1.6","5f4fe4f1af0392121538a250","A3","batch1","","1237.4000000953674","stim/yes_43_ver_w1_w.png","f","pattern_response","true","f","pattern_65","1237.4000000953674","true","43","","","","","","","","","","","","","","","","","","",""
"","","","","","html-keyboard-response","114","240840","0.0-2.0-7.0-0.7","5f4fe4f1af0392121538a250","A3","batch1","","null","<p class=block-text>Trial 47 out of 78</p>","null","pattern_show_trial_num","","","","","","","","","","","","","","","","","","","","","","","","",""
"","","","","","image-keyboard-response","115","241849","0.0-2.0-7.0-1.7","5f4fe4f1af0392121538a250","A3","batch1","","1008.6999998092651","stim/yes_55_hor_w1_w.png","f","pattern_response","true","f","pattern_75","1008.6999998092651","true","44","","","","","","","","","","","","","","","","","","",""
"","","","","","html-keyboard-response","116","243151","0.0-2.0-7.0-0.8","5f4fe4f1af0392121538a250","A3","batch1","","null","<p class=block-text>Trial 48 out of 78</p>","null","pattern_show_trial_num","","","","","","","","","","","","","","","","","","","","","","","","",""
"","","","","","image-keyboard-response","117","243912","0.0-2.0-7.0-1.8","5f4fe4f1af0392121538a250","A3","batch1","","759.6000003814697","stim/yes_14_hor_b1_w.png","f","pattern_response","true","f","pattern_43","759.6000003814697","true","45","","","","","","","","","","","","","","","","","","",""
"","","","","","html-keyboard-response","118","245213","0.0-2.0-7.0-0.9","5f4fe4f1af0392121538a250","A3","batch1","","null","<p class=block-text>Trial 49 out of 78</p>","null","pattern_show_trial_num","","","","","","","","","","","","","","","","","","","","","","","","",""
"","","","","","image-keyboard-response","119","249510","0.0-2.0-7.0-1.9","5f4fe4f1af0392121538a250","A3","batch1","","4295.60000038147","stim/no_55_1_w.png","j","pattern_response","true","j","pattern_34","4295.60000038147","true","46","","","","","","","","","","","","","","","","","","",""
"","","","","","html-keyboard-response","120","250812","0.0-2.0-7.0-0.10","5f4fe4f1af0392121538a250","A3","batch1","","null","<p class=block-text>Trial 50 out of 78</p>","null","pattern_show_trial_num","","","","","","","","","","","","","","","","","","","","","","","","",""
"","","","","","image-keyboard-response","121","252870","0.0-2.0-7.0-1.10","5f4fe4f1af0392121538a250","A3","batch1","","2057","stim/yes_29_ver_w1.png","f","pattern_response","true","f","pattern_53","2057","true","47","","","","","","","","","","","","","","","","","","",""
"","","","","","html-keyboard-response","122","254172","0.0-2.0-7.0-0.11","5f4fe4f1af0392121538a250","A3","batch1","","null","<p class=block-text>Trial 51 out of 78</p>","null","pattern_show_trial_num","","","","","","","","","","","","","","","","","","","","","","","","",""
"","","","","","image-keyboard-response","123","257196","0.0-2.0-7.0-1.11","5f4fe4f1af0392121538a250","A3","batch1","","3022.5999999046326","stim/yes_37_dia_w1.png","f","pattern_response","true","f","pattern_59","3022.5999999046326","true","48","","","","","","","","","","","","","","","","","","",""
"","","","","","html-keyboard-response","124","258497","0.0-2.0-7.0-0.12","5f4fe4f1af0392121538a250","A3","batch1","","null","<p class=block-text>Trial 52 out of 78</p>","null","pattern_show_trial_num","","","","","","","","","","","","","","","","","","","","","","","","",""
"","","","","","image-keyboard-response","125","259491","0.0-2.0-7.0-1.12","5f4fe4f1af0392121538a250","A3","batch1","","992.5","stim/yes_25_hor_b1_b.png","f","pattern_response","true","f","pattern_49","992.5","true","49","","","","","","","","","","","","","","","","","","",""
"","","","","","html-keyboard-response","126","260793","0.0-2.0-7.0-0.13","5f4fe4f1af0392121538a250","A3","batch1","","null","<p class=block-text>Trial 53 out of 78</p>","null","pattern_show_trial_num","","","","","","","","","","","","","","","","","","","","","","","","",""
"","","","","","image-keyboard-response","127","264716","0.0-2.0-7.0-1.13","5f4fe4f1af0392121538a250","A3","batch1","","3922.0999999046326","stim/no_36_2_w.png","j","pattern_response","true","j","pattern_18","3922.0999999046326","true","50","","","","","","","","","","","","","","","","","","",""
"","","","","","html-keyboard-response","128","266019","0.0-2.0-7.0-0.14","5f4fe4f1af0392121538a250","A3","batch1","","null","<p class=block-text>Trial 54 out of 78</p>","null","pattern_show_trial_num","","","","","","","","","","","","","","","","","","","","","","","","",""
"","","","","","image-keyboard-response","129","269542","0.0-2.0-7.0-1.14","5f4fe4f1af0392121538a250","A3","batch1","","3521.9000000953674","stim/no_48_1_w.png","j","pattern_response","true","j","pattern_28","3521.9000000953674","true","51","","","","","","","","","","","","","","","","","","",""
"","","","","","html-keyboard-response","130","270843","0.0-2.0-7.0-0.15","5f4fe4f1af0392121538a250","A3","batch1","","null","<p class=block-text>Trial 55 out of 78</p>","null","pattern_show_trial_num","","","","","","","","","","","","","","","","","","","","","","","","",""
"","","","","","image-keyboard-response","131","273897","0.0-2.0-7.0-1.15","5f4fe4f1af0392121538a250","A3","batch1","","3052.5999999046326","stim/no_29_1_b.png","j","pattern_response","true","j","pattern_12","3052.5999999046326","true","52","","","","","","","","","","","","","","","","","","",""
"","","","","","html-keyboard-response","132","275199","0.0-2.0-7.0-0.16","5f4fe4f1af0392121538a250","A3","batch1","","null","<p class=block-text>Trial 56 out of 78</p>","null","pattern_show_trial_num","","","","","","","","","","","","","","","","","","","","","","","","",""
"","","","","","image-keyboard-response","133","276425","0.0-2.0-7.0-1.16","5f4fe4f1af0392121538a250","A3","batch1","","1225","stim/yes_28_ver_b1.png","f","pattern_response","true","f","pattern_51","1225","true","53","","","","","","","","","","","","","","","","","","",""
"","","","","","html-keyboard-response","134","277727","0.0-2.0-7.0-0.17","5f4fe4f1af0392121538a250","A3","batch1","","null","<p class=block-text>Trial 57 out of 78</p>","null","pattern_show_trial_num","","","","","","","","","","","","","","","","","","","","","","","","",""
"","","","","","image-keyboard-response","135","279072","0.0-2.0-7.0-1.17","5f4fe4f1af0392121538a250","A3","batch1","","1343.3999996185303","stim/no_17_1_w.png","j","pattern_response","true","j","pattern_04","1343.3999996185303","true","54","","","","","","","","","","","","","","","","","","",""
"","","","","","html-keyboard-response","136","280374","0.0-2.0-7.0-0.18","5f4fe4f1af0392121538a250","A3","batch1","","null","<p class=block-text>Trial 58 out of 78</p>","null","pattern_show_trial_num","","","","","","","","","","","","","","","","","","","","","","","","",""
"","","","","","image-keyboard-response","137","284458","0.0-2.0-7.0-1.18","5f4fe4f1af0392121538a250","A3","batch1","","4083.1000003814697","stim/no_46_1_b.png","j","pattern_response","true","j","pattern_26","4083.1000003814697","true","55","","","","","","","","","","","","","","","","","","",""
"","","","","","html-keyboard-response","138","285761","0.0-2.0-7.0-0.19","5f4fe4f1af0392121538a250","A3","batch1","","null","<p class=block-text>Trial 59 out of 78</p>","null","pattern_show_trial_num","","","","","","","","","","","","","","","","","","","","","","","","",""
"","","","","","image-keyboard-response","139","286702","0.0-2.0-7.0-1.19","5f4fe4f1af0392121538a250","A3","batch1","","940","stim/yes_67_hor_b1.png","f","pattern_response","true","f","pattern_79","940","true","56","","","","","","","","","","","","","","","","","","",""
"","","","","","html-keyboard-response","140","288004","0.0-2.0-7.0-0.20","5f4fe4f1af0392121538a250","A3","batch1","","null","<p class=block-text>Trial 60 out of 78</p>","null","pattern_show_trial_num","","","","","","","","","","","","","","","","","","","","","","","","",""
"","","","","","image-keyboard-response","141","289083","0.0-2.0-7.0-1.20","5f4fe4f1af0392121538a250","A3","batch1","","1078.4000000953674","stim/yes_60_ver_b1_b.png","f","pattern_response","true","f","pattern_77","1078.4000000953674","true","57","","","","","","","","","","","","","","","","","","",""
"","","","","","html-keyboard-response","142","290394","0.0-2.0-7.0-0.21","5f4fe4f1af0392121538a250","A3","batch1","","null","<p class=block-text>Trial 61 out of 78</p>","null","pattern_show_trial_num","","","","","","","","","","","","","","","","","","","","","","","","",""
"","","","","","image-keyboard-response","143","291203","0.0-2.0-7.0-1.21","5f4fe4f1af0392121538a250","A3","batch1","","807.8000001907349","stim/yes_22_ver_w1.png","f","pattern_response","true","f","pattern_47","807.8000001907349","true","58","","","","","","","","","","","","","","","","","","",""
"","","","","","html-keyboard-response","144","292511","0.0-2.0-7.0-0.22","5f4fe4f1af0392121538a250","A3","batch1","","null","<p class=block-text>Trial 62 out of 78</p>","null","pattern_show_trial_num","","","","","","","","","","","","","","","","","","","","","","","","",""
"","","","","","image-keyboard-response","145","294254","0.0-2.0-7.0-1.22","5f4fe4f1af0392121538a250","A3","batch1","","1742.4000000953674","stim/yes_52_ver_w1.png","f","pattern_response","true","f","pattern_73","1742.4000000953674","true","59","","","","","","","","","","","","","","","","","","",""
"","","","","","html-keyboard-response","146","295557","0.0-2.0-7.0-0.23","5f4fe4f1af0392121538a250","A3","batch1","","null","<p class=block-text>Trial 63 out of 78</p>","null","pattern_show_trial_num","","","","","","","","","","","","","","","","","","","","","","","","",""
"","","","","","image-keyboard-response","147","298318","0.0-2.0-7.0-1.23","5f4fe4f1af0392121538a250","A3","batch1","","2759.800000190735","stim/yes_40_dia_b1_b.png","f","pattern_response","true","f","pattern_63","2759.800000190735","true","60","","","","","","","","","","","","","","","","","","",""
"","","","","","html-keyboard-response","148","299633","0.0-2.0-7.0-0.24","5f4fe4f1af0392121538a250","A3","batch1","","null","<p class=block-text>Trial 64 out of 78</p>","null","pattern_show_trial_num","","","","","","","","","","","","","","","","","","","","","","","","",""
"","","","","","image-keyboard-response","149","302685","0.0-2.0-7.0-1.24","5f4fe4f1af0392121538a250","A3","batch1","","3050.800000190735","stim/no_38_1_b.png","j","pattern_response","true","j","pattern_20","3050.800000190735","true","61","","","","","","","","","","","","","","","","","","",""
"","","","","","html-keyboard-response","150","303986","0.0-2.0-7.0-0.25","5f4fe4f1af0392121538a250","A3","batch1","","null","<p class=block-text>Trial 65 out of 78</p>","null","pattern_show_trial_num","","","","","","","","","","","","","","","","","","","","","","","","",""
"","","","","","image-keyboard-response","151","309760","0.0-2.0-7.0-1.25","5f4fe4f1af0392121538a250","A3","batch1","","5772.700000286102","stim/no_65_1_b.png","j","pattern_response","true","j","pattern_38","5772.700000286102","true","62","","","","","","","","","","","","","","","","","","",""
"","","","","","html-keyboard-response","152","311063","0.0-2.0-7.0-0.26","5f4fe4f1af0392121538a250","A3","batch1","","null","<p class=block-text>Trial 66 out of 78</p>","null","pattern_show_trial_num","","","","","","","","","","","","","","","","","","","","","","","","",""
"","","","","","image-keyboard-response","153","312790","0.0-2.0-7.0-1.26","5f4fe4f1af0392121538a250","A3","batch1","","1726.4000000953674","stim/no_23_1.png","j","pattern_response","true","j","pattern_08","1726.4000000953674","true","63","","","","","","","","","","","","","","","","","","",""
"","","","","","html-keyboard-response","154","314092","0.0-2.0-7.0-0.27","5f4fe4f1af0392121538a250","A3","batch1","","null","<p class=block-text>Trial 67 out of 78</p>","null","pattern_show_trial_num","","","","","","","","","","","","","","","","","","","","","","","","",""
"","","","","","image-keyboard-response","155","316135","0.0-2.0-7.0-1.27","5f4fe4f1af0392121538a250","A3","batch1","","2042.1000003814697","stim/no_20_1_w.png","j","pattern_response","true","j","pattern_06","2042.1000003814697","true","64","","","","","","","","","","","","","","","","","","",""
"","","","","","html-keyboard-response","156","317436","0.0-2.0-7.0-0.28","5f4fe4f1af0392121538a250","A3","batch1","","null","<p class=block-text>Trial 68 out of 78</p>","null","pattern_show_trial_num","","","","","","","","","","","","","","","","","","","","","","","","",""
"","","","","","image-keyboard-response","157","319111","0.0-2.0-7.0-1.28","5f4fe4f1af0392121538a250","A3","batch1","","1673.6999998092651","stim/no_26_1_w.png","j","pattern_response","true","j","pattern_10","1673.6999998092651","true","65","","","","","","","","","","","","","","","","","","",""
"","","","","","html-keyboard-response","158","320413","0.0-2.0-7.0-0.29","5f4fe4f1af0392121538a250","A3","batch1","","null","<p class=block-text>Trial 69 out of 78</p>","null","pattern_show_trial_num","","","","","","","","","","","","","","","","","","","","","","","","",""
"","","","","","image-keyboard-response","159","323179","0.0-2.0-7.0-1.29","5f4fe4f1af0392121538a250","A3","batch1","","2762.199999809265","stim/no_44_1.png","j","pattern_response","true","j","pattern_24","2762.199999809265","true","66","","","","","","","","","","","","","","","","","","",""
"","","","","","html-keyboard-response","160","324481","0.0-2.0-7.0-0.30","5f4fe4f1af0392121538a250","A3","batch1","","null","<p class=block-text>Trial 70 out of 78</p>","null","pattern_show_trial_num","","","","","","","","","","","","","","","","","","","","","","","","",""
"","","","","","image-keyboard-response","161","326598","0.0-2.0-7.0-1.30","5f4fe4f1af0392121538a250","A3","batch1","","2116.1000003814697","stim/no_42_1_w.png","j","pattern_response","true","j","pattern_22","2116.1000003814697","true","67","","","","","","","","","","","","","","","","","","",""
"","","","","","html-keyboard-response","162","327899","0.0-2.0-7.0-0.31","5f4fe4f1af0392121538a250","A3","batch1","","null","<p class=block-text>Trial 71 out of 78</p>","null","pattern_show_trial_num","","","","","","","","","","","","","","","","","","","","","","","","",""
"","","","","","image-keyboard-response","163","328944","0.0-2.0-7.0-1.31","5f4fe4f1af0392121538a250","A3","batch1","","1044","stim/yes_45_hor_b2_b.png","f","pattern_response","true","f","pattern_67","1044","true","68","","","","","","","","","","","","","","","","","","",""
"","","","","","html-keyboard-response","164","330246","0.0-2.0-7.0-0.32","5f4fe4f1af0392121538a250","A3","batch1","","null","<p class=block-text>Trial 72 out of 78</p>","null","pattern_show_trial_num","","","","","","","","","","","","","","","","","","","","","","","","",""
"","","","","","image-keyboard-response","165","333340","0.0-2.0-7.0-1.32","5f4fe4f1af0392121538a250","A3","batch1","","3093.2999997138977","stim/yes_48_dia_w1_w.png","j","pattern_response","false","f","pattern_69","3093.2999997138977","false","68","","","","","","","","","","","","","","","","","","",""
"","","","","","html-keyboard-response","166","334641","0.0-2.0-7.0-0.33","5f4fe4f1af0392121538a250","A3","batch1","","null","<p class=block-text>Trial 73 out of 78</p>","null","pattern_show_trial_num","","","","","","","","","","","","","","","","","","","","","","","","",""
"","","","","","image-keyboard-response","167","337910","0.0-2.0-7.0-1.33","5f4fe4f1af0392121538a250","A3","batch1","","3268.2999997138977","stim/yes_50_dia_w1.png","j","pattern_response","false","f","pattern_71","3268.2999997138977","false","68","","","","","","","","","","","","","","","","","","",""
"","","","","","html-keyboard-response","168","339217","0.0-2.0-7.0-0.34","5f4fe4f1af0392121538a250","A3","batch1","","null","<p class=block-text>Trial 74 out of 78</p>","null","pattern_show_trial_num","","","","","","","","","","","","","","","","","","","","","","","","",""
"","","","","","image-keyboard-response","169","340898","0.0-2.0-7.0-1.34","5f4fe4f1af0392121538a250","A3","batch1","","1679.0999999046326","stim/no_32_1_w.png","j","pattern_response","true","j","pattern_14","1679.0999999046326","true","69","","","","","","","","","","","","","","","","","","",""
"","","","","","html-keyboard-response","170","342200","0.0-2.0-7.0-0.35","5f4fe4f1af0392121538a250","A3","batch1","","null","<p class=block-text>Trial 75 out of 78</p>","null","pattern_show_trial_num","","","","","","","","","","","","","","","","","","","","","","","","",""
"","","","","","image-keyboard-response","171","344353","0.0-2.0-7.0-1.35","5f4fe4f1af0392121538a250","A3","batch1","","2151.5","stim/yes_31_hor_b1.png","j","pattern_response","false","f","pattern_55","2151.5","false","69","","","","","","","","","","","","","","","","","","",""
"","","","","","html-keyboard-response","172","345666","0.0-2.0-7.0-0.36","5f4fe4f1af0392121538a250","A3","batch1","","null","<p class=block-text>Trial 76 out of 78</p>","null","pattern_show_trial_num","","","","","","","","","","","","","","","","","","","","","","","","",""
"","","","","","image-keyboard-response","173","347351","0.0-2.0-7.0-1.36","5f4fe4f1af0392121538a250","A3","batch1","","1684.5","stim/yes_35_dia_b1.png","j","pattern_response","false","f","pattern_57","1684.5","false","69","","","","","","","","","","","","","","","","","","",""
"","","","","","html-keyboard-response","174","348654","0.0-2.0-7.0-0.37","5f4fe4f1af0392121538a250","A3","batch1","","null","<p class=block-text>Trial 77 out of 78</p>","null","pattern_show_trial_num","","","","","","","","","","","","","","","","","","","","","","","","",""
"","","","","","image-keyboard-response","175","352216","0.0-2.0-7.0-1.37","5f4fe4f1af0392121538a250","A3","batch1","","3561.0999999046326","stim/no_70_2.png","j","pattern_response","true","j","pattern_40","3561.0999999046326","true","70","","","","","","","","","","","","","","","","","","",""
"","","","","","html-keyboard-response","176","353519","0.0-2.0-7.0-0.38","5f4fe4f1af0392121538a250","A3","batch1","","null","<p class=block-text>Trial 78 out of 78</p>","null","pattern_show_trial_num","","","","","","","","","","","","","","","","","","","","","","","","",""
"","","","","","image-keyboard-response","177","355547","0.0-2.0-7.0-1.38","5f4fe4f1af0392121538a250","A3","batch1","","2027.4000000953674","stim/no_50_1.png","j","pattern_response","true","j","pattern_30","2027.4000000953674","true","71","","","","","","","","","","","","","","","","","","",""
"","","","","","html-button-response","178","357923","0.0-2.0-8.0","5f4fe4f1af0392121538a250","A3","batch1","","1875.1000003814697","<p class = block-text>This concludes the 4-in-a-row detection game.Thank you for your responses!<br>
            You responded correctly on 91% of the trials.<br>
            When you are ready, press ""Continue"" button to continue </p>","0","","","","","","","","","","","","","","","","","","","","","","","","","",""
"true","","","","","fullscreen","179","360379","0.0-3.0-0.0","5f4fe4f1af0392121538a250","A3","batch1","","","","","","","","","","","","","","","","","","","","","","","","","","","","","",""
"","","","","","instructions","180","405182","0.0-3.0-1.0-0.0-0.0","5f4fe4f1af0392121538a250","A3","batch1","[{""page_index"":0,""viewing_time"":9498.599999904633},{""page_index"":1,""viewing_time"":4679.599999904633},{""page_index"":2,""viewing_time"":3643.4000000953674},{""page_index"":3,""viewing_time"":8133.900000095367},{""page_index"":4,""viewing_time"":4697.699999809265},{""page_index"":5,""viewing_time"":11374.200000286102},{""page_index"":6,""viewing_time"":2774.4000000953674}]","44802","","","tol-instructions","","","","","","","","","","","","","","","","","","","","","","","","",""
"","","","","","html-button-response","181","406541","0.0-3.0-1.0-1.0-0.0","5f4fe4f1af0392121538a250","A3","batch1","","1357.5","<p class=block-text> Let's answer a few questions <br>","0","tol_enter_quiz","","","","","","","","","","","","","","","","","","","","","","","","",""
"","","","","","html-button-response","182","409894","0.0-3.0-1.0-1.0-1.0","5f4fe4f1af0392121538a250","A3","batch1","","3352.5","<p class = block-text>True or False: You can only move the ball on top of a peg. <br></p>","0","tol_quiz","true","","","","","","","","","","","","","","","","","","","","","","","",""
"","","","","","html-button-response","183","410768","0.0-3.0-1.0-1.0-2.0","5f4fe4f1af0392121538a250","A3","batch1","","873","<p class = block-text>Correct! You can only move the ball on top of a peg.</p>","0","tol_quiz_feedback","","","","","","","","","","","","","","","","","","","","","","","","",""
"","","","","","html-button-response","184","413301","0.0-3.0-1.0-1.0-3.0","5f4fe4f1af0392121538a250","A3","batch1","","2532.699999809265","<p class = block-text>True or False: You should try to match your board with the target board with fewest moves possible. <br></p>","0","tol_quiz","true","","","","","","","","","","","","","","","","","","","","","","","",""
"","","","","","html-button-response","185","413861","0.0-3.0-1.0-1.0-4.0","5f4fe4f1af0392121538a250","A3","batch1","","559.5","<p class = block-text>Correct! </p>","0","tol_quiz_feedback","","","","","","","","","","","","","","","","","","","","","","","","",""
"","","","","","html-button-response","186","414626","0.0-3.0-2.0","5f4fe4f1af0392121538a250","A3","batch1","","764.4000000953674","<p class=block-text> Now that you've understood the game, let's practice a few easier examples before we start!<br> <br>","0","","","","","","","","","","","","","","","","","","","","","","","","","",""
"","","","","","single-stim-button","187","416376","0.0-3.0-3.0-0.0","5f4fe4f1af0392121538a250","A3","batch1","","1748","","","tol_practice","","","","","","","","","tol_peg_2","1748","1748","0","[[1,2,0],[0,0],[0]]","1","[[1,2,0],[0,0],[3]]","practice","1748","","","","","","","",""
"","","","","","single-stim-button","188","417011","0.0-3.0-3.0-1.0","5f4fe4f1af0392121538a250","A3","batch1","","634","","","tol_practice","","","","","","","","","tol_peg_3","634","634","0","[[1,2,0],[0,0],[3]]","1","[[1,2,0],[0,0],[3]]","practice","634","","","","","","","",""
"","","","","","poldrack-single-stim","189","418012","0.0-3.0-4.0","5f4fe4f1af0392121538a250","A3","batch1","","-1","","","tol_feedback","true","","","","","","","","","1000","1000","500","","","","","","-1","none","true","","0","","",""
"","","","","","single-stim-button","190","420341","0.0-3.0-5.0-0.0","5f4fe4f1af0392121538a250","A3","batch1","","2329","","","tol_practice","","","","","","","","","tol_peg_1","2329","2329","0","[[1,0,0],[3,0],[0]]","2","[[0,0,0],[3,1],[2]]","practice","2329","","","","","","","",""
"","","","","","single-stim-button","191","421061","0.0-3.0-5.0-1.0","5f4fe4f1af0392121538a250","A3","batch1","","720","","","tol_practice","","","","","","","","","tol_peg_3","720","720","0","[[1,0,0],[3,0],[2]]","2","[[0,0,0],[3,1],[2]]","practice","720","","","","","","","",""
"","","","","","single-stim-button","192","421540","0.0-3.0-5.1-0.1","5f4fe4f1af0392121538a250","A3","batch1","","479","","","tol_practice","","","","","","","","","tol_peg_1","479","479","0","[[0,0,0],[3,0],[2]]","3","[[0,0,0],[3,1],[2]]","practice","479","","","","","","","",""
"","","","","","single-stim-button","193","422061","0.0-3.0-5.1-1.1","5f4fe4f1af0392121538a250","A3","batch1","","520","","","tol_practice","","","","","","","","","tol_peg_2","520","520","0","[[0,0,0],[3,1],[2]]","3","[[0,0,0],[3,1],[2]]","practice","520","","","","","","","",""
"","","","","","poldrack-single-stim","194","423063","0.0-3.0-6.0","5f4fe4f1af0392121538a250","A3","batch1","","-1","","","tol_feedback","true","","","","","","","","","1000","1000","500","","","","","","-1","none","true","","0","","",""
"","","","","","single-stim-button","195","424865","0.0-3.0-7.0-0.0","5f4fe4f1af0392121538a250","A3","batch1","","1802","","","tol_practice","","","","","","","","","tol_peg_2","1802","1802","0","[[1,2,0],[0,0],[0]]","4","[[1,0,0],[2,0],[3]]","practice","1802","","","","","","","",""
"","","","","","single-stim-button","196","425602","0.0-3.0-7.0-1.0","5f4fe4f1af0392121538a250","A3","batch1","","736","","","tol_practice","","","","","","","","","tol_peg_3","736","736","0","[[1,2,0],[0,0],[3]]","4","[[1,0,0],[2,0],[3]]","practice","736","","","","","","","",""
"","","","","","single-stim-button","197","426188","0.0-3.0-7.1-0.1","5f4fe4f1af0392121538a250","A3","batch1","","585","","","tol_practice","","","","","","","","","tol_peg_1","585","585","0","[[1,0,0],[0,0],[3]]","5","[[1,0,0],[2,0],[3]]","practice","585","","","","","","","",""
"","","","","","single-stim-button","198","426597","0.0-3.0-7.1-1.1","5f4fe4f1af0392121538a250","A3","batch1","","409","","","tol_practice","","","","","","","","","tol_peg_2","409","409","0","[[1,0,0],[2,0],[3]]","5","[[1,0,0],[2,0],[3]]","practice","409","","","","","","","",""
"","","","","","poldrack-single-stim","199","427598","0.0-3.0-8.0","5f4fe4f1af0392121538a250","A3","batch1","","-1","","","tol_feedback","true","","","","","","","","","1000","1000","500","","","","","","-1","none","true","","0","","",""
"","","","","","html-button-response","200","428824","0.0-3.0-9.0","5f4fe4f1af0392121538a250","A3","batch1","","1225.2000002861023","<div class = centerbox><p class = center-block-text>Great job! You are done with practice trials<br>You are about to start official trials.<br> <br> Problem <strong>1</strong> out of 25 problems</p></div>","0","tol_instruction","","","","","","","","","","","","","","","","","","","","","","","","",""
"","","","","","single-stim-button","201","431849","0.0-3.0-10.0-0.0","5f4fe4f1af0392121538a250","A3","batch1","","2024","","","tol_tohand","","","","","","","","","tol_peg_1","2024","2024","0","[[1,0,0],[3,0],[0]]","1","[[1,3,0],[2,0],[0]]","0","0","","","","","","3","",""
"","","","","","single-stim-button","202","432568","0.0-3.0-10.0-1.0","5f4fe4f1af0392121538a250","A3","batch1","","718","","","tol_toboard","","","","","","","","","tol_peg_3","718","718","0","[[1,0,0],[3,0],[2]]","1","[[1,3,0],[2,0],[0]]","0","0","","","","","","3","",""
"","","","","","single-stim-button","203","432936","0.0-3.0-10.1-0.1","5f4fe4f1af0392121538a250","A3","batch1","","367","","","tol_tohand","","","","","","","","","tol_peg_2","367","367","0","[[1,0,0],[0,0],[2]]","2","[[1,3,0],[2,0],[0]]","0","0","","","","","","3","",""
"","","","","","single-stim-button","204","433209","0.0-3.0-10.1-1.1","5f4fe4f1af0392121538a250","A3","batch1","","272","","","tol_toboard","","","","","","","","","tol_peg_1","272","272","0","[[1,3,0],[0,0],[2]]","2","[[1,3,0],[2,0],[0]]","0","0","","","","","","3","",""
"","","","","","single-stim-button","205","433767","0.0-3.0-10.2-0.2","5f4fe4f1af0392121538a250","A3","batch1","","556","","","tol_tohand","","","","","","","","","tol_peg_3","556","556","0","[[1,3,0],[0,0],[0]]","3","[[1,3,0],[2,0],[0]]","0","0","","","","","","3","",""
"","","","","","single-stim-button","206","434091","0.0-3.0-10.2-1.2","5f4fe4f1af0392121538a250","A3","batch1","","323","","","tol_toboard","","","","","","","","","tol_peg_2","323","323","0","[[1,3,0],[2,0],[0]]","3","[[1,3,0],[2,0],[0]]","0","0","","","","","","3","",""
"","","","","","poldrack-single-stim","207","435092","0.0-3.0-11.0","5f4fe4f1af0392121538a250","A3","batch1","","-1","","","tol_feedback","true","","","","","","","","","1000","1000","500","","","","","","-1","none","true","2024","2947","","",""
"","","","","","html-button-response","208","435796","0.0-3.0-12.0","5f4fe4f1af0392121538a250","A3","batch1","","703","<div class = centerbox><p class = center-block-text>problem <strong>2</strong> out of 25 problems</p></div>","0","tol_trial_num","","","","","","","","","","","","","","","","","","","","","","","","",""
"","","","","","single-stim-button","209","438679","0.0-3.0-13.0-0.0","5f4fe4f1af0392121538a250","A3","batch1","","2883","","","tol_tohand","","","","","","","","","tol_peg_2","2883","2883","0","[[1,2,0],[0,0],[0]]","1","[[2,1,3],[0,0],[0]]","1","0","","","","","","5","",""
"","","","","","single-stim-button","210","439036","0.0-3.0-13.0-1.0","5f4fe4f1af0392121538a250","A3","batch1","","356","","","tol_toboard","","","","","","","","","tol_peg_3","356","356","0","[[1,2,0],[0,0],[3]]","1","[[2,1,3],[0,0],[0]]","1","0","","","","","","5","",""
"","","","","","single-stim-button","211","439461","0.0-3.0-13.1-0.1","5f4fe4f1af0392121538a250","A3","batch1","","424","","","tol_tohand","","","","","","","","","tol_peg_1","424","424","0","[[1,0,0],[0,0],[3]]","2","[[2,1,3],[0,0],[0]]","1","0","","","","","","5","",""
"","","","","","single-stim-button","212","439858","0.0-3.0-13.1-1.1","5f4fe4f1af0392121538a250","A3","batch1","","397","","","tol_toboard","","","","","","","","","tol_peg_2","397","397","0","[[1,0,0],[2,0],[3]]","2","[[2,1,3],[0,0],[0]]","1","0","","","","","","5","",""
"","","","","","single-stim-button","213","440667","0.0-3.0-13.2-0.2","5f4fe4f1af0392121538a250","A3","batch1","","808","","","tol_tohand","","","","","","","","","tol_peg_1","808","808","0","[[0,0,0],[2,0],[3]]","3","[[2,1,3],[0,0],[0]]","1","0","","","","","","5","",""
"","","","","","single-stim-button","214","442435","0.0-3.0-13.2-1.2","5f4fe4f1af0392121538a250","A3","batch1","","1766","","","tol_toboard","","","","","","","","","tol_peg_2","1766","1766","0","[[0,0,0],[2,1],[3]]","3","[[2,1,3],[0,0],[0]]","1","0","","","","","","5","",""
"","","","","","single-stim-button","215","443385","0.0-3.0-13.3-0.3","5f4fe4f1af0392121538a250","A3","batch1","","950","","","tol_tohand","","","","","","","","","tol_peg_3","950","950","0","[[0,0,0],[2,1],[0]]","4","[[2,1,3],[0,0],[0]]","1","0","","","","","","5","",""
"","","","","","single-stim-button","216","443868","0.0-3.0-13.3-1.3","5f4fe4f1af0392121538a250","A3","batch1","","482","","","tol_toboard","","","","","","","","","tol_peg_1","482","482","0","[[3,0,0],[2,1],[0]]","4","[[2,1,3],[0,0],[0]]","1","0","","","","","","5","",""
"","","","","","single-stim-button","217","444213","0.0-3.0-13.4-0.4","5f4fe4f1af0392121538a250","A3","batch1","","345","","","tol_tohand","","","","","","","","","tol_peg_2","345","345","0","[[3,0,0],[2,0],[0]]","5","[[2,1,3],[0,0],[0]]","1","0","","","","","","5","",""
"","","","","","single-stim-button","218","444727","0.0-3.0-13.4-1.4","5f4fe4f1af0392121538a250","A3","batch1","","514","","","tol_toboard","","","","","","","","","tol_peg_3","514","514","0","[[3,0,0],[2,0],[1]]","5","[[2,1,3],[0,0],[0]]","1","0","","","","","","5","",""
"","","","","","single-stim-button","219","445352","0.0-3.0-13.5-0.5","5f4fe4f1af0392121538a250","A3","batch1","","625","","","tol_tohand","","","","","","","","","tol_peg_1","625","625","0","[[0,0,0],[2,0],[1]]","6","[[2,1,3],[0,0],[0]]","1","0","","","","","","5","",""
"","","","","","single-stim-button","220","445767","0.0-3.0-13.5-1.5","5f4fe4f1af0392121538a250","A3","batch1","","413","","","tol_toboard","","","","","","","","","tol_peg_2","413","413","0","[[0,0,0],[2,3],[1]]","6","[[2,1,3],[0,0],[0]]","1","0","","","","","","5","",""
"","","","","","single-stim-button","221","446058","0.0-3.0-13.6-0.6","5f4fe4f1af0392121538a250","A3","batch1","","291","","","tol_tohand","","","","","","","","","tol_peg_3","291","291","0","[[0,0,0],[2,3],[0]]","7","[[2,1,3],[0,0],[0]]","1","0","","","","","","5","",""
"","","","","","single-stim-button","222","447254","0.0-3.0-13.6-1.6","5f4fe4f1af0392121538a250","A3","batch1","","1195","","","tol_toboard","","","","","","","","","tol_peg_3","1195","1195","0","[[0,0,0],[2,3],[1]]","7","[[2,1,3],[0,0],[0]]","1","0","","","","","","5","",""
"","","","","","single-stim-button","223","448761","0.0-3.0-13.7-0.7","5f4fe4f1af0392121538a250","A3","batch1","","1507","","","tol_tohand","","","","","","","","","tol_peg_3","1507","1507","0","[[0,0,0],[2,3],[0]]","8","[[2,1,3],[0,0],[0]]","1","0","","","","","","5","",""
"","","","","","single-stim-button","224","449175","0.0-3.0-13.7-1.7","5f4fe4f1af0392121538a250","A3","batch1","","413","","","tol_toboard","","","","","","","","","tol_peg_1","413","413","0","[[1,0,0],[2,3],[0]]","8","[[2,1,3],[0,0],[0]]","1","0","","","","","","5","",""
"","","","","","single-stim-button","225","449537","0.0-3.0-13.8-0.8","5f4fe4f1af0392121538a250","A3","batch1","","362","","","tol_tohand","","","","","","","","","tol_peg_2","362","362","0","[[1,0,0],[2,0],[0]]","9","[[2,1,3],[0,0],[0]]","1","0","","","","","","5","",""
"","","","","","single-stim-button","226","450023","0.0-3.0-13.8-1.8","5f4fe4f1af0392121538a250","A3","batch1","","485","","","tol_toboard","","","","","","","","","tol_peg_1","485","485","0","[[1,3,0],[2,0],[0]]","9","[[2,1,3],[0,0],[0]]","1","0","","","","","","5","",""
"","","","","","single-stim-button","227","450396","0.0-3.0-13.9-0.9","5f4fe4f1af0392121538a250","A3","batch1","","371","","","tol_tohand","","","","","","","","","tol_peg_2","371","371","0","[[1,3,0],[0,0],[0]]","10","[[2,1,3],[0,0],[0]]","1","0","","","","","","5","",""
"","","","","","single-stim-button","228","450807","0.0-3.0-13.9-1.9","5f4fe4f1af0392121538a250","A3","batch1","","410","","","tol_toboard","","","","","","","","","tol_peg_3","410","410","0","[[1,3,0],[0,0],[2]]","10","[[2,1,3],[0,0],[0]]","1","0","","","","","","5","",""
"","","","","","single-stim-button","229","451177","0.0-3.0-13.10-0.10","5f4fe4f1af0392121538a250","A3","batch1","","370","","","tol_tohand","","","","","","","","","tol_peg_1","370","370","0","[[1,0,0],[0,0],[2]]","11","[[2,1,3],[0,0],[0]]","1","0","","","","","","5","",""
"","","","","","single-stim-button","230","451517","0.0-3.0-13.10-1.10","5f4fe4f1af0392121538a250","A3","batch1","","338","","","tol_toboard","","","","","","","","","tol_peg_2","338","338","0","[[1,0,0],[3,0],[2]]","11","[[2,1,3],[0,0],[0]]","1","0","","","","","","5","",""
"","","","","","single-stim-button","231","451901","0.0-3.0-13.11-0.11","5f4fe4f1af0392121538a250","A3","batch1","","384","","","tol_tohand","","","","","","","","","tol_peg_1","384","384","0","[[0,0,0],[3,0],[2]]","12","[[2,1,3],[0,0],[0]]","1","0","","","","","","5","",""
"","","","","","single-stim-button","232","452211","0.0-3.0-13.11-1.11","5f4fe4f1af0392121538a250","A3","batch1","","310","","","tol_toboard","","","","","","","","","tol_peg_2","310","310","0","[[0,0,0],[3,1],[2]]","12","[[2,1,3],[0,0],[0]]","1","0","","","","","","5","",""
"","","","","","single-stim-button","233","452546","0.0-3.0-13.12-0.12","5f4fe4f1af0392121538a250","A3","batch1","","335","","","tol_tohand","","","","","","","","","tol_peg_3","335","335","0","[[0,0,0],[3,1],[0]]","13","[[2,1,3],[0,0],[0]]","1","0","","","","","","5","",""
"","","","","","single-stim-button","234","453134","0.0-3.0-13.12-1.12","5f4fe4f1af0392121538a250","A3","batch1","","587","","","tol_toboard","","","","","","","","","tol_peg_1","587","587","0","[[2,0,0],[3,1],[0]]","13","[[2,1,3],[0,0],[0]]","1","0","","","","","","5","",""
"","","","","","single-stim-button","235","453415","0.0-3.0-13.13-0.13","5f4fe4f1af0392121538a250","A3","batch1","","280","","","tol_tohand","","","","","","","","","tol_peg_2","280","280","0","[[2,0,0],[3,0],[0]]","14","[[2,1,3],[0,0],[0]]","1","0","","","","","","5","",""
"","","","","","single-stim-button","236","453691","0.0-3.0-13.13-1.13","5f4fe4f1af0392121538a250","A3","batch1","","276","","","tol_toboard","","","","","","","","","tol_peg_1","276","276","0","[[2,1,0],[3,0],[0]]","14","[[2,1,3],[0,0],[0]]","1","0","","","","","","5","",""
"","","","","","single-stim-button","237","453942","0.0-3.0-13.14-0.14","5f4fe4f1af0392121538a250","A3","batch1","","251","","","tol_tohand","","","","","","","","","tol_peg_2","251","251","0","[[2,1,0],[0,0],[0]]","15","[[2,1,3],[0,0],[0]]","1","0","","","","","","5","",""
"","","","","","single-stim-button","238","454177","0.0-3.0-13.14-1.14","5f4fe4f1af0392121538a250","A3","batch1","","235","","","tol_toboard","","","","","","","","","tol_peg_1","235","235","0","[[2,1,3],[0,0],[0]]","15","[[2,1,3],[0,0],[0]]","1","0","","","","","","5","",""
"","","","","","poldrack-single-stim","239","455180","0.0-3.0-14.0","5f4fe4f1af0392121538a250","A3","batch1","","-1","","","tol_feedback","true","","","","","","","","","1000","1000","500","","","","","","-1","none","true","2883","10186","","",""
"","","","","","html-button-response","240","455872","0.0-3.0-15.0","5f4fe4f1af0392121538a250","A3","batch1","","691.9000000953674","<div class = centerbox><p class = center-block-text>problem <strong>3</strong> out of 25 problems</p></div>","0","tol_trial_num","","","","","","","","","","","","","","","","","","","","","","","","",""
"","","","","","single-stim-button","241","458666","0.0-3.0-16.0-0.0","5f4fe4f1af0392121538a250","A3","batch1","","2793","","","tol_tohand","","","","","","","","","tol_peg_1","2793","2793","0","[[2,0,0],[0,0],[1]]","1","[[1,2,0],[3,0],[0]]","2","0","","","","","","4","",""
"","","","","","single-stim-button","242","459031","0.0-3.0-16.0-1.0","5f4fe4f1af0392121538a250","A3","batch1","","364","","","tol_toboard","","","","","","","","","tol_peg_2","364","364","0","[[2,0,0],[3,0],[1]]","1","[[1,2,0],[3,0],[0]]","2","0","","","","","","4","",""
"","","","","","single-stim-button","243","459277","0.0-3.0-16.1-0.1","5f4fe4f1af0392121538a250","A3","batch1","","244","","","tol_tohand","","","","","","","","","tol_peg_1","244","244","0","[[0,0,0],[3,0],[1]]","2","[[1,2,0],[3,0],[0]]","2","0","","","","","","4","",""
"","","","","","single-stim-button","244","459570","0.0-3.0-16.1-1.1","5f4fe4f1af0392121538a250","A3","batch1","","292","","","tol_toboard","","","","","","","","","tol_peg_2","292","292","0","[[0,0,0],[3,2],[1]]","2","[[1,2,0],[3,0],[0]]","2","0","","","","","","4","",""
"","","","","","single-stim-button","245","460246","0.0-3.0-16.2-0.2","5f4fe4f1af0392121538a250","A3","batch1","","675","","","tol_tohand","","","","","","","","","tol_peg_3","675","675","0","[[0,0,0],[3,2],[0]]","3","[[1,2,0],[3,0],[0]]","2","0","","","","","","4","",""
"","","","","","single-stim-button","246","460657","0.0-3.0-16.2-1.2","5f4fe4f1af0392121538a250","A3","batch1","","411","","","tol_toboard","","","","","","","","","tol_peg_1","411","411","0","[[1,0,0],[3,2],[0]]","3","[[1,2,0],[3,0],[0]]","2","0","","","","","","4","",""
"","","","","","single-stim-button","247","460955","0.0-3.0-16.3-0.3","5f4fe4f1af0392121538a250","A3","batch1","","298","","","tol_tohand","","","","","","","","","tol_peg_2","298","298","0","[[1,0,0],[3,0],[0]]","4","[[1,2,0],[3,0],[0]]","2","0","","","","","","4","",""
"","","","","","single-stim-button","248","461225","0.0-3.0-16.3-1.3","5f4fe4f1af0392121538a250","A3","batch1","","269","","","tol_toboard","","","","","","","","","tol_peg_1","269","269","0","[[1,2,0],[3,0],[0]]","4","[[1,2,0],[3,0],[0]]","2","0","","","","","","4","",""
"","","","","","poldrack-single-stim","249","462237","0.0-3.0-17.0","5f4fe4f1af0392121538a250","A3","batch1","","-1","","","tol_feedback","true","","","","","","","","","1000","1000","500","","","","","","-1","none","true","2793","4010","","",""
"","","","","","html-button-response","250","462877","0.0-3.0-18.0","5f4fe4f1af0392121538a250","A3","batch1","","638.9000000953674","<div class = centerbox><p class = center-block-text>problem <strong>4</strong> out of 25 problems</p></div>","0","tol_trial_num","","","","","","","","","","","","","","","","","","","","","","","","",""
"","","","","","single-stim-button","251","465721","0.0-3.0-19.0-0.0","5f4fe4f1af0392121538a250","A3","batch1","","2844","","","tol_tohand","","","","","","","","","tol_peg_2","2844","2844","0","[[3,0,0],[2,0],[0]]","1","[[3,0,0],[1,0],[2]]","3","0","","","","","","3","",""
"","","","","","single-stim-button","252","466286","0.0-3.0-19.0-1.0","5f4fe4f1af0392121538a250","A3","batch1","","565","","","tol_toboard","","","","","","","","","tol_peg_1","565","565","0","[[3,1,0],[2,0],[0]]","1","[[3,0,0],[1,0],[2]]","3","0","","","","","","3","",""
"","","","","","single-stim-button","253","466615","0.0-3.0-19.1-0.1","5f4fe4f1af0392121538a250","A3","batch1","","328","","","tol_tohand","","","","","","","","","tol_peg_2","328","328","0","[[3,1,0],[0,0],[0]]","2","[[3,0,0],[1,0],[2]]","3","0","","","","","","3","",""
"","","","","","single-stim-button","254","466883","0.0-3.0-19.1-1.1","5f4fe4f1af0392121538a250","A3","batch1","","267","","","tol_toboard","","","","","","","","","tol_peg_3","267","267","0","[[3,1,0],[0,0],[2]]","2","[[3,0,0],[1,0],[2]]","3","0","","","","","","3","",""
"","","","","","single-stim-button","255","467294","0.0-3.0-19.2-0.2","5f4fe4f1af0392121538a250","A3","batch1","","411","","","tol_tohand","","","","","","","","","tol_peg_1","411","411","0","[[3,0,0],[0,0],[2]]","3","[[3,0,0],[1,0],[2]]","3","0","","","","","","3","",""
"","","","","","single-stim-button","256","467558","0.0-3.0-19.2-1.2","5f4fe4f1af0392121538a250","A3","batch1","","263","","","tol_toboard","","","","","","","","","tol_peg_2","263","263","0","[[3,0,0],[1,0],[2]]","3","[[3,0,0],[1,0],[2]]","3","0","","","","","","3","",""
"","","","","","poldrack-single-stim","257","468562","0.0-3.0-20.0","5f4fe4f1af0392121538a250","A3","batch1","","-1","","","tol_feedback","true","","","","","","","","","1000","1000","500","","","","","","-1","none","true","2844","3583","","",""
"","","","","","html-button-response","258","469528","0.0-3.0-21.0","5f4fe4f1af0392121538a250","A3","batch1","","965.0999999046326","<div class = centerbox><p class = center-block-text>problem <strong>5</strong> out of 25 problems</p></div>","0","tol_trial_num","","","","","","","","","","","","","","","","","","","","","","","","",""
"","","","","","single-stim-button","259","475276","0.0-3.0-22.0-0.0","5f4fe4f1af0392121538a250","A3","batch1","","5747","","","tol_tohand","","","","","","","","","tol_peg_3","5747","5747","0","[[1,0,0],[2,0],[0]]","1","[[0,0,0],[1,2],[3]]","4","0","","","","","","7","",""
"","","","","","single-stim-button","260","476983","0.0-3.0-22.0-1.0","5f4fe4f1af0392121538a250","A3","batch1","","1706","","","tol_toboard","","","","","","","","","tol_peg_1","1706","1706","0","[[1,3,0],[2,0],[0]]","1","[[0,0,0],[1,2],[3]]","4","0","","","","","","7","",""
"","","","","","single-stim-button","261","477333","0.0-3.0-22.1-0.1","5f4fe4f1af0392121538a250","A3","batch1","","349","","","tol_tohand","","","","","","","","","tol_peg_2","349","349","0","[[1,3,0],[0,0],[0]]","2","[[0,0,0],[1,2],[3]]","4","0","","","","","","7","",""
"","","","","","single-stim-button","262","477673","0.0-3.0-22.1-1.1","5f4fe4f1af0392121538a250","A3","batch1","","339","","","tol_toboard","","","","","","","","","tol_peg_3","339","339","0","[[1,3,0],[0,0],[2]]","2","[[0,0,0],[1,2],[3]]","4","0","","","","","","7","",""
"","","","","","single-stim-button","263","478139","0.0-3.0-22.2-0.2","5f4fe4f1af0392121538a250","A3","batch1","","466","","","tol_tohand","","","","","","","","","tol_peg_1","466","466","0","[[1,0,0],[0,0],[2]]","3","[[0,0,0],[1,2],[3]]","4","0","","","","","","7","",""
"","","","","","single-stim-button","264","481268","0.0-3.0-22.2-1.2","5f4fe4f1af0392121538a250","A3","batch1","","3129","","","tol_toboard","","","","","","","","","tol_peg_2","3129","3129","0","[[1,0,0],[3,0],[2]]","3","[[0,0,0],[1,2],[3]]","4","0","","","","","","7","",""
"","","","","","single-stim-button","265","481617","0.0-3.0-22.3-0.3","5f4fe4f1af0392121538a250","A3","batch1","","348","","","tol_tohand","","","","","","","","","tol_peg_1","348","348","0","[[0,0,0],[3,0],[2]]","4","[[0,0,0],[1,2],[3]]","4","0","","","","","","7","",""
"","","","","","single-stim-button","266","481988","0.0-3.0-22.3-1.3","5f4fe4f1af0392121538a250","A3","batch1","","371","","","tol_toboard","","","","","","","","","tol_peg_2","371","371","0","[[0,0,0],[3,1],[2]]","4","[[0,0,0],[1,2],[3]]","4","0","","","","","","7","",""
"","","","","","single-stim-button","267","482551","0.0-3.0-22.4-0.4","5f4fe4f1af0392121538a250","A3","batch1","","561","","","tol_tohand","","","","","","","","","tol_peg_2","561","561","0","[[0,0,0],[3,0],[2]]","5","[[0,0,0],[1,2],[3]]","4","0","","","","","","7","",""
"","","","","","single-stim-button","268","482840","0.0-3.0-22.4-1.4","5f4fe4f1af0392121538a250","A3","batch1","","289","","","tol_toboard","","","","","","","","","tol_peg_1","289","289","0","[[1,0,0],[3,0],[2]]","5","[[0,0,0],[1,2],[3]]","4","0","","","","","","7","",""
"","","","","","single-stim-button","269","483273","0.0-3.0-22.5-0.5","5f4fe4f1af0392121538a250","A3","batch1","","431","","","tol_tohand","","","","","","","","","tol_peg_3","431","431","0","[[1,0,0],[3,0],[0]]","6","[[0,0,0],[1,2],[3]]","4","0","","","","","","7","",""
"","","","","","single-stim-button","270","483576","0.0-3.0-22.5-1.5","5f4fe4f1af0392121538a250","A3","batch1","","303","","","tol_toboard","","","","","","","","","tol_peg_1","303","303","0","[[1,2,0],[3,0],[0]]","6","[[0,0,0],[1,2],[3]]","4","0","","","","","","7","",""
"","","","","","single-stim-button","271","483915","0.0-3.0-22.6-0.6","5f4fe4f1af0392121538a250","A3","batch1","","337","","","tol_tohand","","","","","","","","","tol_peg_2","337","337","0","[[1,2,0],[0,0],[0]]","7","[[0,0,0],[1,2],[3]]","4","0","","","","","","7","",""
"","","","","","single-stim-button","272","484195","0.0-3.0-22.6-1.6","5f4fe4f1af0392121538a250","A3","batch1","","279","","","tol_toboard","","","","","","","","","tol_peg_3","279","279","0","[[1,2,0],[0,0],[3]]","7","[[0,0,0],[1,2],[3]]","4","0","","","","","","7","",""
"","","","","","single-stim-button","273","485431","0.0-3.0-22.7-0.7","5f4fe4f1af0392121538a250","A3","batch1","","1235","","","tol_tohand","","","","","","","","","tol_peg_1","1235","1235","0","[[1,0,0],[0,0],[3]]","8","[[0,0,0],[1,2],[3]]","4","0","","","","","","7","",""
"","","","","","single-stim-button","274","485800","0.0-3.0-22.7-1.7","5f4fe4f1af0392121538a250","A3","batch1","","368","","","tol_toboard","","","","","","","","","tol_peg_2","368","368","0","[[1,0,0],[2,0],[3]]","8","[[0,0,0],[1,2],[3]]","4","0","","","","","","7","",""
"","","","","","single-stim-button","275","486149","0.0-3.0-22.8-0.8","5f4fe4f1af0392121538a250","A3","batch1","","348","","","tol_tohand","","","","","","","","","tol_peg_1","348","348","0","[[0,0,0],[2,0],[3]]","9","[[0,0,0],[1,2],[3]]","4","0","","","","","","7","",""
"","","","","","single-stim-button","276","487175","0.0-3.0-22.8-1.8","5f4fe4f1af0392121538a250","A3","batch1","","1026","","","tol_toboard","","","","","","","","","tol_peg_2","1026","1026","0","[[0,0,0],[2,1],[3]]","9","[[0,0,0],[1,2],[3]]","4","0","","","","","","7","",""
"","","","","","single-stim-button","277","487514","0.0-3.0-22.9-0.9","5f4fe4f1af0392121538a250","A3","batch1","","339","","","tol_tohand","","","","","","","","","tol_peg_3","339","339","0","[[0,0,0],[2,1],[0]]","10","[[0,0,0],[1,2],[3]]","4","0","","","","","","7","",""
"","","","","","single-stim-button","278","487808","0.0-3.0-22.9-1.9","5f4fe4f1af0392121538a250","A3","batch1","","294","","","tol_toboard","","","","","","","","","tol_peg_1","294","294","0","[[3,0,0],[2,1],[0]]","10","[[0,0,0],[1,2],[3]]","4","0","","","","","","7","",""
"","","","","","single-stim-button","279","488128","0.0-3.0-22.10-0.10","5f4fe4f1af0392121538a250","A3","batch1","","320","","","tol_tohand","","","","","","","","","tol_peg_2","320","320","0","[[3,0,0],[2,0],[0]]","11","[[0,0,0],[1,2],[3]]","4","0","","","","","","7","",""
"","","","","","single-stim-button","280","488486","0.0-3.0-22.10-1.10","5f4fe4f1af0392121538a250","A3","batch1","","358","","","tol_toboard","","","","","","","","","tol_peg_3","358","358","0","[[3,0,0],[2,0],[1]]","11","[[0,0,0],[1,2],[3]]","4","0","","","","","","7","",""
"","","","","","single-stim-button","281","488769","0.0-3.0-22.11-0.11","5f4fe4f1af0392121538a250","A3","batch1","","283","","","tol_tohand","","","","","","","","","tol_peg_2","283","283","0","[[3,0,0],[0,0],[1]]","12","[[0,0,0],[1,2],[3]]","4","0","","","","","","7","",""
"","","","","","single-stim-button","282","490007","0.0-3.0-22.11-1.11","5f4fe4f1af0392121538a250","A3","batch1","","1237","","","tol_toboard","","","","","","","","","tol_peg_1","1237","1237","0","[[3,2,0],[0,0],[1]]","12","[[0,0,0],[1,2],[3]]","4","0","","","","","","7","",""
"","","","","","single-stim-button","283","490399","0.0-3.0-22.12-0.12","5f4fe4f1af0392121538a250","A3","batch1","","391","","","tol_tohand","","","","","","","","","tol_peg_3","391","391","0","[[3,2,0],[0,0],[0]]","13","[[0,0,0],[1,2],[3]]","4","0","","","","","","7","",""
"","","","","","single-stim-button","284","490835","0.0-3.0-22.12-1.12","5f4fe4f1af0392121538a250","A3","batch1","","435","","","tol_toboard","","","","","","","","","tol_peg_2","435","435","0","[[3,2,0],[1,0],[0]]","13","[[0,0,0],[1,2],[3]]","4","0","","","","","","7","",""
"","","","","","single-stim-button","285","491138","0.0-3.0-22.13-0.13","5f4fe4f1af0392121538a250","A3","batch1","","302","","","tol_tohand","","","","","","","","","tol_peg_1","302","302","0","[[3,0,0],[1,0],[0]]","14","[[0,0,0],[1,2],[3]]","4","0","","","","","","7","",""
"","","","","","single-stim-button","286","491431","0.0-3.0-22.13-1.13","5f4fe4f1af0392121538a250","A3","batch1","","292","","","tol_toboard","","","","","","","","","tol_peg_2","292","292","0","[[3,0,0],[1,2],[0]]","14","[[0,0,0],[1,2],[3]]","4","0","","","","","","7","",""
"","","","","","single-stim-button","287","491726","0.0-3.0-22.14-0.14","5f4fe4f1af0392121538a250","A3","batch1","","294","","","tol_tohand","","","","","","","","","tol_peg_1","294","294","0","[[0,0,0],[1,2],[0]]","15","[[0,0,0],[1,2],[3]]","4","0","","","","","","7","",""
"","","","","","single-stim-button","288","492158","0.0-3.0-22.14-1.14","5f4fe4f1af0392121538a250","A3","batch1","","432","","","tol_toboard","","","","","","","","","tol_peg_3","432","432","0","[[0,0,0],[1,2],[3]]","15","[[0,0,0],[1,2],[3]]","4","0","","","","","","7","",""
"","","","","","poldrack-single-stim","289","493160","0.0-3.0-23.0","5f4fe4f1af0392121538a250","A3","batch1","","-1","","","tol_feedback","true","","","","","","","","","1000","1000","500","","","","","","-1","none","true","5747","11751","","",""
"","","","","","html-button-response","290","493957","0.0-3.0-24.0","5f4fe4f1af0392121538a250","A3","batch1","","796.9000000953674","<div class = centerbox><p class = center-block-text>problem <strong>6</strong> out of 25 problems</p></div>","0","tol_trial_num","","","","","","","","","","","","","","","","","","","","","","","","",""
"","","","","","single-stim-button","291","502462","0.0-3.0-25.0-0.0","5f4fe4f1af0392121538a250","A3","batch1","","8504","","","tol_tohand","","","","","","","","","tol_peg_2","8504","8504","0","[[0,0,0],[1,0],[3]]","1","[[1,0,0],[2,3],[0]]","5","0","","","","","","6","",""
"","","","","","single-stim-button","292","502890","0.0-3.0-25.0-1.0","5f4fe4f1af0392121538a250","A3","batch1","","427","","","tol_toboard","","","","","","","","","tol_peg_1","427","427","0","[[2,0,0],[1,0],[3]]","1","[[1,0,0],[2,3],[0]]","5","0","","","","","","6","",""
"","","","","","single-stim-button","293","504193","0.0-3.0-25.1-0.1","5f4fe4f1af0392121538a250","A3","batch1","","1302","","","tol_tohand","","","","","","","","","tol_peg_2","1302","1302","0","[[2,0,0],[0,0],[3]]","2","[[1,0,0],[2,3],[0]]","5","0","","","","","","6","",""
"","","","","","single-stim-button","294","512213","0.0-3.0-25.1-1.1","5f4fe4f1af0392121538a250","A3","batch1","","8019","","","tol_toboard","","","","","","","","","tol_peg_1","8019","8019","0","[[2,1,0],[0,0],[3]]","2","[[1,0,0],[2,3],[0]]","5","0","","","","","","6","",""
"","","","","","single-stim-button","295","513126","0.0-3.0-25.2-0.2","5f4fe4f1af0392121538a250","A3","batch1","","912","","","tol_tohand","","","","","","","","","tol_peg_3","912","912","0","[[2,1,0],[0,0],[0]]","3","[[1,0,0],[2,3],[0]]","5","0","","","","","","6","",""
"","","","","","single-stim-button","296","513772","0.0-3.0-25.2-1.2","5f4fe4f1af0392121538a250","A3","batch1","","645","","","tol_toboard","","","","","","","","","tol_peg_2","645","645","0","[[2,1,0],[3,0],[0]]","3","[[1,0,0],[2,3],[0]]","5","0","","","","","","6","",""
"","","","","","single-stim-button","297","514245","0.0-3.0-25.3-0.3","5f4fe4f1af0392121538a250","A3","batch1","","471","","","tol_tohand","","","","","","","","","tol_peg_1","471","471","0","[[2,0,0],[3,0],[0]]","4","[[1,0,0],[2,3],[0]]","5","0","","","","","","6","",""
"","","","","","single-stim-button","298","514681","0.0-3.0-25.3-1.3","5f4fe4f1af0392121538a250","A3","batch1","","435","","","tol_toboard","","","","","","","","","tol_peg_3","435","435","0","[[2,0,0],[3,0],[1]]","4","[[1,0,0],[2,3],[0]]","5","0","","","","","","6","",""
"","","","","","single-stim-button","299","515467","0.0-3.0-25.4-0.4","5f4fe4f1af0392121538a250","A3","batch1","","786","","","tol_tohand","","","","","","","","","tol_peg_1","786","786","0","[[0,0,0],[3,0],[1]]","5","[[1,0,0],[2,3],[0]]","5","0","","","","","","6","",""
"","","","","","single-stim-button","300","518056","0.0-3.0-25.4-1.4","5f4fe4f1af0392121538a250","A3","batch1","","2588","","","tol_toboard","","","","","","","","","tol_peg_1","2588","2588","0","[[2,0,0],[3,0],[1]]","5","[[1,0,0],[2,3],[0]]","5","0","","","","","","6","",""
"","","","","","single-stim-button","301","519370","0.0-3.0-25.5-0.5","5f4fe4f1af0392121538a250","A3","batch1","","1314","","","tol_tohand","","","","","","","","","tol_peg_2","1314","1314","0","[[2,0,0],[0,0],[1]]","6","[[1,0,0],[2,3],[0]]","5","0","","","","","","6","",""
"","","","","","single-stim-button","302","519653","0.0-3.0-25.5-1.5","5f4fe4f1af0392121538a250","A3","batch1","","283","","","tol_toboard","","","","","","","","","tol_peg_1","283","283","0","[[2,3,0],[0,0],[1]]","6","[[1,0,0],[2,3],[0]]","5","0","","","","","","6","",""
"","","","","","single-stim-button","303","520347","0.0-3.0-25.6-0.6","5f4fe4f1af0392121538a250","A3","batch1","","694","","","tol_tohand","","","","","","","","","tol_peg_3","694","694","0","[[2,3,0],[0,0],[0]]","7","[[1,0,0],[2,3],[0]]","5","0","","","","","","6","",""
"","","","","","single-stim-button","304","520637","0.0-3.0-25.6-1.6","5f4fe4f1af0392121538a250","A3","batch1","","289","","","tol_toboard","","","","","","","","","tol_peg_2","289","289","0","[[2,3,0],[1,0],[0]]","7","[[1,0,0],[2,3],[0]]","5","0","","","","","","6","",""
"","","","","","single-stim-button","305","520999","0.0-3.0-25.7-0.7","5f4fe4f1af0392121538a250","A3","batch1","","361","","","tol_tohand","","","","","","","","","tol_peg_1","361","361","0","[[2,0,0],[1,0],[0]]","8","[[1,0,0],[2,3],[0]]","5","0","","","","","","6","",""
"","","","","","single-stim-button","306","521450","0.0-3.0-25.7-1.7","5f4fe4f1af0392121538a250","A3","batch1","","450","","","tol_toboard","","","","","","","","","tol_peg_3","450","450","0","[[2,0,0],[1,0],[3]]","8","[[1,0,0],[2,3],[0]]","5","0","","","","","","6","",""
"","","","","","single-stim-button","307","522117","0.0-3.0-25.8-0.8","5f4fe4f1af0392121538a250","A3","batch1","","667","","","tol_tohand","","","","","","","","","tol_peg_1","667","667","0","[[0,0,0],[1,0],[3]]","9","[[1,0,0],[2,3],[0]]","5","0","","","","","","6","",""
"","","","","","single-stim-button","308","523732","0.0-3.0-25.8-1.8","5f4fe4f1af0392121538a250","A3","batch1","","1614","","","tol_toboard","","","","","","","","","tol_peg_1","1614","1614","0","[[2,0,0],[1,0],[3]]","9","[[1,0,0],[2,3],[0]]","5","0","","","","","","6","",""
"","","","","","single-stim-button","309","524015","0.0-3.0-25.9-0.9","5f4fe4f1af0392121538a250","A3","batch1","","283","","","tol_tohand","","","","","","","","","tol_peg_2","283","283","0","[[2,0,0],[0,0],[3]]","10","[[1,0,0],[2,3],[0]]","5","0","","","","","","6","",""
"","","","","","single-stim-button","310","524306","0.0-3.0-25.9-1.9","5f4fe4f1af0392121538a250","A3","batch1","","290","","","tol_toboard","","","","","","","","","tol_peg_1","290","290","0","[[2,1,0],[0,0],[3]]","10","[[1,0,0],[2,3],[0]]","5","0","","","","","","6","",""
"","","","","","single-stim-button","311","525037","0.0-3.0-25.10-0.10","5f4fe4f1af0392121538a250","A3","batch1","","731","","","tol_tohand","","","","","","","","","tol_peg_3","731","731","0","[[2,1,0],[0,0],[0]]","11","[[1,0,0],[2,3],[0]]","5","0","","","","","","6","",""
"","","","","","single-stim-button","312","525344","0.0-3.0-25.10-1.10","5f4fe4f1af0392121538a250","A3","batch1","","307","","","tol_toboard","","","","","","","","","tol_peg_2","307","307","0","[[2,1,0],[3,0],[0]]","11","[[1,0,0],[2,3],[0]]","5","0","","","","","","6","",""
"","","","","","single-stim-button","313","525620","0.0-3.0-25.11-0.11","5f4fe4f1af0392121538a250","A3","batch1","","276","","","tol_tohand","","","","","","","","","tol_peg_1","276","276","0","[[2,0,0],[3,0],[0]]","12","[[1,0,0],[2,3],[0]]","5","0","","","","","","6","",""
"","","","","","single-stim-button","314","525853","0.0-3.0-25.11-1.11","5f4fe4f1af0392121538a250","A3","batch1","","233","","","tol_toboard","","","","","","","","","tol_peg_2","233","233","0","[[2,0,0],[3,1],[0]]","12","[[1,0,0],[2,3],[0]]","5","0","","","","","","6","",""
"","","","","","single-stim-button","315","526182","0.0-3.0-25.12-0.12","5f4fe4f1af0392121538a250","A3","batch1","","328","","","tol_tohand","","","","","","","","","tol_peg_1","328","328","0","[[0,0,0],[3,1],[0]]","13","[[1,0,0],[2,3],[0]]","5","0","","","","","","6","",""
"","","","","","single-stim-button","316","526634","0.0-3.0-25.12-1.12","5f4fe4f1af0392121538a250","A3","batch1","","452","","","tol_toboard","","","","","","","","","tol_peg_3","452","452","0","[[0,0,0],[3,1],[2]]","13","[[1,0,0],[2,3],[0]]","5","0","","","","","","6","",""
"","","","","","single-stim-button","317","527682","0.0-3.0-25.13-0.13","5f4fe4f1af0392121538a250","A3","batch1","","1048","","","tol_tohand","","","","","","","","","tol_peg_2","1048","1048","0","[[0,0,0],[3,0],[2]]","14","[[1,0,0],[2,3],[0]]","5","0","","","","","","6","",""
"","","","","","single-stim-button","318","527941","0.0-3.0-25.13-1.13","5f4fe4f1af0392121538a250","A3","batch1","","259","","","tol_toboard","","","","","","","","","tol_peg_1","259","259","0","[[1,0,0],[3,0],[2]]","14","[[1,0,0],[2,3],[0]]","5","0","","","","","","6","",""
"","","","","","single-stim-button","319","529186","0.0-3.0-25.14-0.14","5f4fe4f1af0392121538a250","A3","batch1","","1244","","","tol_tohand","","","","","","","","","tol_peg_2","1244","1244","0","[[1,0,0],[0,0],[2]]","15","[[1,0,0],[2,3],[0]]","5","0","","","","","","6","",""
"","","","","","single-stim-button","320","529528","0.0-3.0-25.14-1.14","5f4fe4f1af0392121538a250","A3","batch1","","341","","","tol_toboard","","","","","","","","","tol_peg_1","341","341","0","[[1,3,0],[0,0],[2]]","15","[[1,0,0],[2,3],[0]]","5","0","","","","","","6","",""
"","","","","","single-stim-button","321","529881","0.0-3.0-25.15-0.15","5f4fe4f1af0392121538a250","A3","batch1","","352","","","tol_tohand","","","","","","","","","tol_peg_3","352","352","0","[[1,3,0],[0,0],[0]]","16","[[1,0,0],[2,3],[0]]","5","0","","","","","","6","",""
"","","","","","single-stim-button","322","530112","0.0-3.0-25.15-1.15","5f4fe4f1af0392121538a250","A3","batch1","","231","","","tol_toboard","","","","","","","","","tol_peg_2","231","231","0","[[1,3,0],[2,0],[0]]","16","[[1,0,0],[2,3],[0]]","5","0","","","","","","6","",""
"","","","","","single-stim-button","323","530416","0.0-3.0-25.16-0.16","5f4fe4f1af0392121538a250","A3","batch1","","303","","","tol_tohand","","","","","","","","","tol_peg_1","303","303","0","[[1,0,0],[2,0],[0]]","17","[[1,0,0],[2,3],[0]]","5","0","","","","","","6","",""
"","","","","","single-stim-button","324","530754","0.0-3.0-25.16-1.16","5f4fe4f1af0392121538a250","A3","batch1","","336","","","tol_toboard","","","","","","","","","tol_peg_2","336","336","0","[[1,0,0],[2,3],[0]]","17","[[1,0,0],[2,3],[0]]","5","0","","","","","","6","",""
"","","","","","poldrack-single-stim","325","531755","0.0-3.0-26.0","5f4fe4f1af0392121538a250","A3","batch1","","-1","","","tol_feedback","true","","","","","","","","","1000","1000","500","","","","","","-1","none","true","8504","19576","","",""
"","","","","","html-button-response","326","532394","0.0-3.0-27.0","5f4fe4f1af0392121538a250","A3","batch1","","638.6000003814697","<div class = centerbox><p class = center-block-text>problem <strong>7</strong> out of 25 problems</p></div>","0","tol_trial_num","","","","","","","","","","","","","","","","","","","","","","","","",""
"","","","","","single-stim-button","327","536382","0.0-3.0-28.0-0.0","5f4fe4f1af0392121538a250","A3","batch1","","3987","","","tol_tohand","","","","","","","","","tol_peg_1","3987","3987","0","[[2,0,0],[0,0],[3]]","1","[[1,2,0],[3,0],[0]]","6","0","","","","","","5","",""
"","","","","","single-stim-button","328","537437","0.0-3.0-28.0-1.0","5f4fe4f1af0392121538a250","A3","batch1","","1055","","","tol_toboard","","","","","","","","","tol_peg_1","1055","1055","0","[[2,1,0],[0,0],[3]]","1","[[1,2,0],[3,0],[0]]","6","0","","","","","","5","",""
"","","","","","single-stim-button","329","537882","0.0-3.0-28.1-0.1","5f4fe4f1af0392121538a250","A3","batch1","","445","","","tol_tohand","","","","","","","","","tol_peg_3","445","445","0","[[2,1,0],[0,0],[0]]","2","[[1,2,0],[3,0],[0]]","6","0","","","","","","5","",""
"","","","","","single-stim-button","330","538709","0.0-3.0-28.1-1.1","5f4fe4f1af0392121538a250","A3","batch1","","827","","","tol_toboard","","","","","","","","","tol_peg_2","827","827","0","[[2,1,0],[3,0],[0]]","2","[[1,2,0],[3,0],[0]]","6","0","","","","","","5","",""
"","","","","","single-stim-button","331","538991","0.0-3.0-28.2-0.2","5f4fe4f1af0392121538a250","A3","batch1","","280","","","tol_tohand","","","","","","","","","tol_peg_1","280","280","0","[[2,0,0],[3,0],[0]]","3","[[1,2,0],[3,0],[0]]","6","0","","","","","","5","",""
"","","","","","single-stim-button","332","539217","0.0-3.0-28.2-1.2","5f4fe4f1af0392121538a250","A3","batch1","","226","","","tol_toboard","","","","","","","","","tol_peg_2","226","226","0","[[2,0,0],[3,1],[0]]","3","[[1,2,0],[3,0],[0]]","6","0","","","","","","5","",""
"","","","","","single-stim-button","333","539531","0.0-3.0-28.3-0.3","5f4fe4f1af0392121538a250","A3","batch1","","313","","","tol_tohand","","","","","","","","","tol_peg_1","313","313","0","[[0,0,0],[3,1],[0]]","4","[[1,2,0],[3,0],[0]]","6","0","","","","","","5","",""
"","","","","","single-stim-button","334","539814","0.0-3.0-28.3-1.3","5f4fe4f1af0392121538a250","A3","batch1","","281","","","tol_toboard","","","","","","","","","tol_peg_3","281","281","0","[[0,0,0],[3,1],[2]]","4","[[1,2,0],[3,0],[0]]","6","0","","","","","","5","",""
"","","","","","single-stim-button","335","541027","0.0-3.0-28.4-0.4","5f4fe4f1af0392121538a250","A3","batch1","","1213","","","tol_tohand","","","","","","","","","tol_peg_2","1213","1213","0","[[0,0,0],[3,0],[2]]","5","[[1,2,0],[3,0],[0]]","6","0","","","","","","5","",""
"","","","","","single-stim-button","336","541320","0.0-3.0-28.4-1.4","5f4fe4f1af0392121538a250","A3","batch1","","292","","","tol_toboard","","","","","","","","","tol_peg_1","292","292","0","[[1,0,0],[3,0],[2]]","5","[[1,2,0],[3,0],[0]]","6","0","","","","","","5","",""
"","","","","","single-stim-button","337","541616","0.0-3.0-28.5-0.5","5f4fe4f1af0392121538a250","A3","batch1","","294","","","tol_tohand","","","","","","","","","tol_peg_3","294","294","0","[[1,0,0],[3,0],[0]]","6","[[1,2,0],[3,0],[0]]","6","0","","","","","","5","",""
"","","","","","single-stim-button","338","541926","0.0-3.0-28.5-1.5","5f4fe4f1af0392121538a250","A3","batch1","","310","","","tol_toboard","","","","","","","","","tol_peg_1","310","310","0","[[1,2,0],[3,0],[0]]","6","[[1,2,0],[3,0],[0]]","6","0","","","","","","5","",""
"","","","","","poldrack-single-stim","339","542928","0.0-3.0-29.0","5f4fe4f1af0392121538a250","A3","batch1","","-1","","","tol_feedback","true","","","","","","","","","1000","1000","500","","","","","","-1","none","true","3987","6532","","",""
"","","","","","html-button-response","340","543607","0.0-3.0-30.0","5f4fe4f1af0392121538a250","A3","batch1","","678.1999998092651","<div class = centerbox><p class = center-block-text>problem <strong>8</strong> out of 25 problems</p></div>","0","tol_trial_num","","","","","","","","","","","","","","","","","","","","","","","","",""
"","","","","","single-stim-button","341","545686","0.0-3.0-31.0-0.0","5f4fe4f1af0392121538a250","A3","batch1","","2079","","","tol_tohand","","","","","","","","","tol_peg_3","2079","2079","0","[[0,0,0],[2,3],[0]]","1","[[1,2,0],[3,0],[0]]","7","0","","","","","","4","",""
"","","","","","single-stim-button","342","546328","0.0-3.0-31.0-1.0","5f4fe4f1af0392121538a250","A3","batch1","","642","","","tol_toboard","","","","","","","","","tol_peg_1","642","642","0","[[1,0,0],[2,3],[0]]","1","[[1,2,0],[3,0],[0]]","7","0","","","","","","4","",""
"","","","","","single-stim-button","343","546638","0.0-3.0-31.1-0.1","5f4fe4f1af0392121538a250","A3","batch1","","309","","","tol_tohand","","","","","","","","","tol_peg_2","309","309","0","[[1,0,0],[2,0],[0]]","2","[[1,2,0],[3,0],[0]]","7","0","","","","","","4","",""
"","","","","","single-stim-button","344","546901","0.0-3.0-31.1-1.1","5f4fe4f1af0392121538a250","A3","batch1","","262","","","tol_toboard","","","","","","","","","tol_peg_3","262","262","0","[[1,0,0],[2,0],[3]]","2","[[1,2,0],[3,0],[0]]","7","0","","","","","","4","",""
"","","","","","single-stim-button","345","547146","0.0-3.0-31.2-0.2","5f4fe4f1af0392121538a250","A3","batch1","","245","","","tol_tohand","","","","","","","","","tol_peg_2","245","245","0","[[1,0,0],[0,0],[3]]","3","[[1,2,0],[3,0],[0]]","7","0","","","","","","4","",""
"","","","","","single-stim-button","346","547368","0.0-3.0-31.2-1.2","5f4fe4f1af0392121538a250","A3","batch1","","222","","","tol_toboard","","","","","","","","","tol_peg_1","222","222","0","[[1,2,0],[0,0],[3]]","3","[[1,2,0],[3,0],[0]]","7","0","","","","","","4","",""
"","","","","","single-stim-button","347","547649","0.0-3.0-31.3-0.3","5f4fe4f1af0392121538a250","A3","batch1","","280","","","tol_tohand","","","","","","","","","tol_peg_3","280","280","0","[[1,2,0],[0,0],[0]]","4","[[1,2,0],[3,0],[0]]","7","0","","","","","","4","",""
"","","","","","single-stim-button","348","547876","0.0-3.0-31.3-1.3","5f4fe4f1af0392121538a250","A3","batch1","","227","","","tol_toboard","","","","","","","","","tol_peg_2","227","227","0","[[1,2,0],[3,0],[0]]","4","[[1,2,0],[3,0],[0]]","7","0","","","","","","4","",""
"","","","","","poldrack-single-stim","349","548877","0.0-3.0-32.0","5f4fe4f1af0392121538a250","A3","batch1","","-1","","","tol_feedback","true","","","","","","","","","1000","1000","500","","","","","","-1","none","true","2079","2913","","",""
