"success","timeout","failed_images","failed_audio","failed_video","trial_type","trial_index","time_elapsed","internal_node_id","subject_id","study_id","session_id","view_history","rt","task","stimulus","response","correct","mouse_click","stim_duration","block_duration","timing_post_trial","current_position","tol_num_moves_made","tol_target","tol_problem_id","tol_rt","key_press","possible_responses","tol_correct","preplanning","tol_rt_per_trial","tol_min_moves","item","answer","spm_correct","spm_rt","fiar_detect_rt","fiar_detect_correct","total_correct_fiar_detect","post_trial_gap","choices"
"true","false","[]","[]","[]","preload","0","5511","0.0-0.0","5f50732850c7c600098593df","A3","batch1","","","","","","","","","","","","","","","","","","","","","","","","","","","","","",""
"true","","","","","fullscreen","1","15196","0.0-1.0-0.0","5f50732850c7c600098593df","A3","batch1","","","","","","","","","","","","","","","","","","","","","","","","","","","","","",""
"true","","","","","fullscreen","2","18025","0.0-2.0-0.0","5f50732850c7c600098593df","A3","batch1","","","","","","","","","","","","","","","","","","","","","","","","","","","","","",""
"","","","","","instructions","3","69060","0.0-2.0-1.0-0.0-0.0","5f50732850c7c600098593df","A3","batch1","[{""page_index"":0,""viewing_time"":13155},{""page_index"":1,""viewing_time"":5152.199999999255},{""page_index"":2,""viewing_time"":1611.7000000029802},{""page_index"":1,""viewing_time"":216},{""page_index"":0,""viewing_time"":1472.8999999985099},{""page_index"":1,""viewing_time"":1632.1000000014901},{""page_index"":2,""viewing_time"":5211.599999997765},{""page_index"":3,""viewing_time"":14916.60000000149},{""page_index"":4,""viewing_time"":3366.39999999851},{""page_index"":5,""viewing_time"":2883.800000000745},{""page_index"":6,""viewing_time"":1414.699999999255}]","51033.400000002235","tol-instructions","","","","","","","","","","","","","","","","","","","","","","","","","","",""
"","","","","","html-button-response","4","69965","0.0-2.0-1.0-1.0-0.0","5f50732850c7c600098593df","A3","batch1","","902.8000000007451","tol_enter_quiz","<p class=block-text> Let's answer a few questions <br>","0","","","","","","","","","","","","","","","","","","","","","","","","",""
"","","","","","html-button-response","5","74275","0.0-2.0-1.0-1.0-1.0","5f50732850c7c600098593df","A3","batch1","","4307.599999997765","tol_quiz","<p class = block-text>True or False: You can only move the ball on top of a peg. <br></p>","0","true","","","","","","","","","","","","","","","","","","","","","","","",""
"","","","","","html-button-response","6","74865","0.0-2.0-1.0-1.0-2.0","5f50732850c7c600098593df","A3","batch1","","587.3000000007451","tol_quiz_feedback","<p class = block-text>Correct! You can only move the ball on top of a peg.</p>","0","","","","","","","","","","","","","","","","","","","","","","","","",""
"","","","","","html-button-response","7","77862","0.0-2.0-1.0-1.0-3.0","5f50732850c7c600098593df","A3","batch1","","2995","tol_quiz","<p class = block-text>True or False: You should try to match your board with the target board with fewest moves possible. <br></p>","0","true","","","","","","","","","","","","","","","","","","","","","","","",""
"","","","","","html-button-response","8","78318","0.0-2.0-1.0-1.0-4.0","5f50732850c7c600098593df","A3","batch1","","454.19999999925494","tol_quiz_feedback","<p class = block-text>Correct! </p>","0","","","","","","","","","","","","","","","","","","","","","","","","",""
"","","","","","html-button-response","9","79356","0.0-2.0-2.0","5f50732850c7c600098593df","A3","batch1","","1035.0999999977648","","<p class=block-text> Now that you've understood the game, let's practice a few easier examples before we start!<br> <br>","0","","","","","","","","","","","","","","","","","","","","","","","","",""
"","","","","","single-stim-button","10","82497","0.0-2.0-3.0-0.0","5f50732850c7c600098593df","A3","batch1","","3138","tol_practice","","","","tol_peg_2","3138","3138","0","[[1,2,0],[0,0],[0]]","1","[[1,2,0],[0,0],[3]]","practice","3138","","","","","","","","","","","","","","",""
"","","","","","single-stim-button","11","83222","0.0-2.0-3.0-1.0","5f50732850c7c600098593df","A3","batch1","","723","tol_practice","","","","tol_peg_3","723","723","0","[[1,2,0],[0,0],[3]]","1","[[1,2,0],[0,0],[3]]","practice","723","","","","","","","","","","","","","","",""
"","","","","","poldrack-single-stim","12","84229","0.0-2.0-4.0","5f50732850c7c600098593df","A3","batch1","","-1","tol_feedback","","","true","","1000","1000","500","","","","","","-1","none","true","","0","","","","","","","","","",""
"","","","","","single-stim-button","13","86829","0.0-2.0-5.0-0.0","5f50732850c7c600098593df","A3","batch1","","2598","tol_practice","","","","tol_peg_1","2598","2598","0","[[1,0,0],[3,0],[0]]","2","[[0,0,0],[3,1],[2]]","practice","2598","","","","","","","","","","","","","","",""
"","","","","","single-stim-button","14","87525","0.0-2.0-5.0-1.0","5f50732850c7c600098593df","A3","batch1","","696","tol_practice","","","","tol_peg_3","696","696","0","[[1,0,0],[3,0],[2]]","2","[[0,0,0],[3,1],[2]]","practice","696","","","","","","","","","","","","","","",""
"","","","","","single-stim-button","15","88062","0.0-2.0-5.1-0.1","5f50732850c7c600098593df","A3","batch1","","535","tol_practice","","","","tol_peg_1","535","535","0","[[0,0,0],[3,0],[2]]","3","[[0,0,0],[3,1],[2]]","practice","535","","","","","","","","","","","","","","",""
"","","","","","single-stim-button","16","88535","0.0-2.0-5.1-1.1","5f50732850c7c600098593df","A3","batch1","","471","tol_practice","","","","tol_peg_2","471","471","0","[[0,0,0],[3,1],[2]]","3","[[0,0,0],[3,1],[2]]","practice","471","","","","","","","","","","","","","","",""
"","","","","","poldrack-single-stim","17","89537","0.0-2.0-6.0","5f50732850c7c600098593df","A3","batch1","","-1","tol_feedback","","","true","","1000","1000","500","","","","","","-1","none","true","","0","","","","","","","","","",""
"","","","","","single-stim-button","18","91974","0.0-2.0-7.0-0.0","5f50732850c7c600098593df","A3","batch1","","2435","tol_practice","","","","tol_peg_2","2435","2435","0","[[1,2,0],[0,0],[0]]","4","[[1,0,0],[2,0],[3]]","practice","2435","","","","","","","","","","","","","","",""
"","","","","","single-stim-button","19","92485","0.0-2.0-7.0-1.0","5f50732850c7c600098593df","A3","batch1","","509","tol_practice","","","","tol_peg_3","509","509","0","[[1,2,0],[0,0],[3]]","4","[[1,0,0],[2,0],[3]]","practice","509","","","","","","","","","","","","","","",""
"","","","","","single-stim-button","20","93374","0.0-2.0-7.1-0.1","5f50732850c7c600098593df","A3","batch1","","889","tol_practice","","","","tol_peg_1","889","889","0","[[1,0,0],[0,0],[3]]","5","[[1,0,0],[2,0],[3]]","practice","889","","","","","","","","","","","","","","",""
"","","","","","single-stim-button","21","93750","0.0-2.0-7.1-1.1","5f50732850c7c600098593df","A3","batch1","","374","tol_practice","","","","tol_peg_2","374","374","0","[[1,0,0],[2,0],[3]]","5","[[1,0,0],[2,0],[3]]","practice","374","","","","","","","","","","","","","","",""
"","","","","","poldrack-single-stim","22","94754","0.0-2.0-8.0","5f50732850c7c600098593df","A3","batch1","","-1","tol_feedback","","","true","","1000","1000","500","","","","","","-1","none","true","","0","","","","","","","","","",""
"","","","","","html-button-response","23","95574","0.0-2.0-9.0","5f50732850c7c600098593df","A3","batch1","","818.4000000022352","tol_instruction","<div class = centerbox><p class = center-block-text>Great job! You are done with practice trials<br>You are about to start official trials.<br> <br> Problem <strong>1</strong> out of 25 problems</p></div>","0","","","","","","","","","","","","","","","","","","","","","","","","",""
"","","","","","single-stim-button","24","99409","0.0-2.0-10.0-0.0","5f50732850c7c600098593df","A3","batch1","","2831","tol_tohand","","","","tol_peg_1","2831","2831","0","[[1,0,0],[3,0],[0]]","1","[[1,3,0],[2,0],[0]]","0","0","","","","","","3","","","","","","","","",""
"","","","","","single-stim-button","25","100039","0.0-2.0-10.0-1.0","5f50732850c7c600098593df","A3","batch1","","628","tol_toboard","","","","tol_peg_3","628","628","0","[[1,0,0],[3,0],[2]]","1","[[1,3,0],[2,0],[0]]","0","0","","","","","","3","","","","","","","","",""
"","","","","","single-stim-button","26","100425","0.0-2.0-10.1-0.1","5f50732850c7c600098593df","A3","batch1","","384","tol_tohand","","","","tol_peg_2","384","384","0","[[1,0,0],[0,0],[2]]","2","[[1,3,0],[2,0],[0]]","0","0","","","","","","3","","","","","","","","",""
"","","","","","single-stim-button","27","100768","0.0-2.0-10.1-1.1","5f50732850c7c600098593df","A3","batch1","","343","tol_toboard","","","","tol_peg_1","343","343","0","[[1,3,0],[0,0],[2]]","2","[[1,3,0],[2,0],[0]]","0","0","","","","","","3","","","","","","","","",""
"","","","","","single-stim-button","28","101498","0.0-2.0-10.2-0.2","5f50732850c7c600098593df","A3","batch1","","728","tol_tohand","","","","tol_peg_3","728","728","0","[[1,3,0],[0,0],[0]]","3","[[1,3,0],[2,0],[0]]","0","0","","","","","","3","","","","","","","","",""
"","","","","","single-stim-button","29","101711","0.0-2.0-10.2-1.2","5f50732850c7c600098593df","A3","batch1","","212","tol_toboard","","","","tol_peg_1","212","212","0","[[1,3,2],[0,0],[0]]","3","[[1,3,0],[2,0],[0]]","0","0","","","","","","3","","","","","","","","",""
"","","","","","single-stim-button","30","102399","0.0-2.0-10.3-0.3","5f50732850c7c600098593df","A3","batch1","","686","tol_tohand","","","","tol_peg_1","686","686","0","[[1,3,0],[0,0],[0]]","4","[[1,3,0],[2,0],[0]]","0","0","","","","","","3","","","","","","","","",""
"","","","","","single-stim-button","31","102759","0.0-2.0-10.3-1.3","5f50732850c7c600098593df","A3","batch1","","358","tol_toboard","","","","tol_peg_2","358","358","0","[[1,3,0],[2,0],[0]]","4","[[1,3,0],[2,0],[0]]","0","0","","","","","","3","","","","","","","","",""
"","","","","","poldrack-single-stim","32","103762","0.0-2.0-11.0","5f50732850c7c600098593df","A3","batch1","","-1","tol_feedback","","","true","","1000","1000","500","","","","","","-1","none","true","2831","4629","","","","","","","","","",""
"","","","","","html-button-response","33","104439","0.0-2.0-12.0","5f50732850c7c600098593df","A3","batch1","","675.6999999992549","tol_trial_num","<div class = centerbox><p class = center-block-text>problem <strong>2</strong> out of 25 problems</p></div>","0","","","","","","","","","","","","","","","","","","","","","","","","",""
"","","","","","single-stim-button","34","107041","0.0-2.0-13.0-0.0","5f50732850c7c600098593df","A3","batch1","","2601","tol_tohand","","","","tol_peg_1","2601","2601","0","[[1,0,0],[3,0],[0]]","1","[[2,1,3],[0,0],[0]]","1","0","","","","","","5","","","","","","","","",""
"","","","","","single-stim-button","35","107449","0.0-2.0-13.0-1.0","5f50732850c7c600098593df","A3","batch1","","406","tol_toboard","","","","tol_peg_3","406","406","0","[[1,0,0],[3,0],[2]]","1","[[2,1,3],[0,0],[0]]","1","0","","","","","","5","","","","","","","","",""
"","","","","","single-stim-button","36","108220","0.0-2.0-13.1-0.1","5f50732850c7c600098593df","A3","batch1","","770","tol_tohand","","","","tol_peg_2","770","770","0","[[1,0,0],[0,0],[2]]","2","[[2,1,3],[0,0],[0]]","1","0","","","","","","5","","","","","","","","",""
"","","","","","single-stim-button","37","108611","0.0-2.0-13.1-1.1","5f50732850c7c600098593df","A3","batch1","","389","tol_toboard","","","","tol_peg_1","389","389","0","[[1,3,0],[0,0],[2]]","2","[[2,1,3],[0,0],[0]]","1","0","","","","","","5","","","","","","","","",""
"","","","","","single-stim-button","38","109257","0.0-2.0-13.2-0.2","5f50732850c7c600098593df","A3","batch1","","646","tol_tohand","","","","tol_peg_1","646","646","0","[[1,0,0],[0,0],[2]]","3","[[2,1,3],[0,0],[0]]","1","0","","","","","","5","","","","","","","","",""
"","","","","","single-stim-button","39","109618","0.0-2.0-13.2-1.2","5f50732850c7c600098593df","A3","batch1","","359","tol_toboard","","","","tol_peg_2","359","359","0","[[1,0,0],[3,0],[2]]","3","[[2,1,3],[0,0],[0]]","1","0","","","","","","5","","","","","","","","",""
"","","","","","single-stim-button","40","110218","0.0-2.0-13.3-0.3","5f50732850c7c600098593df","A3","batch1","","599","tol_tohand","","","","tol_peg_3","599","599","0","[[1,0,0],[3,0],[0]]","4","[[2,1,3],[0,0],[0]]","1","0","","","","","","5","","","","","","","","",""
"","","","","","single-stim-button","41","110410","0.0-2.0-13.3-1.3","5f50732850c7c600098593df","A3","batch1","","190","tol_toboard","","","","tol_peg_3","190","190","0","[[1,0,0],[3,0],[2]]","4","[[2,1,3],[0,0],[0]]","1","0","","","","","","5","","","","","","","","",""
"","","","","","single-stim-button","42","111258","0.0-2.0-13.4-0.4","5f50732850c7c600098593df","A3","batch1","","848","tol_tohand","","","","tol_peg_1","848","848","0","[[0,0,0],[3,0],[2]]","5","[[2,1,3],[0,0],[0]]","1","0","","","","","","5","","","","","","","","",""
"","","","","","single-stim-button","43","111651","0.0-2.0-13.4-1.4","5f50732850c7c600098593df","A3","batch1","","391","tol_toboard","","","","tol_peg_2","391","391","0","[[0,0,0],[3,1],[2]]","5","[[2,1,3],[0,0],[0]]","1","0","","","","","","5","","","","","","","","",""
"","","","","","single-stim-button","44","114069","0.0-2.0-13.5-0.5","5f50732850c7c600098593df","A3","batch1","","2417","tol_tohand","","","","tol_peg_3","2417","2417","0","[[0,0,0],[3,1],[0]]","6","[[2,1,3],[0,0],[0]]","1","0","","","","","","5","","","","","","","","",""
"","","","","","single-stim-button","45","114603","0.0-2.0-13.5-1.5","5f50732850c7c600098593df","A3","batch1","","531","tol_toboard","","","","tol_peg_1","531","531","0","[[2,0,0],[3,1],[0]]","6","[[2,1,3],[0,0],[0]]","1","0","","","","","","5","","","","","","","","",""
"","","","","","single-stim-button","46","114994","0.0-2.0-13.6-0.6","5f50732850c7c600098593df","A3","batch1","","390","tol_tohand","","","","tol_peg_2","390","390","0","[[2,0,0],[3,0],[0]]","7","[[2,1,3],[0,0],[0]]","1","0","","","","","","5","","","","","","","","",""
"","","","","","single-stim-button","47","115363","0.0-2.0-13.6-1.6","5f50732850c7c600098593df","A3","batch1","","367","tol_toboard","","","","tol_peg_1","367","367","0","[[2,1,0],[3,0],[0]]","7","[[2,1,3],[0,0],[0]]","1","0","","","","","","5","","","","","","","","",""
"","","","","","single-stim-button","48","115851","0.0-2.0-13.7-0.7","5f50732850c7c600098593df","A3","batch1","","488","tol_tohand","","","","tol_peg_2","488","488","0","[[2,1,0],[0,0],[0]]","8","[[2,1,3],[0,0],[0]]","1","0","","","","","","5","","","","","","","","",""
"","","","","","single-stim-button","49","116163","0.0-2.0-13.7-1.7","5f50732850c7c600098593df","A3","batch1","","310","tol_toboard","","","","tol_peg_1","310","310","0","[[2,1,3],[0,0],[0]]","8","[[2,1,3],[0,0],[0]]","1","0","","","","","","5","","","","","","","","",""
"","","","","","poldrack-single-stim","50","117166","0.0-2.0-14.0","5f50732850c7c600098593df","A3","batch1","","-1","tol_feedback","","","true","","1000","1000","500","","","","","","-1","none","true","2601","8759","","","","","","","","","",""
"","","","","","html-button-response","51","117969","0.0-2.0-15.0","5f50732850c7c600098593df","A3","batch1","","802","tol_trial_num","<div class = centerbox><p class = center-block-text>problem <strong>3</strong> out of 25 problems</p></div>","0","","","","","","","","","","","","","","","","","","","","","","","","",""
"","","","","","single-stim-button","52","120414","0.0-2.0-16.0-0.0","5f50732850c7c600098593df","A3","batch1","","2444","tol_tohand","","","","tol_peg_1","2444","2444","0","[[2,0,0],[0,0],[1]]","1","[[1,2,0],[3,0],[0]]","2","0","","","","","","4","","","","","","","","",""
"","","","","","single-stim-button","53","121647","0.0-2.0-16.0-1.0","5f50732850c7c600098593df","A3","batch1","","1231","tol_toboard","","","","tol_peg_2","1231","1231","0","[[2,0,0],[3,0],[1]]","1","[[1,2,0],[3,0],[0]]","2","0","","","","","","4","","","","","","","","",""
"","","","","","single-stim-button","54","123336","0.0-2.0-16.1-0.1","5f50732850c7c600098593df","A3","batch1","","1688","tol_tohand","","","","tol_peg_1","1688","1688","0","[[0,0,0],[3,0],[1]]","2","[[1,2,0],[3,0],[0]]","2","0","","","","","","4","","","","","","","","",""
"","","","","","single-stim-button","55","123671","0.0-2.0-16.1-1.1","5f50732850c7c600098593df","A3","batch1","","333","tol_toboard","","","","tol_peg_2","333","333","0","[[0,0,0],[3,2],[1]]","2","[[1,2,0],[3,0],[0]]","2","0","","","","","","4","","","","","","","","",""
"","","","","","single-stim-button","56","124241","0.0-2.0-16.2-0.2","5f50732850c7c600098593df","A3","batch1","","568","tol_tohand","","","","tol_peg_3","568","568","0","[[0,0,0],[3,2],[0]]","3","[[1,2,0],[3,0],[0]]","2","0","","","","","","4","","","","","","","","",""
"","","","","","single-stim-button","57","124700","0.0-2.0-16.2-1.2","5f50732850c7c600098593df","A3","batch1","","458","tol_toboard","","","","tol_peg_1","458","458","0","[[1,0,0],[3,2],[0]]","3","[[1,2,0],[3,0],[0]]","2","0","","","","","","4","","","","","","","","",""
"","","","","","single-stim-button","58","125132","0.0-2.0-16.3-0.3","5f50732850c7c600098593df","A3","batch1","","431","tol_tohand","","","","tol_peg_2","431","431","0","[[1,0,0],[3,0],[0]]","4","[[1,2,0],[3,0],[0]]","2","0","","","","","","4","","","","","","","","",""
"","","","","","single-stim-button","59","125462","0.0-2.0-16.3-1.3","5f50732850c7c600098593df","A3","batch1","","328","tol_toboard","","","","tol_peg_1","328","328","0","[[1,2,0],[3,0],[0]]","4","[[1,2,0],[3,0],[0]]","2","0","","","","","","4","","","","","","","","",""
"","","","","","poldrack-single-stim","60","126468","0.0-2.0-17.0","5f50732850c7c600098593df","A3","batch1","","-1","tol_feedback","","","true","","1000","1000","500","","","","","","-1","none","true","2444","5131","","","","","","","","","",""
"","","","","","html-button-response","61","127404","0.0-2.0-18.0","5f50732850c7c600098593df","A3","batch1","","934.1000000014901","tol_trial_num","<div class = centerbox><p class = center-block-text>problem <strong>4</strong> out of 25 problems</p></div>","0","","","","","","","","","","","","","","","","","","","","","","","","",""
"","","","","","single-stim-button","62","131288","0.0-2.0-19.0-0.0","5f50732850c7c600098593df","A3","batch1","","3882","tol_tohand","","","","tol_peg_2","3882","3882","0","[[3,0,0],[2,0],[0]]","1","[[3,0,0],[1,0],[2]]","3","0","","","","","","3","","","","","","","","",""
"","","","","","single-stim-button","63","131671","0.0-2.0-19.0-1.0","5f50732850c7c600098593df","A3","batch1","","382","tol_toboard","","","","tol_peg_3","382","382","0","[[3,0,0],[2,0],[1]]","1","[[3,0,0],[1,0],[2]]","3","0","","","","","","3","","","","","","","","",""
"","","","","","single-stim-button","64","134287","0.0-2.0-19.1-0.1","5f50732850c7c600098593df","A3","batch1","","2614","tol_tohand","","","","tol_peg_2","2614","2614","0","[[3,0,0],[0,0],[1]]","2","[[3,0,0],[1,0],[2]]","3","0","","","","","","3","","","","","","","","",""
"","","","","","single-stim-button","65","134825","0.0-2.0-19.1-1.1","5f50732850c7c600098593df","A3","batch1","","536","tol_toboard","","","","tol_peg_1","536","536","0","[[3,2,0],[0,0],[1]]","2","[[3,0,0],[1,0],[2]]","3","0","","","","","","3","","","","","","","","",""
"","","","","","single-stim-button","66","135321","0.0-2.0-19.2-0.2","5f50732850c7c600098593df","A3","batch1","","495","tol_tohand","","","","tol_peg_3","495","495","0","[[3,2,0],[0,0],[0]]","3","[[3,0,0],[1,0],[2]]","3","0","","","","","","3","","","","","","","","",""
"","","","","","single-stim-button","67","135603","0.0-2.0-19.2-1.2","5f50732850c7c600098593df","A3","batch1","","281","tol_toboard","","","","tol_peg_2","281","281","0","[[3,2,0],[1,0],[0]]","3","[[3,0,0],[1,0],[2]]","3","0","","","","","","3","","","","","","","","",""
"","","","","","single-stim-button","68","136043","0.0-2.0-19.3-0.3","5f50732850c7c600098593df","A3","batch1","","440","tol_tohand","","","","tol_peg_1","440","440","0","[[3,0,0],[1,0],[0]]","4","[[3,0,0],[1,0],[2]]","3","0","","","","","","3","","","","","","","","",""
"","","","","","single-stim-button","69","136420","0.0-2.0-19.3-1.3","5f50732850c7c600098593df","A3","batch1","","375","tol_toboard","","","","tol_peg_3","375","375","0","[[3,0,0],[1,0],[2]]","4","[[3,0,0],[1,0],[2]]","3","0","","","","","","3","","","","","","","","",""
"","","","","","poldrack-single-stim","70","137423","0.0-2.0-20.0","5f50732850c7c600098593df","A3","batch1","","-1","tol_feedback","","","true","","1000","1000","500","","","","","","-1","none","true","3882","7431","","","","","","","","","",""
"","","","","","html-button-response","71","138998","0.0-2.0-21.0","5f50732850c7c600098593df","A3","batch1","","1573.5","tol_trial_num","<div class = centerbox><p class = center-block-text>problem <strong>5</strong> out of 25 problems</p></div>","0","","","","","","","","","","","","","","","","","","","","","","","","",""
"","","","","","single-stim-button","72","141813","0.0-2.0-22.0-0.0","5f50732850c7c600098593df","A3","batch1","","2814","tol_tohand","","","","tol_peg_2","2814","2814","0","[[1,0,0],[0,0],[3]]","1","[[0,0,0],[1,2],[3]]","4","0","","","","","","7","","","","","","","","",""
"","","","","","single-stim-button","73","144860","0.0-2.0-22.0-1.0","5f50732850c7c600098593df","A3","batch1","","3045","tol_toboard","","","","tol_peg_2","3045","3045","0","[[1,0,0],[2,0],[3]]","1","[[0,0,0],[1,2],[3]]","4","0","","","","","","7","","","","","","","","",""
"","","","","","single-stim-button","74","145253","0.0-2.0-22.1-0.1","5f50732850c7c600098593df","A3","batch1","","392","tol_tohand","","","","tol_peg_3","392","392","0","[[1,0,0],[2,0],[0]]","2","[[0,0,0],[1,2],[3]]","4","0","","","","","","7","","","","","","","","",""
"","","","","","single-stim-button","75","147564","0.0-2.0-22.1-1.1","5f50732850c7c600098593df","A3","batch1","","2310","tol_toboard","","","","tol_peg_2","2310","2310","0","[[1,0,0],[2,3],[0]]","2","[[0,0,0],[1,2],[3]]","4","0","","","","","","7","","","","","","","","",""
"","","","","","single-stim-button","76","148061","0.0-2.0-22.2-0.2","5f50732850c7c600098593df","A3","batch1","","495","tol_tohand","","","","tol_peg_1","495","495","0","[[0,0,0],[2,3],[0]]","3","[[0,0,0],[1,2],[3]]","4","0","","","","","","7","","","","","","","","",""
"","","","","","single-stim-button","77","150069","0.0-2.0-22.2-1.2","5f50732850c7c600098593df","A3","batch1","","2007","tol_toboard","","","","tol_peg_3","2007","2007","0","[[0,0,0],[2,3],[1]]","3","[[0,0,0],[1,2],[3]]","4","0","","","","","","7","","","","","","","","",""
"","","","","","single-stim-button","78","151189","0.0-2.0-22.3-0.3","5f50732850c7c600098593df","A3","batch1","","1120","tol_tohand","","","","tol_peg_2","1120","1120","0","[[0,0,0],[2,0],[1]]","4","[[0,0,0],[1,2],[3]]","4","0","","","","","","7","","","","","","","","",""
"","","","","","single-stim-button","79","151540","0.0-2.0-22.3-1.3","5f50732850c7c600098593df","A3","batch1","","349","tol_toboard","","","","tol_peg_1","349","349","0","[[3,0,0],[2,0],[1]]","4","[[0,0,0],[1,2],[3]]","4","0","","","","","","7","","","","","","","","",""
"","","","","","single-stim-button","80","152517","0.0-2.0-22.4-0.4","5f50732850c7c600098593df","A3","batch1","","976","tol_tohand","","","","tol_peg_2","976","976","0","[[3,0,0],[0,0],[1]]","5","[[0,0,0],[1,2],[3]]","4","0","","","","","","7","","","","","","","","",""
"","","","","","single-stim-button","81","152830","0.0-2.0-22.4-1.4","5f50732850c7c600098593df","A3","batch1","","312","tol_toboard","","","","tol_peg_1","312","312","0","[[3,2,0],[0,0],[1]]","5","[[0,0,0],[1,2],[3]]","4","0","","","","","","7","","","","","","","","",""
"","","","","","single-stim-button","82","153357","0.0-2.0-22.5-0.5","5f50732850c7c600098593df","A3","batch1","","525","tol_tohand","","","","tol_peg_3","525","525","0","[[3,2,0],[0,0],[0]]","6","[[0,0,0],[1,2],[3]]","4","0","","","","","","7","","","","","","","","",""
"","","","","","single-stim-button","83","153639","0.0-2.0-22.5-1.5","5f50732850c7c600098593df","A3","batch1","","281","tol_toboard","","","","tol_peg_2","281","281","0","[[3,2,0],[1,0],[0]]","6","[[0,0,0],[1,2],[3]]","4","0","","","","","","7","","","","","","","","",""
"","","","","","single-stim-button","84","154942","0.0-2.0-22.6-0.6","5f50732850c7c600098593df","A3","batch1","","1302","tol_tohand","","","","tol_peg_1","1302","1302","0","[[3,0,0],[1,0],[0]]","7","[[0,0,0],[1,2],[3]]","4","0","","","","","","7","","","","","","","","",""
"","","","","","single-stim-button","85","155294","0.0-2.0-22.6-1.6","5f50732850c7c600098593df","A3","batch1","","351","tol_toboard","","","","tol_peg_2","351","351","0","[[3,0,0],[1,2],[0]]","7","[[0,0,0],[1,2],[3]]","4","0","","","","","","7","","","","","","","","",""
"","","","","","single-stim-button","86","155919","0.0-2.0-22.7-0.7","5f50732850c7c600098593df","A3","batch1","","624","tol_tohand","","","","tol_peg_1","624","624","0","[[0,0,0],[1,2],[0]]","8","[[0,0,0],[1,2],[3]]","4","0","","","","","","7","","","","","","","","",""
"","","","","","single-stim-button","87","156254","0.0-2.0-22.7-1.7","5f50732850c7c600098593df","A3","batch1","","333","tol_toboard","","","","tol_peg_3","333","333","0","[[0,0,0],[1,2],[3]]","8","[[0,0,0],[1,2],[3]]","4","0","","","","","","7","","","","","","","","",""
"","","","","","poldrack-single-stim","88","157259","0.0-2.0-23.0","5f50732850c7c600098593df","A3","batch1","","-1","tol_feedback","","","true","","1000","1000","500","","","","","","-1","none","true","2814","8248","","","","","","","","","",""
"","","","","","html-button-response","89","158125","0.0-2.0-24.0","5f50732850c7c600098593df","A3","batch1","","865","tol_trial_num","<div class = centerbox><p class = center-block-text>problem <strong>6</strong> out of 25 problems</p></div>","0","","","","","","","","","","","","","","","","","","","","","","","","",""
"","","","","","single-stim-button","90","163263","0.0-2.0-25.0-0.0","5f50732850c7c600098593df","A3","batch1","","5136","tol_tohand","","","","tol_peg_3","5136","5136","0","[[0,0,0],[1,2],[0]]","1","[[1,0,0],[2,3],[0]]","5","0","","","","","","6","","","","","","","","",""
"","","","","","single-stim-button","91","163853","0.0-2.0-25.0-1.0","5f50732850c7c600098593df","A3","batch1","","589","tol_toboard","","","","tol_peg_1","589","589","0","[[3,0,0],[1,2],[0]]","1","[[1,0,0],[2,3],[0]]","5","0","","","","","","6","","","","","","","","",""
"","","","","","single-stim-button","92","167031","0.0-2.0-25.1-0.1","5f50732850c7c600098593df","A3","batch1","","3177","tol_tohand","","","","tol_peg_2","3177","3177","0","[[3,0,0],[1,0],[0]]","2","[[1,0,0],[2,3],[0]]","5","0","","","","","","6","","","","","","","","",""
"","","","","","single-stim-button","93","167449","0.0-2.0-25.1-1.1","5f50732850c7c600098593df","A3","batch1","","416","tol_toboard","","","","tol_peg_3","416","416","0","[[3,0,0],[1,0],[2]]","2","[[1,0,0],[2,3],[0]]","5","0","","","","","","6","","","","","","","","",""
"","","","","","single-stim-button","94","175544","0.0-2.0-25.2-0.2","5f50732850c7c600098593df","A3","batch1","","8093","tol_tohand","","","","tol_peg_3","8093","8093","0","[[3,0,0],[1,0],[0]]","3","[[1,0,0],[2,3],[0]]","5","0","","","","","","6","","","","","","","","",""
"","","","","","single-stim-button","95","176152","0.0-2.0-25.2-1.2","5f50732850c7c600098593df","A3","batch1","","607","tol_toboard","","","","tol_peg_1","607","607","0","[[3,2,0],[1,0],[0]]","3","[[1,0,0],[2,3],[0]]","5","0","","","","","","6","","","","","","","","",""
"","","","","","single-stim-button","96","176888","0.0-2.0-25.3-0.3","5f50732850c7c600098593df","A3","batch1","","735","tol_tohand","","","","tol_peg_2","735","735","0","[[3,2,0],[0,0],[0]]","4","[[1,0,0],[2,3],[0]]","5","0","","","","","","6","","","","","","","","",""
"","","","","","single-stim-button","97","177329","0.0-2.0-25.3-1.3","5f50732850c7c600098593df","A3","batch1","","440","tol_toboard","","","","tol_peg_3","440","440","0","[[3,2,0],[0,0],[1]]","4","[[1,0,0],[2,3],[0]]","5","0","","","","","","6","","","","","","","","",""
"","","","","","single-stim-button","98","177985","0.0-2.0-25.4-0.4","5f50732850c7c600098593df","A3","batch1","","654","tol_tohand","","","","tol_peg_1","654","654","0","[[3,0,0],[0,0],[1]]","5","[[1,0,0],[2,3],[0]]","5","0","","","","","","6","","","","","","","","",""
"","","","","","single-stim-button","99","179048","0.0-2.0-25.4-1.4","5f50732850c7c600098593df","A3","batch1","","1063","tol_toboard","","","","tol_peg_2","1063","1063","0","[[3,0,0],[2,0],[1]]","5","[[1,0,0],[2,3],[0]]","5","0","","","","","","6","","","","","","","","",""
"","","","","","single-stim-button","100","179700","0.0-2.0-25.5-0.5","5f50732850c7c600098593df","A3","batch1","","651","tol_tohand","","","","tol_peg_1","651","651","0","[[0,0,0],[2,0],[1]]","6","[[1,0,0],[2,3],[0]]","5","0","","","","","","6","","","","","","","","",""
"","","","","","single-stim-button","101","180050","0.0-2.0-25.5-1.5","5f50732850c7c600098593df","A3","batch1","","349","tol_toboard","","","","tol_peg_2","349","349","0","[[0,0,0],[2,3],[1]]","6","[[1,0,0],[2,3],[0]]","5","0","","","","","","6","","","","","","","","",""
"","","","","","single-stim-button","102","180443","0.0-2.0-25.6-0.6","5f50732850c7c600098593df","A3","batch1","","391","tol_tohand","","","","tol_peg_3","391","391","0","[[0,0,0],[2,3],[0]]","7","[[1,0,0],[2,3],[0]]","5","0","","","","","","6","","","","","","","","",""
"","","","","","single-stim-button","103","180869","0.0-2.0-25.6-1.6","5f50732850c7c600098593df","A3","batch1","","424","tol_toboard","","","","tol_peg_1","424","424","0","[[1,0,0],[2,3],[0]]","7","[[1,0,0],[2,3],[0]]","5","0","","","","","","6","","","","","","","","",""
"","","","","","poldrack-single-stim","104","181872","0.0-2.0-26.0","5f50732850c7c600098593df","A3","batch1","","-1","tol_feedback","","","true","","1000","1000","500","","","","","","-1","none","true","5136","18837","","","","","","","","","",""
"","","","","","html-button-response","105","182371","0.0-2.0-27.0","5f50732850c7c600098593df","A3","batch1","","497.9000000022352","tol_trial_num","<div class = centerbox><p class = center-block-text>problem <strong>7</strong> out of 25 problems</p></div>","0","","","","","","","","","","","","","","","","","","","","","","","","",""
"","","","","","single-stim-button","106","185164","0.0-2.0-28.0-0.0","5f50732850c7c600098593df","A3","batch1","","2791","tol_tohand","","","","tol_peg_3","2791","2791","0","[[2,1,0],[0,0],[0]]","1","[[1,2,0],[3,0],[0]]","6","0","","","","","","5","","","","","","","","",""
"","","","","","single-stim-button","107","185499","0.0-2.0-28.0-1.0","5f50732850c7c600098593df","A3","batch1","","334","tol_toboard","","","","tol_peg_2","334","334","0","[[2,1,0],[3,0],[0]]","1","[[1,2,0],[3,0],[0]]","6","0","","","","","","5","","","","","","","","",""
"","","","","","single-stim-button","108","186721","0.0-2.0-28.1-0.1","5f50732850c7c600098593df","A3","batch1","","1221","tol_tohand","","","","tol_peg_1","1221","1221","0","[[2,0,0],[3,0],[0]]","2","[[1,2,0],[3,0],[0]]","6","0","","","","","","5","","","","","","","","",""
"","","","","","single-stim-button","109","187152","0.0-2.0-28.1-1.1","5f50732850c7c600098593df","A3","batch1","","430","tol_toboard","","","","tol_peg_2","430","430","0","[[2,0,0],[3,1],[0]]","2","[[1,2,0],[3,0],[0]]","6","0","","","","","","5","","","","","","","","",""
"","","","","","single-stim-button","110","187756","0.0-2.0-28.2-0.2","5f50732850c7c600098593df","A3","batch1","","603","tol_tohand","","","","tol_peg_1","603","603","0","[[0,0,0],[3,1],[0]]","3","[[1,2,0],[3,0],[0]]","6","0","","","","","","5","","","","","","","","",""
"","","","","","single-stim-button","111","188194","0.0-2.0-28.2-1.2","5f50732850c7c600098593df","A3","batch1","","438","tol_toboard","","","","tol_peg_3","438","438","0","[[0,0,0],[3,1],[2]]","3","[[1,2,0],[3,0],[0]]","6","0","","","","","","5","","","","","","","","",""
"","","","","","single-stim-button","112","188643","0.0-2.0-28.3-0.3","5f50732850c7c600098593df","A3","batch1","","447","tol_tohand","","","","tol_peg_2","447","447","0","[[0,0,0],[3,0],[2]]","4","[[1,2,0],[3,0],[0]]","6","0","","","","","","5","","","","","","","","",""
"","","","","","single-stim-button","113","188956","0.0-2.0-28.3-1.3","5f50732850c7c600098593df","A3","batch1","","311","tol_toboard","","","","tol_peg_1","311","311","0","[[1,0,0],[3,0],[2]]","4","[[1,2,0],[3,0],[0]]","6","0","","","","","","5","","","","","","","","",""
"","","","","","single-stim-button","114","189490","0.0-2.0-28.4-0.4","5f50732850c7c600098593df","A3","batch1","","532","tol_tohand","","","","tol_peg_3","532","532","0","[[1,0,0],[3,0],[0]]","5","[[1,2,0],[3,0],[0]]","6","0","","","","","","5","","","","","","","","",""
"","","","","","single-stim-button","115","189908","0.0-2.0-28.4-1.4","5f50732850c7c600098593df","A3","batch1","","418","tol_toboard","","","","tol_peg_1","418","418","0","[[1,2,0],[3,0],[0]]","5","[[1,2,0],[3,0],[0]]","6","0","","","","","","5","","","","","","","","",""
"","","","","","poldrack-single-stim","116","190913","0.0-2.0-29.0","5f50732850c7c600098593df","A3","batch1","","-1","tol_feedback","","","true","","1000","1000","500","","","","","","-1","none","true","2791","5594","","","","","","","","","",""
"","","","","","html-button-response","117","191565","0.0-2.0-30.0","5f50732850c7c600098593df","A3","batch1","","650.1999999992549","tol_trial_num","<div class = centerbox><p class = center-block-text>problem <strong>8</strong> out of 25 problems</p></div>","0","","","","","","","","","","","","","","","","","","","","","","","","",""
"","","","","","single-stim-button","118","196213","0.0-2.0-31.0-0.0","5f50732850c7c600098593df","A3","batch1","","4647","tol_tohand","","","","tol_peg_2","4647","4647","0","[[0,0,0],[2,0],[1]]","1","[[1,2,0],[3,0],[0]]","7","0","","","","","","4","","","","","","","","",""
"","","","","","single-stim-button","119","196621","0.0-2.0-31.0-1.0","5f50732850c7c600098593df","A3","batch1","","408","tol_toboard","","","","tol_peg_1","408","408","0","[[3,0,0],[2,0],[1]]","1","[[1,2,0],[3,0],[0]]","7","0","","","","","","4","","","","","","","","",""
"","","","","","single-stim-button","120","197803","0.0-2.0-31.1-0.1","5f50732850c7c600098593df","A3","batch1","","1181","tol_tohand","","","","tol_peg_2","1181","1181","0","[[3,0,0],[0,0],[1]]","2","[[1,2,0],[3,0],[0]]","7","0","","","","","","4","","","","","","","","",""
"","","","","","single-stim-button","121","198522","0.0-2.0-31.1-1.1","5f50732850c7c600098593df","A3","batch1","","717","tol_toboard","","","","tol_peg_1","717","717","0","[[3,2,0],[0,0],[1]]","2","[[1,2,0],[3,0],[0]]","7","0","","","","","","4","","","","","","","","",""
"","","","","","single-stim-button","122","199009","0.0-2.0-31.2-0.2","5f50732850c7c600098593df","A3","batch1","","486","tol_tohand","","","","tol_peg_3","486","486","0","[[3,2,0],[0,0],[0]]","3","[[1,2,0],[3,0],[0]]","7","0","","","","","","4","","","","","","","","",""
"","","","","","single-stim-button","123","199491","0.0-2.0-31.2-1.2","5f50732850c7c600098593df","A3","batch1","","480","tol_toboard","","","","tol_peg_2","480","480","0","[[3,2,0],[1,0],[0]]","3","[[1,2,0],[3,0],[0]]","7","0","","","","","","4","","","","","","","","",""
"","","","","","single-stim-button","124","201146","0.0-2.0-31.3-0.3","5f50732850c7c600098593df","A3","batch1","","1654","tol_tohand","","","","tol_peg_1","1654","1654","0","[[3,0,0],[1,0],[0]]","4","[[1,2,0],[3,0],[0]]","7","0","","","","","","4","","","","","","","","",""
"","","","","","single-stim-button","125","201820","0.0-2.0-31.3-1.3","5f50732850c7c600098593df","A3","batch1","","672","tol_toboard","","","","tol_peg_3","672","672","0","[[3,0,0],[1,0],[2]]","4","[[1,2,0],[3,0],[0]]","7","0","","","","","","4","","","","","","","","",""
"","","","","","single-stim-button","126","204127","0.0-2.0-31.4-0.4","5f50732850c7c600098593df","A3","batch1","","2306","tol_tohand","","","","tol_peg_1","2306","2306","0","[[0,0,0],[1,0],[2]]","5","[[1,2,0],[3,0],[0]]","7","0","","","","","","4","","","","","","","","",""
"","","","","","single-stim-button","127","205875","0.0-2.0-31.4-1.4","5f50732850c7c600098593df","A3","batch1","","1748","tol_toboard","","","","tol_peg_1","1748","1748","0","[[3,0,0],[1,0],[2]]","5","[[1,2,0],[3,0],[0]]","7","0","","","","","","4","","","","","","","","",""
"","","","","","single-stim-button","128","206477","0.0-2.0-31.5-0.5","5f50732850c7c600098593df","A3","batch1","","600","tol_tohand","","","","tol_peg_2","600","600","0","[[3,0,0],[0,0],[2]]","6","[[1,2,0],[3,0],[0]]","7","0","","","","","","4","","","","","","","","",""
"","","","","","single-stim-button","129","206878","0.0-2.0-31.5-1.5","5f50732850c7c600098593df","A3","batch1","","399","tol_toboard","","","","tol_peg_1","399","399","0","[[3,1,0],[0,0],[2]]","6","[[1,2,0],[3,0],[0]]","7","0","","","","","","4","","","","","","","","",""
"","","","","","single-stim-button","130","207669","0.0-2.0-31.6-0.6","5f50732850c7c600098593df","A3","batch1","","789","tol_tohand","","","","tol_peg_3","789","789","0","[[3,1,0],[0,0],[0]]","7","[[1,2,0],[3,0],[0]]","7","0","","","","","","4","","","","","","","","",""
"","","","","","single-stim-button","131","208084","0.0-2.0-31.6-1.6","5f50732850c7c600098593df","A3","batch1","","414","tol_toboard","","","","tol_peg_2","414","414","0","[[3,1,0],[2,0],[0]]","7","[[1,2,0],[3,0],[0]]","7","0","","","","","","4","","","","","","","","",""
"","","","","","single-stim-button","132","208823","0.0-2.0-31.7-0.7","5f50732850c7c600098593df","A3","batch1","","737","tol_tohand","","","","tol_peg_1","737","737","0","[[3,0,0],[2,0],[0]]","8","[[1,2,0],[3,0],[0]]","7","0","","","","","","4","","","","","","","","",""
"","","","","","single-stim-button","133","209429","0.0-2.0-31.7-1.7","5f50732850c7c600098593df","A3","batch1","","604","tol_toboard","","","","tol_peg_3","604","604","0","[[3,0,0],[2,0],[1]]","8","[[1,2,0],[3,0],[0]]","7","0","","","","","","4","","","","","","","","",""
"","","","","","single-stim-button","134","210149","0.0-2.0-31.8-0.8","5f50732850c7c600098593df","A3","batch1","","718","tol_tohand","","","","tol_peg_1","718","718","0","[[0,0,0],[2,0],[1]]","9","[[1,2,0],[3,0],[0]]","7","0","","","","","","4","","","","","","","","",""
"","","","","","single-stim-button","135","211725","0.0-2.0-31.8-1.8","5f50732850c7c600098593df","A3","batch1","","1575","tol_toboard","","","","tol_peg_2","1575","1575","0","[[0,0,0],[2,3],[1]]","9","[[1,2,0],[3,0],[0]]","7","0","","","","","","4","","","","","","","","",""
"","","","","","single-stim-button","136","212062","0.0-2.0-31.9-0.9","5f50732850c7c600098593df","A3","batch1","","336","tol_tohand","","","","tol_peg_3","336","336","0","[[0,0,0],[2,3],[0]]","10","[[1,2,0],[3,0],[0]]","7","0","","","","","","4","","","","","","","","",""
"","","","","","single-stim-button","137","212518","0.0-2.0-31.9-1.9","5f50732850c7c600098593df","A3","batch1","","454","tol_toboard","","","","tol_peg_1","454","454","0","[[1,0,0],[2,3],[0]]","10","[[1,2,0],[3,0],[0]]","7","0","","","","","","4","","","","","","","","",""
"","","","","","single-stim-button","138","213432","0.0-2.0-31.10-0.10","5f50732850c7c600098593df","A3","batch1","","913","tol_tohand","","","","tol_peg_2","913","913","0","[[1,0,0],[2,0],[0]]","11","[[1,2,0],[3,0],[0]]","7","0","","","","","","4","","","","","","","","",""
"","","","","","single-stim-button","139","213830","0.0-2.0-31.10-1.10","5f50732850c7c600098593df","A3","batch1","","397","tol_toboard","","","","tol_peg_3","397","397","0","[[1,0,0],[2,0],[3]]","11","[[1,2,0],[3,0],[0]]","7","0","","","","","","4","","","","","","","","",""
"","","","","","single-stim-button","140","214502","0.0-2.0-31.11-0.11","5f50732850c7c600098593df","A3","batch1","","671","tol_tohand","","","","tol_peg_2","671","671","0","[[1,0,0],[0,0],[3]]","12","[[1,2,0],[3,0],[0]]","7","0","","","","","","4","","","","","","","","",""
"","","","","","single-stim-button","141","214854","0.0-2.0-31.11-1.11","5f50732850c7c600098593df","A3","batch1","","352","tol_toboard","","","","tol_peg_1","352","352","0","[[1,2,0],[0,0],[3]]","12","[[1,2,0],[3,0],[0]]","7","0","","","","","","4","","","","","","","","",""
"","","","","","single-stim-button","142","215303","0.0-2.0-31.12-0.12","5f50732850c7c600098593df","A3","batch1","","447","tol_tohand","","","","tol_peg_3","447","447","0","[[1,2,0],[0,0],[0]]","13","[[1,2,0],[3,0],[0]]","7","0","","","","","","4","","","","","","","","",""
"","","","","","single-stim-button","143","215614","0.0-2.0-31.12-1.12","5f50732850c7c600098593df","A3","batch1","","310","tol_toboard","","","","tol_peg_2","310","310","0","[[1,2,0],[3,0],[0]]","13","[[1,2,0],[3,0],[0]]","7","0","","","","","","4","","","","","","","","",""
"","","","","","poldrack-single-stim","144","216618","0.0-2.0-32.0","5f50732850c7c600098593df","A3","batch1","","-1","tol_feedback","","","true","","1000","1000","500","","","","","","-1","none","true","4647","15485","","","","","","","","","",""
"","","","","","html-button-response","145","217677","0.0-2.0-33.0","5f50732850c7c600098593df","A3","batch1","","1057.199999999255","tol_trial_num","<div class = centerbox><p class = center-block-text>problem <strong>9</strong> out of 25 problems</p></div>","0","","","","","","","","","","","","","","","","","","","","","","","","",""
"","","","","","single-stim-button","146","224281","0.0-2.0-34.0-0.0","5f50732850c7c600098593df","A3","batch1","","6602","tol_tohand","","","","tol_peg_3","6602","6602","0","[[3,2,0],[0,0],[0]]","1","[[2,1,0],[3,0],[0]]","8","0","","","","","","6","","","","","","","","",""
"","","","","","single-stim-button","147","224609","0.0-2.0-34.0-1.0","5f50732850c7c600098593df","A3","batch1","","327","tol_toboard","","","","tol_peg_2","327","327","0","[[3,2,0],[1,0],[0]]","1","[[2,1,0],[3,0],[0]]","8","0","","","","","","6","","","","","","","","",""
"","","","","","single-stim-button","148","225450","0.0-2.0-34.1-0.1","5f50732850c7c600098593df","A3","batch1","","839","tol_tohand","","","","tol_peg_1","839","839","0","[[3,0,0],[1,0],[0]]","2","[[2,1,0],[3,0],[0]]","8","0","","","","","","6","","","","","","","","",""
"","","","","","single-stim-button","149","225738","0.0-2.0-34.1-1.1","5f50732850c7c600098593df","A3","batch1","","286","tol_toboard","","","","tol_peg_2","286","286","0","[[3,0,0],[1,2],[0]]","2","[[2,1,0],[3,0],[0]]","8","0","","","","","","6","","","","","","","","",""
"","","","","","single-stim-button","150","226164","0.0-2.0-34.2-0.2","5f50732850c7c600098593df","A3","batch1","","425","tol_tohand","","","","tol_peg_1","425","425","0","[[0,0,0],[1,2],[0]]","3","[[2,1,0],[3,0],[0]]","8","0","","","","","","6","","","","","","","","",""
"","","","","","single-stim-button","151","226747","0.0-2.0-34.2-1.2","5f50732850c7c600098593df","A3","batch1","","582","tol_toboard","","","","tol_peg_3","582","582","0","[[0,0,0],[1,2],[3]]","3","[[2,1,0],[3,0],[0]]","8","0","","","","","","6","","","","","","","","",""
"","","","","","single-stim-button","152","227228","0.0-2.0-34.3-0.3","5f50732850c7c600098593df","A3","batch1","","480","tol_tohand","","","","tol_peg_2","480","480","0","[[0,0,0],[1,0],[3]]","4","[[2,1,0],[3,0],[0]]","8","0","","","","","","6","","","","","","","","",""
"","","","","","single-stim-button","153","227716","0.0-2.0-34.3-1.3","5f50732850c7c600098593df","A3","batch1","","486","tol_toboard","","","","tol_peg_1","486","486","0","[[2,0,0],[1,0],[3]]","4","[[2,1,0],[3,0],[0]]","8","0","","","","","","6","","","","","","","","",""
"","","","","","single-stim-button","154","228044","0.0-2.0-34.4-0.4","5f50732850c7c600098593df","A3","batch1","","326","tol_tohand","","","","tol_peg_2","326","326","0","[[2,0,0],[0,0],[3]]","5","[[2,1,0],[3,0],[0]]","8","0","","","","","","6","","","","","","","","",""
"","","","","","single-stim-button","155","228443","0.0-2.0-34.4-1.4","5f50732850c7c600098593df","A3","batch1","","397","tol_toboard","","","","tol_peg_1","397","397","0","[[2,1,0],[0,0],[3]]","5","[[2,1,0],[3,0],[0]]","8","0","","","","","","6","","","","","","","","",""
"","","","","","single-stim-button","156","228906","0.0-2.0-34.5-0.5","5f50732850c7c600098593df","A3","batch1","","461","tol_tohand","","","","tol_peg_3","461","461","0","[[2,1,0],[0,0],[0]]","6","[[2,1,0],[3,0],[0]]","8","0","","","","","","6","","","","","","","","",""
"","","","","","single-stim-button","157","229203","0.0-2.0-34.5-1.5","5f50732850c7c600098593df","A3","batch1","","296","tol_toboard","","","","tol_peg_2","296","296","0","[[2,1,0],[3,0],[0]]","6","[[2,1,0],[3,0],[0]]","8","0","","","","","","6","","","","","","","","",""
"","","","","","poldrack-single-stim","158","230207","0.0-2.0-35.0","5f50732850c7c600098593df","A3","batch1","","-1","tol_feedback","","","true","","1000","1000","500","","","","","","-1","none","true","6602","9133","","","","","","","","","",""
"","","","","","html-button-response","159","230889","0.0-2.0-36.0","5f50732850c7c600098593df","A3","batch1","","681.2999999970198","tol_trial_num","<div class = centerbox><p class = center-block-text>problem <strong>10</strong> out of 25 problems</p></div>","0","","","","","","","","","","","","","","","","","","","","","","","","",""
"","","","","","single-stim-button","160","241646","0.0-2.0-37.0-0.0","5f50732850c7c600098593df","A3","batch1","","10756","tol_tohand","","","","tol_peg_2","10756","10756","0","[[3,0,0],[0,0],[2]]","1","[[3,0,0],[2,1],[0]]","9","0","","","","","","3","","","","","","","","",""
"","","","","","single-stim-button","161","242000","0.0-2.0-37.0-1.0","5f50732850c7c600098593df","A3","batch1","","352","tol_toboard","","","","tol_peg_1","352","352","0","[[3,1,0],[0,0],[2]]","1","[[3,0,0],[2,1],[0]]","9","0","","","","","","3","","","","","","","","",""
"","","","","","single-stim-button","162","242429","0.0-2.0-37.1-0.1","5f50732850c7c600098593df","A3","batch1","","428","tol_tohand","","","","tol_peg_3","428","428","0","[[3,1,0],[0,0],[0]]","2","[[3,0,0],[2,1],[0]]","9","0","","","","","","3","","","","","","","","",""
"","","","","","single-stim-button","163","242749","0.0-2.0-37.1-1.1","5f50732850c7c600098593df","A3","batch1","","319","tol_toboard","","","","tol_peg_2","319","319","0","[[3,1,0],[2,0],[0]]","2","[[3,0,0],[2,1],[0]]","9","0","","","","","","3","","","","","","","","",""
"","","","","","single-stim-button","164","243112","0.0-2.0-37.2-0.2","5f50732850c7c600098593df","A3","batch1","","361","tol_tohand","","","","tol_peg_1","361","361","0","[[3,0,0],[2,0],[0]]","3","[[3,0,0],[2,1],[0]]","9","0","","","","","","3","","","","","","","","",""
"","","","","","single-stim-button","165","243375","0.0-2.0-37.2-1.2","5f50732850c7c600098593df","A3","batch1","","262","tol_toboard","","","","tol_peg_2","262","262","0","[[3,0,0],[2,1],[0]]","3","[[3,0,0],[2,1],[0]]","9","0","","","","","","3","","","","","","","","",""
"","","","","","poldrack-single-stim","166","244377","0.0-2.0-38.0","5f50732850c7c600098593df","A3","batch1","","-1","tol_feedback","","","true","","1000","1000","500","","","","","","-1","none","true","10756","11545","","","","","","","","","",""
"","","","","","html-button-response","167","247746","0.0-2.0-39.0","5f50732850c7c600098593df","A3","batch1","","3367.400000002235","tol_trial_num","<div class = centerbox><p class = center-block-text>problem <strong>11</strong> out of 25 problems</p></div>","0","","","","","","","","","","","","","","","","","","","","","","","","",""
"","","","","","single-stim-button","168","250179","0.0-2.0-40.0-0.0","5f50732850c7c600098593df","A3","batch1","","2432","tol_tohand","","","","tol_peg_1","2432","2432","0","[[1,0,0],[3,0],[0]]","1","[[2,0,0],[1,3],[0]]","10","0","","","","","","6","","","","","","","","",""
"","","","","","single-stim-button","169","250787","0.0-2.0-40.0-1.0","5f50732850c7c600098593df","A3","batch1","","607","tol_toboard","","","","tol_peg_2","607","607","0","[[1,0,0],[3,2],[0]]","1","[[2,0,0],[1,3],[0]]","10","0","","","","","","6","","","","","","","","",""
"","","","","","single-stim-button","170","251315","0.0-2.0-40.1-0.1","5f50732850c7c600098593df","A3","batch1","","527","tol_tohand","","","","tol_peg_1","527","527","0","[[0,0,0],[3,2],[0]]","2","[[2,0,0],[1,3],[0]]","10","0","","","","","","6","","","","","","","","",""
"","","","","","single-stim-button","171","252276","0.0-2.0-40.1-1.1","5f50732850c7c600098593df","A3","batch1","","959","tol_toboard","","","","tol_peg_3","959","959","0","[[0,0,0],[3,2],[1]]","2","[[2,0,0],[1,3],[0]]","10","0","","","","","","6","","","","","","","","",""
"","","","","","single-stim-button","172","253124","0.0-2.0-40.2-0.2","5f50732850c7c600098593df","A3","batch1","","846","tol_tohand","","","","tol_peg_2","846","846","0","[[0,0,0],[3,0],[1]]","3","[[2,0,0],[1,3],[0]]","10","0","","","","","","6","","","","","","","","",""
"","","","","","single-stim-button","173","253539","0.0-2.0-40.2-1.2","5f50732850c7c600098593df","A3","batch1","","413","tol_toboard","","","","tol_peg_1","413","413","0","[[2,0,0],[3,0],[1]]","3","[[2,0,0],[1,3],[0]]","10","0","","","","","","6","","","","","","","","",""
"","","","","","single-stim-button","174","254796","0.0-2.0-40.3-0.3","5f50732850c7c600098593df","A3","batch1","","1255","tol_tohand","","","","tol_peg_2","1255","1255","0","[[2,0,0],[0,0],[1]]","4","[[2,0,0],[1,3],[0]]","10","0","","","","","","6","","","","","","","","",""
"","","","","","single-stim-button","175","255157","0.0-2.0-40.3-1.3","5f50732850c7c600098593df","A3","batch1","","360","tol_toboard","","","","tol_peg_1","360","360","0","[[2,3,0],[0,0],[1]]","4","[[2,0,0],[1,3],[0]]","10","0","","","","","","6","","","","","","","","",""
"","","","","","single-stim-button","176","255548","0.0-2.0-40.4-0.4","5f50732850c7c600098593df","A3","batch1","","389","tol_tohand","","","","tol_peg_3","389","389","0","[[2,3,0],[0,0],[0]]","5","[[2,0,0],[1,3],[0]]","10","0","","","","","","6","","","","","","","","",""
"","","","","","single-stim-button","177","255925","0.0-2.0-40.4-1.4","5f50732850c7c600098593df","A3","batch1","","376","tol_toboard","","","","tol_peg_2","376","376","0","[[2,3,0],[1,0],[0]]","5","[[2,0,0],[1,3],[0]]","10","0","","","","","","6","","","","","","","","",""
"","","","","","single-stim-button","178","256502","0.0-2.0-40.5-0.5","5f50732850c7c600098593df","A3","batch1","","575","tol_tohand","","","","tol_peg_1","575","575","0","[[2,0,0],[1,0],[0]]","6","[[2,0,0],[1,3],[0]]","10","0","","","","","","6","","","","","","","","",""
"","","","","","single-stim-button","179","256837","0.0-2.0-40.5-1.5","5f50732850c7c600098593df","A3","batch1","","334","tol_toboard","","","","tol_peg_2","334","334","0","[[2,0,0],[1,3],[0]]","6","[[2,0,0],[1,3],[0]]","10","0","","","","","","6","","","","","","","","",""
"","","","","","poldrack-single-stim","180","257841","0.0-2.0-41.0","5f50732850c7c600098593df","A3","batch1","","-1","tol_feedback","","","true","","1000","1000","500","","","","","","-1","none","true","2432","6024","","","","","","","","","",""
"","","","","","html-button-response","181","258428","0.0-2.0-42.0","5f50732850c7c600098593df","A3","batch1","","585.3000000007451","tol_trial_num","<div class = centerbox><p class = center-block-text>problem <strong>12</strong> out of 25 problems</p></div>","0","","","","","","","","","","","","","","","","","","","","","","","","",""
"","","","","","single-stim-button","182","261629","0.0-2.0-43.0-0.0","5f50732850c7c600098593df","A3","batch1","","3199","tol_tohand","","","","tol_peg_1","3199","3199","0","[[1,0,0],[3,0],[0]]","1","[[2,3,0],[0,0],[1]]","11","0","","","","","","4","","","","","","","","",""
"","","","","","single-stim-button","183","263141","0.0-2.0-43.0-1.0","5f50732850c7c600098593df","A3","batch1","","1511","tol_toboard","","","","tol_peg_2","1511","1511","0","[[1,0,0],[3,2],[0]]","1","[[2,3,0],[0,0],[1]]","11","0","","","","","","4","","","","","","","","",""
"","","","","","single-stim-button","184","263536","0.0-2.0-43.1-0.1","5f50732850c7c600098593df","A3","batch1","","393","tol_tohand","","","","tol_peg_1","393","393","0","[[0,0,0],[3,2],[0]]","2","[[2,3,0],[0,0],[1]]","11","0","","","","","","4","","","","","","","","",""
"","","","","","single-stim-button","185","263972","0.0-2.0-43.1-1.1","5f50732850c7c600098593df","A3","batch1","","434","tol_toboard","","","","tol_peg_3","434","434","0","[[0,0,0],[3,2],[1]]","2","[[2,3,0],[0,0],[1]]","11","0","","","","","","4","","","","","","","","",""
"","","","","","single-stim-button","186","265022","0.0-2.0-43.2-0.2","5f50732850c7c600098593df","A3","batch1","","1049","tol_tohand","","","","tol_peg_2","1049","1049","0","[[0,0,0],[3,0],[1]]","3","[[2,3,0],[0,0],[1]]","11","0","","","","","","4","","","","","","","","",""
"","","","","","single-stim-button","187","265876","0.0-2.0-43.2-1.2","5f50732850c7c600098593df","A3","batch1","","853","tol_toboard","","","","tol_peg_1","853","853","0","[[2,0,0],[3,0],[1]]","3","[[2,3,0],[0,0],[1]]","11","0","","","","","","4","","","","","","","","",""
"","","","","","single-stim-button","188","266437","0.0-2.0-43.3-0.3","5f50732850c7c600098593df","A3","batch1","","559","tol_tohand","","","","tol_peg_2","559","559","0","[[2,0,0],[0,0],[1]]","4","[[2,3,0],[0,0],[1]]","11","0","","","","","","4","","","","","","","","",""
"","","","","","single-stim-button","189","267038","0.0-2.0-43.3-1.3","5f50732850c7c600098593df","A3","batch1","","600","tol_toboard","","","","tol_peg_1","600","600","0","[[2,3,0],[0,0],[1]]","4","[[2,3,0],[0,0],[1]]","11","0","","","","","","4","","","","","","","","",""
"","","","","","poldrack-single-stim","190","268045","0.0-2.0-44.0","5f50732850c7c600098593df","A3","batch1","","-1","tol_feedback","","","true","","1000","1000","500","","","","","","-1","none","true","3199","5200","","","","","","","","","",""
"","","","","","html-button-response","191","268758","0.0-2.0-45.0","5f50732850c7c600098593df","A3","batch1","","711.5","tol_trial_num","<div class = centerbox><p class = center-block-text>problem <strong>13</strong> out of 25 problems</p></div>","0","","","","","","","","","","","","","","","","","","","","","","","","",""
"","","","","","single-stim-button","192","272193","0.0-2.0-46.0-0.0","5f50732850c7c600098593df","A3","batch1","","3433","tol_tohand","","","","tol_peg_2","3433","3433","0","[[1,2,0],[0,0],[0]]","1","[[0,0,0],[2,3],[1]]","12","0","","","","","","4","","","","","","","","",""
"","","","","","single-stim-button","193","272502","0.0-2.0-46.0-1.0","5f50732850c7c600098593df","A3","batch1","","307","tol_toboard","","","","tol_peg_3","307","307","0","[[1,2,0],[0,0],[3]]","1","[[0,0,0],[2,3],[1]]","12","0","","","","","","4","","","","","","","","",""
"","","","","","single-stim-button","194","273375","0.0-2.0-46.1-0.1","5f50732850c7c600098593df","A3","batch1","","872","tol_tohand","","","","tol_peg_1","872","872","0","[[1,0,0],[0,0],[3]]","2","[[0,0,0],[2,3],[1]]","12","0","","","","","","4","","","","","","","","",""
"","","","","","single-stim-button","195","274886","0.0-2.0-46.1-1.1","5f50732850c7c600098593df","A3","batch1","","1511","tol_toboard","","","","tol_peg_2","1511","1511","0","[[1,0,0],[2,0],[3]]","2","[[0,0,0],[2,3],[1]]","12","0","","","","","","4","","","","","","","","",""
"","","","","","single-stim-button","196","276535","0.0-2.0-46.2-0.2","5f50732850c7c600098593df","A3","batch1","","1648","tol_tohand","","","","tol_peg_1","1648","1648","0","[[0,0,0],[2,0],[3]]","3","[[0,0,0],[2,3],[1]]","12","0","","","","","","4","","","","","","","","",""
"","","","","","single-stim-button","197","276942","0.0-2.0-46.2-1.2","5f50732850c7c600098593df","A3","batch1","","406","tol_toboard","","","","tol_peg_2","406","406","0","[[0,0,0],[2,1],[3]]","3","[[0,0,0],[2,3],[1]]","12","0","","","","","","4","","","","","","","","",""
"","","","","","single-stim-button","198","277391","0.0-2.0-46.3-0.3","5f50732850c7c600098593df","A3","batch1","","448","tol_tohand","","","","tol_peg_3","448","448","0","[[0,0,0],[2,1],[0]]","4","[[0,0,0],[2,3],[1]]","12","0","","","","","","4","","","","","","","","",""
"","","","","","single-stim-button","199","277864","0.0-2.0-46.3-1.3","5f50732850c7c600098593df","A3","batch1","","472","tol_toboard","","","","tol_peg_1","472","472","0","[[3,0,0],[2,1],[0]]","4","[[0,0,0],[2,3],[1]]","12","0","","","","","","4","","","","","","","","",""
"","","","","","single-stim-button","200","278192","0.0-2.0-46.4-0.4","5f50732850c7c600098593df","A3","batch1","","326","tol_tohand","","","","tol_peg_2","326","326","0","[[3,0,0],[2,0],[0]]","5","[[0,0,0],[2,3],[1]]","12","0","","","","","","4","","","","","","","","",""
"","","","","","single-stim-button","201","278559","0.0-2.0-46.4-1.4","5f50732850c7c600098593df","A3","batch1","","367","tol_toboard","","","","tol_peg_3","367","367","0","[[3,0,0],[2,0],[1]]","5","[[0,0,0],[2,3],[1]]","12","0","","","","","","4","","","","","","","","",""
"","","","","","single-stim-button","202","279576","0.0-2.0-46.5-0.5","5f50732850c7c600098593df","A3","batch1","","1016","tol_tohand","","","","tol_peg_1","1016","1016","0","[[0,0,0],[2,0],[1]]","6","[[0,0,0],[2,3],[1]]","12","0","","","","","","4","","","","","","","","",""
"","","","","","single-stim-button","203","279863","0.0-2.0-46.5-1.5","5f50732850c7c600098593df","A3","batch1","","285","tol_toboard","","","","tol_peg_2","285","285","0","[[0,0,0],[2,3],[1]]","6","[[0,0,0],[2,3],[1]]","12","0","","","","","","4","","","","","","","","",""
"","","","","","poldrack-single-stim","204","280868","0.0-2.0-47.0","5f50732850c7c600098593df","A3","batch1","","-1","tol_feedback","","","true","","1000","1000","500","","","","","","-1","none","true","3433","7743","","","","","","","","","",""
"","","","","","html-button-response","205","284775","0.0-2.0-48.0","5f50732850c7c600098593df","A3","batch1","","3905.800000000745","attention_check","<p class = block-text>How many balls are in your board<br></p>","1","true","","","","","","","","","","","","","","","","","","","","","","","",""
"","","","","","html-button-response","206","285415","0.0-2.0-49.0","5f50732850c7c600098593df","A3","batch1","","638.0999999977648","tol_trial_num","<div class = centerbox><p class = center-block-text>problem <strong>14</strong> out of 25 problems</p></div>","0","","","","","","","","","","","","","","","","","","","","","","","","",""
"","","","","","single-stim-button","207","288625","0.0-2.0-50.0-0.0","5f50732850c7c600098593df","A3","batch1","","3209","tol_tohand","","","","tol_peg_1","3209","3209","0","[[2,0,0],[3,0],[0]]","1","[[1,2,0],[3,0],[0]]","13","0","","","","","","4","","","","","","","","",""
"","","","","","single-stim-button","208","289120","0.0-2.0-50.0-1.0","5f50732850c7c600098593df","A3","batch1","","493","tol_toboard","","","","tol_peg_2","493","493","0","[[2,0,0],[3,1],[0]]","1","[[1,2,0],[3,0],[0]]","13","0","","","","","","4","","","","","","","","",""
"","","","","","single-stim-button","209","289985","0.0-2.0-50.1-0.1","5f50732850c7c600098593df","A3","batch1","","865","tol_tohand","","","","tol_peg_1","865","865","0","[[0,0,0],[3,1],[0]]","2","[[1,2,0],[3,0],[0]]","13","0","","","","","","4","","","","","","","","",""
"","","","","","single-stim-button","210","290384","0.0-2.0-50.1-1.1","5f50732850c7c600098593df","A3","batch1","","398","tol_toboard","","","","tol_peg_3","398","398","0","[[0,0,0],[3,1],[2]]","2","[[1,2,0],[3,0],[0]]","13","0","","","","","","4","","","","","","","","",""
"","","","","","single-stim-button","211","290944","0.0-2.0-50.2-0.2","5f50732850c7c600098593df","A3","batch1","","558","tol_tohand","","","","tol_peg_2","558","558","0","[[0,0,0],[3,0],[2]]","3","[[1,2,0],[3,0],[0]]","13","0","","","","","","4","","","","","","","","",""
"","","","","","single-stim-button","212","291433","0.0-2.0-50.2-1.2","5f50732850c7c600098593df","A3","batch1","","487","tol_toboard","","","","tol_peg_1","487","487","0","[[1,0,0],[3,0],[2]]","3","[[1,2,0],[3,0],[0]]","13","0","","","","","","4","","","","","","","","",""
"","","","","","single-stim-button","213","291896","0.0-2.0-50.3-0.3","5f50732850c7c600098593df","A3","batch1","","463","tol_tohand","","","","tol_peg_3","463","463","0","[[1,0,0],[3,0],[0]]","4","[[1,2,0],[3,0],[0]]","13","0","","","","","","4","","","","","","","","",""
"","","","","","single-stim-button","214","292336","0.0-2.0-50.3-1.3","5f50732850c7c600098593df","A3","batch1","","439","tol_toboard","","","","tol_peg_1","439","439","0","[[1,2,0],[3,0],[0]]","4","[[1,2,0],[3,0],[0]]","13","0","","","","","","4","","","","","","","","",""
"","","","","","poldrack-single-stim","215","293344","0.0-2.0-51.0","5f50732850c7c600098593df","A3","batch1","","-1","tol_feedback","","","true","","1000","1000","500","","","","","","-1","none","true","3209","5095","","","","","","","","","",""
"","","","","","html-button-response","216","293929","0.0-2.0-52.0","5f50732850c7c600098593df","A3","batch1","","583.4000000022352","tol_trial_num","<div class = centerbox><p class = center-block-text>problem <strong>15</strong> out of 25 problems</p></div>","0","","","","","","","","","","","","","","","","","","","","","","","","",""
"","","","","","single-stim-button","217","308651","0.0-2.0-53.0-0.0","5f50732850c7c600098593df","A3","batch1","","14721","tol_tohand","","","","tol_peg_1","14721","14721","0","[[1,0,0],[3,0],[0]]","1","[[2,0,0],[3,0],[1]]","14","0","","","","","","3","","","","","","","","",""
"","","","","","single-stim-button","218","309003","0.0-2.0-53.0-1.0","5f50732850c7c600098593df","A3","batch1","","350","tol_toboard","","","","tol_peg_2","350","350","0","[[1,0,0],[3,2],[0]]","1","[[2,0,0],[3,0],[1]]","14","0","","","","","","3","","","","","","","","",""
"","","","","","single-stim-button","219","309453","0.0-2.0-53.1-0.1","5f50732850c7c600098593df","A3","batch1","","449","tol_tohand","","","","tol_peg_1","449","449","0","[[0,0,0],[3,2],[0]]","2","[[2,0,0],[3,0],[1]]","14","0","","","","","","3","","","","","","","","",""
"","","","","","single-stim-button","220","310083","0.0-2.0-53.1-1.1","5f50732850c7c600098593df","A3","batch1","","629","tol_toboard","","","","tol_peg_3","629","629","0","[[0,0,0],[3,2],[1]]","2","[[2,0,0],[3,0],[1]]","14","0","","","","","","3","","","","","","","","",""
"","","","","","single-stim-button","221","310587","0.0-2.0-53.2-0.2","5f50732850c7c600098593df","A3","batch1","","503","tol_tohand","","","","tol_peg_2","503","503","0","[[0,0,0],[3,0],[1]]","3","[[2,0,0],[3,0],[1]]","14","0","","","","","","3","","","","","","","","",""
"","","","","","single-stim-button","222","310931","0.0-2.0-53.2-1.2","5f50732850c7c600098593df","A3","batch1","","342","tol_toboard","","","","tol_peg_1","342","342","0","[[2,0,0],[3,0],[1]]","3","[[2,0,0],[3,0],[1]]","14","0","","","","","","3","","","","","","","","",""
"","","","","","poldrack-single-stim","223","311934","0.0-2.0-54.0","5f50732850c7c600098593df","A3","batch1","","-1","tol_feedback","","","true","","1000","1000","500","","","","","","-1","none","true","14721","15673","","","","","","","","","",""
"","","","","","html-button-response","224","312491","0.0-2.0-55.0","5f50732850c7c600098593df","A3","batch1","","554.7999999970198","tol_trial_num","<div class = centerbox><p class = center-block-text>problem <strong>16</strong> out of 25 problems</p></div>","0","","","","","","","","","","","","","","","","","","","","","","","","",""
"","","","","","single-stim-button","225","315501","0.0-2.0-56.0-0.0","5f50732850c7c600098593df","A3","batch1","","3010","tol_tohand","","","","tol_peg_2","3010","3010","0","[[0,0,0],[2,0],[1]]","1","[[2,3,0],[1,0],[0]]","15","0","","","","","","7","","","","","","","","",""
"","","","","","single-stim-button","226","315941","0.0-2.0-56.0-1.0","5f50732850c7c600098593df","A3","batch1","","438","tol_toboard","","","","tol_peg_1","438","438","0","[[3,0,0],[2,0],[1]]","1","[[2,3,0],[1,0],[0]]","15","0","","","","","","7","","","","","","","","",""
"","","","","","single-stim-button","227","316965","0.0-2.0-56.1-0.1","5f50732850c7c600098593df","A3","batch1","","1024","tol_tohand","","","","tol_peg_2","1024","1024","0","[[3,0,0],[0,0],[1]]","2","[[2,3,0],[1,0],[0]]","15","0","","","","","","7","","","","","","","","",""
"","","","","","single-stim-button","228","317291","0.0-2.0-56.1-1.1","5f50732850c7c600098593df","A3","batch1","","324","tol_toboard","","","","tol_peg_1","324","324","0","[[3,2,0],[0,0],[1]]","2","[[2,3,0],[1,0],[0]]","15","0","","","","","","7","","","","","","","","",""
"","","","","","single-stim-button","229","317692","0.0-2.0-56.2-0.2","5f50732850c7c600098593df","A3","batch1","","400","tol_tohand","","","","tol_peg_3","400","400","0","[[3,2,0],[0,0],[0]]","3","[[2,3,0],[1,0],[0]]","15","0","","","","","","7","","","","","","","","",""
"","","","","","single-stim-button","230","318135","0.0-2.0-56.2-1.2","5f50732850c7c600098593df","A3","batch1","","441","tol_toboard","","","","tol_peg_2","441","441","0","[[3,2,0],[1,0],[0]]","3","[[2,3,0],[1,0],[0]]","15","0","","","","","","7","","","","","","","","",""
"","","","","","single-stim-button","231","318356","0.0-2.0-56.3-0.3","5f50732850c7c600098593df","A3","batch1","","220","tol_tohand","","","","tol_peg_2","220","220","0","[[3,2,0],[0,0],[0]]","4","[[2,3,0],[1,0],[0]]","15","0","","","","","","7","","","","","","","","",""
"","","","","","single-stim-button","232","319062","0.0-2.0-56.3-1.3","5f50732850c7c600098593df","A3","batch1","","704","tol_toboard","","","","tol_peg_2","704","704","0","[[3,2,0],[1,0],[0]]","4","[[2,3,0],[1,0],[0]]","15","0","","","","","","7","","","","","","","","",""
"","","","","","single-stim-button","233","319468","0.0-2.0-56.4-0.4","5f50732850c7c600098593df","A3","batch1","","405","tol_tohand","","","","tol_peg_1","405","405","0","[[3,0,0],[1,0],[0]]","5","[[2,3,0],[1,0],[0]]","15","0","","","","","","7","","","","","","","","",""
"","","","","","single-stim-button","234","319924","0.0-2.0-56.4-1.4","5f50732850c7c600098593df","A3","batch1","","454","tol_toboard","","","","tol_peg_3","454","454","0","[[3,0,0],[1,0],[2]]","5","[[2,3,0],[1,0],[0]]","15","0","","","","","","7","","","","","","","","",""
"","","","","","single-stim-button","235","320349","0.0-2.0-56.5-0.5","5f50732850c7c600098593df","A3","batch1","","424","tol_tohand","","","","tol_peg_1","424","424","0","[[0,0,0],[1,0],[2]]","6","[[2,3,0],[1,0],[0]]","15","0","","","","","","7","","","","","","","","",""
"","","","","","single-stim-button","236","320701","0.0-2.0-56.5-1.5","5f50732850c7c600098593df","A3","batch1","","351","tol_toboard","","","","tol_peg_2","351","351","0","[[0,0,0],[1,3],[2]]","6","[[2,3,0],[1,0],[0]]","15","0","","","","","","7","","","","","","","","",""
"","","","","","single-stim-button","237","321109","0.0-2.0-56.6-0.6","5f50732850c7c600098593df","A3","batch1","","406","tol_tohand","","","","tol_peg_3","406","406","0","[[0,0,0],[1,3],[0]]","7","[[2,3,0],[1,0],[0]]","15","0","","","","","","7","","","","","","","","",""
"","","","","","single-stim-button","238","321557","0.0-2.0-56.6-1.6","5f50732850c7c600098593df","A3","batch1","","448","tol_toboard","","","","tol_peg_1","448","448","0","[[2,0,0],[1,3],[0]]","7","[[2,3,0],[1,0],[0]]","15","0","","","","","","7","","","","","","","","",""
"","","","","","single-stim-button","239","321876","0.0-2.0-56.7-0.7","5f50732850c7c600098593df","A3","batch1","","317","tol_tohand","","","","tol_peg_2","317","317","0","[[2,0,0],[1,0],[0]]","8","[[2,3,0],[1,0],[0]]","15","0","","","","","","7","","","","","","","","",""
"","","","","","single-stim-button","240","322133","0.0-2.0-56.7-1.7","5f50732850c7c600098593df","A3","batch1","","256","tol_toboard","","","","tol_peg_1","256","256","0","[[2,3,0],[1,0],[0]]","8","[[2,3,0],[1,0],[0]]","15","0","","","","","","7","","","","","","","","",""
"","","","","","poldrack-single-stim","241","323139","0.0-2.0-57.0","5f50732850c7c600098593df","A3","batch1","","-1","tol_feedback","","","true","","1000","1000","500","","","","","","-1","none","true","3010","6206","","","","","","","","","",""
"","","","","","html-button-response","242","323708","0.0-2.0-58.0","5f50732850c7c600098593df","A3","batch1","","567.5999999977648","tol_trial_num","<div class = centerbox><p class = center-block-text>problem <strong>17</strong> out of 25 problems</p></div>","0","","","","","","","","","","","","","","","","","","","","","","","","",""
"","","","","","single-stim-button","243","327006","0.0-2.0-59.0-0.0","5f50732850c7c600098593df","A3","batch1","","3296","tol_tohand","","","","tol_peg_1","3296","3296","0","[[1,0,0],[3,0],[0]]","1","[[3,1,0],[2,0],[0]]","16","0","","","","","","5","","","","","","","","",""
"","","","","","single-stim-button","244","327517","0.0-2.0-59.0-1.0","5f50732850c7c600098593df","A3","batch1","","509","tol_toboard","","","","tol_peg_3","509","509","0","[[1,0,0],[3,0],[2]]","1","[[3,1,0],[2,0],[0]]","16","0","","","","","","5","","","","","","","","",""
"","","","","","single-stim-button","245","328646","0.0-2.0-59.1-0.1","5f50732850c7c600098593df","A3","batch1","","1129","tol_tohand","","","","tol_peg_1","1129","1129","0","[[0,0,0],[3,0],[2]]","2","[[3,1,0],[2,0],[0]]","16","0","","","","","","5","","","","","","","","",""
"","","","","","single-stim-button","246","332223","0.0-2.0-59.1-1.1","5f50732850c7c600098593df","A3","batch1","","3575","tol_toboard","","","","tol_peg_1","3575","3575","0","[[1,0,0],[3,0],[2]]","2","[[3,1,0],[2,0],[0]]","16","0","","","","","","5","","","","","","","","",""
"","","","","","single-stim-button","247","332767","0.0-2.0-59.2-0.2","5f50732850c7c600098593df","A3","batch1","","543","tol_tohand","","","","tol_peg_2","543","543","0","[[1,0,0],[0,0],[2]]","3","[[3,1,0],[2,0],[0]]","16","0","","","","","","5","","","","","","","","",""
"","","","","","single-stim-button","248","333143","0.0-2.0-59.2-1.2","5f50732850c7c600098593df","A3","batch1","","375","tol_toboard","","","","tol_peg_1","375","375","0","[[1,3,0],[0,0],[2]]","3","[[3,1,0],[2,0],[0]]","16","0","","","","","","5","","","","","","","","",""
"","","","","","single-stim-button","249","333527","0.0-2.0-59.3-0.3","5f50732850c7c600098593df","A3","batch1","","382","tol_tohand","","","","tol_peg_3","382","382","0","[[1,3,0],[0,0],[0]]","4","[[3,1,0],[2,0],[0]]","16","0","","","","","","5","","","","","","","","",""
"","","","","","single-stim-button","250","333878","0.0-2.0-59.3-1.3","5f50732850c7c600098593df","A3","batch1","","351","tol_toboard","","","","tol_peg_2","351","351","0","[[1,3,0],[2,0],[0]]","4","[[3,1,0],[2,0],[0]]","16","0","","","","","","5","","","","","","","","",""
"","","","","","single-stim-button","251","334767","0.0-2.0-59.4-0.4","5f50732850c7c600098593df","A3","batch1","","888","tol_tohand","","","","tol_peg_1","888","888","0","[[1,0,0],[2,0],[0]]","5","[[3,1,0],[2,0],[0]]","16","0","","","","","","5","","","","","","","","",""
"","","","","","single-stim-button","252","335350","0.0-2.0-59.4-1.4","5f50732850c7c600098593df","A3","batch1","","581","tol_toboard","","","","tol_peg_3","581","581","0","[[1,0,0],[2,0],[3]]","5","[[3,1,0],[2,0],[0]]","16","0","","","","","","5","","","","","","","","",""
"","","","","","single-stim-button","253","335801","0.0-2.0-59.5-0.5","5f50732850c7c600098593df","A3","batch1","","449","tol_tohand","","","","tol_peg_1","449","449","0","[[0,0,0],[2,0],[3]]","6","[[3,1,0],[2,0],[0]]","16","0","","","","","","5","","","","","","","","",""
"","","","","","single-stim-button","254","336096","0.0-2.0-59.5-1.5","5f50732850c7c600098593df","A3","batch1","","295","tol_toboard","","","","tol_peg_2","295","295","0","[[0,0,0],[2,1],[3]]","6","[[3,1,0],[2,0],[0]]","16","0","","","","","","5","","","","","","","","",""
"","","","","","single-stim-button","255","336543","0.0-2.0-59.6-0.6","5f50732850c7c600098593df","A3","batch1","","446","tol_tohand","","","","tol_peg_3","446","446","0","[[0,0,0],[2,1],[0]]","7","[[3,1,0],[2,0],[0]]","16","0","","","","","","5","","","","","","","","",""
"","","","","","single-stim-button","256","337030","0.0-2.0-59.6-1.6","5f50732850c7c600098593df","A3","batch1","","486","tol_toboard","","","","tol_peg_1","486","486","0","[[3,0,0],[2,1],[0]]","7","[[3,1,0],[2,0],[0]]","16","0","","","","","","5","","","","","","","","",""
"","","","","","single-stim-button","257","337415","0.0-2.0-59.7-0.7","5f50732850c7c600098593df","A3","batch1","","385","tol_tohand","","","","tol_peg_2","385","385","0","[[3,0,0],[2,0],[0]]","8","[[3,1,0],[2,0],[0]]","16","0","","","","","","5","","","","","","","","",""
"","","","","","single-stim-button","258","337801","0.0-2.0-59.7-1.7","5f50732850c7c600098593df","A3","batch1","","384","tol_toboard","","","","tol_peg_1","384","384","0","[[3,1,0],[2,0],[0]]","8","[[3,1,0],[2,0],[0]]","16","0","","","","","","5","","","","","","","","",""
"","","","","","poldrack-single-stim","259","338807","0.0-2.0-60.0","5f50732850c7c600098593df","A3","batch1","","-1","tol_feedback","","","true","","1000","1000","500","","","","","","-1","none","true","3296","7518","","","","","","","","","",""
"","","","","","html-button-response","260","374765","0.0-2.0-61.0","5f50732850c7c600098593df","A3","batch1","","35954.900000002235","tol_trial_num","<div class = centerbox><p class = center-block-text>problem <strong>18</strong> out of 25 problems</p></div>","0","","","","","","","","","","","","","","","","","","","","","","","","",""
"","","","","","single-stim-button","261","379097","0.0-2.0-62.0-0.0","5f50732850c7c600098593df","A3","batch1","","4330","tol_tohand","","","","tol_peg_2","4330","4330","0","[[1,2,0],[0,0],[0]]","1","[[3,0,0],[2,0],[1]]","17","0","","","","","","5","","","","","","","","",""
"","","","","","single-stim-button","262","379537","0.0-2.0-62.0-1.0","5f50732850c7c600098593df","A3","batch1","","438","tol_toboard","","","","tol_peg_3","438","438","0","[[1,2,0],[0,0],[3]]","1","[[3,0,0],[2,0],[1]]","17","0","","","","","","5","","","","","","","","",""
"","","","","","single-stim-button","263","380321","0.0-2.0-62.1-0.1","5f50732850c7c600098593df","A3","batch1","","782","tol_tohand","","","","tol_peg_1","782","782","0","[[1,0,0],[0,0],[3]]","2","[[3,0,0],[2,0],[1]]","17","0","","","","","","5","","","","","","","","",""
"","","","","","single-stim-button","264","380808","0.0-2.0-62.1-1.1","5f50732850c7c600098593df","A3","batch1","","486","tol_toboard","","","","tol_peg_2","486","486","0","[[1,0,0],[2,0],[3]]","2","[[3,0,0],[2,0],[1]]","17","0","","","","","","5","","","","","","","","",""
"","","","","","single-stim-button","265","382041","0.0-2.0-62.2-0.2","5f50732850c7c600098593df","A3","batch1","","1231","tol_tohand","","","","tol_peg_1","1231","1231","0","[[0,0,0],[2,0],[3]]","3","[[3,0,0],[2,0],[1]]","17","0","","","","","","5","","","","","","","","",""
"","","","","","single-stim-button","266","382497","0.0-2.0-62.2-1.2","5f50732850c7c600098593df","A3","batch1","","455","tol_toboard","","","","tol_peg_2","455","455","0","[[0,0,0],[2,1],[3]]","3","[[3,0,0],[2,0],[1]]","17","0","","","","","","5","","","","","","","","",""
"","","","","","single-stim-button","267","393050","0.0-2.0-62.3-0.3","5f50732850c7c600098593df","A3","batch1","","10551","tol_tohand","","","","tol_peg_3","10551","10551","0","[[0,0,0],[2,1],[0]]","4","[[3,0,0],[2,0],[1]]","17","0","","","","","","5","","","","","","","","",""
"","","","","","single-stim-button","268","393523","0.0-2.0-62.3-1.3","5f50732850c7c600098593df","A3","batch1","","471","tol_toboard","","","","tol_peg_1","471","471","0","[[3,0,0],[2,1],[0]]","4","[[3,0,0],[2,0],[1]]","17","0","","","","","","5","","","","","","","","",""
"","","","","","single-stim-button","269","395195","0.0-2.0-62.4-0.4","5f50732850c7c600098593df","A3","batch1","","1671","tol_tohand","","","","tol_peg_2","1671","1671","0","[[3,0,0],[2,0],[0]]","5","[[3,0,0],[2,0],[1]]","17","0","","","","","","5","","","","","","","","",""
"","","","","","single-stim-button","270","395636","0.0-2.0-62.4-1.4","5f50732850c7c600098593df","A3","batch1","","440","tol_toboard","","","","tol_peg_3","440","440","0","[[3,0,0],[2,0],[1]]","5","[[3,0,0],[2,0],[1]]","17","0","","","","","","5","","","","","","","","",""
"","","","","","poldrack-single-stim","271","396642","0.0-2.0-63.0","5f50732850c7c600098593df","A3","batch1","","-1","tol_feedback","","","true","","1000","1000","500","","","","","","-1","none","true","4330","18565","","","","","","","","","",""
"","","","","","html-button-response","272","397339","0.0-2.0-64.0","5f50732850c7c600098593df","A3","batch1","","695.6000000014901","tol_trial_num","<div class = centerbox><p class = center-block-text>problem <strong>19</strong> out of 25 problems</p></div>","0","","","","","","","","","","","","","","","","","","","","","","","","",""
"","","","","","single-stim-button","273","399965","0.0-2.0-65.0-0.0","5f50732850c7c600098593df","A3","batch1","","2625","tol_tohand","","","","tol_peg_1","2625","2625","0","[[1,0,0],[3,0],[0]]","1","[[0,0,0],[1,2],[3]]","18","0","","","","","","7","","","","","","","","",""
"","","","","","single-stim-button","274","401372","0.0-2.0-65.0-1.0","5f50732850c7c600098593df","A3","batch1","","1405","tol_toboard","","","","tol_peg_1","1405","1405","0","[[1,2,0],[3,0],[0]]","1","[[0,0,0],[1,2],[3]]","18","0","","","","","","7","","","","","","","","",""
"","","","","","single-stim-button","275","401924","0.0-2.0-65.1-0.1","5f50732850c7c600098593df","A3","batch1","","552","tol_tohand","","","","tol_peg_2","552","552","0","[[1,2,0],[0,0],[0]]","2","[[0,0,0],[1,2],[3]]","18","0","","","","","","7","","","","","","","","",""
"","","","","","single-stim-button","276","402317","0.0-2.0-65.1-1.1","5f50732850c7c600098593df","A3","batch1","","391","tol_toboard","","","","tol_peg_3","391","391","0","[[1,2,0],[0,0],[3]]","2","[[0,0,0],[1,2],[3]]","18","0","","","","","","7","","","","","","","","",""
"","","","","","single-stim-button","277","403588","0.0-2.0-65.2-0.2","5f50732850c7c600098593df","A3","batch1","","1270","tol_tohand","","","","tol_peg_1","1270","1270","0","[[1,0,0],[0,0],[3]]","3","[[0,0,0],[1,2],[3]]","18","0","","","","","","7","","","","","","","","",""
"","","","","","single-stim-button","278","404164","0.0-2.0-65.2-1.2","5f50732850c7c600098593df","A3","batch1","","576","tol_toboard","","","","tol_peg_1","576","576","0","[[1,2,0],[0,0],[3]]","3","[[0,0,0],[1,2],[3]]","18","0","","","","","","7","","","","","","","","",""
"","","","","","single-stim-button","279","404973","0.0-2.0-65.3-0.3","5f50732850c7c600098593df","A3","batch1","","807","tol_tohand","","","","tol_peg_1","807","807","0","[[1,0,0],[0,0],[3]]","4","[[0,0,0],[1,2],[3]]","18","0","","","","","","7","","","","","","","","",""
"","","","","","single-stim-button","280","405261","0.0-2.0-65.3-1.3","5f50732850c7c600098593df","A3","batch1","","287","tol_toboard","","","","tol_peg_2","287","287","0","[[1,0,0],[2,0],[3]]","4","[[0,0,0],[1,2],[3]]","18","0","","","","","","7","","","","","","","","",""
"","","","","","single-stim-button","281","405821","0.0-2.0-65.4-0.4","5f50732850c7c600098593df","A3","batch1","","559","tol_tohand","","","","tol_peg_1","559","559","0","[[0,0,0],[2,0],[3]]","5","[[0,0,0],[1,2],[3]]","18","0","","","","","","7","","","","","","","","",""
"","","","","","single-stim-button","282","406716","0.0-2.0-65.4-1.4","5f50732850c7c600098593df","A3","batch1","","895","tol_toboard","","","","tol_peg_2","895","895","0","[[0,0,0],[2,1],[3]]","5","[[0,0,0],[1,2],[3]]","18","0","","","","","","7","","","","","","","","",""
"","","","","","single-stim-button","283","407173","0.0-2.0-65.5-0.5","5f50732850c7c600098593df","A3","batch1","","456","tol_tohand","","","","tol_peg_3","456","456","0","[[0,0,0],[2,1],[0]]","6","[[0,0,0],[1,2],[3]]","18","0","","","","","","7","","","","","","","","",""
"","","","","","single-stim-button","284","407516","0.0-2.0-65.5-1.5","5f50732850c7c600098593df","A3","batch1","","341","tol_toboard","","","","tol_peg_1","341","341","0","[[3,0,0],[2,1],[0]]","6","[[0,0,0],[1,2],[3]]","18","0","","","","","","7","","","","","","","","",""
"","","","","","single-stim-button","285","408236","0.0-2.0-65.6-0.6","5f50732850c7c600098593df","A3","batch1","","719","tol_tohand","","","","tol_peg_2","719","719","0","[[3,0,0],[2,0],[0]]","7","[[0,0,0],[1,2],[3]]","18","0","","","","","","7","","","","","","","","",""
"","","","","","single-stim-button","286","409556","0.0-2.0-65.6-1.6","5f50732850c7c600098593df","A3","batch1","","1319","tol_toboard","","","","tol_peg_3","1319","1319","0","[[3,0,0],[2,0],[1]]","7","[[0,0,0],[1,2],[3]]","18","0","","","","","","7","","","","","","","","",""
"","","","","","single-stim-button","287","409892","0.0-2.0-65.7-0.7","5f50732850c7c600098593df","A3","batch1","","335","tol_tohand","","","","tol_peg_2","335","335","0","[[3,0,0],[0,0],[1]]","8","[[0,0,0],[1,2],[3]]","18","0","","","","","","7","","","","","","","","",""
"","","","","","single-stim-button","288","410277","0.0-2.0-65.7-1.7","5f50732850c7c600098593df","A3","batch1","","384","tol_toboard","","","","tol_peg_1","384","384","0","[[3,2,0],[0,0],[1]]","8","[[0,0,0],[1,2],[3]]","18","0","","","","","","7","","","","","","","","",""
"","","","","","single-stim-button","289","410653","0.0-2.0-65.8-0.8","5f50732850c7c600098593df","A3","batch1","","374","tol_tohand","","","","tol_peg_3","374","374","0","[[3,2,0],[0,0],[0]]","9","[[0,0,0],[1,2],[3]]","18","0","","","","","","7","","","","","","","","",""
"","","","","","single-stim-button","290","410933","0.0-2.0-65.8-1.8","5f50732850c7c600098593df","A3","batch1","","278","tol_toboard","","","","tol_peg_2","278","278","0","[[3,2,0],[1,0],[0]]","9","[[0,0,0],[1,2],[3]]","18","0","","","","","","7","","","","","","","","",""
"","","","","","single-stim-button","291","411405","0.0-2.0-65.9-0.9","5f50732850c7c600098593df","A3","batch1","","471","tol_tohand","","","","tol_peg_1","471","471","0","[[3,0,0],[1,0],[0]]","10","[[0,0,0],[1,2],[3]]","18","0","","","","","","7","","","","","","","","",""
"","","","","","single-stim-button","292","411685","0.0-2.0-65.9-1.9","5f50732850c7c600098593df","A3","batch1","","279","tol_toboard","","","","tol_peg_2","279","279","0","[[3,0,0],[1,2],[0]]","10","[[0,0,0],[1,2],[3]]","18","0","","","","","","7","","","","","","","","",""
"","","","","","single-stim-button","293","412817","0.0-2.0-65.10-0.10","5f50732850c7c600098593df","A3","batch1","","1130","tol_tohand","","","","tol_peg_1","1130","1130","0","[[0,0,0],[1,2],[0]]","11","[[0,0,0],[1,2],[3]]","18","0","","","","","","7","","","","","","","","",""
"","","","","","single-stim-button","294","414047","0.0-2.0-65.10-1.10","5f50732850c7c600098593df","A3","batch1","","1228","tol_toboard","","","","tol_peg_3","1228","1228","0","[[0,0,0],[1,2],[3]]","11","[[0,0,0],[1,2],[3]]","18","0","","","","","","7","","","","","","","","",""
"","","","","","poldrack-single-stim","295","415051","0.0-2.0-66.0","5f50732850c7c600098593df","A3","batch1","","-1","tol_feedback","","","true","","1000","1000","500","","","","","","-1","none","true","2625","9298","","","","","","","","","",""
"","","","","","html-button-response","296","415589","0.0-2.0-67.0","5f50732850c7c600098593df","A3","batch1","","536.1999999992549","tol_trial_num","<div class = centerbox><p class = center-block-text>problem <strong>20</strong> out of 25 problems</p></div>","0","","","","","","","","","","","","","","","","","","","","","","","","",""
"","","","","","single-stim-button","297","419214","0.0-2.0-68.0-0.0","5f50732850c7c600098593df","A3","batch1","","3623","tol_tohand","","","","tol_peg_1","3623","3623","0","[[1,0,0],[3,0],[0]]","1","[[2,1,0],[0,0],[3]]","19","0","","","","","","5","","","","","","","","",""
"","","","","","single-stim-button","298","422987","0.0-2.0-68.0-1.0","5f50732850c7c600098593df","A3","batch1","","3772","tol_toboard","","","","tol_peg_3","3772","3772","0","[[1,0,0],[3,0],[2]]","1","[[2,1,0],[0,0],[3]]","19","0","","","","","","5","","","","","","","","",""
"","","","","","single-stim-button","299","423597","0.0-2.0-68.1-0.1","5f50732850c7c600098593df","A3","batch1","","608","tol_tohand","","","","tol_peg_1","608","608","0","[[0,0,0],[3,0],[2]]","2","[[2,1,0],[0,0],[3]]","19","0","","","","","","5","","","","","","","","",""
"","","","","","single-stim-button","300","423974","0.0-2.0-68.1-1.1","5f50732850c7c600098593df","A3","batch1","","376","tol_toboard","","","","tol_peg_2","376","376","0","[[0,0,0],[3,1],[2]]","2","[[2,1,0],[0,0],[3]]","19","0","","","","","","5","","","","","","","","",""
"","","","","","single-stim-button","301","424340","0.0-2.0-68.2-0.2","5f50732850c7c600098593df","A3","batch1","","365","tol_tohand","","","","tol_peg_3","365","365","0","[[0,0,0],[3,1],[0]]","3","[[2,1,0],[0,0],[3]]","19","0","","","","","","5","","","","","","","","",""
"","","","","","single-stim-button","302","424853","0.0-2.0-68.2-1.2","5f50732850c7c600098593df","A3","batch1","","512","tol_toboard","","","","tol_peg_1","512","512","0","[[2,0,0],[3,1],[0]]","3","[[2,1,0],[0,0],[3]]","19","0","","","","","","5","","","","","","","","",""
"","","","","","single-stim-button","303","425947","0.0-2.0-68.3-0.3","5f50732850c7c600098593df","A3","batch1","","1092","tol_tohand","","","","tol_peg_1","1092","1092","0","[[0,0,0],[3,1],[0]]","4","[[2,1,0],[0,0],[3]]","19","0","","","","","","5","","","","","","","","",""
"","","","","","single-stim-button","304","426896","0.0-2.0-68.3-1.3","5f50732850c7c600098593df","A3","batch1","","947","tol_toboard","","","","tol_peg_1","947","947","0","[[2,0,0],[3,1],[0]]","4","[[2,1,0],[0,0],[3]]","19","0","","","","","","5","","","","","","","","",""
"","","","","","single-stim-button","305","427591","0.0-2.0-68.4-0.4","5f50732850c7c600098593df","A3","batch1","","694","tol_tohand","","","","tol_peg_2","694","694","0","[[2,0,0],[3,0],[0]]","5","[[2,1,0],[0,0],[3]]","19","0","","","","","","5","","","","","","","","",""
"","","","","","single-stim-button","306","428103","0.0-2.0-68.4-1.4","5f50732850c7c600098593df","A3","batch1","","511","tol_toboard","","","","tol_peg_1","511","511","0","[[2,1,0],[3,0],[0]]","5","[[2,1,0],[0,0],[3]]","19","0","","","","","","5","","","","","","","","",""
"","","","","","single-stim-button","307","428561","0.0-2.0-68.5-0.5","5f50732850c7c600098593df","A3","batch1","","456","tol_tohand","","","","tol_peg_2","456","456","0","[[2,1,0],[0,0],[0]]","6","[[2,1,0],[0,0],[3]]","19","0","","","","","","5","","","","","","","","",""
"","","","","","single-stim-button","308","428967","0.0-2.0-68.5-1.5","5f50732850c7c600098593df","A3","batch1","","405","tol_toboard","","","","tol_peg_3","405","405","0","[[2,1,0],[0,0],[3]]","6","[[2,1,0],[0,0],[3]]","19","0","","","","","","5","","","","","","","","",""
"","","","","","poldrack-single-stim","309","429971","0.0-2.0-69.0","5f50732850c7c600098593df","A3","batch1","","-1","tol_feedback","","","true","","1000","1000","500","","","","","","-1","none","true","3623","6838","","","","","","","","","",""
"","","","","","html-button-response","310","430850","0.0-2.0-70.0","5f50732850c7c600098593df","A3","batch1","","878.3999999985099","tol_trial_num","<div class = centerbox><p class = center-block-text>problem <strong>21</strong> out of 25 problems</p></div>","0","","","","","","","","","","","","","","","","","","","","","","","","",""
"","","","","","single-stim-button","311","434134","0.0-2.0-71.0-0.0","5f50732850c7c600098593df","A3","batch1","","3282","tol_tohand","","","","tol_peg_2","3282","3282","0","[[1,2,0],[0,0],[0]]","1","[[3,2,0],[0,0],[1]]","20","0","","","","","","6","","","","","","","","",""
"","","","","","single-stim-button","312","435277","0.0-2.0-71.0-1.0","5f50732850c7c600098593df","A3","batch1","","1143","tol_toboard","","","","tol_peg_3","1143","1143","0","[[1,2,0],[0,0],[3]]","1","[[3,2,0],[0,0],[1]]","20","0","","","","","","6","","","","","","","","",""
"","","","","","single-stim-button","313","437518","0.0-2.0-71.1-0.1","5f50732850c7c600098593df","A3","batch1","","2240","tol_tohand","","","","tol_peg_3","2240","2240","0","[[1,2,0],[0,0],[0]]","2","[[3,2,0],[0,0],[1]]","20","0","","","","","","6","","","","","","","","",""
"","","","","","single-stim-button","314","437942","0.0-2.0-71.1-1.1","5f50732850c7c600098593df","A3","batch1","","422","tol_toboard","","","","tol_peg_2","422","422","0","[[1,2,0],[3,0],[0]]","2","[[3,2,0],[0,0],[1]]","20","0","","","","","","6","","","","","","","","",""
"","","","","","single-stim-button","315","438455","0.0-2.0-71.2-0.2","5f50732850c7c600098593df","A3","batch1","","511","tol_tohand","","","","tol_peg_1","511","511","0","[[1,0,0],[3,0],[0]]","3","[[3,2,0],[0,0],[1]]","20","0","","","","","","6","","","","","","","","",""
"","","","","","single-stim-button","316","438830","0.0-2.0-71.2-1.2","5f50732850c7c600098593df","A3","batch1","","375","tol_toboard","","","","tol_peg_2","375","375","0","[[1,0,0],[3,2],[0]]","3","[[3,2,0],[0,0],[1]]","20","0","","","","","","6","","","","","","","","",""
"","","","","","single-stim-button","317","439261","0.0-2.0-71.3-0.3","5f50732850c7c600098593df","A3","batch1","","430","tol_tohand","","","","tol_peg_1","430","430","0","[[0,0,0],[3,2],[0]]","4","[[3,2,0],[0,0],[1]]","20","0","","","","","","6","","","","","","","","",""
"","","","","","single-stim-button","318","439733","0.0-2.0-71.3-1.3","5f50732850c7c600098593df","A3","batch1","","470","tol_toboard","","","","tol_peg_3","470","470","0","[[0,0,0],[3,2],[1]]","4","[[3,2,0],[0,0],[1]]","20","0","","","","","","6","","","","","","","","",""
"","","","","","single-stim-button","319","441631","0.0-2.0-71.4-0.4","5f50732850c7c600098593df","A3","batch1","","1896","tol_tohand","","","","tol_peg_2","1896","1896","0","[[0,0,0],[3,0],[1]]","5","[[3,2,0],[0,0],[1]]","20","0","","","","","","6","","","","","","","","",""
"","","","","","single-stim-button","320","441975","0.0-2.0-71.4-1.4","5f50732850c7c600098593df","A3","batch1","","342","tol_toboard","","","","tol_peg_1","342","342","0","[[2,0,0],[3,0],[1]]","5","[[3,2,0],[0,0],[1]]","20","0","","","","","","6","","","","","","","","",""
"","","","","","single-stim-button","321","443031","0.0-2.0-71.5-0.5","5f50732850c7c600098593df","A3","batch1","","1055","tol_tohand","","","","tol_peg_3","1055","1055","0","[[2,0,0],[3,0],[0]]","6","[[3,2,0],[0,0],[1]]","20","0","","","","","","6","","","","","","","","",""
"","","","","","single-stim-button","322","444870","0.0-2.0-71.5-1.5","5f50732850c7c600098593df","A3","batch1","","1838","tol_toboard","","","","tol_peg_1","1838","1838","0","[[2,1,0],[3,0],[0]]","6","[[3,2,0],[0,0],[1]]","20","0","","","","","","6","","","","","","","","",""
"","","","","","single-stim-button","323","445664","0.0-2.0-71.6-0.6","5f50732850c7c600098593df","A3","batch1","","792","tol_tohand","","","","tol_peg_2","792","792","0","[[2,1,0],[0,0],[0]]","7","[[3,2,0],[0,0],[1]]","20","0","","","","","","6","","","","","","","","",""
"","","","","","single-stim-button","324","446007","0.0-2.0-71.6-1.6","5f50732850c7c600098593df","A3","batch1","","341","tol_toboard","","","","tol_peg_3","341","341","0","[[2,1,0],[0,0],[3]]","7","[[3,2,0],[0,0],[1]]","20","0","","","","","","6","","","","","","","","",""
"","","","","","single-stim-button","325","446577","0.0-2.0-71.7-0.7","5f50732850c7c600098593df","A3","batch1","","569","tol_tohand","","","","tol_peg_1","569","569","0","[[2,0,0],[0,0],[3]]","8","[[3,2,0],[0,0],[1]]","20","0","","","","","","6","","","","","","","","",""
"","","","","","single-stim-button","326","447039","0.0-2.0-71.7-1.7","5f50732850c7c600098593df","A3","batch1","","461","tol_toboard","","","","tol_peg_2","461","461","0","[[2,0,0],[1,0],[3]]","8","[[3,2,0],[0,0],[1]]","20","0","","","","","","6","","","","","","","","",""
"","","","","","single-stim-button","327","449145","0.0-2.0-71.8-0.8","5f50732850c7c600098593df","A3","batch1","","2105","tol_tohand","","","","tol_peg_1","2105","2105","0","[[0,0,0],[1,0],[3]]","9","[[3,2,0],[0,0],[1]]","20","0","","","","","","6","","","","","","","","",""
"","","","","","single-stim-button","328","449432","0.0-2.0-71.8-1.8","5f50732850c7c600098593df","A3","batch1","","285","tol_toboard","","","","tol_peg_2","285","285","0","[[0,0,0],[1,2],[3]]","9","[[3,2,0],[0,0],[1]]","20","0","","","","","","6","","","","","","","","",""
"","","","","","single-stim-button","329","449833","0.0-2.0-71.9-0.9","5f50732850c7c600098593df","A3","batch1","","400","tol_tohand","","","","tol_peg_3","400","400","0","[[0,0,0],[1,2],[0]]","10","[[3,2,0],[0,0],[1]]","20","0","","","","","","6","","","","","","","","",""
"","","","","","single-stim-button","330","450281","0.0-2.0-71.9-1.9","5f50732850c7c600098593df","A3","batch1","","447","tol_toboard","","","","tol_peg_1","447","447","0","[[3,0,0],[1,2],[0]]","10","[[3,2,0],[0,0],[1]]","20","0","","","","","","6","","","","","","","","",""
"","","","","","single-stim-button","331","450625","0.0-2.0-71.10-0.10","5f50732850c7c600098593df","A3","batch1","","342","tol_tohand","","","","tol_peg_2","342","342","0","[[3,0,0],[1,0],[0]]","11","[[3,2,0],[0,0],[1]]","20","0","","","","","","6","","","","","","","","",""
"","","","","","single-stim-button","332","450913","0.0-2.0-71.10-1.10","5f50732850c7c600098593df","A3","batch1","","287","tol_toboard","","","","tol_peg_1","287","287","0","[[3,2,0],[1,0],[0]]","11","[[3,2,0],[0,0],[1]]","20","0","","","","","","6","","","","","","","","",""
"","","","","","single-stim-button","333","451504","0.0-2.0-71.11-0.11","5f50732850c7c600098593df","A3","batch1","","590","tol_tohand","","","","tol_peg_2","590","590","0","[[3,2,0],[0,0],[0]]","12","[[3,2,0],[0,0],[1]]","20","0","","","","","","6","","","","","","","","",""
"","","","","","single-stim-button","334","451849","0.0-2.0-71.11-1.11","5f50732850c7c600098593df","A3","batch1","","345","tol_toboard","","","","tol_peg_3","345","345","0","[[3,2,0],[0,0],[1]]","12","[[3,2,0],[0,0],[1]]","20","0","","","","","","6","","","","","","","","",""
"","","","","","poldrack-single-stim","335","452854","0.0-2.0-72.0","5f50732850c7c600098593df","A3","batch1","","-1","tol_feedback","","","true","","1000","1000","500","","","","","","-1","none","true","3282","14212","","","","","","","","","",""
"","","","","","html-button-response","336","453535","0.0-2.0-73.0","5f50732850c7c600098593df","A3","batch1","","679.3000000007451","tol_trial_num","<div class = centerbox><p class = center-block-text>problem <strong>22</strong> out of 25 problems</p></div>","0","","","","","","","","","","","","","","","","","","","","","","","","",""
"","","","","","single-stim-button","337","454769","0.0-2.0-74.0-0.0","5f50732850c7c600098593df","A3","batch1","","1232","tol_tohand","","","","tol_peg_2","1232","1232","0","[[1,0,0],[2,0],[0]]","1","[[0,0,0],[1,2],[3]]","21","0","","","","","","6","","","","","","","","",""
"","","","","","single-stim-button","338","455201","0.0-2.0-74.0-1.0","5f50732850c7c600098593df","A3","batch1","","430","tol_toboard","","","","tol_peg_3","430","430","0","[[1,0,0],[2,0],[3]]","1","[[0,0,0],[1,2],[3]]","21","0","","","","","","6","","","","","","","","",""
"","","","","","single-stim-button","339","456843","0.0-2.0-74.1-0.1","5f50732850c7c600098593df","A3","batch1","","1640","tol_tohand","","","","tol_peg_2","1640","1640","0","[[1,0,0],[0,0],[3]]","2","[[0,0,0],[1,2],[3]]","21","0","","","","","","6","","","","","","","","",""
"","","","","","single-stim-button","340","458292","0.0-2.0-74.1-1.1","5f50732850c7c600098593df","A3","batch1","","1448","tol_toboard","","","","tol_peg_2","1448","1448","0","[[1,0,0],[2,0],[3]]","2","[[0,0,0],[1,2],[3]]","21","0","","","","","","6","","","","","","","","",""
"","","","","","single-stim-button","341","458867","0.0-2.0-74.2-0.2","5f50732850c7c600098593df","A3","batch1","","574","tol_tohand","","","","tol_peg_1","574","574","0","[[0,0,0],[2,0],[3]]","3","[[0,0,0],[1,2],[3]]","21","0","","","","","","6","","","","","","","","",""
"","","","","","single-stim-button","342","459773","0.0-2.0-74.2-1.2","5f50732850c7c600098593df","A3","batch1","","904","tol_toboard","","","","tol_peg_2","904","904","0","[[0,0,0],[2,1],[3]]","3","[[0,0,0],[1,2],[3]]","21","0","","","","","","6","","","","","","","","",""
"","","","","","single-stim-button","343","460108","0.0-2.0-74.3-0.3","5f50732850c7c600098593df","A3","batch1","","333","tol_tohand","","","","tol_peg_3","333","333","0","[[0,0,0],[2,1],[0]]","4","[[0,0,0],[1,2],[3]]","21","0","","","","","","6","","","","","","","","",""
"","","","","","single-stim-button","344","460483","0.0-2.0-74.3-1.3","5f50732850c7c600098593df","A3","batch1","","373","tol_toboard","","","","tol_peg_1","373","373","0","[[3,0,0],[2,1],[0]]","4","[[0,0,0],[1,2],[3]]","21","0","","","","","","6","","","","","","","","",""
"","","","","","single-stim-button","345","461020","0.0-2.0-74.4-0.4","5f50732850c7c600098593df","A3","batch1","","537","tol_tohand","","","","tol_peg_2","537","537","0","[[3,0,0],[2,0],[0]]","5","[[0,0,0],[1,2],[3]]","21","0","","","","","","6","","","","","","","","",""
"","","","","","single-stim-button","346","462065","0.0-2.0-74.4-1.4","5f50732850c7c600098593df","A3","batch1","","1043","tol_toboard","","","","tol_peg_3","1043","1043","0","[[3,0,0],[2,0],[1]]","5","[[0,0,0],[1,2],[3]]","21","0","","","","","","6","","","","","","","","",""
"","","","","","single-stim-button","347","463074","0.0-2.0-74.5-0.5","5f50732850c7c600098593df","A3","batch1","","1008","tol_tohand","","","","tol_peg_2","1008","1008","0","[[3,0,0],[0,0],[1]]","6","[[0,0,0],[1,2],[3]]","21","0","","","","","","6","","","","","","","","",""
"","","","","","single-stim-button","348","463401","0.0-2.0-74.5-1.5","5f50732850c7c600098593df","A3","batch1","","326","tol_toboard","","","","tol_peg_1","326","326","0","[[3,2,0],[0,0],[1]]","6","[[0,0,0],[1,2],[3]]","21","0","","","","","","6","","","","","","","","",""
"","","","","","single-stim-button","349","463833","0.0-2.0-74.6-0.6","5f50732850c7c600098593df","A3","batch1","","430","tol_tohand","","","","tol_peg_3","430","430","0","[[3,2,0],[0,0],[0]]","7","[[0,0,0],[1,2],[3]]","21","0","","","","","","6","","","","","","","","",""
"","","","","","single-stim-button","350","464097","0.0-2.0-74.6-1.6","5f50732850c7c600098593df","A3","batch1","","263","tol_toboard","","","","tol_peg_2","263","263","0","[[3,2,0],[1,0],[0]]","7","[[0,0,0],[1,2],[3]]","21","0","","","","","","6","","","","","","","","",""
"","","","","","single-stim-button","351","464449","0.0-2.0-74.7-0.7","5f50732850c7c600098593df","A3","batch1","","350","tol_tohand","","","","tol_peg_1","350","350","0","[[3,0,0],[1,0],[0]]","8","[[0,0,0],[1,2],[3]]","21","0","","","","","","6","","","","","","","","",""
"","","","","","single-stim-button","352","464761","0.0-2.0-74.7-1.7","5f50732850c7c600098593df","A3","batch1","","311","tol_toboard","","","","tol_peg_2","311","311","0","[[3,0,0],[1,2],[0]]","8","[[0,0,0],[1,2],[3]]","21","0","","","","","","6","","","","","","","","",""
"","","","","","single-stim-button","353","466879","0.0-2.0-74.8-0.8","5f50732850c7c600098593df","A3","batch1","","2116","tol_tohand","","","","tol_peg_1","2116","2116","0","[[0,0,0],[1,2],[0]]","9","[[0,0,0],[1,2],[3]]","21","0","","","","","","6","","","","","","","","",""
"","","","","","single-stim-button","354","467158","0.0-2.0-74.8-1.8","5f50732850c7c600098593df","A3","batch1","","279","tol_toboard","","","","tol_peg_3","279","279","0","[[0,0,0],[1,2],[3]]","9","[[0,0,0],[1,2],[3]]","21","0","","","","","","6","","","","","","","","",""
"","","","","","poldrack-single-stim","355","468162","0.0-2.0-75.0","5f50732850c7c600098593df","A3","batch1","","-1","tol_feedback","","","true","","1000","1000","500","","","","","","-1","none","true","1232","8220","","","","","","","","","",""
