"success","timeout","failed_images","failed_audio","failed_video","trial_type","trial_index","time_elapsed","internal_node_id","subject_id","study_id","session_id","task","rt","stimulus","response","item","answer","correct","spm_correct","spm_rt","view_history","fiar_detect_rt","fiar_detect_correct","total_correct_fiar_detect","post_trial_gap","choices","mouse_click","stim_duration","block_duration","timing_post_trial","current_position","tol_num_moves_made","tol_target","tol_problem_id","tol_rt","key_press","possible_responses","tol_correct","preplanning","tol_rt_per_trial","tol_min_moves"
"true","false","[]","[]","[]","preload","0","72963","0.0-0.0","5f5550685e8dec926f63cef1","F1","batch6","","","","","","","","","","","","","","","","","","","","","","","","","","","","","",""
"true","","","","","fullscreen","1","109839","0.0-1.0-0.0","5f5550685e8dec926f63cef1","F1","batch6","","","","","","","","","","","","","","","","","","","","","","","","","","","","","",""
"true","","","","","fullscreen","2","112532","0.0-2.0-0.0","5f5550685e8dec926f63cef1","F1","batch6","spm_fullscreen","","","","","","","","","","","","","","","","","","","","","","","","","","","","",""
"","","","","","html-button-response","3","116630","0.0-2.0-1.0","5f5550685e8dec926f63cef1","F1","batch6","","4096.700000047684","<p class = block-text><b>Instructions</b> <br>This is a widely used intelligence test in research. <br>In this test, a figure with a missing piece will be presented.<br>Below the figure are alternative pieces to complete the figure, only one of which is correct.<br> Different figures might involve different principles for obtaining the missing piece<br>Your job is to select the most logical piece to complete the figure.</p>","0","","","","","","","","","","","","","","","","","","","","","","","","","",""
"","","","","","html-keyboard-response","4","117432","0.0-2.0-2.0-0.0","5f5550685e8dec926f63cef1","F1","batch6","spm_show_trial_num","null","<p class=block-text>Trial 1 out of 60</p>","null","","","","","","","","","","","","","","","","","","","","","","","","","",""
"","","","","","image-button-response","5","125554","0.0-2.0-2.0-1.0","5f5550685e8dec926f63cef1","F1","batch6","spm_respsonse","8114.400000095367","img/question_1_1.jpeg","3","mat_01","4","1","1","8114.400000095367","","","","","","","","","","","","","","","","","","","","",""
"","","","","","html-keyboard-response","6","126609","0.0-2.0-2.0-0.1","5f5550685e8dec926f63cef1","F1","batch6","spm_show_trial_num","null","<p class=block-text>Trial 2 out of 60</p>","null","","","","","","","","","","","","","","","","","","","","","","","","","",""
"","","","","","image-button-response","7","128924","0.0-2.0-2.0-1.1","5f5550685e8dec926f63cef1","F1","batch6","spm_respsonse","2313","img/question_1_2.jpeg","4","mat_02","5","1","1","2313","","","","","","","","","","","","","","","","","","","","",""
"","","","","","html-keyboard-response","8","129977","0.0-2.0-2.0-0.2","5f5550685e8dec926f63cef1","F1","batch6","spm_show_trial_num","null","<p class=block-text>Trial 3 out of 60</p>","null","","","","","","","","","","","","","","","","","","","","","","","","","",""
"","","","","","image-button-response","9","132153","0.0-2.0-2.0-1.2","5f5550685e8dec926f63cef1","F1","batch6","spm_respsonse","2174","img/question_1_3.jpeg","0","mat_03","1","1","1","2174","","","","","","","","","","","","","","","","","","","","",""
"","","","","","html-keyboard-response","10","133212","0.0-2.0-2.0-0.3","5f5550685e8dec926f63cef1","F1","batch6","spm_show_trial_num","null","<p class=block-text>Trial 4 out of 60</p>","null","","","","","","","","","","","","","","","","","","","","","","","","","",""
"","","","","","image-button-response","11","136183","0.0-2.0-2.0-1.3","5f5550685e8dec926f63cef1","F1","batch6","spm_respsonse","2968.4000000953674","img/question_1_4.jpeg","1","mat_04","2","1","1","2968.4000000953674","","","","","","","","","","","","","","","","","","","","",""
"","","","","","html-keyboard-response","12","137237","0.0-2.0-2.0-0.4","5f5550685e8dec926f63cef1","F1","batch6","spm_show_trial_num","null","<p class=block-text>Trial 5 out of 60</p>","null","","","","","","","","","","","","","","","","","","","","","","","","","",""
"","","","","","image-button-response","13","140715","0.0-2.0-2.0-1.4","5f5550685e8dec926f63cef1","F1","batch6","spm_respsonse","3475.5999999046326","img/question_1_5.jpeg","5","mat_05","6","1","1","3475.5999999046326","","","","","","","","","","","","","","","","","","","","",""
"","","","","","html-keyboard-response","14","141769","0.0-2.0-2.0-0.5","5f5550685e8dec926f63cef1","F1","batch6","spm_show_trial_num","null","<p class=block-text>Trial 6 out of 60</p>","null","","","","","","","","","","","","","","","","","","","","","","","","","",""
"","","","","","image-button-response","15","144303","0.0-2.0-2.0-1.5","5f5550685e8dec926f63cef1","F1","batch6","spm_respsonse","2531.7999999523163","img/question_1_6.jpeg","2","mat_06","3","1","1","2531.7999999523163","","","","","","","","","","","","","","","","","","","","",""
"","","","","","html-keyboard-response","16","145368","0.0-2.0-2.0-0.6","5f5550685e8dec926f63cef1","F1","batch6","spm_show_trial_num","null","<p class=block-text>Trial 7 out of 60</p>","null","","","","","","","","","","","","","","","","","","","","","","","","","",""
"","","","","","image-button-response","17","150235","0.0-2.0-2.0-1.6","5f5550685e8dec926f63cef1","F1","batch6","spm_respsonse","4863.300000190735","img/question_1_7.jpeg","5","mat_07","6","1","1","4863.300000190735","","","","","","","","","","","","","","","","","","","","",""
"","","","","","html-keyboard-response","18","151286","0.0-2.0-2.0-0.7","5f5550685e8dec926f63cef1","F1","batch6","spm_show_trial_num","null","<p class=block-text>Trial 8 out of 60</p>","null","","","","","","","","","","","","","","","","","","","","","","","","","",""
"","","","","","image-button-response","19","158116","0.0-2.0-2.0-1.7","5f5550685e8dec926f63cef1","F1","batch6","spm_respsonse","6827.599999904633","img/question_1_8.jpeg","1","mat_08","2","1","1","6827.599999904633","","","","","","","","","","","","","","","","","","","","",""
"","","","","","html-keyboard-response","20","159169","0.0-2.0-2.0-0.8","5f5550685e8dec926f63cef1","F1","batch6","spm_show_trial_num","null","<p class=block-text>Trial 9 out of 60</p>","null","","","","","","","","","","","","","","","","","","","","","","","","","",""
"","","","","","image-button-response","21","162487","0.0-2.0-2.0-1.8","5f5550685e8dec926f63cef1","F1","batch6","spm_respsonse","3315.5999999046326","img/question_1_9.jpeg","0","mat_09","1","1","1","3315.5999999046326","","","","","","","","","","","","","","","","","","","","",""
"","","","","","html-keyboard-response","22","163540","0.0-2.0-2.0-0.9","5f5550685e8dec926f63cef1","F1","batch6","spm_show_trial_num","null","<p class=block-text>Trial 10 out of 60</p>","null","","","","","","","","","","","","","","","","","","","","","","","","","",""
"","","","","","image-button-response","23","174437","0.0-2.0-2.0-1.9","5f5550685e8dec926f63cef1","F1","batch6","spm_respsonse","10893.5","img/question_1_10.jpeg","2","mat_10","3","1","1","10893.5","","","","","","","","","","","","","","","","","","","","",""
"","","","","","html-keyboard-response","24","175490","0.0-2.0-2.0-0.10","5f5550685e8dec926f63cef1","F1","batch6","spm_show_trial_num","null","<p class=block-text>Trial 11 out of 60</p>","null","","","","","","","","","","","","","","","","","","","","","","","","","",""
"","","","","","image-button-response","25","185533","0.0-2.0-2.0-1.10","5f5550685e8dec926f63cef1","F1","batch6","spm_respsonse","10041.600000143051","img/question_1_11.jpeg","4","mat_11","4","0","0","10041.600000143051","","","","","","","","","","","","","","","","","","","","",""
"","","","","","html-keyboard-response","26","187259","0.0-2.0-2.0-0.11","5f5550685e8dec926f63cef1","F1","batch6","spm_show_trial_num","null","<p class=block-text>Trial 12 out of 60</p>","null","","","","","","","","","","","","","","","","","","","","","","","","","",""
"","","","","","image-button-response","27","205629","0.0-2.0-2.0-1.11","5f5550685e8dec926f63cef1","F1","batch6","spm_respsonse","18366.099999904633","img/question_1_12.jpeg","1","mat_12","5","0","0","18366.099999904633","","","","","","","","","","","","","","","","","","","","",""
"","","","","","html-keyboard-response","28","206681","0.0-2.0-2.0-0.12","5f5550685e8dec926f63cef1","F1","batch6","spm_show_trial_num","null","<p class=block-text>Trial 13 out of 60</p>","null","","","","","","","","","","","","","","","","","","","","","","","","","",""
"","","","","","image-button-response","29","209119","0.0-2.0-2.0-1.12","5f5550685e8dec926f63cef1","F1","batch6","spm_respsonse","2436.2000000476837","img/question_2_1.jpeg","1","mat_13","2","1","1","2436.2000000476837","","","","","","","","","","","","","","","","","","","","",""
"","","","","","html-keyboard-response","30","210177","0.0-2.0-2.0-0.13","5f5550685e8dec926f63cef1","F1","batch6","spm_show_trial_num","null","<p class=block-text>Trial 14 out of 60</p>","null","","","","","","","","","","","","","","","","","","","","","","","","","",""
"","","","","","image-button-response","31","214056","0.0-2.0-2.0-1.13","5f5550685e8dec926f63cef1","F1","batch6","spm_respsonse","3877.7999999523163","img/question_2_2.jpeg","5","mat_14","6","1","1","3877.7999999523163","","","","","","","","","","","","","","","","","","","","",""
"","","","","","html-keyboard-response","32","215412","0.0-2.0-2.0-0.14","5f5550685e8dec926f63cef1","F1","batch6","spm_show_trial_num","null","<p class=block-text>Trial 15 out of 60</p>","null","","","","","","","","","","","","","","","","","","","","","","","","","",""
"","","","","","image-button-response","33","273033","0.0-2.0-2.0-1.14","5f5550685e8dec926f63cef1","F1","batch6","spm_respsonse","57619","img/question_2_3.jpeg","0","mat_15","1","1","1","57619","","","","","","","","","","","","","","","","","","","","",""
"","","","","","html-keyboard-response","34","274407","0.0-2.0-2.0-0.15","5f5550685e8dec926f63cef1","F1","batch6","spm_show_trial_num","null","<p class=block-text>Trial 16 out of 60</p>","null","","","","","","","","","","","","","","","","","","","","","","","","","",""
"","","","","","image-button-response","35","278674","0.0-2.0-2.0-1.15","5f5550685e8dec926f63cef1","F1","batch6","spm_respsonse","4263.800000190735","img/question_2_4.jpeg","1","mat_16","2","1","1","4263.800000190735","","","","","","","","","","","","","","","","","","","","",""
"","","","","","html-keyboard-response","36","279728","0.0-2.0-2.0-0.16","5f5550685e8dec926f63cef1","F1","batch6","spm_show_trial_num","null","<p class=block-text>Trial 17 out of 60</p>","null","","","","","","","","","","","","","","","","","","","","","","","","","",""
"","","","","","image-button-response","37","284469","0.0-2.0-2.0-1.16","5f5550685e8dec926f63cef1","F1","batch6","spm_respsonse","4739.299999952316","img/question_2_5.jpeg","0","mat_17","1","1","1","4739.299999952316","","","","","","","","","","","","","","","","","","","","",""
"","","","","","html-keyboard-response","38","285521","0.0-2.0-2.0-0.17","5f5550685e8dec926f63cef1","F1","batch6","spm_show_trial_num","null","<p class=block-text>Trial 18 out of 60</p>","null","","","","","","","","","","","","","","","","","","","","","","","","","",""
"","","","","","image-button-response","39","306078","0.0-2.0-2.0-1.17","5f5550685e8dec926f63cef1","F1","batch6","spm_respsonse","20555.10000014305","img/question_2_6.jpeg","2","mat_18","3","1","1","20555.10000014305","","","","","","","","","","","","","","","","","","","","",""
"","","","","","html-keyboard-response","40","307131","0.0-2.0-2.0-0.18","5f5550685e8dec926f63cef1","F1","batch6","spm_show_trial_num","null","<p class=block-text>Trial 19 out of 60</p>","null","","","","","","","","","","","","","","","","","","","","","","","","","",""
"","","","","","image-button-response","41","315619","0.0-2.0-2.0-1.18","5f5550685e8dec926f63cef1","F1","batch6","spm_respsonse","8485","img/question_2_7.jpeg","4","mat_19","5","1","1","8485","","","","","","","","","","","","","","","","","","","","",""
"","","","","","html-keyboard-response","42","316673","0.0-2.0-2.0-0.19","5f5550685e8dec926f63cef1","F1","batch6","spm_show_trial_num","null","<p class=block-text>Trial 20 out of 60</p>","null","","","","","","","","","","","","","","","","","","","","","","","","","",""
"","","","","","image-button-response","43","328935","0.0-2.0-2.0-1.19","5f5550685e8dec926f63cef1","F1","batch6","spm_respsonse","12259.5","img/question_2_8.jpeg","5","mat_20","6","1","1","12259.5","","","","","","","","","","","","","","","","","","","","",""
"","","","","","html-keyboard-response","44","330409","0.0-2.0-2.0-0.20","5f5550685e8dec926f63cef1","F1","batch6","spm_show_trial_num","null","<p class=block-text>Trial 21 out of 60</p>","null","","","","","","","","","","","","","","","","","","","","","","","","","",""
"","","","","","image-button-response","45","333737","0.0-2.0-2.0-1.20","5f5550685e8dec926f63cef1","F1","batch6","spm_respsonse","3324.7000000476837","img/question_2_9.jpeg","5","mat_21","4","0","0","3324.7000000476837","","","","","","","","","","","","","","","","","","","","",""
"","","","","","html-keyboard-response","46","335426","0.0-2.0-2.0-0.21","5f5550685e8dec926f63cef1","F1","batch6","spm_show_trial_num","null","<p class=block-text>Trial 22 out of 60</p>","null","","","","","","","","","","","","","","","","","","","","","","","","","",""
"","","","","","image-button-response","47","353885","0.0-2.0-2.0-1.21","5f5550685e8dec926f63cef1","F1","batch6","spm_respsonse","18455.599999904633","img/question_2_10.jpeg","2","mat_22","3","1","1","18455.599999904633","","","","","","","","","","","","","","","","","","","","",""
"","","","","","html-keyboard-response","48","355401","0.0-2.0-2.0-0.22","5f5550685e8dec926f63cef1","F1","batch6","spm_show_trial_num","null","<p class=block-text>Trial 23 out of 60</p>","null","","","","","","","","","","","","","","","","","","","","","","","","","",""
"","","","","","image-button-response","49","472167","0.0-2.0-2.0-1.22","5f5550685e8dec926f63cef1","F1","batch6","spm_respsonse","116762.19999980927","img/question_2_11.jpeg","3","mat_23","4","1","1","116762.19999980927","","","","","","","","","","","","","","","","","","","","",""
"","","","","","html-keyboard-response","50","473233","0.0-2.0-2.0-0.23","5f5550685e8dec926f63cef1","F1","batch6","spm_show_trial_num","null","<p class=block-text>Trial 24 out of 60</p>","null","","","","","","","","","","","","","","","","","","","","","","","","","",""
"","","","","","image-button-response","51","521741","0.0-2.0-2.0-1.23","5f5550685e8dec926f63cef1","F1","batch6","spm_respsonse","48504.200000047684","img/question_2_12.jpeg","4","mat_24","5","1","1","48504.200000047684","","","","","","","","","","","","","","","","","","","","",""
"","","","","","html-button-response","52","523485","0.0-2.0-3.0","5f5550685e8dec926f63cef1","F1","batch6","attention_check","1491.8000001907349","<p class = block-text>Attention check: Please choose 1<br></p>","0","","","true","","","","","","","","","","","","","","","","","","","","","","",""
"","","","","","html-keyboard-response","53","524286","0.0-2.0-4.0-0.0","5f5550685e8dec926f63cef1","F1","batch6","spm_show_trial_num","null","<p class=block-text>Trial 25 out of 60</p>","null","","","","","","","","","","","","","","","","","","","","","","","","","",""
"","","","","","image-button-response","54","533746","0.0-2.0-4.0-1.0","5f5550685e8dec926f63cef1","F1","batch6","spm_respsonse","9457.900000095367","img/question_3_1.jpeg","7","mat_25","8","1","1","9457.900000095367","","","","","","","","","","","","","","","","","","","","",""
"","","","","","html-keyboard-response","55","534799","0.0-2.0-4.0-0.1","5f5550685e8dec926f63cef1","F1","batch6","spm_show_trial_num","null","<p class=block-text>Trial 26 out of 60</p>","null","","","","","","","","","","","","","","","","","","","","","","","","","",""
"","","","","","image-button-response","56","541506","0.0-2.0-4.0-1.1","5f5550685e8dec926f63cef1","F1","batch6","spm_respsonse","6704.899999856949","img/question_3_2.jpeg","1","mat_26","2","1","1","6704.899999856949","","","","","","","","","","","","","","","","","","","","",""
"","","","","","html-keyboard-response","57","542562","0.0-2.0-4.0-0.2","5f5550685e8dec926f63cef1","F1","batch6","spm_show_trial_num","null","<p class=block-text>Trial 27 out of 60</p>","null","","","","","","","","","","","","","","","","","","","","","","","","","",""
"","","","","","image-button-response","58","549548","0.0-2.0-4.0-1.2","5f5550685e8dec926f63cef1","F1","batch6","spm_respsonse","6983.899999856949","img/question_3_3.jpeg","2","mat_27","3","1","1","6983.899999856949","","","","","","","","","","","","","","","","","","","","",""
"","","","","","html-keyboard-response","59","550615","0.0-2.0-4.0-0.3","5f5550685e8dec926f63cef1","F1","batch6","spm_show_trial_num","null","<p class=block-text>Trial 28 out of 60</p>","null","","","","","","","","","","","","","","","","","","","","","","","","","",""
"","","","","","image-button-response","60","560657","0.0-2.0-4.0-1.3","5f5550685e8dec926f63cef1","F1","batch6","spm_respsonse","10038.299999952316","img/question_3_4.jpeg","7","mat_28","8","1","1","10038.299999952316","","","","","","","","","","","","","","","","","","","","",""
"","","","","","html-keyboard-response","61","561710","0.0-2.0-4.0-0.4","5f5550685e8dec926f63cef1","F1","batch6","spm_show_trial_num","null","<p class=block-text>Trial 29 out of 60</p>","null","","","","","","","","","","","","","","","","","","","","","","","","","",""
"","","","","","image-button-response","62","569699","0.0-2.0-4.0-1.4","5f5550685e8dec926f63cef1","F1","batch6","spm_respsonse","7986.400000095367","img/question_3_5.jpeg","6","mat_29","7","1","1","7986.400000095367","","","","","","","","","","","","","","","","","","","","",""
"","","","","","html-keyboard-response","63","570751","0.0-2.0-4.0-0.5","5f5550685e8dec926f63cef1","F1","batch6","spm_show_trial_num","null","<p class=block-text>Trial 30 out of 60</p>","null","","","","","","","","","","","","","","","","","","","","","","","","","",""
"","","","","","image-button-response","64","582886","0.0-2.0-4.0-1.5","5f5550685e8dec926f63cef1","F1","batch6","spm_respsonse","12132.200000047684","img/question_3_6.jpeg","7","mat_30","4","0","0","12132.200000047684","","","","","","","","","","","","","","","","","","","","",""
"","","","","","html-keyboard-response","65","583939","0.0-2.0-4.0-0.6","5f5550685e8dec926f63cef1","F1","batch6","spm_show_trial_num","null","<p class=block-text>Trial 31 out of 60</p>","null","","","","","","","","","","","","","","","","","","","","","","","","","",""
"","","","","","image-button-response","66","597225","0.0-2.0-4.0-1.6","5f5550685e8dec926f63cef1","F1","batch6","spm_respsonse","13284.199999809265","img/question_3_7.jpeg","4","mat_31","5","1","1","13284.199999809265","","","","","","","","","","","","","","","","","","","","",""
"","","","","","html-keyboard-response","67","598284","0.0-2.0-4.0-0.7","5f5550685e8dec926f63cef1","F1","batch6","spm_show_trial_num","null","<p class=block-text>Trial 32 out of 60</p>","null","","","","","","","","","","","","","","","","","","","","","","","","","",""
"","","","","","image-button-response","68","612666","0.0-2.0-4.0-1.7","5f5550685e8dec926f63cef1","F1","batch6","spm_respsonse","14379.099999904633","img/question_3_8.jpeg","0","mat_32","1","1","1","14379.099999904633","","","","","","","","","","","","","","","","","","","","",""
"","","","","","html-keyboard-response","69","613730","0.0-2.0-4.0-0.8","5f5550685e8dec926f63cef1","F1","batch6","spm_show_trial_num","null","<p class=block-text>Trial 33 out of 60</p>","null","","","","","","","","","","","","","","","","","","","","","","","","","",""
"","","","","","image-button-response","70","650781","0.0-2.0-4.0-1.8","5f5550685e8dec926f63cef1","F1","batch6","spm_respsonse","37048.39999985695","img/question_3_9.jpeg","6","mat_33","7","1","1","37048.39999985695","","","","","","","","","","","","","","","","","","","","",""
"","","","","","html-keyboard-response","71","651834","0.0-2.0-4.0-0.9","5f5550685e8dec926f63cef1","F1","batch6","spm_show_trial_num","null","<p class=block-text>Trial 34 out of 60</p>","null","","","","","","","","","","","","","","","","","","","","","","","","","",""
"","","","","","image-button-response","72","660389","0.0-2.0-4.0-1.9","5f5550685e8dec926f63cef1","F1","batch6","spm_respsonse","8552.899999856949","img/question_3_10.jpeg","7","mat_34","6","0","0","8552.899999856949","","","","","","","","","","","","","","","","","","","","",""
"","","","","","html-keyboard-response","73","661443","0.0-2.0-4.0-0.10","5f5550685e8dec926f63cef1","F1","batch6","spm_show_trial_num","null","<p class=block-text>Trial 35 out of 60</p>","null","","","","","","","","","","","","","","","","","","","","","","","","","",""
"","","","","","image-button-response","74","673590","0.0-2.0-4.0-1.10","5f5550685e8dec926f63cef1","F1","batch6","spm_respsonse","12144.199999809265","img/question_3_11.jpeg","0","mat_35","1","1","1","12144.199999809265","","","","","","","","","","","","","","","","","","","","",""
"","","","","","html-keyboard-response","75","674642","0.0-2.0-4.0-0.11","5f5550685e8dec926f63cef1","F1","batch6","spm_show_trial_num","null","<p class=block-text>Trial 36 out of 60</p>","null","","","","","","","","","","","","","","","","","","","","","","","","","",""
"","","","","","image-button-response","76","697537","0.0-2.0-4.0-1.11","5f5550685e8dec926f63cef1","F1","batch6","spm_respsonse","22892.200000047684","img/question_3_12.jpeg","2","mat_36","2","0","0","22892.200000047684","","","","","","","","","","","","","","","","","","","","",""
"","","","","","html-keyboard-response","77","698590","0.0-2.0-4.0-0.12","5f5550685e8dec926f63cef1","F1","batch6","spm_show_trial_num","null","<p class=block-text>Trial 37 out of 60</p>","null","","","","","","","","","","","","","","","","","","","","","","","","","",""
"","","","","","image-button-response","78","704209","0.0-2.0-4.0-1.12","5f5550685e8dec926f63cef1","F1","batch6","spm_respsonse","5615.700000047684","img/question_4_1.jpeg","2","mat_37","3","1","1","5615.700000047684","","","","","","","","","","","","","","","","","","","","",""
"","","","","","html-keyboard-response","79","705278","0.0-2.0-4.0-0.13","5f5550685e8dec926f63cef1","F1","batch6","spm_show_trial_num","null","<p class=block-text>Trial 38 out of 60</p>","null","","","","","","","","","","","","","","","","","","","","","","","","","",""
"","","","","","image-button-response","80","718491","0.0-2.0-4.0-1.13","5f5550685e8dec926f63cef1","F1","batch6","spm_respsonse","13211.799999952316","img/question_4_2.jpeg","3","mat_38","4","1","1","13211.799999952316","","","","","","","","","","","","","","","","","","","","",""
"","","","","","html-keyboard-response","81","719544","0.0-2.0-4.0-0.14","5f5550685e8dec926f63cef1","F1","batch6","spm_show_trial_num","null","<p class=block-text>Trial 39 out of 60</p>","null","","","","","","","","","","","","","","","","","","","","","","","","","",""
"","","","","","image-button-response","82","726946","0.0-2.0-4.0-1.14","5f5550685e8dec926f63cef1","F1","batch6","spm_respsonse","7399.600000143051","img/question_4_3.jpeg","3","mat_39","3","0","0","7399.600000143051","","","","","","","","","","","","","","","","","","","","",""
"","","","","","html-keyboard-response","83","728016","0.0-2.0-4.0-0.15","5f5550685e8dec926f63cef1","F1","batch6","spm_show_trial_num","null","<p class=block-text>Trial 40 out of 60</p>","null","","","","","","","","","","","","","","","","","","","","","","","","","",""
"","","","","","image-button-response","84","960227","0.0-2.0-4.0-1.15","5f5550685e8dec926f63cef1","F1","batch6","spm_respsonse","232208.90000009537","img/question_4_4.jpeg","6","mat_40","7","1","1","232208.90000009537","","","","","","","","","","","","","","","","","","","","",""
"","","","","","html-keyboard-response","85","961279","0.0-2.0-4.0-0.16","5f5550685e8dec926f63cef1","F1","batch6","spm_show_trial_num","null","<p class=block-text>Trial 41 out of 60</p>","null","","","","","","","","","","","","","","","","","","","","","","","","","",""
"","","","","","image-button-response","86","967627","0.0-2.0-4.0-1.16","5f5550685e8dec926f63cef1","F1","batch6","spm_respsonse","6345.600000143051","img/question_4_5.jpeg","7","mat_41","8","1","1","6345.600000143051","","","","","","","","","","","","","","","","","","","","",""
"","","","","","html-keyboard-response","87","968680","0.0-2.0-4.0-0.17","5f5550685e8dec926f63cef1","F1","batch6","spm_show_trial_num","null","<p class=block-text>Trial 42 out of 60</p>","null","","","","","","","","","","","","","","","","","","","","","","","","","",""
"","","","","","image-button-response","88","980540","0.0-2.0-4.0-1.17","5f5550685e8dec926f63cef1","F1","batch6","spm_respsonse","11857.099999904633","img/question_4_6.jpeg","1","mat_42","6","0","0","11857.099999904633","","","","","","","","","","","","","","","","","","","","",""
"","","","","","html-keyboard-response","89","981592","0.0-2.0-4.0-0.18","5f5550685e8dec926f63cef1","F1","batch6","spm_show_trial_num","null","<p class=block-text>Trial 43 out of 60</p>","null","","","","","","","","","","","","","","","","","","","","","","","","","",""
"","","","","","image-button-response","90","1076985","0.0-2.0-4.0-1.18","5f5550685e8dec926f63cef1","F1","batch6","spm_respsonse","95390.79999995232","img/question_4_7.jpeg","0","mat_43","5","0","0","95390.79999995232","","","","","","","","","","","","","","","","","","","","",""
"","","","","","html-keyboard-response","91","1078046","0.0-2.0-4.0-0.19","5f5550685e8dec926f63cef1","F1","batch6","spm_show_trial_num","null","<p class=block-text>Trial 44 out of 60</p>","null","","","","","","","","","","","","","","","","","","","","","","","","","",""
"","","","","","image-button-response","92","1137840","0.0-2.0-4.0-1.19","5f5550685e8dec926f63cef1","F1","batch6","spm_respsonse","59790.39999985695","img/question_4_8.jpeg","0","mat_44","4","0","0","59790.39999985695","","","","","","","","","","","","","","","","","","","","",""
"","","","","","html-keyboard-response","93","1138892","0.0-2.0-4.0-0.20","5f5550685e8dec926f63cef1","F1","batch6","spm_show_trial_num","null","<p class=block-text>Trial 45 out of 60</p>","null","","","","","","","","","","","","","","","","","","","","","","","","","",""
"","","","","","image-button-response","94","1146818","0.0-2.0-4.0-1.20","5f5550685e8dec926f63cef1","F1","batch6","spm_respsonse","7924.099999904633","img/question_4_9.jpeg","2","mat_45","1","0","0","7924.099999904633","","","","","","","","","","","","","","","","","","","","",""
"","","","","","html-keyboard-response","95","1147872","0.0-2.0-4.0-0.21","5f5550685e8dec926f63cef1","F1","batch6","spm_show_trial_num","null","<p class=block-text>Trial 46 out of 60</p>","null","","","","","","","","","","","","","","","","","","","","","","","","","",""
"","","","","","image-button-response","96","1160409","0.0-2.0-4.0-1.21","5f5550685e8dec926f63cef1","F1","batch6","spm_respsonse","12534.200000047684","img/question_4_10.jpeg","0","mat_46","2","0","0","12534.200000047684","","","","","","","","","","","","","","","","","","","","",""
"","","","","","html-keyboard-response","97","1161476","0.0-2.0-4.0-0.22","5f5550685e8dec926f63cef1","F1","batch6","spm_show_trial_num","null","<p class=block-text>Trial 47 out of 60</p>","null","","","","","","","","","","","","","","","","","","","","","","","","","",""
"","","","","","image-button-response","98","1227175","0.0-2.0-4.0-1.22","5f5550685e8dec926f63cef1","F1","batch6","spm_respsonse","65696.90000009537","img/question_4_11.jpeg","1","mat_47","5","0","0","65696.90000009537","","","","","","","","","","","","","","","","","","","","",""
"","","","","","html-keyboard-response","99","1228227","0.0-2.0-4.0-0.23","5f5550685e8dec926f63cef1","F1","batch6","spm_show_trial_num","null","<p class=block-text>Trial 48 out of 60</p>","null","","","","","","","","","","","","","","","","","","","","","","","","","",""
"","","","","","image-button-response","100","1234525","0.0-2.0-4.0-1.23","5f5550685e8dec926f63cef1","F1","batch6","spm_respsonse","6295.700000047684","img/question_4_12.jpeg","1","mat_48","6","0","0","6295.700000047684","","","","","","","","","","","","","","","","","","","","",""
"","","","","","html-keyboard-response","101","1235586","0.0-2.0-4.0-0.24","5f5550685e8dec926f63cef1","F1","batch6","spm_show_trial_num","null","<p class=block-text>Trial 49 out of 60</p>","null","","","","","","","","","","","","","","","","","","","","","","","","","",""
"","","","","","image-button-response","102","1241562","0.0-2.0-4.0-1.24","5f5550685e8dec926f63cef1","F1","batch6","spm_respsonse","5974.300000190735","img/question_5_1.jpeg","0","mat_49","7","0","0","5974.300000190735","","","","","","","","","","","","","","","","","","","","",""
"","","","","","html-keyboard-response","103","1242629","0.0-2.0-4.0-0.25","5f5550685e8dec926f63cef1","F1","batch6","spm_show_trial_num","null","<p class=block-text>Trial 50 out of 60</p>","null","","","","","","","","","","","","","","","","","","","","","","","","","",""
"","","","","","image-button-response","104","1247779","0.0-2.0-4.0-1.25","5f5550685e8dec926f63cef1","F1","batch6","spm_respsonse","5147.700000047684","img/question_5_2.jpeg","2","mat_50","6","0","0","5147.700000047684","","","","","","","","","","","","","","","","","","","","",""
"","","","","","html-keyboard-response","105","1248831","0.0-2.0-4.0-0.26","5f5550685e8dec926f63cef1","F1","batch6","spm_show_trial_num","null","<p class=block-text>Trial 51 out of 60</p>","null","","","","","","","","","","","","","","","","","","","","","","","","","",""
"","","","","","image-button-response","106","1255687","0.0-2.0-4.0-1.26","5f5550685e8dec926f63cef1","F1","batch6","spm_respsonse","6852.599999904633","img/question_5_3.jpeg","2","mat_51","8","0","0","6852.599999904633","","","","","","","","","","","","","","","","","","","","",""
"","","","","","html-keyboard-response","107","1256739","0.0-2.0-4.0-0.27","5f5550685e8dec926f63cef1","F1","batch6","spm_show_trial_num","null","<p class=block-text>Trial 52 out of 60</p>","null","","","","","","","","","","","","","","","","","","","","","","","","","",""
"","","","","","image-button-response","108","1264684","0.0-2.0-4.0-1.27","5f5550685e8dec926f63cef1","F1","batch6","spm_respsonse","7943.5","img/question_5_4.jpeg","2","mat_52","2","0","0","7943.5","","","","","","","","","","","","","","","","","","","","",""
"","","","","","html-keyboard-response","109","1265752","0.0-2.0-4.0-0.28","5f5550685e8dec926f63cef1","F1","batch6","spm_show_trial_num","null","<p class=block-text>Trial 53 out of 60</p>","null","","","","","","","","","","","","","","","","","","","","","","","","","",""
"","","","","","image-button-response","110","1278869","0.0-2.0-4.0-1.28","5f5550685e8dec926f63cef1","F1","batch6","spm_respsonse","13114.899999856949","img/question_5_5.jpeg","6","mat_53","1","0","0","13114.899999856949","","","","","","","","","","","","","","","","","","","","",""
"","","","","","html-keyboard-response","111","1279921","0.0-2.0-4.0-0.29","5f5550685e8dec926f63cef1","F1","batch6","spm_show_trial_num","null","<p class=block-text>Trial 54 out of 60</p>","null","","","","","","","","","","","","","","","","","","","","","","","","","",""
"","","","","","image-button-response","112","1287488","0.0-2.0-4.0-1.29","5f5550685e8dec926f63cef1","F1","batch6","spm_respsonse","7564.200000047684","img/question_5_6.jpeg","7","mat_54","5","0","0","7564.200000047684","","","","","","","","","","","","","","","","","","","","",""
"","","","","","html-keyboard-response","113","1288542","0.0-2.0-4.0-0.30","5f5550685e8dec926f63cef1","F1","batch6","spm_show_trial_num","null","<p class=block-text>Trial 55 out of 60</p>","null","","","","","","","","","","","","","","","","","","","","","","","","","",""
"","","","","","image-button-response","114","1319977","0.0-2.0-4.0-1.30","5f5550685e8dec926f63cef1","F1","batch6","spm_respsonse","31433.200000047684","img/question_5_7.jpeg","0","mat_55","1","1","1","31433.200000047684","","","","","","","","","","","","","","","","","","","","",""
"","","","","","html-keyboard-response","115","1321030","0.0-2.0-4.0-0.31","5f5550685e8dec926f63cef1","F1","batch6","spm_show_trial_num","null","<p class=block-text>Trial 56 out of 60</p>","null","","","","","","","","","","","","","","","","","","","","","","","","","",""
"","","","","","image-button-response","116","1332690","0.0-2.0-4.0-1.31","5f5550685e8dec926f63cef1","F1","batch6","spm_respsonse","11656.800000190735","img/question_5_8.jpeg","1","mat_56","6","0","0","11656.800000190735","","","","","","","","","","","","","","","","","","","","",""
"","","","","","html-keyboard-response","117","1333744","0.0-2.0-4.0-0.32","5f5550685e8dec926f63cef1","F1","batch6","spm_show_trial_num","null","<p class=block-text>Trial 57 out of 60</p>","null","","","","","","","","","","","","","","","","","","","","","","","","","",""
"","","","","","image-button-response","118","1346561","0.0-2.0-4.0-1.32","5f5550685e8dec926f63cef1","F1","batch6","spm_respsonse","12814.600000143051","img/question_5_9.jpeg","3","mat_57","3","0","0","12814.600000143051","","","","","","","","","","","","","","","","","","","","",""
"","","","","","html-keyboard-response","119","1347615","0.0-2.0-4.0-0.33","5f5550685e8dec926f63cef1","F1","batch6","spm_show_trial_num","null","<p class=block-text>Trial 58 out of 60</p>","null","","","","","","","","","","","","","","","","","","","","","","","","","",""
"","","","","","image-button-response","120","1354675","0.0-2.0-4.0-1.33","5f5550685e8dec926f63cef1","F1","batch6","spm_respsonse","7056.600000143051","img/question_5_10.jpeg","6","mat_58","2","0","0","7056.600000143051","","","","","","","","","","","","","","","","","","","","",""
"","","","","","html-keyboard-response","121","1355728","0.0-2.0-4.0-0.34","5f5550685e8dec926f63cef1","F1","batch6","spm_show_trial_num","null","<p class=block-text>Trial 59 out of 60</p>","null","","","","","","","","","","","","","","","","","","","","","","","","","",""
"","","","","","image-button-response","122","1362288","0.0-2.0-4.0-1.34","5f5550685e8dec926f63cef1","F1","batch6","spm_respsonse","6558.299999952316","img/question_5_11.jpeg","4","mat_59","4","0","0","6558.299999952316","","","","","","","","","","","","","","","","","","","","",""
"","","","","","html-keyboard-response","123","1363341","0.0-2.0-4.0-0.35","5f5550685e8dec926f63cef1","F1","batch6","spm_show_trial_num","null","<p class=block-text>Trial 60 out of 60</p>","null","","","","","","","","","","","","","","","","","","","","","","","","","",""
"","","","","","image-button-response","124","1369274","0.0-2.0-4.0-1.35","5f5550685e8dec926f63cef1","F1","batch6","spm_respsonse","5930","img/question_5_12.jpeg","6","mat_60","5","0","0","5930","","","","","","","","","","","","","","","","","","","","",""
"","","","","","html-button-response","125","1371237","0.0-2.0-5.0","5f5550685e8dec926f63cef1","F1","batch6","spm_goodbye","1710.5","<p class= block-text>This concludes the Standard Progressive Matrix game. Thank you for your responses!<br> When you are ready, click the button continue</p>","0","","","","","","","","","","","","","","","","","","","","","","","","","",""
"true","","","","","fullscreen","126","1374642","0.0-3.0-0.0","5f5550685e8dec926f63cef1","F1","batch6","","","","","","","","","","","","","","","","","","","","","","","","","","","","","",""
"","","","","","instructions","127","1387319","0.0-3.0-1.0-0.0","5f5550685e8dec926f63cef1","F1","batch6","","12675.599999904633","","","","","","","","[{""page_index"":0,""viewing_time"":8122.799999952316},{""page_index"":1,""viewing_time"":4552.5}]","","","","","","","","","","","","","","","","","","","",""
"","","","","","html-button-response","128","1388144","0.0-3.0-1.0-1.0-0.0","5f5550685e8dec926f63cef1","F1","batch6","pattern_enter_quiz","823.5999999046326","<p class=block-text> Let's answer a few questions <br>","0","","","","","","","","","","","","","","","","","","","","","","","","","",""
"","","","","","html-button-response","129","1388343","0.0-3.0-1.0-1.0-1.0","5f5550685e8dec926f63cef1","F1","batch6","pattern_quiz","198.29999995231628","<p class = block-text>True or False: You will have as much time as you want to make each choice. <br></p>","0","","","false","","","","","","","","","","","","","","","","","","","","","","",""
"","","","","","html-button-response","130","1389666","0.0-3.0-1.0-1.0-2.0","5f5550685e8dec926f63cef1","F1","batch6","pattern_quiz_feedback","1321.8999998569489","<p class = block-text>Incorrect. Remember, You should make your choice as fast as you can.</p>","0","","","","","","","","","","","","","","","","","","","","","","","","","",""
"","","","","","html-button-response","131","1391913","0.0-3.0-1.0-1.0-3.0","5f5550685e8dec926f63cef1","F1","batch6","pattern_quiz","2245.7999999523163","<p class = block-text>True or False: You will look for 4 pieces in black or white color connected in a row either horizontally, vertically or diagonally. <br></p>","0","","","true","","","","","","","","","","","","","","","","","","","","","","",""
"","","","","","html-button-response","132","1392717","0.0-3.0-1.0-1.0-4.0","5f5550685e8dec926f63cef1","F1","batch6","pattern_quiz_feedback","802.3999998569489","<p class = block-text>Correct! </p>","0","","","","","","","","","","","","","","","","","","","","","","","","","",""
"","","","","","html-button-response","133","1394499","0.0-3.0-1.0-2.0-0.0","5f5550685e8dec926f63cef1","F1","batch6","","1780","<p class = block-text>You made too many incorrect choices.</p><p class = block-text>You will now repeat the instruction and quiz</p>","0","","","","","","","","","","","","","","","","","","","","","","","","","",""
"","","","","","instructions","134","1396042","0.0-3.0-1.1-0.1","5f5550685e8dec926f63cef1","F1","batch6","","1542.3000001907349","","","","","","","","[{""page_index"":0,""viewing_time"":1032},{""page_index"":1,""viewing_time"":510}]","","","","","","","","","","","","","","","","","","","",""
"","","","","","html-button-response","135","1396775","0.0-3.0-1.1-1.1-0.1","5f5550685e8dec926f63cef1","F1","batch6","pattern_enter_quiz","731.7999999523163","<p class=block-text> Let's answer a few questions <br>","0","","","","","","","","","","","","","","","","","","","","","","","","","",""
"","","","","","html-button-response","136","1398716","0.0-3.0-1.1-1.1-1.1","5f5550685e8dec926f63cef1","F1","batch6","pattern_quiz","1939.5","<p class = block-text>True or False: You will have as much time as you want to make each choice. <br></p>","1","","","true","","","","","","","","","","","","","","","","","","","","","","",""
"","","","","","html-button-response","137","1399311","0.0-3.0-1.1-1.1-2.1","5f5550685e8dec926f63cef1","F1","batch6","pattern_quiz_feedback","594.2999999523163","<p class = block-text>Correct! You should make your choice <strong> as fast as you can</strong>.</p>","0","","","","","","","","","","","","","","","","","","","","","","","","","",""
"","","","","","html-button-response","138","1399929","0.0-3.0-1.1-1.1-3.1","5f5550685e8dec926f63cef1","F1","batch6","pattern_quiz","617.2999999523163","<p class = block-text>True or False: You will look for 4 pieces in black or white color connected in a row either horizontally, vertically or diagonally. <br></p>","0","","","true","","","","","","","","","","","","","","","","","","","","","","",""
"","","","","","html-button-response","139","1400456","0.0-3.0-1.1-1.1-4.1","5f5550685e8dec926f63cef1","F1","batch6","pattern_quiz_feedback","525.9000000953674","<p class = block-text>Correct! </p>","0","","","","","","","","","","","","","","","","","","","","","","","","","",""
"","","","","","html-button-response","140","1401231","0.0-3.0-2.0","5f5550685e8dec926f63cef1","F1","batch6","pattern_enter_practice","773.8999998569489","<p class=block-text> Now that you've understood the game, let's do a few practice trials before we start!<br> <br>","0","","","","","","","","","","","","","","","","","","","","","","","","","",""
"","","","","","image-keyboard-response","141","1405472","0.0-3.0-3.0-0.0","5f5550685e8dec926f63cef1","F1","batch6","pattern_practice","4238.299999952316","stim/prac_no_18_1.png","j","","j","true","","","","","","","","","","","","","","","","","","","","","","",""
"","","","","","html-keyboard-response","142","1406480","0.0-3.0-3.0-1.0","5f5550685e8dec926f63cef1","F1","batch6","pattern_feedback","null","<p style=""font-size:30px;color:green;"">Correct!</p>","null","","","","","","","","","","","","","","","","","","","","","","","","","",""
"","","","","","image-keyboard-response","143","1411111","0.0-3.0-3.0-0.1","5f5550685e8dec926f63cef1","F1","batch6","pattern_practice","4629.399999856949","stim/prac_no_16_1.png","j","","j","true","","","","","","","","","","","","","","","","","","","","","","",""
"","","","","","html-keyboard-response","144","1412118","0.0-3.0-3.0-1.1","5f5550685e8dec926f63cef1","F1","batch6","pattern_feedback","null","<p style=""font-size:30px;color:green;"">Correct!</p>","null","","","","","","","","","","","","","","","","","","","","","","","","","",""
"","","","","","image-keyboard-response","145","1412900","0.0-3.0-3.0-0.2","5f5550685e8dec926f63cef1","F1","batch6","pattern_practice","779.2000000476837","stim/prac_yes_16_ver_w1.png","f","","f","true","","","","","","","","","","","","","","","","","","","","","","",""
"","","","","","html-keyboard-response","146","1413911","0.0-3.0-3.0-1.2","5f5550685e8dec926f63cef1","F1","batch6","pattern_feedback","null","<p style=""font-size:30px;color:green;"">Correct!</p>","null","","","","","","","","","","","","","","","","","","","","","","","","","",""
"","","","","","image-keyboard-response","147","1414670","0.0-3.0-3.0-0.3","5f5550685e8dec926f63cef1","F1","batch6","pattern_practice","757.5","stim/prac_yes_18_hor_w1.png","f","","f","true","","","","","","","","","","","","","","","","","","","","","","",""
"","","","","","html-keyboard-response","148","1415685","0.0-3.0-3.0-1.3","5f5550685e8dec926f63cef1","F1","batch6","pattern_feedback","null","<p style=""font-size:30px;color:green;"">Correct!</p>","null","","","","","","","","","","","","","","","","","","","","","","","","","",""
"","","","","","image-keyboard-response","149","1417438","0.0-3.0-3.0-0.4","5f5550685e8dec926f63cef1","F1","batch6","pattern_practice","1750.5999999046326","stim/prac_yes_20_dia_b1.png","f","","f","true","","","","","","","","","","","","","","","","","","","","","","",""
"","","","","","html-keyboard-response","150","1418465","0.0-3.0-3.0-1.4","5f5550685e8dec926f63cef1","F1","batch6","pattern_feedback","null","<p style=""font-size:30px;color:green;"">Correct!</p>","null","","","","","","","","","","","","","","","","","","","","","","","","","",""
"","","","","","html-button-response","151","1673289","0.0-3.0-4.0","5f5550685e8dec926f63cef1","F1","batch6","pattern_enter_official_trials","254822.5","<p class=block-text> Good job! You are done with practice trials!<br>
        You responded correctly on 100% of the trials.<br>
        Press the button below to start official trials. Now you won't see any feedback about your response</p>","0","","","","","","","","","","","","","","","","","","","","","","","","","",""
"","","","","","html-keyboard-response","152","1674091","0.0-3.0-5.0-0.0","5f5550685e8dec926f63cef1","F1","batch6","pattern_show_trial_num","null","<p class=block-text>Trial 1 out of 78</p>","null","","","","","","","","","","","","","","","","","","","","","","","","","",""
"","","","","","image-keyboard-response","153","1676341","0.0-3.0-5.0-1.0","5f5550685e8dec926f63cef1","F1","batch6","pattern_response","2248","stim/no_25_1_b.png","f","pattern_09","j","false","","","","2248","false","0","","","","","","","","","","","","","","","","",""
"","","","","","html-keyboard-response","154","1677663","0.0-3.0-5.0-0.1","5f5550685e8dec926f63cef1","F1","batch6","pattern_show_trial_num","null","<p class=block-text>Trial 2 out of 78</p>","null","","","","","","","","","","","","","","","","","","","","","","","","","",""
"","","","","","image-keyboard-response","155","1678446","0.0-3.0-5.0-1.1","5f5550685e8dec926f63cef1","F1","batch6","pattern_response","781.7000000476837","stim/no_67_1.png","f","pattern_39","j","false","","","","781.7000000476837","false","0","","","","","","","","","","","","","","","","",""
"","","","","","html-keyboard-response","156","1679763","0.0-3.0-5.0-0.2","5f5550685e8dec926f63cef1","F1","batch6","pattern_show_trial_num","null","<p class=block-text>Trial 3 out of 78</p>","null","","","","","","","","","","","","","","","","","","","","","","","","","",""
"","","","","","image-keyboard-response","157","1680771","0.0-3.0-5.0-1.2","5f5550685e8dec926f63cef1","F1","batch6","pattern_response","1006.4000000953674","stim/yes_15_dia_b1u_b.png","f","pattern_44","f","true","","","","1006.4000000953674","true","1","","","","","","","","","","","","","","","","",""
"","","","","","html-keyboard-response","158","1682074","0.0-3.0-5.0-0.3","5f5550685e8dec926f63cef1","F1","batch6","pattern_show_trial_num","null","<p class=block-text>Trial 4 out of 78</p>","null","","","","","","","","","","","","","","","","","","","","","","","","","",""
"","","","","","image-keyboard-response","159","1683291","0.0-3.0-5.0-1.3","5f5550685e8dec926f63cef1","F1","batch6","pattern_response","1215.2999999523163","stim/yes_63_dia_b1.png","f","pattern_78","f","true","","","","1215.2999999523163","true","2","","","","","","","","","","","","","","","","",""
"","","","","","html-keyboard-response","160","1684594","0.0-3.0-5.0-0.4","5f5550685e8dec926f63cef1","F1","batch6","pattern_show_trial_num","null","<p class=block-text>Trial 5 out of 78</p>","null","","","","","","","","","","","","","","","","","","","","","","","","","",""
"","","","","","image-keyboard-response","161","1686301","0.0-3.0-5.0-1.4","5f5550685e8dec926f63cef1","F1","batch6","pattern_response","1705.2000000476837","stim/yes_70_ver_b1.png","f","pattern_80","f","true","","","","1705.2000000476837","true","3","","","","","","","","","","","","","","","","",""
"","","","","","html-keyboard-response","162","1687607","0.0-3.0-5.0-0.5","5f5550685e8dec926f63cef1","F1","batch6","pattern_show_trial_num","null","<p class=block-text>Trial 6 out of 78</p>","null","","","","","","","","","","","","","","","","","","","","","","","","","",""
"","","","","","image-keyboard-response","163","1688764","0.0-3.0-5.0-1.5","5f5550685e8dec926f63cef1","F1","batch6","pattern_response","1154.7000000476837","stim/yes_26_dia_w2_w.png","f","pattern_50","f","true","","","","1154.7000000476837","true","4","","","","","","","","","","","","","","","","",""
"","","","","","html-keyboard-response","164","1690069","0.0-3.0-5.0-0.6","5f5550685e8dec926f63cef1","F1","batch6","pattern_show_trial_num","null","<p class=block-text>Trial 7 out of 78</p>","null","","","","","","","","","","","","","","","","","","","","","","","","","",""
"","","","","","image-keyboard-response","165","1691440","0.0-3.0-5.0-1.6","5f5550685e8dec926f63cef1","F1","batch6","pattern_response","1369.7999999523163","stim/no_22_1_b.png","j","pattern_07","j","true","","","","1369.7999999523163","true","5","","","","","","","","","","","","","","","","",""
"","","","","","html-keyboard-response","166","1692745","0.0-3.0-5.0-0.7","5f5550685e8dec926f63cef1","F1","batch6","pattern_show_trial_num","null","<p class=block-text>Trial 8 out of 78</p>","null","","","","","","","","","","","","","","","","","","","","","","","","","",""
"","","","","","image-keyboard-response","167","1694743","0.0-3.0-5.0-1.7","5f5550685e8dec926f63cef1","F1","batch6","pattern_response","1996.4000000953674","stim/yes_58_dia_w1_w.png","f","pattern_76","f","true","","","","1996.4000000953674","true","6","","","","","","","","","","","","","","","","",""
"","","","","","html-keyboard-response","168","1696058","0.0-3.0-5.0-0.8","5f5550685e8dec926f63cef1","F1","batch6","pattern_show_trial_num","null","<p class=block-text>Trial 9 out of 78</p>","null","","","","","","","","","","","","","","","","","","","","","","","","","",""
"","","","","","image-keyboard-response","169","1697900","0.0-3.0-5.0-1.8","5f5550685e8dec926f63cef1","F1","batch6","pattern_response","1839.6999998092651","stim/no_37_2_w.png","f","pattern_19","j","false","","","","1839.6999998092651","false","6","","","","","","","","","","","","","","","","",""
"","","","","","html-keyboard-response","170","1699202","0.0-3.0-5.0-0.9","5f5550685e8dec926f63cef1","F1","batch6","pattern_show_trial_num","null","<p class=block-text>Trial 10 out of 78</p>","null","","","","","","","","","","","","","","","","","","","","","","","","","",""
"","","","","","image-keyboard-response","171","1701757","0.0-3.0-5.0-1.9","5f5550685e8dec926f63cef1","F1","batch6","pattern_response","2552.7999999523163","stim/no_36_1_b.png","j","pattern_17","j","true","","","","2552.7999999523163","true","7","","","","","","","","","","","","","","","","",""
"","","","","","html-keyboard-response","172","1703061","0.0-3.0-5.0-0.10","5f5550685e8dec926f63cef1","F1","batch6","pattern_show_trial_num","null","<p class=block-text>Trial 11 out of 78</p>","null","","","","","","","","","","","","","","","","","","","","","","","","","",""
"","","","","","image-keyboard-response","173","1706762","0.0-3.0-5.0-1.10","5f5550685e8dec926f63cef1","F1","batch6","pattern_response","3699.7999999523163","stim/yes_33_dia_w1_w.png","j","pattern_56","f","false","","","","3699.7999999523163","false","7","","","","","","","","","","","","","","","","",""
"","","","","","html-keyboard-response","174","1708075","0.0-3.0-5.0-0.11","5f5550685e8dec926f63cef1","F1","batch6","pattern_show_trial_num","null","<p class=block-text>Trial 12 out of 78</p>","null","","","","","","","","","","","","","","","","","","","","","","","","","",""
"","","","","","image-keyboard-response","175","1709924","0.0-3.0-5.0-1.11","5f5550685e8dec926f63cef1","F1","batch6","pattern_response","1846.7999999523163","stim/no_39_1_w.png","f","pattern_21","j","false","","","","1846.7999999523163","false","7","","","","","","","","","","","","","","","","",""
"","","","","","html-keyboard-response","176","1711228","0.0-3.0-5.0-0.12","5f5550685e8dec926f63cef1","F1","batch6","pattern_show_trial_num","null","<p class=block-text>Trial 13 out of 78</p>","null","","","","","","","","","","","","","","","","","","","","","","","","","",""
"","","","","","image-keyboard-response","177","1712002","0.0-3.0-5.0-1.12","5f5550685e8dec926f63cef1","F1","batch6","pattern_response","771.7000000476837","stim/yes_12_hor_w1_w.png","f","pattern_42","f","true","","","","771.7000000476837","true","8","","","","","","","","","","","","","","","","",""
"","","","","","html-keyboard-response","178","1713314","0.0-3.0-5.0-0.13","5f5550685e8dec926f63cef1","F1","batch6","pattern_show_trial_num","null","<p class=block-text>Trial 14 out of 78</p>","null","","","","","","","","","","","","","","","","","","","","","","","","","",""
"","","","","","image-keyboard-response","179","1714567","0.0-3.0-5.0-1.13","5f5550685e8dec926f63cef1","F1","batch6","pattern_response","1251.2999999523163","stim/yes_23_ver_b1.png","j","pattern_48","f","false","","","","1251.2999999523163","false","8","","","","","","","","","","","","","","","","",""
"","","","","","html-keyboard-response","180","1715880","0.0-3.0-5.0-0.14","5f5550685e8dec926f63cef1","F1","batch6","pattern_show_trial_num","null","<p class=block-text>Trial 15 out of 78</p>","null","","","","","","","","","","","","","","","","","","","","","","","","","",""
"","","","","","image-keyboard-response","181","1720040","0.0-3.0-5.0-1.14","5f5550685e8dec926f63cef1","F1","batch6","pattern_response","4158.400000095367","stim/no_33_1_b.png","j","pattern_15","j","true","","","","4158.400000095367","true","9","","","","","","","","","","","","","","","","",""
"","","","","","html-keyboard-response","182","1721358","0.0-3.0-5.0-0.15","5f5550685e8dec926f63cef1","F1","batch6","pattern_show_trial_num","null","<p class=block-text>Trial 16 out of 78</p>","null","","","","","","","","","","","","","","","","","","","","","","","","","",""
"","","","","","image-keyboard-response","183","1723089","0.0-3.0-5.0-1.15","5f5550685e8dec926f63cef1","F1","batch6","pattern_response","1728.9000000953674","stim/yes_36_ver_w1_w.png","f","pattern_58","f","true","","","","1728.9000000953674","true","10","","","","","","","","","","","","","","","","",""
"","","","","","html-keyboard-response","184","1724391","0.0-3.0-5.0-0.16","5f5550685e8dec926f63cef1","F1","batch6","pattern_show_trial_num","null","<p class=block-text>Trial 17 out of 78</p>","null","","","","","","","","","","","","","","","","","","","","","","","","","",""
"","","","","","image-keyboard-response","185","1730618","0.0-3.0-5.0-1.16","5f5550685e8dec926f63cef1","F1","batch6","pattern_response","6224.5","stim/yes_49_hor_w1_b.png","j","pattern_70","f","false","","","","6224.5","false","10","","","","","","","","","","","","","","","","",""
"","","","","","html-keyboard-response","186","1731937","0.0-3.0-5.0-0.17","5f5550685e8dec926f63cef1","F1","batch6","pattern_show_trial_num","null","<p class=block-text>Trial 18 out of 78</p>","null","","","","","","","","","","","","","","","","","","","","","","","","","",""
"","","","","","image-keyboard-response","187","1736984","0.0-3.0-5.0-1.17","5f5550685e8dec926f63cef1","F1","batch6","pattern_response","5045.200000047684","stim/yes_46_ver_b1_b.png","f","pattern_68","f","true","","","","5045.200000047684","true","11","","","","","","","","","","","","","","","","",""
"","","","","","html-keyboard-response","188","1738303","0.0-3.0-5.0-0.18","5f5550685e8dec926f63cef1","F1","batch6","pattern_show_trial_num","null","<p class=block-text>Trial 19 out of 78</p>","null","","","","","","","","","","","","","","","","","","","","","","","","","",""
"","","","","","image-keyboard-response","189","1740320","0.0-3.0-5.0-1.18","5f5550685e8dec926f63cef1","F1","batch6","pattern_response","2014.8000001907349","stim/no_47_1_b.png","f","pattern_27","j","false","","","","2014.8000001907349","false","11","","","","","","","","","","","","","","","","",""
"","","","","","html-keyboard-response","190","1741632","0.0-3.0-5.0-0.19","5f5550685e8dec926f63cef1","F1","batch6","pattern_show_trial_num","null","<p class=block-text>Trial 20 out of 78</p>","null","","","","","","","","","","","","","","","","","","","","","","","","","",""
"","","","","","image-keyboard-response","191","1744340","0.0-3.0-5.0-1.19","5f5550685e8dec926f63cef1","F1","batch6","pattern_response","2706.399999856949","stim/yes_30_ver_b1_b.png","f","pattern_54","f","true","","","","2706.399999856949","true","12","","","","","","","","","","","","","","","","",""
"","","","","","html-keyboard-response","192","1745656","0.0-3.0-5.0-0.20","5f5550685e8dec926f63cef1","F1","batch6","pattern_show_trial_num","null","<p class=block-text>Trial 21 out of 78</p>","null","","","","","","","","","","","","","","","","","","","","","","","","","",""
"","","","","","image-keyboard-response","193","1749152","0.0-3.0-5.0-1.20","5f5550685e8dec926f63cef1","F1","batch6","pattern_response","3493.7000000476837","stim/yes_44_ver_w1_w.png","f","pattern_66","f","true","","","","3493.7000000476837","true","13","","","","","","","","","","","","","","","","",""
"","","","","","html-keyboard-response","194","1750465","0.0-3.0-5.0-0.21","5f5550685e8dec926f63cef1","F1","batch6","pattern_show_trial_num","null","<p class=block-text>Trial 22 out of 78</p>","null","","","","","","","","","","","","","","","","","","","","","","","","","",""
"","","","","","image-keyboard-response","195","1756952","0.0-3.0-5.0-1.21","5f5550685e8dec926f63cef1","F1","batch6","pattern_response","6484.599999904633","stim/no_43_2_b.png","f","pattern_23","j","false","","","","6484.599999904633","false","13","","","","","","","","","","","","","","","","",""
"","","","","","html-keyboard-response","196","1758264","0.0-3.0-5.0-0.22","5f5550685e8dec926f63cef1","F1","batch6","pattern_show_trial_num","null","<p class=block-text>Trial 23 out of 78</p>","null","","","","","","","","","","","","","","","","","","","","","","","","","",""
"","","","","","image-keyboard-response","197","1759268","0.0-3.0-5.0-1.22","5f5550685e8dec926f63cef1","F1","batch6","pattern_response","1001","stim/no_12_1.png","j","pattern_01","j","true","","","","1001","true","14","","","","","","","","","","","","","","","","",""
"","","","","","html-keyboard-response","198","1760580","0.0-3.0-5.0-0.23","5f5550685e8dec926f63cef1","F1","batch6","pattern_show_trial_num","null","<p class=block-text>Trial 24 out of 78</p>","null","","","","","","","","","","","","","","","","","","","","","","","","","",""
"","","","","","image-keyboard-response","199","1761590","0.0-3.0-5.0-1.23","5f5550685e8dec926f63cef1","F1","batch6","pattern_response","1007.8000001907349","stim/yes_17_ver_b1_b.png","f","pattern_46","f","true","","","","1007.8000001907349","true","15","","","","","","","","","","","","","","","","",""
"","","","","","html-keyboard-response","200","1762894","0.0-3.0-5.0-0.24","5f5550685e8dec926f63cef1","F1","batch6","pattern_show_trial_num","null","<p class=block-text>Trial 25 out of 78</p>","null","","","","","","","","","","","","","","","","","","","","","","","","","",""
"","","","","","image-keyboard-response","201","1763842","0.0-3.0-5.0-1.24","5f5550685e8dec926f63cef1","F1","batch6","pattern_response","945.0999999046326","stim/no_58_1_w.png","f","pattern_35","j","false","","","","945.0999999046326","false","15","","","","","","","","","","","","","","","","",""
"","","","","","html-keyboard-response","202","1765154","0.0-3.0-5.0-0.25","5f5550685e8dec926f63cef1","F1","batch6","pattern_show_trial_num","null","<p class=block-text>Trial 26 out of 78</p>","null","","","","","","","","","","","","","","","","","","","","","","","","","",""
"","","","","","image-keyboard-response","203","1765960","0.0-3.0-5.0-1.25","5f5550685e8dec926f63cef1","F1","batch6","pattern_response","804.8000001907349","stim/yes_51_dia_b1.png","f","pattern_72","f","true","","","","804.8000001907349","true","16","","","","","","","","","","","","","","","","",""
"","","","","","html-keyboard-response","204","1767275","0.0-3.0-5.0-0.26","5f5550685e8dec926f63cef1","F1","batch6","pattern_show_trial_num","null","<p class=block-text>Trial 27 out of 78</p>","null","","","","","","","","","","","","","","","","","","","","","","","","","",""
"","","","","","image-keyboard-response","205","1768549","0.0-3.0-5.0-1.26","5f5550685e8dec926f63cef1","F1","batch6","pattern_response","1272.5","stim/no_18_1_b.png","f","pattern_05","j","false","","","","1272.5","false","16","","","","","","","","","","","","","","","","",""
"","","","","","html-keyboard-response","206","1769879","0.0-3.0-5.0-0.27","5f5550685e8dec926f63cef1","F1","batch6","pattern_show_trial_num","null","<p class=block-text>Trial 28 out of 78</p>","null","","","","","","","","","","","","","","","","","","","","","","","","","",""
"","","","","","image-keyboard-response","207","1770709","0.0-3.0-5.0-1.27","5f5550685e8dec926f63cef1","F1","batch6","pattern_response","828.1000001430511","stim/no_53_1_b.png","f","pattern_33","j","false","","","","828.1000001430511","false","16","","","","","","","","","","","","","","","","",""
"","","","","","html-keyboard-response","208","1772026","0.0-3.0-5.0-0.28","5f5550685e8dec926f63cef1","F1","batch6","pattern_show_trial_num","null","<p class=block-text>Trial 29 out of 78</p>","null","","","","","","","","","","","","","","","","","","","","","","","","","",""
"","","","","","image-keyboard-response","209","1776098","0.0-3.0-5.0-1.28","5f5550685e8dec926f63cef1","F1","batch6","pattern_response","4070.899999856949","stim/no_30_1_b.png","j","pattern_13","j","true","","","","4070.899999856949","true","17","","","","","","","","","","","","","","","","",""
"","","","","","html-keyboard-response","210","1777401","0.0-3.0-5.0-0.29","5f5550685e8dec926f63cef1","F1","batch6","pattern_show_trial_num","null","<p class=block-text>Trial 30 out of 78</p>","null","","","","","","","","","","","","","","","","","","","","","","","","","",""
"","","","","","image-keyboard-response","211","1778078","0.0-3.0-5.0-1.29","5f5550685e8dec926f63cef1","F1","batch6","pattern_response","674.7999999523163","stim/yes_42_dia_w1_w.png","f","pattern_64","f","true","","","","674.7999999523163","true","18","","","","","","","","","","","","","","","","",""
"","","","","","html-keyboard-response","212","1779385","0.0-3.0-5.0-0.30","5f5550685e8dec926f63cef1","F1","batch6","pattern_show_trial_num","null","<p class=block-text>Trial 31 out of 78</p>","null","","","","","","","","","","","","","","","","","","","","","","","","","",""
"","","","","","image-keyboard-response","213","1781470","0.0-3.0-5.0-1.30","5f5550685e8dec926f63cef1","F1","batch6","pattern_response","2083.9000000953674","stim/no_45_1_w.png","f","pattern_25","j","false","","","","2083.9000000953674","false","18","","","","","","","","","","","","","","","","",""
"","","","","","html-keyboard-response","214","1782782","0.0-3.0-5.0-0.31","5f5550685e8dec926f63cef1","F1","batch6","pattern_show_trial_num","null","<p class=block-text>Trial 32 out of 78</p>","null","","","","","","","","","","","","","","","","","","","","","","","","","",""
"","","","","","image-keyboard-response","215","1784166","0.0-3.0-5.0-1.31","5f5550685e8dec926f63cef1","F1","batch6","pattern_response","1382.2999999523163","stim/yes_29_hor_b1_b.png","f","pattern_52","f","true","","","","1382.2999999523163","true","19","","","","","","","","","","","","","","","","",""
"","","","","","html-keyboard-response","216","1785470","0.0-3.0-5.0-0.32","5f5550685e8dec926f63cef1","F1","batch6","pattern_show_trial_num","null","<p class=block-text>Trial 33 out of 78</p>","null","","","","","","","","","","","","","","","","","","","","","","","","","",""
"","","","","","image-keyboard-response","217","1790090","0.0-3.0-5.0-1.32","5f5550685e8dec926f63cef1","F1","batch6","pattern_response","4618.099999904633","stim/yes_39_hor_w1_w.png","j","pattern_62","f","false","","","","4618.099999904633","false","19","","","","","","","","","","","","","","","","",""
"","","","","","html-keyboard-response","218","1791408","0.0-3.0-5.0-0.33","5f5550685e8dec926f63cef1","F1","batch6","pattern_show_trial_num","null","<p class=block-text>Trial 34 out of 78</p>","null","","","","","","","","","","","","","","","","","","","","","","","","","",""
"","","","","","image-keyboard-response","219","1792551","0.0-3.0-5.0-1.33","5f5550685e8dec926f63cef1","F1","batch6","pattern_response","1140.9000000953674","stim/yes_53_ver_b1_b.png","f","pattern_74","f","true","","","","1140.9000000953674","true","20","","","","","","","","","","","","","","","","",""
"","","","","","html-keyboard-response","220","1793862","0.0-3.0-5.0-0.34","5f5550685e8dec926f63cef1","F1","batch6","pattern_show_trial_num","null","<p class=block-text>Trial 35 out of 78</p>","null","","","","","","","","","","","","","","","","","","","","","","","","","",""
"","","","","","image-keyboard-response","221","1794642","0.0-3.0-5.0-1.34","5f5550685e8dec926f63cef1","F1","batch6","pattern_response","778.6000001430511","stim/no_51_1.png","f","pattern_31","j","false","","","","778.6000001430511","false","20","","","","","","","","","","","","","","","","",""
"","","","","","html-keyboard-response","222","1795960","0.0-3.0-5.0-0.35","5f5550685e8dec926f63cef1","F1","batch6","pattern_show_trial_num","null","<p class=block-text>Trial 36 out of 78</p>","null","","","","","","","","","","","","","","","","","","","","","","","","","",""
"","","","","","image-keyboard-response","223","1797916","0.0-3.0-5.0-1.35","5f5550685e8dec926f63cef1","F1","batch6","pattern_response","1954.7999999523163","stim/no_28_2.png","f","pattern_11","j","false","","","","1954.7999999523163","false","20","","","","","","","","","","","","","","","","",""
"","","","","","html-keyboard-response","224","1799228","0.0-3.0-5.0-0.36","5f5550685e8dec926f63cef1","F1","batch6","pattern_show_trial_num","null","<p class=block-text>Trial 37 out of 78</p>","null","","","","","","","","","","","","","","","","","","","","","","","","","",""
"","","","","","image-keyboard-response","225","1800414","0.0-3.0-5.0-1.36","5f5550685e8dec926f63cef1","F1","batch6","pattern_response","1184.6999998092651","stim/no_15_1_w.png","j","pattern_03","j","true","","","","1184.6999998092651","true","21","","","","","","","","","","","","","","","","",""
"","","","","","html-keyboard-response","226","1801736","0.0-3.0-5.0-0.37","5f5550685e8dec926f63cef1","F1","batch6","pattern_show_trial_num","null","<p class=block-text>Trial 38 out of 78</p>","null","","","","","","","","","","","","","","","","","","","","","","","","","",""
"","","","","","image-keyboard-response","227","1805661","0.0-3.0-5.0-1.37","5f5550685e8dec926f63cef1","F1","batch6","pattern_response","3922.7999999523163","stim/yes_37_hor_w1_w.png","j","pattern_60","f","false","","","","3922.7999999523163","false","21","","","","","","","","","","","","","","","","",""
"","","","","","html-keyboard-response","228","1806965","0.0-3.0-5.0-0.38","5f5550685e8dec926f63cef1","F1","batch6","pattern_show_trial_num","null","<p class=block-text>Trial 39 out of 78</p>","null","","","","","","","","","","","","","","","","","","","","","","","","","",""
"","","","","","image-keyboard-response","229","1807668","0.0-3.0-5.0-1.38","5f5550685e8dec926f63cef1","F1","batch6","pattern_response","700.2000000476837","stim/no_49_2_b.png","f","pattern_29","j","false","","","","700.2000000476837","false","21","","","","","","","","","","","","","","","","",""
"","","","","","image-keyboard-response","230","1810216","0.0-3.0-6.0","5f5550685e8dec926f63cef1","F1","batch6","attention_check","2041.3999998569489","stim/empty_board.png","j","","j","true","","","","","","","500","[""f"",""j""]","","","","","","","","","","","","","","",""
"","","","","","html-keyboard-response","231","1811023","0.0-3.0-7.0-0.0","5f5550685e8dec926f63cef1","F1","batch6","pattern_show_trial_num","null","<p class=block-text>Trial 40 out of 78</p>","null","","","","","","","","","","","","","","","","","","","","","","","","","",""
"","","","","","image-keyboard-response","232","1811984","0.0-3.0-7.0-1.0","5f5550685e8dec926f63cef1","F1","batch6","pattern_response","959.4000000953674","stim/yes_22_ver_w1.png","f","pattern_47","f","true","","","","959.4000000953674","true","22","","","","","","","","","","","","","","","","",""
"","","","","","html-keyboard-response","233","1813309","0.0-3.0-7.0-0.1","5f5550685e8dec926f63cef1","F1","batch6","pattern_show_trial_num","null","<p class=block-text>Trial 41 out of 78</p>","null","","","","","","","","","","","","","","","","","","","","","","","","","",""
"","","","","","image-keyboard-response","234","1813946","0.0-3.0-7.0-1.1","5f5550685e8dec926f63cef1","F1","batch6","pattern_response","634.5999999046326","stim/yes_14_hor_b1_w.png","f","pattern_43","f","true","","","","634.5999999046326","true","23","","","","","","","","","","","","","","","","",""
"","","","","","html-keyboard-response","235","1815256","0.0-3.0-7.0-0.2","5f5550685e8dec926f63cef1","F1","batch6","pattern_show_trial_num","null","<p class=block-text>Trial 42 out of 78</p>","null","","","","","","","","","","","","","","","","","","","","","","","","","",""
"","","","","","image-keyboard-response","236","1816784","0.0-3.0-7.0-1.2","5f5550685e8dec926f63cef1","F1","batch6","pattern_response","1527","stim/yes_29_ver_w1.png","f","pattern_53","f","true","","","","1527","true","24","","","","","","","","","","","","","","","","",""
"","","","","","html-keyboard-response","237","1818112","0.0-3.0-7.0-0.3","5f5550685e8dec926f63cef1","F1","batch6","pattern_show_trial_num","null","<p class=block-text>Trial 43 out of 78</p>","null","","","","","","","","","","","","","","","","","","","","","","","","","",""
"","","","","","image-keyboard-response","238","1819700","0.0-3.0-7.0-1.3","5f5550685e8dec926f63cef1","F1","batch6","pattern_response","1586.5999999046326","stim/no_62_1_w.png","f","pattern_36","j","false","","","","1586.5999999046326","false","24","","","","","","","","","","","","","","","","",""
"","","","","","html-keyboard-response","239","1821015","0.0-3.0-7.0-0.4","5f5550685e8dec926f63cef1","F1","batch6","pattern_show_trial_num","null","<p class=block-text>Trial 44 out of 78</p>","null","","","","","","","","","","","","","","","","","","","","","","","","","",""
"","","","","","image-keyboard-response","240","1825061","0.0-3.0-7.0-1.4","5f5550685e8dec926f63cef1","F1","batch6","pattern_response","4044.800000190735","stim/no_38_1_b.png","j","pattern_20","j","true","","","","4044.800000190735","true","25","","","","","","","","","","","","","","","","",""
"","","","","","html-keyboard-response","241","1826367","0.0-3.0-7.0-0.5","5f5550685e8dec926f63cef1","F1","batch6","pattern_show_trial_num","null","<p class=block-text>Trial 45 out of 78</p>","null","","","","","","","","","","","","","","","","","","","","","","","","","",""
"","","","","","image-keyboard-response","242","1827955","0.0-3.0-7.0-1.5","5f5550685e8dec926f63cef1","F1","batch6","pattern_response","1586.4000000953674","stim/yes_38_hor_b1_b.png","f","pattern_61","f","true","","","","1586.4000000953674","true","26","","","","","","","","","","","","","","","","",""
"","","","","","html-keyboard-response","243","1829258","0.0-3.0-7.0-0.6","5f5550685e8dec926f63cef1","F1","batch6","pattern_show_trial_num","null","<p class=block-text>Trial 46 out of 78</p>","null","","","","","","","","","","","","","","","","","","","","","","","","","",""
"","","","","","image-keyboard-response","244","1829932","0.0-3.0-7.0-1.6","5f5550685e8dec926f63cef1","F1","batch6","pattern_response","672","stim/no_70_2.png","f","pattern_40","j","false","","","","672","false","26","","","","","","","","","","","","","","","","",""
"","","","","","html-keyboard-response","245","1831238","0.0-3.0-7.0-0.7","5f5550685e8dec926f63cef1","F1","batch6","pattern_show_trial_num","null","<p class=block-text>Trial 47 out of 78</p>","null","","","","","","","","","","","","","","","","","","","","","","","","","",""
"","","","","","image-keyboard-response","246","1832842","0.0-3.0-7.0-1.7","5f5550685e8dec926f63cef1","F1","batch6","pattern_response","1602.5999999046326","stim/no_34_1_b.png","f","pattern_16","j","false","","","","1602.5999999046326","false","26","","","","","","","","","","","","","","","","",""
"","","","","","html-keyboard-response","247","1834160","0.0-3.0-7.0-0.8","5f5550685e8dec926f63cef1","F1","batch6","pattern_show_trial_num","null","<p class=block-text>Trial 48 out of 78</p>","null","","","","","","","","","","","","","","","","","","","","","","","","","",""
"","","","","","image-keyboard-response","248","1838168","0.0-3.0-7.0-1.8","5f5550685e8dec926f63cef1","F1","batch6","pattern_response","4006.2999999523163","stim/no_46_1_b.png","j","pattern_26","j","true","","","","4006.2999999523163","true","27","","","","","","","","","","","","","","","","",""
"","","","","","html-keyboard-response","249","1839479","0.0-3.0-7.0-0.9","5f5550685e8dec926f63cef1","F1","batch6","pattern_show_trial_num","null","<p class=block-text>Trial 49 out of 78</p>","null","","","","","","","","","","","","","","","","","","","","","","","","","",""
"","","","","","image-keyboard-response","250","1841867","0.0-3.0-7.0-1.9","5f5550685e8dec926f63cef1","F1","batch6","pattern_response","2385.7999999523163","stim/no_32_1_w.png","j","pattern_14","j","true","","","","2385.7999999523163","true","28","","","","","","","","","","","","","","","","",""
"","","","","","html-keyboard-response","251","1843172","0.0-3.0-7.0-0.10","5f5550685e8dec926f63cef1","F1","batch6","pattern_show_trial_num","null","<p class=block-text>Trial 50 out of 78</p>","null","","","","","","","","","","","","","","","","","","","","","","","","","",""
"","","","","","image-keyboard-response","252","1845025","0.0-3.0-7.0-1.10","5f5550685e8dec926f63cef1","F1","batch6","pattern_response","1851.7000000476837","stim/no_23_1.png","j","pattern_08","j","true","","","","1851.7000000476837","true","29","","","","","","","","","","","","","","","","",""
"","","","","","html-keyboard-response","253","1846336","0.0-3.0-7.0-0.11","5f5550685e8dec926f63cef1","F1","batch6","pattern_show_trial_num","null","<p class=block-text>Trial 51 out of 78</p>","null","","","","","","","","","","","","","","","","","","","","","","","","","",""
"","","","","","image-keyboard-response","254","1848095","0.0-3.0-7.0-1.11","5f5550685e8dec926f63cef1","F1","batch6","pattern_response","1757.3999998569489","stim/no_44_1.png","f","pattern_24","j","false","","","","1757.3999998569489","false","29","","","","","","","","","","","","","","","","",""
"","","","","","html-keyboard-response","255","1849406","0.0-3.0-7.0-0.12","5f5550685e8dec926f63cef1","F1","batch6","pattern_show_trial_num","null","<p class=block-text>Trial 52 out of 78</p>","null","","","","","","","","","","","","","","","","","","","","","","","","","",""
"","","","","","image-keyboard-response","256","1850162","0.0-3.0-7.0-1.12","5f5550685e8dec926f63cef1","F1","batch6","pattern_response","753.3999998569489","stim/yes_45_hor_b2_b.png","f","pattern_67","f","true","","","","753.3999998569489","true","30","","","","","","","","","","","","","","","","",""
"","","","","","html-keyboard-response","257","1851479","0.0-3.0-7.0-0.13","5f5550685e8dec926f63cef1","F1","batch6","pattern_show_trial_num","null","<p class=block-text>Trial 53 out of 78</p>","null","","","","","","","","","","","","","","","","","","","","","","","","","",""
"","","","","","image-keyboard-response","258","1852364","0.0-3.0-7.0-1.13","5f5550685e8dec926f63cef1","F1","batch6","pattern_response","883.9000000953674","stim/yes_28_ver_b1.png","f","pattern_51","f","true","","","","883.9000000953674","true","31","","","","","","","","","","","","","","","","",""
"","","","","","html-keyboard-response","259","1853678","0.0-3.0-7.0-0.14","5f5550685e8dec926f63cef1","F1","batch6","pattern_show_trial_num","null","<p class=block-text>Trial 54 out of 78</p>","null","","","","","","","","","","","","","","","","","","","","","","","","","",""
"","","","","","image-keyboard-response","260","1855537","0.0-3.0-7.0-1.14","5f5550685e8dec926f63cef1","F1","batch6","pattern_response","1857.4000000953674","stim/no_17_1_w.png","j","pattern_04","j","true","","","","1857.4000000953674","true","32","","","","","","","","","","","","","","","","",""
"","","","","","html-keyboard-response","261","1856852","0.0-3.0-7.0-0.15","5f5550685e8dec926f63cef1","F1","batch6","pattern_show_trial_num","null","<p class=block-text>Trial 55 out of 78</p>","null","","","","","","","","","","","","","","","","","","","","","","","","","",""
"","","","","","image-keyboard-response","262","1857816","0.0-3.0-7.0-1.15","5f5550685e8dec926f63cef1","F1","batch6","pattern_response","962.2000000476837","stim/no_55_1_w.png","f","pattern_34","j","false","","","","962.2000000476837","false","32","","","","","","","","","","","","","","","","",""
"","","","","","html-keyboard-response","263","1859119","0.0-3.0-7.0-0.16","5f5550685e8dec926f63cef1","F1","batch6","pattern_show_trial_num","null","<p class=block-text>Trial 56 out of 78</p>","null","","","","","","","","","","","","","","","","","","","","","","","","","",""
"","","","","","image-keyboard-response","264","1859988","0.0-3.0-7.0-1.16","5f5550685e8dec926f63cef1","F1","batch6","pattern_response","866.5","stim/yes_17_dia_w1.png","j","pattern_45","f","false","","","","866.5","false","32","","","","","","","","","","","","","","","","",""
"","","","","","html-keyboard-response","265","1861302","0.0-3.0-7.0-0.17","5f5550685e8dec926f63cef1","F1","batch6","pattern_show_trial_num","null","<p class=block-text>Trial 57 out of 78</p>","null","","","","","","","","","","","","","","","","","","","","","","","","","",""
"","","","","","image-keyboard-response","266","1862479","0.0-3.0-7.0-1.17","5f5550685e8dec926f63cef1","F1","batch6","pattern_response","1174.9000000953674","stim/yes_55_hor_w1_w.png","f","pattern_75","f","true","","","","1174.9000000953674","true","33","","","","","","","","","","","","","","","","",""
"","","","","","html-keyboard-response","267","1863793","0.0-3.0-7.0-0.18","5f5550685e8dec926f63cef1","F1","batch6","pattern_show_trial_num","null","<p class=block-text>Trial 58 out of 78</p>","null","","","","","","","","","","","","","","","","","","","","","","","","","",""
"","","","","","image-keyboard-response","268","1867329","0.0-3.0-7.0-1.18","5f5550685e8dec926f63cef1","F1","batch6","pattern_response","3534.100000143051","stim/no_29_1_b.png","j","pattern_12","j","true","","","","3534.100000143051","true","34","","","","","","","","","","","","","","","","",""
"","","","","","html-keyboard-response","269","1868630","0.0-3.0-7.0-0.19","5f5550685e8dec926f63cef1","F1","batch6","pattern_show_trial_num","null","<p class=block-text>Trial 59 out of 78</p>","null","","","","","","","","","","","","","","","","","","","","","","","","","",""
"","","","","","image-keyboard-response","270","1869429","0.0-3.0-7.0-1.19","5f5550685e8dec926f63cef1","F1","batch6","pattern_response","797.0999999046326","stim/yes_25_hor_b1_b.png","f","pattern_49","f","true","","","","797.0999999046326","true","35","","","","","","","","","","","","","","","","",""
"","","","","","html-keyboard-response","271","1870739","0.0-3.0-7.0-0.20","5f5550685e8dec926f63cef1","F1","batch6","pattern_show_trial_num","null","<p class=block-text>Trial 60 out of 78</p>","null","","","","","","","","","","","","","","","","","","","","","","","","","",""
"","","","","","image-keyboard-response","272","1872677","0.0-3.0-7.0-1.20","5f5550685e8dec926f63cef1","F1","batch6","pattern_response","1936.2000000476837","stim/yes_31_hor_b1.png","f","pattern_55","f","true","","","","1936.2000000476837","true","36","","","","","","","","","","","","","","","","",""
"","","","","","html-keyboard-response","273","1873998","0.0-3.0-7.0-0.21","5f5550685e8dec926f63cef1","F1","batch6","pattern_show_trial_num","null","<p class=block-text>Trial 61 out of 78</p>","null","","","","","","","","","","","","","","","","","","","","","","","","","",""
"","","","","","image-keyboard-response","274","1875648","0.0-3.0-7.0-1.21","5f5550685e8dec926f63cef1","F1","batch6","pattern_response","1648","stim/no_20_1_w.png","j","pattern_06","j","true","","","","1648","true","37","","","","","","","","","","","","","","","","",""
"","","","","","html-keyboard-response","275","1876950","0.0-3.0-7.0-0.22","5f5550685e8dec926f63cef1","F1","batch6","pattern_show_trial_num","null","<p class=block-text>Trial 62 out of 78</p>","null","","","","","","","","","","","","","","","","","","","","","","","","","",""
"","","","","","image-keyboard-response","276","1880571","0.0-3.0-7.0-1.22","5f5550685e8dec926f63cef1","F1","batch6","pattern_response","3619","stim/yes_67_hor_b1.png","f","pattern_79","f","true","","","","3619","true","38","","","","","","","","","","","","","","","","",""
"","","","","","html-keyboard-response","277","1881877","0.0-3.0-7.0-0.23","5f5550685e8dec926f63cef1","F1","batch6","pattern_show_trial_num","null","<p class=block-text>Trial 63 out of 78</p>","null","","","","","","","","","","","","","","","","","","","","","","","","","",""
"","","","","","image-keyboard-response","278","1883212","0.0-3.0-7.0-1.23","5f5550685e8dec926f63cef1","F1","batch6","pattern_response","1333.1000001430511","stim/no_65_1_b.png","f","pattern_38","j","false","","","","1333.1000001430511","false","38","","","","","","","","","","","","","","","","",""
"","","","","","html-keyboard-response","279","1884523","0.0-3.0-7.0-0.24","5f5550685e8dec926f63cef1","F1","batch6","pattern_show_trial_num","null","<p class=block-text>Trial 64 out of 78</p>","null","","","","","","","","","","","","","","","","","","","","","","","","","",""
"","","","","","image-keyboard-response","280","1887227","0.0-3.0-7.0-1.24","5f5550685e8dec926f63cef1","F1","batch6","pattern_response","2702.5","stim/yes_40_dia_b1_b.png","f","pattern_63","f","true","","","","2702.5","true","39","","","","","","","","","","","","","","","","",""
"","","","","","html-keyboard-response","281","1888539","0.0-3.0-7.0-0.25","5f5550685e8dec926f63cef1","F1","batch6","pattern_show_trial_num","null","<p class=block-text>Trial 65 out of 78</p>","null","","","","","","","","","","","","","","","","","","","","","","","","","",""
"","","","","","image-keyboard-response","282","1889439","0.0-3.0-7.0-1.25","5f5550685e8dec926f63cef1","F1","batch6","pattern_response","897.9000000953674","stim/no_13_2_b.png","j","pattern_02","j","true","","","","897.9000000953674","true","40","","","","","","","","","","","","","","","","",""
"","","","","","html-keyboard-response","283","1890744","0.0-3.0-7.0-0.26","5f5550685e8dec926f63cef1","F1","batch6","pattern_show_trial_num","null","<p class=block-text>Trial 66 out of 78</p>","null","","","","","","","","","","","","","","","","","","","","","","","","","",""
"","","","","","image-keyboard-response","284","1891395","0.0-3.0-7.0-1.26","5f5550685e8dec926f63cef1","F1","batch6","pattern_response","648.7999999523163","stim/yes_48_dia_w1_w.png","f","pattern_69","f","true","","","","648.7999999523163","true","41","","","","","","","","","","","","","","","","",""
"","","","","","html-keyboard-response","285","1892712","0.0-3.0-7.0-0.27","5f5550685e8dec926f63cef1","F1","batch6","pattern_show_trial_num","null","<p class=block-text>Trial 67 out of 78</p>","null","","","","","","","","","","","","","","","","","","","","","","","","","",""
"","","","","","image-keyboard-response","286","1893295","0.0-3.0-7.0-1.27","5f5550685e8dec926f63cef1","F1","batch6","pattern_response","581.5999999046326","stim/yes_43_ver_w1_w.png","f","pattern_65","f","true","","","","581.5999999046326","true","42","","","","","","","","","","","","","","","","",""
"","","","","","html-keyboard-response","287","1894615","0.0-3.0-7.0-0.28","5f5550685e8dec926f63cef1","F1","batch6","pattern_show_trial_num","null","<p class=block-text>Trial 68 out of 78</p>","null","","","","","","","","","","","","","","","","","","","","","","","","","",""
"","","","","","image-keyboard-response","288","1897003","0.0-3.0-7.0-1.28","5f5550685e8dec926f63cef1","F1","batch6","pattern_response","2386.399999856949","stim/no_36_2_w.png","j","pattern_18","j","true","","","","2386.399999856949","true","43","","","","","","","","","","","","","","","","",""
"","","","","","html-keyboard-response","289","1898319","0.0-3.0-7.0-0.29","5f5550685e8dec926f63cef1","F1","batch6","pattern_show_trial_num","null","<p class=block-text>Trial 69 out of 78</p>","null","","","","","","","","","","","","","","","","","","","","","","","","","",""
"","","","","","image-keyboard-response","290","1901858","0.0-3.0-7.0-1.29","5f5550685e8dec926f63cef1","F1","batch6","pattern_response","3537.5","stim/no_52_1.png","f","pattern_32","j","false","","","","3537.5","false","43","","","","","","","","","","","","","","","","",""
"","","","","","html-keyboard-response","291","1903166","0.0-3.0-7.0-0.30","5f5550685e8dec926f63cef1","F1","batch6","pattern_show_trial_num","null","<p class=block-text>Trial 70 out of 78</p>","null","","","","","","","","","","","","","","","","","","","","","","","","","",""
"","","","","","image-keyboard-response","292","1905878","0.0-3.0-7.0-1.30","5f5550685e8dec926f63cef1","F1","batch6","pattern_response","2710.2999999523163","stim/yes_35_dia_b1.png","f","pattern_57","f","true","","","","2710.2999999523163","true","44","","","","","","","","","","","","","","","","",""
"","","","","","html-keyboard-response","293","1907187","0.0-3.0-7.0-0.31","5f5550685e8dec926f63cef1","F1","batch6","pattern_show_trial_num","null","<p class=block-text>Trial 71 out of 78</p>","null","","","","","","","","","","","","","","","","","","","","","","","","","",""
"","","","","","image-keyboard-response","294","1910640","0.0-3.0-7.0-1.31","5f5550685e8dec926f63cef1","F1","batch6","pattern_response","3451.300000190735","stim/yes_52_ver_w1.png","f","pattern_73","f","true","","","","3451.300000190735","true","45","","","","","","","","","","","","","","","","",""
"","","","","","html-keyboard-response","295","1911954","0.0-3.0-7.0-0.32","5f5550685e8dec926f63cef1","F1","batch6","pattern_show_trial_num","null","<p class=block-text>Trial 72 out of 78</p>","null","","","","","","","","","","","","","","","","","","","","","","","","","",""
"","","","","","image-keyboard-response","296","1915573","0.0-3.0-7.0-1.32","5f5550685e8dec926f63cef1","F1","batch6","pattern_response","3616","stim/no_26_1_w.png","j","pattern_10","j","true","","","","3616","true","46","","","","","","","","","","","","","","","","",""
"","","","","","html-keyboard-response","297","1916889","0.0-3.0-7.0-0.33","5f5550685e8dec926f63cef1","F1","batch6","pattern_show_trial_num","null","<p class=block-text>Trial 73 out of 78</p>","null","","","","","","","","","","","","","","","","","","","","","","","","","",""
"","","","","","image-keyboard-response","298","1917793","0.0-3.0-7.0-1.33","5f5550685e8dec926f63cef1","F1","batch6","pattern_response","901.5","stim/yes_60_ver_b1_b.png","f","pattern_77","f","true","","","","901.5","true","47","","","","","","","","","","","","","","","","",""
"","","","","","html-keyboard-response","299","1919109","0.0-3.0-7.0-0.34","5f5550685e8dec926f63cef1","F1","batch6","pattern_show_trial_num","null","<p class=block-text>Trial 74 out of 78</p>","null","","","","","","","","","","","","","","","","","","","","","","","","","",""
"","","","","","image-keyboard-response","300","1919722","0.0-3.0-7.0-1.34","5f5550685e8dec926f63cef1","F1","batch6","pattern_response","611.7000000476837","stim/no_42_1_w.png","f","pattern_22","j","false","","","","611.7000000476837","false","47","","","","","","","","","","","","","","","","",""
"","","","","","html-keyboard-response","301","1921028","0.0-3.0-7.0-0.35","5f5550685e8dec926f63cef1","F1","batch6","pattern_show_trial_num","null","<p class=block-text>Trial 75 out of 78</p>","null","","","","","","","","","","","","","","","","","","","","","","","","","",""
"","","","","","image-keyboard-response","302","1921740","0.0-3.0-7.0-1.35","5f5550685e8dec926f63cef1","F1","batch6","pattern_response","709.8999998569489","stim/yes_50_dia_w1.png","f","pattern_71","f","true","","","","709.8999998569489","true","48","","","","","","","","","","","","","","","","",""
"","","","","","html-keyboard-response","303","1923052","0.0-3.0-7.0-0.36","5f5550685e8dec926f63cef1","F1","batch6","pattern_show_trial_num","null","<p class=block-text>Trial 76 out of 78</p>","null","","","","","","","","","","","","","","","","","","","","","","","","","",""
"","","","","","image-keyboard-response","304","1923820","0.0-3.0-7.0-1.36","5f5550685e8dec926f63cef1","F1","batch6","pattern_response","765.8999998569489","stim/no_48_1_w.png","f","pattern_28","j","false","","","","765.8999998569489","false","48","","","","","","","","","","","","","","","","",""
"","","","","","html-keyboard-response","305","1925131","0.0-3.0-7.0-0.37","5f5550685e8dec926f63cef1","F1","batch6","pattern_show_trial_num","null","<p class=block-text>Trial 77 out of 78</p>","null","","","","","","","","","","","","","","","","","","","","","","","","","",""
"","","","","","image-keyboard-response","306","1927425","0.0-3.0-7.0-1.37","5f5550685e8dec926f63cef1","F1","batch6","pattern_response","2291.7000000476837","stim/no_50_1.png","f","pattern_30","j","false","","","","2291.7000000476837","false","48","","","","","","","","","","","","","","","","",""
"","","","","","html-keyboard-response","307","1928743","0.0-3.0-7.0-0.38","5f5550685e8dec926f63cef1","F1","batch6","pattern_show_trial_num","null","<p class=block-text>Trial 78 out of 78</p>","null","","","","","","","","","","","","","","","","","","","","","","","","","",""
"","","","","","image-keyboard-response","308","1930749","0.0-3.0-7.0-1.38","5f5550685e8dec926f63cef1","F1","batch6","pattern_response","2004.2999999523163","stim/yes_37_dia_w1.png","f","pattern_59","f","true","","","","2004.2999999523163","true","49","","","","","","","","","","","","","","","","",""
"","","","","","html-button-response","309","1934246","0.0-3.0-8.0","5f5550685e8dec926f63cef1","F1","batch6","","2988.5999999046326","<p class = block-text>This concludes the 4-in-a-row detection game.Thank you for your responses!<br>
            You responded correctly on 63% of the trials.<br>
            When you are ready, press ""Continue"" button to continue </p>","0","","","","","","","","","","","","","","","","","","","","","","","","","",""
"true","","","","","fullscreen","310","1937493","0.0-4.0-0.0","5f5550685e8dec926f63cef1","F1","batch6","","","","","","","","","","","","","","","","","","","","","","","","","","","","","",""
"","","","","","instructions","311","1954309","0.0-4.0-1.0-0.0-0.0","5f5550685e8dec926f63cef1","F1","batch6","tol-instructions","16815.5","","","","","","","","[{""page_index"":0,""viewing_time"":4340.699999809265},{""page_index"":1,""viewing_time"":2942.600000143051},{""page_index"":2,""viewing_time"":1932.8999998569489},{""page_index"":3,""viewing_time"":1863.1000001430511},{""page_index"":4,""viewing_time"":1588.3999998569489},{""page_index"":5,""viewing_time"":1522.6000001430511},{""page_index"":6,""viewing_time"":2624.899999856949}]","","","","","","","","","","","","","","","","","","","",""
"","","","","","html-button-response","312","1955128","0.0-4.0-1.0-1.0-0.0","5f5550685e8dec926f63cef1","F1","batch6","tol_enter_quiz","817.2999999523163","<p class=block-text> Let's answer a few questions <br>","0","","","","","","","","","","","","","","","","","","","","","","","","","",""
"","","","","","html-button-response","313","1957198","0.0-4.0-1.0-1.0-1.0","5f5550685e8dec926f63cef1","F1","batch6","tol_quiz","2069.0999999046326","<p class = block-text>True or False: You can only move the ball on top of a peg. <br></p>","0","","","true","","","","","","","","","","","","","","","","","","","","","","",""
"","","","","","html-button-response","314","1957993","0.0-4.0-1.0-1.0-2.0","5f5550685e8dec926f63cef1","F1","batch6","tol_quiz_feedback","793.5999999046326","<p class = block-text>Correct! You can only move the ball on top of a peg.</p>","0","","","","","","","","","","","","","","","","","","","","","","","","","",""
"","","","","","html-button-response","315","1961134","0.0-4.0-1.0-1.0-3.0","5f5550685e8dec926f63cef1","F1","batch6","tol_quiz","3139.699999809265","<p class = block-text>True or False: You should try to match your board with the target board with fewest moves possible. <br></p>","0","","","true","","","","","","","","","","","","","","","","","","","","","","",""
"","","","","","html-button-response","316","1961907","0.0-4.0-1.0-1.0-4.0","5f5550685e8dec926f63cef1","F1","batch6","tol_quiz_feedback","771.5","<p class = block-text>Correct! </p>","0","","","","","","","","","","","","","","","","","","","","","","","","","",""
"","","","","","html-button-response","317","1962776","0.0-4.0-2.0","5f5550685e8dec926f63cef1","F1","batch6","","868.2999999523163","<p class=block-text> Now that you've understood the game, let's practice a few easier examples before we start!<br> <br>","0","","","","","","","","","","","","","","","","","","","","","","","","","",""
"","","","","","single-stim-button","318","1966675","0.0-4.0-3.0-0.0","5f5550685e8dec926f63cef1","F1","batch6","tol_practice","3897","","","","","","","","","","","","","","tol_peg_2","3897","3897","0","[[1,2,0],[0,0],[0]]","1","[[1,2,0],[0,0],[3]]","practice","3897","","","","","",""
"","","","","","single-stim-button","319","1968444","0.0-4.0-3.0-1.0","5f5550685e8dec926f63cef1","F1","batch6","tol_practice","1769","","","","","","","","","","","","","","tol_peg_3","1769","1769","0","[[1,2,0],[0,0],[3]]","1","[[1,2,0],[0,0],[3]]","practice","1769","","","","","",""
"","","","","","poldrack-single-stim","320","1969446","0.0-4.0-4.0","5f5550685e8dec926f63cef1","F1","batch6","tol_feedback","-1","","","","","true","","","","","","","","","","1000","1000","500","","","","","","-1","none","true","","0",""
"","","","","","single-stim-button","321","1974195","0.0-4.0-5.0-0.0","5f5550685e8dec926f63cef1","F1","batch6","tol_practice","4747","","","","","","","","","","","","","","tol_peg_2","4747","4747","0","[[1,2,0],[0,0],[0]]","2","[[0,0,0],[3,1],[2]]","practice","4747","","","","","",""
"","","","","","single-stim-button","322","1975202","0.0-4.0-5.0-1.0","5f5550685e8dec926f63cef1","F1","batch6","tol_practice","1006","","","","","","","","","","","","","","tol_peg_3","1006","1006","0","[[1,2,0],[0,0],[3]]","2","[[0,0,0],[3,1],[2]]","practice","1006","","","","","",""
"","","","","","single-stim-button","323","1976537","0.0-4.0-5.1-0.1","5f5550685e8dec926f63cef1","F1","batch6","tol_practice","1335","","","","","","","","","","","","","","tol_peg_1","1335","1335","0","[[1,0,0],[0,0],[3]]","3","[[0,0,0],[3,1],[2]]","practice","1335","","","","","",""
"","","","","","single-stim-button","324","1978736","0.0-4.0-5.1-1.1","5f5550685e8dec926f63cef1","F1","batch6","tol_practice","2197","","","","","","","","","","","","","","tol_peg_2","2197","2197","0","[[1,0,0],[2,0],[3]]","3","[[0,0,0],[3,1],[2]]","practice","2197","","","","","",""
"","","","","","single-stim-button","325","1979156","0.0-4.0-5.2-0.2","5f5550685e8dec926f63cef1","F1","batch6","tol_practice","420","","","","","","","","","","","","","","tol_peg_3","420","420","0","[[1,0,0],[2,0],[0]]","4","[[0,0,0],[3,1],[2]]","practice","420","","","","","",""
"","","","","","single-stim-button","326","1980725","0.0-4.0-5.2-1.2","5f5550685e8dec926f63cef1","F1","batch6","tol_practice","1568","","","","","","","","","","","","","","tol_peg_2","1568","1568","0","[[1,0,0],[2,3],[0]]","4","[[0,0,0],[3,1],[2]]","practice","1568","","","","","",""
"","","","","","single-stim-button","327","1982946","0.0-4.0-5.3-0.3","5f5550685e8dec926f63cef1","F1","batch6","tol_practice","2220","","","","","","","","","","","","","","tol_peg_2","2220","2220","0","[[1,0,0],[2,0],[0]]","5","[[0,0,0],[3,1],[2]]","practice","2220","","","","","",""
"","","","","","single-stim-button","328","1984657","0.0-4.0-5.3-1.3","5f5550685e8dec926f63cef1","F1","batch6","tol_practice","1710","","","","","","","","","","","","","","tol_peg_1","1710","1710","0","[[1,3,0],[2,0],[0]]","5","[[0,0,0],[3,1],[2]]","practice","1710","","","","","",""
"","","","","","single-stim-button","329","1985286","0.0-4.0-5.4-0.4","5f5550685e8dec926f63cef1","F1","batch6","tol_practice","628","","","","","","","","","","","","","","tol_peg_2","628","628","0","[[1,3,0],[0,0],[0]]","6","[[0,0,0],[3,1],[2]]","practice","628","","","","","",""
"","","","","","single-stim-button","330","1985930","0.0-4.0-5.4-1.4","5f5550685e8dec926f63cef1","F1","batch6","tol_practice","642","","","","","","","","","","","","","","tol_peg_3","642","642","0","[[1,3,0],[0,0],[2]]","6","[[0,0,0],[3,1],[2]]","practice","642","","","","","",""
"","","","","","single-stim-button","331","1986846","0.0-4.0-5.5-0.5","5f5550685e8dec926f63cef1","F1","batch6","tol_practice","916","","","","","","","","","","","","","","tol_peg_1","916","916","0","[[1,0,0],[0,0],[2]]","7","[[0,0,0],[3,1],[2]]","practice","916","","","","","",""
"","","","","","single-stim-button","332","1987182","0.0-4.0-5.5-1.5","5f5550685e8dec926f63cef1","F1","batch6","tol_practice","336","","","","","","","","","","","","","","tol_peg_2","336","336","0","[[1,0,0],[3,0],[2]]","7","[[0,0,0],[3,1],[2]]","practice","336","","","","","",""
"","","","","","single-stim-button","333","1987439","0.0-4.0-5.6-0.6","5f5550685e8dec926f63cef1","F1","batch6","tol_practice","257","","","","","","","","","","","","","","tol_peg_2","257","257","0","[[1,0,0],[0,0],[2]]","8","[[0,0,0],[3,1],[2]]","practice","257","","","","","",""
"","","","","","single-stim-button","334","1987765","0.0-4.0-5.6-1.6","5f5550685e8dec926f63cef1","F1","batch6","tol_practice","326","","","","","","","","","","","","","","tol_peg_1","326","326","0","[[1,3,0],[0,0],[2]]","8","[[0,0,0],[3,1],[2]]","practice","326","","","","","",""
"","","","","","single-stim-button","335","1988474","0.0-4.0-5.7-0.7","5f5550685e8dec926f63cef1","F1","batch6","tol_practice","709","","","","","","","","","","","","","","tol_peg_1","709","709","0","[[1,0,0],[0,0],[2]]","9","[[0,0,0],[3,1],[2]]","practice","709","","","","","",""
"","","","","","single-stim-button","336","1989134","0.0-4.0-5.7-1.7","5f5550685e8dec926f63cef1","F1","batch6","tol_practice","659","","","","","","","","","","","","","","tol_peg_2","659","659","0","[[1,0,0],[3,0],[2]]","9","[[0,0,0],[3,1],[2]]","practice","659","","","","","",""
"","","","","","single-stim-button","337","1989633","0.0-4.0-5.8-0.8","5f5550685e8dec926f63cef1","F1","batch6","tol_practice","498","","","","","","","","","","","","","","tol_peg_1","498","498","0","[[0,0,0],[3,0],[2]]","10","[[0,0,0],[3,1],[2]]","practice","498","","","","","",""
"","","","","","single-stim-button","338","1990075","0.0-4.0-5.8-1.8","5f5550685e8dec926f63cef1","F1","batch6","tol_practice","442","","","","","","","","","","","","","","tol_peg_2","442","442","0","[[0,0,0],[3,1],[2]]","10","[[0,0,0],[3,1],[2]]","practice","442","","","","","",""
"","","","","","poldrack-single-stim","339","1991077","0.0-4.0-6.0","5f5550685e8dec926f63cef1","F1","batch6","tol_feedback","-1","","","","","true","","","","","","","","","","1000","1000","500","","","","","","-1","none","true","","0",""
"","","","","","single-stim-button","340","2014397","0.0-4.0-7.0-0.0","5f5550685e8dec926f63cef1","F1","batch6","tol_practice","23319","","","","","","","","","","","","","","tol_peg_2","23319","23319","0","[[1,2,0],[0,0],[0]]","11","[[1,0,0],[2,0],[3]]","practice","23319","","","","","",""
"","","","","","single-stim-button","341","2015084","0.0-4.0-7.0-1.0","5f5550685e8dec926f63cef1","F1","batch6","tol_practice","686","","","","","","","","","","","","","","tol_peg_3","686","686","0","[[1,2,0],[0,0],[3]]","11","[[1,0,0],[2,0],[3]]","practice","686","","","","","",""
"","","","","","single-stim-button","342","2015784","0.0-4.0-7.1-0.1","5f5550685e8dec926f63cef1","F1","batch6","tol_practice","700","","","","","","","","","","","","","","tol_peg_1","700","700","0","[[1,0,0],[0,0],[3]]","12","[[1,0,0],[2,0],[3]]","practice","700","","","","","",""
"","","","","","single-stim-button","343","2016288","0.0-4.0-7.1-1.1","5f5550685e8dec926f63cef1","F1","batch6","tol_practice","504","","","","","","","","","","","","","","tol_peg_2","504","504","0","[[1,0,0],[2,0],[3]]","12","[[1,0,0],[2,0],[3]]","practice","504","","","","","",""
"","","","","","poldrack-single-stim","344","2017289","0.0-4.0-8.0","5f5550685e8dec926f63cef1","F1","batch6","tol_feedback","-1","","","","","true","","","","","","","","","","1000","1000","500","","","","","","-1","none","true","","0",""
