"success","timeout","failed_images","failed_audio","failed_video","trial_type","trial_index","time_elapsed","internal_node_id","subject_id","study_id","session_id","view_history","rt","stimulus","response","task","correct","answer","item","fiar_detect_rt","fiar_detect_correct","total_correct_fiar_detect","post_trial_gap","choices","spm_correct","spm_rt","mouse_click","stim_duration","block_duration","timing_post_trial","current_position","tol_num_moves_made","tol_target","tol_problem_id","tol_rt","key_press","possible_responses","tol_correct","preplanning","tol_rt_per_trial","tol_min_moves"
"true","false","[]","[]","[]","preload","0","3048","0.0-0.0","5f5aa60bef062519ff711fe6","A3","batch1","","","","","","","","","","","","","","","","","","","","","","","","","","","","","",""
"true","","","","","fullscreen","1","28625","0.0-1.0-0.0","5f5aa60bef062519ff711fe6","A3","batch1","","","","","","","","","","","","","","","","","","","","","","","","","","","","","",""
"true","","","","","fullscreen","2","35076","0.0-2.0-0.0","5f5aa60bef062519ff711fe6","A3","batch1","","","","","","","","","","","","","","","","","","","","","","","","","","","","","",""
"","","","","","instructions","3","132660","0.0-2.0-1.0-0.0","5f5aa60bef062519ff711fe6","A3","batch1","[{""page_index"":0,""viewing_time"":81982.30000001192},{""page_index"":1,""viewing_time"":15600.59999999404}]","97583","","","","","","","","","","","","","","","","","","","","","","","","","","","",""
"","","","","","html-button-response","4","134261","0.0-2.0-1.0-1.0-0.0","5f5aa60bef062519ff711fe6","A3","batch1","","1600.7000000178814","<p class=block-text> Let's answer a few questions <br>","0","pattern_enter_quiz","","","","","","","","","","","","","","","","","","","","","","","","",""
"","","","","","html-button-response","5","137590","0.0-2.0-1.0-1.0-1.0","5f5aa60bef062519ff711fe6","A3","batch1","","3328.5","<p class = block-text>True or False: You will have as much time as you want to make each choice. <br></p>","1","pattern_quiz","true","","","","","","","","","","","","","","","","","","","","","","","",""
"","","","","","html-button-response","6","139223","0.0-2.0-1.0-1.0-2.0","5f5aa60bef062519ff711fe6","A3","batch1","","1631.300000011921","<p class = block-text>Correct! You should make your choice <strong> as fast as you can</strong>.</p>","0","pattern_quiz_feedback","","","","","","","","","","","","","","","","","","","","","","","","",""
"","","","","","html-button-response","7","145558","0.0-2.0-1.0-1.0-3.0","5f5aa60bef062519ff711fe6","A3","batch1","","6335.199999988079","<p class = block-text>True or False: You will look for 4 pieces in black or white color connected in a row either horizontally, vertically or diagonally. <br></p>","0","pattern_quiz","true","","","","","","","","","","","","","","","","","","","","","","","",""
"","","","","","html-button-response","8","146473","0.0-2.0-1.0-1.0-4.0","5f5aa60bef062519ff711fe6","A3","batch1","","914.5","<p class = block-text>Correct! </p>","0","pattern_quiz_feedback","","","","","","","","","","","","","","","","","","","","","","","","",""
"","","","","","html-button-response","9","150248","0.0-2.0-2.0","5f5aa60bef062519ff711fe6","A3","batch1","","3773.4000000059605","<p class=block-text> Now that you've understood the game, let's do a few practice trials before we start!<br> <br>","0","pattern_enter_practice","","","","","","","","","","","","","","","","","","","","","","","","",""
"","","","","","image-keyboard-response","10","151913","0.0-2.0-3.0-0.0","5f5aa60bef062519ff711fe6","A3","batch1","","1662.699999988079","stim/prac_yes_16_ver_w1.png","f","pattern_practice","true","f","","","","","","","","","","","","","","","","","","","","","","",""
"","","","","","html-keyboard-response","11","152943","0.0-2.0-3.0-1.0","5f5aa60bef062519ff711fe6","A3","batch1","","null","<p style=""font-size:30px;color:green;"">Correct!</p>","null","pattern_feedback","","","","","","","","","","","","","","","","","","","","","","","","",""
"","","","","","image-keyboard-response","12","155769","0.0-2.0-3.0-0.1","5f5aa60bef062519ff711fe6","A3","batch1","","2825.0999999940395","stim/prac_no_18_1.png","j","pattern_practice","true","j","","","","","","","","","","","","","","","","","","","","","","",""
"","","","","","html-keyboard-response","13","156775","0.0-2.0-3.0-1.1","5f5aa60bef062519ff711fe6","A3","batch1","","null","<p style=""font-size:30px;color:green;"">Correct!</p>","null","pattern_feedback","","","","","","","","","","","","","","","","","","","","","","","","",""
"","","","","","image-keyboard-response","14","160523","0.0-2.0-3.0-0.2","5f5aa60bef062519ff711fe6","A3","batch1","","3747","stim/prac_no_16_1.png","j","pattern_practice","true","j","","","","","","","","","","","","","","","","","","","","","","",""
"","","","","","html-keyboard-response","15","161551","0.0-2.0-3.0-1.2","5f5aa60bef062519ff711fe6","A3","batch1","","null","<p style=""font-size:30px;color:green;"">Correct!</p>","null","pattern_feedback","","","","","","","","","","","","","","","","","","","","","","","","",""
"","","","","","image-keyboard-response","16","162825","0.0-2.0-3.0-0.3","5f5aa60bef062519ff711fe6","A3","batch1","","1273.2999999821186","stim/prac_yes_20_dia_b1.png","f","pattern_practice","true","f","","","","","","","","","","","","","","","","","","","","","","",""
"","","","","","html-keyboard-response","17","163843","0.0-2.0-3.0-1.3","5f5aa60bef062519ff711fe6","A3","batch1","","null","<p style=""font-size:30px;color:green;"">Correct!</p>","null","pattern_feedback","","","","","","","","","","","","","","","","","","","","","","","","",""
"","","","","","image-keyboard-response","18","164660","0.0-2.0-3.0-0.4","5f5aa60bef062519ff711fe6","A3","batch1","","816.1999999880791","stim/prac_yes_18_hor_w1.png","f","pattern_practice","true","f","","","","","","","","","","","","","","","","","","","","","","",""
"","","","","","html-keyboard-response","19","165683","0.0-2.0-3.0-1.4","5f5aa60bef062519ff711fe6","A3","batch1","","null","<p style=""font-size:30px;color:green;"">Correct!</p>","null","pattern_feedback","","","","","","","","","","","","","","","","","","","","","","","","",""
"","","","","","html-button-response","20","173816","0.0-2.0-4.0","5f5aa60bef062519ff711fe6","A3","batch1","","8132.5999999940395","<p class=block-text> Good job! You are done with practice trials!<br>
        You responded correctly on 100% of the trials.<br>
        Press the button below to start official trials. Now you won't see any feedback about your response</p>","0","pattern_enter_official_trials","","","","","","","","","","","","","","","","","","","","","","","","",""
"","","","","","html-keyboard-response","21","174620","0.0-2.0-5.0-0.0","5f5aa60bef062519ff711fe6","A3","batch1","","null","<p class=block-text>Trial 1 out of 78</p>","null","pattern_show_trial_num","","","","","","","","","","","","","","","","","","","","","","","","",""
"","","","","","image-keyboard-response","22","175943","0.0-2.0-5.0-1.0","5f5aa60bef062519ff711fe6","A3","batch1","","1321.5","stim/yes_53_ver_b1_b.png","f","pattern_response","true","f","pattern_74","1321.5","true","1","","","","","","","","","","","","","","","","","","",""
"","","","","","html-keyboard-response","23","177267","0.0-2.0-5.0-0.1","5f5aa60bef062519ff711fe6","A3","batch1","","null","<p class=block-text>Trial 2 out of 78</p>","null","pattern_show_trial_num","","","","","","","","","","","","","","","","","","","","","","","","",""
"","","","","","image-keyboard-response","24","181665","0.0-2.0-5.0-1.1","5f5aa60bef062519ff711fe6","A3","batch1","","4397.100000023842","stim/no_33_1_b.png","j","pattern_response","true","j","pattern_15","4397.100000023842","true","2","","","","","","","","","","","","","","","","","","",""
"","","","","","html-keyboard-response","25","182975","0.0-2.0-5.0-0.2","5f5aa60bef062519ff711fe6","A3","batch1","","null","<p class=block-text>Trial 3 out of 78</p>","null","pattern_show_trial_num","","","","","","","","","","","","","","","","","","","","","","","","",""
"","","","","","image-keyboard-response","26","183982","0.0-2.0-5.0-1.2","5f5aa60bef062519ff711fe6","A3","batch1","","1006.0999999940395","stim/yes_30_ver_b1_b.png","f","pattern_response","true","f","pattern_54","1006.0999999940395","true","3","","","","","","","","","","","","","","","","","","",""
"","","","","","html-keyboard-response","27","185295","0.0-2.0-5.0-0.3","5f5aa60bef062519ff711fe6","A3","batch1","","null","<p class=block-text>Trial 4 out of 78</p>","null","pattern_show_trial_num","","","","","","","","","","","","","","","","","","","","","","","","",""
"","","","","","image-keyboard-response","28","190725","0.0-2.0-5.0-1.3","5f5aa60bef062519ff711fe6","A3","batch1","","5428.299999982119","stim/no_36_1_b.png","j","pattern_response","true","j","pattern_17","5428.299999982119","true","4","","","","","","","","","","","","","","","","","","",""
"","","","","","html-keyboard-response","29","192039","0.0-2.0-5.0-0.4","5f5aa60bef062519ff711fe6","A3","batch1","","null","<p class=block-text>Trial 5 out of 78</p>","null","pattern_show_trial_num","","","","","","","","","","","","","","","","","","","","","","","","",""
"","","","","","image-keyboard-response","30","202815","0.0-2.0-5.0-1.4","5f5aa60bef062519ff711fe6","A3","batch1","","10774.699999988079","stim/no_67_1.png","j","pattern_response","true","j","pattern_39","10774.699999988079","true","5","","","","","","","","","","","","","","","","","","",""
"","","","","","html-keyboard-response","31","204140","0.0-2.0-5.0-0.5","5f5aa60bef062519ff711fe6","A3","batch1","","null","<p class=block-text>Trial 6 out of 78</p>","null","pattern_show_trial_num","","","","","","","","","","","","","","","","","","","","","","","","",""
"","","","","","image-keyboard-response","32","207488","0.0-2.0-5.0-1.5","5f5aa60bef062519ff711fe6","A3","batch1","","3346.800000011921","stim/no_18_1_b.png","j","pattern_response","true","j","pattern_05","3346.800000011921","true","6","","","","","","","","","","","","","","","","","","",""
"","","","","","html-keyboard-response","33","208803","0.0-2.0-5.0-0.6","5f5aa60bef062519ff711fe6","A3","batch1","","null","<p class=block-text>Trial 7 out of 78</p>","null","pattern_show_trial_num","","","","","","","","","","","","","","","","","","","","","","","","",""
"","","","","","image-keyboard-response","34","211290","0.0-2.0-5.0-1.6","5f5aa60bef062519ff711fe6","A3","batch1","","2486.4000000059605","stim/yes_42_dia_w1_w.png","f","pattern_response","true","f","pattern_64","2486.4000000059605","true","7","","","","","","","","","","","","","","","","","","",""
"","","","","","html-keyboard-response","35","212608","0.0-2.0-5.0-0.7","5f5aa60bef062519ff711fe6","A3","batch1","","null","<p class=block-text>Trial 8 out of 78</p>","null","pattern_show_trial_num","","","","","","","","","","","","","","","","","","","","","","","","",""
"","","","","","image-keyboard-response","36","213488","0.0-2.0-5.0-1.7","5f5aa60bef062519ff711fe6","A3","batch1","","878.8000000119209","stim/yes_36_ver_w1_w.png","f","pattern_response","true","f","pattern_58","878.8000000119209","true","8","","","","","","","","","","","","","","","","","","",""
"","","","","","html-keyboard-response","37","214805","0.0-2.0-5.0-0.8","5f5aa60bef062519ff711fe6","A3","batch1","","null","<p class=block-text>Trial 9 out of 78</p>","null","pattern_show_trial_num","","","","","","","","","","","","","","","","","","","","","","","","",""
"","","","","","image-keyboard-response","38","221311","0.0-2.0-5.0-1.8","5f5aa60bef062519ff711fe6","A3","batch1","","6503.799999982119","stim/no_30_1_b.png","j","pattern_response","true","j","pattern_13","6503.799999982119","true","9","","","","","","","","","","","","","","","","","","",""
"","","","","","html-keyboard-response","39","222638","0.0-2.0-5.0-0.9","5f5aa60bef062519ff711fe6","A3","batch1","","null","<p class=block-text>Trial 10 out of 78</p>","null","pattern_show_trial_num","","","","","","","","","","","","","","","","","","","","","","","","",""
"","","","","","image-keyboard-response","40","223666","0.0-2.0-5.0-1.9","5f5aa60bef062519ff711fe6","A3","batch1","","1027","stim/yes_37_hor_w1_w.png","f","pattern_response","true","f","pattern_60","1027","true","10","","","","","","","","","","","","","","","","","","",""
"","","","","","html-keyboard-response","41","224989","0.0-2.0-5.0-0.10","5f5aa60bef062519ff711fe6","A3","batch1","","null","<p class=block-text>Trial 11 out of 78</p>","null","pattern_show_trial_num","","","","","","","","","","","","","","","","","","","","","","","","",""
"","","","","","image-keyboard-response","42","232861","0.0-2.0-5.0-1.10","5f5aa60bef062519ff711fe6","A3","batch1","","7871","stim/no_47_1_b.png","j","pattern_response","true","j","pattern_27","7871","true","11","","","","","","","","","","","","","","","","","","",""
"","","","","","html-keyboard-response","43","234190","0.0-2.0-5.0-0.11","5f5aa60bef062519ff711fe6","A3","batch1","","null","<p class=block-text>Trial 12 out of 78</p>","null","pattern_show_trial_num","","","","","","","","","","","","","","","","","","","","","","","","",""
"","","","","","image-keyboard-response","44","240098","0.0-2.0-5.0-1.11","5f5aa60bef062519ff711fe6","A3","batch1","","5906.800000011921","stim/no_28_2.png","j","pattern_response","true","j","pattern_11","5906.800000011921","true","12","","","","","","","","","","","","","","","","","","",""
"","","","","","html-keyboard-response","45","241424","0.0-2.0-5.0-0.12","5f5aa60bef062519ff711fe6","A3","batch1","","null","<p class=block-text>Trial 13 out of 78</p>","null","pattern_show_trial_num","","","","","","","","","","","","","","","","","","","","","","","","",""
"","","","","","image-keyboard-response","46","252518","0.0-2.0-5.0-1.12","5f5aa60bef062519ff711fe6","A3","batch1","","11093.299999982119","stim/yes_58_dia_w1_w.png","j","pattern_response","false","f","pattern_76","11093.299999982119","false","12","","","","","","","","","","","","","","","","","","",""
"","","","","","html-keyboard-response","47","253833","0.0-2.0-5.0-0.13","5f5aa60bef062519ff711fe6","A3","batch1","","null","<p class=block-text>Trial 14 out of 78</p>","null","pattern_show_trial_num","","","","","","","","","","","","","","","","","","","","","","","","",""
"","","","","","image-keyboard-response","48","254694","0.0-2.0-5.0-1.13","5f5aa60bef062519ff711fe6","A3","batch1","","859.5999999940395","stim/yes_29_hor_b1_b.png","f","pattern_response","true","f","pattern_52","859.5999999940395","true","13","","","","","","","","","","","","","","","","","","",""
"","","","","","html-keyboard-response","49","256010","0.0-2.0-5.0-0.14","5f5aa60bef062519ff711fe6","A3","batch1","","null","<p class=block-text>Trial 15 out of 78</p>","null","pattern_show_trial_num","","","","","","","","","","","","","","","","","","","","","","","","",""
"","","","","","image-keyboard-response","50","257086","0.0-2.0-5.0-1.14","5f5aa60bef062519ff711fe6","A3","batch1","","1074.5","stim/yes_49_hor_w1_b.png","f","pattern_response","true","f","pattern_70","1074.5","true","14","","","","","","","","","","","","","","","","","","",""
"","","","","","html-keyboard-response","51","258405","0.0-2.0-5.0-0.15","5f5aa60bef062519ff711fe6","A3","batch1","","null","<p class=block-text>Trial 16 out of 78</p>","null","pattern_show_trial_num","","","","","","","","","","","","","","","","","","","","","","","","",""
"","","","","","image-keyboard-response","52","263791","0.0-2.0-5.0-1.15","5f5aa60bef062519ff711fe6","A3","batch1","","5385.199999988079","stim/no_39_1_w.png","j","pattern_response","true","j","pattern_21","5385.199999988079","true","15","","","","","","","","","","","","","","","","","","",""
"","","","","","html-keyboard-response","53","265108","0.0-2.0-5.0-0.16","5f5aa60bef062519ff711fe6","A3","batch1","","null","<p class=block-text>Trial 17 out of 78</p>","null","pattern_show_trial_num","","","","","","","","","","","","","","","","","","","","","","","","",""
"","","","","","image-keyboard-response","54","267729","0.0-2.0-5.0-1.16","5f5aa60bef062519ff711fe6","A3","batch1","","2620.5","stim/yes_51_dia_b1.png","f","pattern_response","true","f","pattern_72","2620.5","true","16","","","","","","","","","","","","","","","","","","",""
"","","","","","html-keyboard-response","55","269056","0.0-2.0-5.0-0.17","5f5aa60bef062519ff711fe6","A3","batch1","","null","<p class=block-text>Trial 18 out of 78</p>","null","pattern_show_trial_num","","","","","","","","","","","","","","","","","","","","","","","","",""
"","","","","","image-keyboard-response","56","270016","0.0-2.0-5.0-1.17","5f5aa60bef062519ff711fe6","A3","batch1","","959.3000000119209","stim/yes_70_ver_b1.png","f","pattern_response","true","f","pattern_80","959.3000000119209","true","17","","","","","","","","","","","","","","","","","","",""
"","","","","","html-keyboard-response","57","271337","0.0-2.0-5.0-0.18","5f5aa60bef062519ff711fe6","A3","batch1","","null","<p class=block-text>Trial 19 out of 78</p>","null","pattern_show_trial_num","","","","","","","","","","","","","","","","","","","","","","","","",""
"","","","","","image-keyboard-response","58","273353","0.0-2.0-5.0-1.18","5f5aa60bef062519ff711fe6","A3","batch1","","2014.7000000178814","stim/yes_44_ver_w1_w.png","f","pattern_response","true","f","pattern_66","2014.7000000178814","true","18","","","","","","","","","","","","","","","","","","",""
"","","","","","html-keyboard-response","59","274663","0.0-2.0-5.0-0.19","5f5aa60bef062519ff711fe6","A3","batch1","","null","<p class=block-text>Trial 20 out of 78</p>","null","pattern_show_trial_num","","","","","","","","","","","","","","","","","","","","","","","","",""
"","","","","","image-keyboard-response","60","281686","0.0-2.0-5.0-1.19","5f5aa60bef062519ff711fe6","A3","batch1","","7021.899999976158","stim/no_43_2_b.png","j","pattern_response","true","j","pattern_23","7021.899999976158","true","19","","","","","","","","","","","","","","","","","","",""
"","","","","","html-keyboard-response","61","283006","0.0-2.0-5.0-0.20","5f5aa60bef062519ff711fe6","A3","batch1","","null","<p class=block-text>Trial 21 out of 78</p>","null","pattern_show_trial_num","","","","","","","","","","","","","","","","","","","","","","","","",""
"","","","","","image-keyboard-response","62","284491","0.0-2.0-5.0-1.20","5f5aa60bef062519ff711fe6","A3","batch1","","1483.6000000238419","stim/yes_33_dia_w1_w.png","f","pattern_response","true","f","pattern_56","1483.6000000238419","true","20","","","","","","","","","","","","","","","","","","",""
"","","","","","html-keyboard-response","63","285808","0.0-2.0-5.0-0.21","5f5aa60bef062519ff711fe6","A3","batch1","","null","<p class=block-text>Trial 22 out of 78</p>","null","pattern_show_trial_num","","","","","","","","","","","","","","","","","","","","","","","","",""
"","","","","","image-keyboard-response","64","291706","0.0-2.0-5.0-1.21","5f5aa60bef062519ff711fe6","A3","batch1","","5896.9000000059605","stim/yes_63_dia_b1.png","f","pattern_response","true","f","pattern_78","5896.9000000059605","true","21","","","","","","","","","","","","","","","","","","",""
"","","","","","html-keyboard-response","65","293031","0.0-2.0-5.0-0.22","5f5aa60bef062519ff711fe6","A3","batch1","","null","<p class=block-text>Trial 23 out of 78</p>","null","pattern_show_trial_num","","","","","","","","","","","","","","","","","","","","","","","","",""
"","","","","","image-keyboard-response","66","293993","0.0-2.0-5.0-1.22","5f5aa60bef062519ff711fe6","A3","batch1","","960.6999999880791","stim/yes_26_dia_w2_w.png","f","pattern_response","true","f","pattern_50","960.6999999880791","true","22","","","","","","","","","","","","","","","","","","",""
"","","","","","html-keyboard-response","67","295318","0.0-2.0-5.0-0.23","5f5aa60bef062519ff711fe6","A3","batch1","","null","<p class=block-text>Trial 24 out of 78</p>","null","pattern_show_trial_num","","","","","","","","","","","","","","","","","","","","","","","","",""
"","","","","","image-keyboard-response","68","302071","0.0-2.0-5.0-1.23","5f5aa60bef062519ff711fe6","A3","batch1","","6752.0999999940395","stim/no_45_1_w.png","j","pattern_response","true","j","pattern_25","6752.0999999940395","true","23","","","","","","","","","","","","","","","","","","",""
"","","","","","html-keyboard-response","69","303388","0.0-2.0-5.0-0.24","5f5aa60bef062519ff711fe6","A3","batch1","","null","<p class=block-text>Trial 25 out of 78</p>","null","pattern_show_trial_num","","","","","","","","","","","","","","","","","","","","","","","","",""
"","","","","","image-keyboard-response","70","309466","0.0-2.0-5.0-1.24","5f5aa60bef062519ff711fe6","A3","batch1","","6077.100000023842","stim/no_37_2_w.png","j","pattern_response","true","j","pattern_19","6077.100000023842","true","24","","","","","","","","","","","","","","","","","","",""
"","","","","","html-keyboard-response","71","310792","0.0-2.0-5.0-0.25","5f5aa60bef062519ff711fe6","A3","batch1","","null","<p class=block-text>Trial 26 out of 78</p>","null","pattern_show_trial_num","","","","","","","","","","","","","","","","","","","","","","","","",""
"","","","","","image-keyboard-response","72","319021","0.0-2.0-5.0-1.25","5f5aa60bef062519ff711fe6","A3","batch1","","8228.100000023842","stim/no_53_1_b.png","j","pattern_response","true","j","pattern_33","8228.100000023842","true","25","","","","","","","","","","","","","","","","","","",""
"","","","","","html-keyboard-response","73","320336","0.0-2.0-5.0-0.26","5f5aa60bef062519ff711fe6","A3","batch1","","null","<p class=block-text>Trial 27 out of 78</p>","null","pattern_show_trial_num","","","","","","","","","","","","","","","","","","","","","","","","",""
"","","","","","image-keyboard-response","74","322561","0.0-2.0-5.0-1.26","5f5aa60bef062519ff711fe6","A3","batch1","","2223.699999988079","stim/no_15_1_w.png","j","pattern_response","true","j","pattern_03","2223.699999988079","true","26","","","","","","","","","","","","","","","","","","",""
"","","","","","html-keyboard-response","75","323885","0.0-2.0-5.0-0.27","5f5aa60bef062519ff711fe6","A3","batch1","","null","<p class=block-text>Trial 28 out of 78</p>","null","pattern_show_trial_num","","","","","","","","","","","","","","","","","","","","","","","","",""
"","","","","","image-keyboard-response","76","324909","0.0-2.0-5.0-1.27","5f5aa60bef062519ff711fe6","A3","batch1","","1023.3000000119209","stim/yes_46_ver_b1_b.png","f","pattern_response","true","f","pattern_68","1023.3000000119209","true","27","","","","","","","","","","","","","","","","","","",""
"","","","","","html-keyboard-response","77","326236","0.0-2.0-5.0-0.28","5f5aa60bef062519ff711fe6","A3","batch1","","null","<p class=block-text>Trial 29 out of 78</p>","null","pattern_show_trial_num","","","","","","","","","","","","","","","","","","","","","","","","",""
"","","","","","image-keyboard-response","78","327676","0.0-2.0-5.0-1.28","5f5aa60bef062519ff711fe6","A3","batch1","","1439","stim/yes_23_ver_b1.png","f","pattern_response","true","f","pattern_48","1439","true","28","","","","","","","","","","","","","","","","","","",""
"","","","","","html-keyboard-response","79","328999","0.0-2.0-5.0-0.29","5f5aa60bef062519ff711fe6","A3","batch1","","null","<p class=block-text>Trial 30 out of 78</p>","null","pattern_show_trial_num","","","","","","","","","","","","","","","","","","","","","","","","",""
"","","","","","image-keyboard-response","80","329821","0.0-2.0-5.0-1.29","5f5aa60bef062519ff711fe6","A3","batch1","","821.5","stim/yes_15_dia_b1u_b.png","f","pattern_response","true","f","pattern_44","821.5","true","29","","","","","","","","","","","","","","","","","","",""
"","","","","","html-keyboard-response","81","331137","0.0-2.0-5.0-0.30","5f5aa60bef062519ff711fe6","A3","batch1","","null","<p class=block-text>Trial 31 out of 78</p>","null","pattern_show_trial_num","","","","","","","","","","","","","","","","","","","","","","","","",""
"","","","","","image-keyboard-response","82","331974","0.0-2.0-5.0-1.30","5f5aa60bef062519ff711fe6","A3","batch1","","836.0999999940395","stim/yes_12_hor_w1_w.png","f","pattern_response","true","f","pattern_42","836.0999999940395","true","30","","","","","","","","","","","","","","","","","","",""
"","","","","","html-keyboard-response","83","333293","0.0-2.0-5.0-0.31","5f5aa60bef062519ff711fe6","A3","batch1","","null","<p class=block-text>Trial 32 out of 78</p>","null","pattern_show_trial_num","","","","","","","","","","","","","","","","","","","","","","","","",""
"","","","","","image-keyboard-response","84","337441","0.0-2.0-5.0-1.31","5f5aa60bef062519ff711fe6","A3","batch1","","4146.800000011921","stim/no_12_1.png","j","pattern_response","true","j","pattern_01","4146.800000011921","true","31","","","","","","","","","","","","","","","","","","",""
"","","","","","html-keyboard-response","85","338756","0.0-2.0-5.0-0.32","5f5aa60bef062519ff711fe6","A3","batch1","","null","<p class=block-text>Trial 33 out of 78</p>","null","pattern_show_trial_num","","","","","","","","","","","","","","","","","","","","","","","","",""
"","","","","","image-keyboard-response","86","347080","0.0-2.0-5.0-1.32","5f5aa60bef062519ff711fe6","A3","batch1","","8322.5","stim/no_49_2_b.png","j","pattern_response","true","j","pattern_29","8322.5","true","32","","","","","","","","","","","","","","","","","","",""
"","","","","","html-keyboard-response","87","348406","0.0-2.0-5.0-0.33","5f5aa60bef062519ff711fe6","A3","batch1","","null","<p class=block-text>Trial 34 out of 78</p>","null","pattern_show_trial_num","","","","","","","","","","","","","","","","","","","","","","","","",""
"","","","","","image-keyboard-response","88","356866","0.0-2.0-5.0-1.33","5f5aa60bef062519ff711fe6","A3","batch1","","8458.5","stim/no_58_1_w.png","j","pattern_response","true","j","pattern_35","8458.5","true","33","","","","","","","","","","","","","","","","","","",""
"","","","","","html-keyboard-response","89","358195","0.0-2.0-5.0-0.34","5f5aa60bef062519ff711fe6","A3","batch1","","null","<p class=block-text>Trial 35 out of 78</p>","null","pattern_show_trial_num","","","","","","","","","","","","","","","","","","","","","","","","",""
"","","","","","image-keyboard-response","90","366616","0.0-2.0-5.0-1.34","5f5aa60bef062519ff711fe6","A3","batch1","","8419.399999976158","stim/no_51_1.png","j","pattern_response","true","j","pattern_31","8419.399999976158","true","34","","","","","","","","","","","","","","","","","","",""
"","","","","","html-keyboard-response","91","367931","0.0-2.0-5.0-0.35","5f5aa60bef062519ff711fe6","A3","batch1","","null","<p class=block-text>Trial 36 out of 78</p>","null","pattern_show_trial_num","","","","","","","","","","","","","","","","","","","","","","","","",""
"","","","","","image-keyboard-response","92","369316","0.0-2.0-5.0-1.35","5f5aa60bef062519ff711fe6","A3","batch1","","1384","stim/yes_17_ver_b1_b.png","f","pattern_response","true","f","pattern_46","1384","true","35","","","","","","","","","","","","","","","","","","",""
"","","","","","html-keyboard-response","93","370636","0.0-2.0-5.0-0.36","5f5aa60bef062519ff711fe6","A3","batch1","","null","<p class=block-text>Trial 37 out of 78</p>","null","pattern_show_trial_num","","","","","","","","","","","","","","","","","","","","","","","","",""
"","","","","","image-keyboard-response","94","371649","0.0-2.0-5.0-1.36","5f5aa60bef062519ff711fe6","A3","batch1","","1012.6000000238419","stim/yes_39_hor_w1_w.png","f","pattern_response","true","f","pattern_62","1012.6000000238419","true","36","","","","","","","","","","","","","","","","","","",""
"","","","","","html-keyboard-response","95","372972","0.0-2.0-5.0-0.37","5f5aa60bef062519ff711fe6","A3","batch1","","null","<p class=block-text>Trial 38 out of 78</p>","null","pattern_show_trial_num","","","","","","","","","","","","","","","","","","","","","","","","",""
"","","","","","image-keyboard-response","96","376261","0.0-2.0-5.0-1.37","5f5aa60bef062519ff711fe6","A3","batch1","","3288.5","stim/no_22_1_b.png","j","pattern_response","true","j","pattern_07","3288.5","true","37","","","","","","","","","","","","","","","","","","",""
"","","","","","html-keyboard-response","97","377575","0.0-2.0-5.0-0.38","5f5aa60bef062519ff711fe6","A3","batch1","","null","<p class=block-text>Trial 39 out of 78</p>","null","pattern_show_trial_num","","","","","","","","","","","","","","","","","","","","","","","","",""
"","","","","","image-keyboard-response","98","382404","0.0-2.0-5.0-1.38","5f5aa60bef062519ff711fe6","A3","batch1","","4828.700000017881","stim/no_25_1_b.png","j","pattern_response","true","j","pattern_09","4828.700000017881","true","38","","","","","","","","","","","","","","","","","","",""
"","","","","","image-keyboard-response","99","388973","0.0-2.0-6.0","5f5aa60bef062519ff711fe6","A3","batch1","","6052.9000000059605","stim/empty_board.png","j","attention_check","true","j","","","","","500","[""f"",""j""]","","","","","","","","","","","","","","","","",""
"","","","","","html-keyboard-response","100","389787","0.0-2.0-7.0-0.0","5f5aa60bef062519ff711fe6","A3","batch1","","null","<p class=block-text>Trial 40 out of 78</p>","null","pattern_show_trial_num","","","","","","","","","","","","","","","","","","","","","","","","",""
"","","","","","image-keyboard-response","101","397486","0.0-2.0-7.0-1.0","5f5aa60bef062519ff711fe6","A3","batch1","","7698","stim/no_55_1_w.png","j","pattern_response","true","j","pattern_34","7698","true","39","","","","","","","","","","","","","","","","","","",""
"","","","","","html-keyboard-response","102","398803","0.0-2.0-7.0-0.1","5f5aa60bef062519ff711fe6","A3","batch1","","null","<p class=block-text>Trial 41 out of 78</p>","null","pattern_show_trial_num","","","","","","","","","","","","","","","","","","","","","","","","",""
"","","","","","image-keyboard-response","103","410663","0.0-2.0-7.0-1.1","5f5aa60bef062519ff711fe6","A3","batch1","","11859.799999982119","stim/no_70_2.png","j","pattern_response","true","j","pattern_40","11859.799999982119","true","40","","","","","","","","","","","","","","","","","","",""
"","","","","","html-keyboard-response","104","411980","0.0-2.0-7.0-0.2","5f5aa60bef062519ff711fe6","A3","batch1","","null","<p class=block-text>Trial 42 out of 78</p>","null","pattern_show_trial_num","","","","","","","","","","","","","","","","","","","","","","","","",""
"","","","","","image-keyboard-response","105","414323","0.0-2.0-7.0-1.2","5f5aa60bef062519ff711fe6","A3","batch1","","2342.300000011921","stim/no_17_1_w.png","j","pattern_response","true","j","pattern_04","2342.300000011921","true","41","","","","","","","","","","","","","","","","","","",""
"","","","","","html-keyboard-response","106","415653","0.0-2.0-7.0-0.3","5f5aa60bef062519ff711fe6","A3","batch1","","null","<p class=block-text>Trial 43 out of 78</p>","null","pattern_show_trial_num","","","","","","","","","","","","","","","","","","","","","","","","",""
"","","","","","image-keyboard-response","107","416565","0.0-2.0-7.0-1.3","5f5aa60bef062519ff711fe6","A3","batch1","","911.3000000119209","stim/yes_28_ver_b1.png","f","pattern_response","true","f","pattern_51","911.3000000119209","true","42","","","","","","","","","","","","","","","","","","",""
"","","","","","html-keyboard-response","108","417881","0.0-2.0-7.0-0.4","5f5aa60bef062519ff711fe6","A3","batch1","","null","<p class=block-text>Trial 44 out of 78</p>","null","pattern_show_trial_num","","","","","","","","","","","","","","","","","","","","","","","","",""
"","","","","","image-keyboard-response","109","419130","0.0-2.0-7.0-1.4","5f5aa60bef062519ff711fe6","A3","batch1","","1247.9000000059605","stim/yes_40_dia_b1_b.png","f","pattern_response","true","f","pattern_63","1247.9000000059605","true","43","","","","","","","","","","","","","","","","","","",""
"","","","","","html-keyboard-response","110","420441","0.0-2.0-7.0-0.5","5f5aa60bef062519ff711fe6","A3","batch1","","null","<p class=block-text>Trial 45 out of 78</p>","null","pattern_show_trial_num","","","","","","","","","","","","","","","","","","","","","","","","",""
"","","","","","image-keyboard-response","111","424568","0.0-2.0-7.0-1.5","5f5aa60bef062519ff711fe6","A3","batch1","","4125.300000011921","stim/no_32_1_w.png","j","pattern_response","true","j","pattern_14","4125.300000011921","true","44","","","","","","","","","","","","","","","","","","",""
"","","","","","html-keyboard-response","112","425880","0.0-2.0-7.0-0.6","5f5aa60bef062519ff711fe6","A3","batch1","","null","<p class=block-text>Trial 46 out of 78</p>","null","pattern_show_trial_num","","","","","","","","","","","","","","","","","","","","","","","","",""
"","","","","","image-keyboard-response","113","432295","0.0-2.0-7.0-1.6","5f5aa60bef062519ff711fe6","A3","batch1","","6413.800000011921","stim/no_52_1.png","j","pattern_response","true","j","pattern_32","6413.800000011921","true","45","","","","","","","","","","","","","","","","","","",""
"","","","","","html-keyboard-response","114","433617","0.0-2.0-7.0-0.7","5f5aa60bef062519ff711fe6","A3","batch1","","null","<p class=block-text>Trial 47 out of 78</p>","null","pattern_show_trial_num","","","","","","","","","","","","","","","","","","","","","","","","",""
"","","","","","image-keyboard-response","115","440603","0.0-2.0-7.0-1.7","5f5aa60bef062519ff711fe6","A3","batch1","","6984.9000000059605","stim/yes_50_dia_w1.png","f","pattern_response","true","f","pattern_71","6984.9000000059605","true","46","","","","","","","","","","","","","","","","","","",""
"","","","","","html-keyboard-response","116","441917","0.0-2.0-7.0-0.8","5f5aa60bef062519ff711fe6","A3","batch1","","null","<p class=block-text>Trial 48 out of 78</p>","null","pattern_show_trial_num","","","","","","","","","","","","","","","","","","","","","","","","",""
"","","","","","image-keyboard-response","117","443610","0.0-2.0-7.0-1.8","5f5aa60bef062519ff711fe6","A3","batch1","","1691.199999988079","stim/yes_67_hor_b1.png","f","pattern_response","true","f","pattern_79","1691.199999988079","true","47","","","","","","","","","","","","","","","","","","",""
"","","","","","html-keyboard-response","118","444923","0.0-2.0-7.0-0.9","5f5aa60bef062519ff711fe6","A3","batch1","","null","<p class=block-text>Trial 49 out of 78</p>","null","pattern_show_trial_num","","","","","","","","","","","","","","","","","","","","","","","","",""
"","","","","","image-keyboard-response","119","449565","0.0-2.0-7.0-1.9","5f5aa60bef062519ff711fe6","A3","batch1","","4641.5","stim/no_42_1_w.png","j","pattern_response","true","j","pattern_22","4641.5","true","48","","","","","","","","","","","","","","","","","","",""
"","","","","","html-keyboard-response","120","450876","0.0-2.0-7.0-0.10","5f5aa60bef062519ff711fe6","A3","batch1","","null","<p class=block-text>Trial 50 out of 78</p>","null","pattern_show_trial_num","","","","","","","","","","","","","","","","","","","","","","","","",""
"","","","","","image-keyboard-response","121","452490","0.0-2.0-7.0-1.10","5f5aa60bef062519ff711fe6","A3","batch1","","1613","stim/yes_38_hor_b1_b.png","f","pattern_response","true","f","pattern_61","1613","true","49","","","","","","","","","","","","","","","","","","",""
"","","","","","html-keyboard-response","122","453814","0.0-2.0-7.0-0.11","5f5aa60bef062519ff711fe6","A3","batch1","","null","<p class=block-text>Trial 51 out of 78</p>","null","pattern_show_trial_num","","","","","","","","","","","","","","","","","","","","","","","","",""
"","","","","","image-keyboard-response","123","459368","0.0-2.0-7.0-1.11","5f5aa60bef062519ff711fe6","A3","batch1","","5553.5","stim/no_34_1_b.png","j","pattern_response","true","j","pattern_16","5553.5","true","50","","","","","","","","","","","","","","","","","","",""
"","","","","","html-keyboard-response","124","460694","0.0-2.0-7.0-0.12","5f5aa60bef062519ff711fe6","A3","batch1","","null","<p class=block-text>Trial 52 out of 78</p>","null","pattern_show_trial_num","","","","","","","","","","","","","","","","","","","","","","","","",""
"","","","","","image-keyboard-response","125","468736","0.0-2.0-7.0-1.12","5f5aa60bef062519ff711fe6","A3","batch1","","8040.5","stim/no_62_1_w.png","j","pattern_response","true","j","pattern_36","8040.5","true","51","","","","","","","","","","","","","","","","","","",""
"","","","","","html-keyboard-response","126","470051","0.0-2.0-7.0-0.13","5f5aa60bef062519ff711fe6","A3","batch1","","null","<p class=block-text>Trial 53 out of 78</p>","null","pattern_show_trial_num","","","","","","","","","","","","","","","","","","","","","","","","",""
"","","","","","image-keyboard-response","127","476184","0.0-2.0-7.0-1.13","5f5aa60bef062519ff711fe6","A3","batch1","","6131.5999999940395","stim/no_46_1_b.png","j","pattern_response","true","j","pattern_26","6131.5999999940395","true","52","","","","","","","","","","","","","","","","","","",""
"","","","","","html-keyboard-response","128","477497","0.0-2.0-7.0-0.14","5f5aa60bef062519ff711fe6","A3","batch1","","null","<p class=block-text>Trial 54 out of 78</p>","null","pattern_show_trial_num","","","","","","","","","","","","","","","","","","","","","","","","",""
"","","","","","image-keyboard-response","129","484238","0.0-2.0-7.0-1.14","5f5aa60bef062519ff711fe6","A3","batch1","","6739.0999999940395","stim/no_44_1.png","j","pattern_response","true","j","pattern_24","6739.0999999940395","true","53","","","","","","","","","","","","","","","","","","",""
"","","","","","html-keyboard-response","130","485546","0.0-2.0-7.0-0.15","5f5aa60bef062519ff711fe6","A3","batch1","","null","<p class=block-text>Trial 55 out of 78</p>","null","pattern_show_trial_num","","","","","","","","","","","","","","","","","","","","","","","","",""
"","","","","","image-keyboard-response","131","493681","0.0-2.0-7.0-1.15","5f5aa60bef062519ff711fe6","A3","batch1","","8133.799999982119","stim/yes_60_ver_b1_b.png","f","pattern_response","true","f","pattern_77","8133.799999982119","true","54","","","","","","","","","","","","","","","","","","",""
"","","","","","html-keyboard-response","132","494998","0.0-2.0-7.0-0.16","5f5aa60bef062519ff711fe6","A3","batch1","","null","<p class=block-text>Trial 56 out of 78</p>","null","pattern_show_trial_num","","","","","","","","","","","","","","","","","","","","","","","","",""
"","","","","","image-keyboard-response","133","495841","0.0-2.0-7.0-1.16","5f5aa60bef062519ff711fe6","A3","batch1","","842","stim/yes_14_hor_b1_w.png","f","pattern_response","true","f","pattern_43","842","true","55","","","","","","","","","","","","","","","","","","",""
"","","","","","html-keyboard-response","134","497162","0.0-2.0-7.0-0.17","5f5aa60bef062519ff711fe6","A3","batch1","","null","<p class=block-text>Trial 57 out of 78</p>","null","pattern_show_trial_num","","","","","","","","","","","","","","","","","","","","","","","","",""
"","","","","","image-keyboard-response","135","501474","0.0-2.0-7.0-1.17","5f5aa60bef062519ff711fe6","A3","batch1","","4310.9000000059605","stim/yes_31_hor_b1.png","f","pattern_response","true","f","pattern_55","4310.9000000059605","true","56","","","","","","","","","","","","","","","","","","",""
"","","","","","html-keyboard-response","136","502791","0.0-2.0-7.0-0.18","5f5aa60bef062519ff711fe6","A3","batch1","","null","<p class=block-text>Trial 58 out of 78</p>","null","pattern_show_trial_num","","","","","","","","","","","","","","","","","","","","","","","","",""
"","","","","","image-keyboard-response","137","506776","0.0-2.0-7.0-1.18","5f5aa60bef062519ff711fe6","A3","batch1","","3983.4000000059605","stim/yes_43_ver_w1_w.png","f","pattern_response","true","f","pattern_65","3983.4000000059605","true","57","","","","","","","","","","","","","","","","","","",""
"","","","","","html-keyboard-response","138","508088","0.0-2.0-7.0-0.19","5f5aa60bef062519ff711fe6","A3","batch1","","null","<p class=block-text>Trial 59 out of 78</p>","null","pattern_show_trial_num","","","","","","","","","","","","","","","","","","","","","","","","",""
"","","","","","image-keyboard-response","139","509513","0.0-2.0-7.0-1.19","5f5aa60bef062519ff711fe6","A3","batch1","","1423.6000000238419","stim/yes_35_dia_b1.png","f","pattern_response","true","f","pattern_57","1423.6000000238419","true","58","","","","","","","","","","","","","","","","","","",""
"","","","","","html-keyboard-response","140","510834","0.0-2.0-7.0-0.20","5f5aa60bef062519ff711fe6","A3","batch1","","null","<p class=block-text>Trial 60 out of 78</p>","null","pattern_show_trial_num","","","","","","","","","","","","","","","","","","","","","","","","",""
"","","","","","image-keyboard-response","141","513458","0.0-2.0-7.0-1.20","5f5aa60bef062519ff711fe6","A3","batch1","","2622.399999976158","stim/yes_37_dia_w1.png","f","pattern_response","true","f","pattern_59","2622.399999976158","true","59","","","","","","","","","","","","","","","","","","",""
"","","","","","html-keyboard-response","142","514775","0.0-2.0-7.0-0.21","5f5aa60bef062519ff711fe6","A3","batch1","","null","<p class=block-text>Trial 61 out of 78</p>","null","pattern_show_trial_num","","","","","","","","","","","","","","","","","","","","","","","","",""
"","","","","","image-keyboard-response","143","518101","0.0-2.0-7.0-1.21","5f5aa60bef062519ff711fe6","A3","batch1","","3324.4000000059605","stim/no_26_1_w.png","j","pattern_response","true","j","pattern_10","3324.4000000059605","true","60","","","","","","","","","","","","","","","","","","",""
"","","","","","html-keyboard-response","144","519415","0.0-2.0-7.0-0.22","5f5aa60bef062519ff711fe6","A3","batch1","","null","<p class=block-text>Trial 62 out of 78</p>","null","pattern_show_trial_num","","","","","","","","","","","","","","","","","","","","","","","","",""
"","","","","","image-keyboard-response","145","521122","0.0-2.0-7.0-1.22","5f5aa60bef062519ff711fe6","A3","batch1","","1706.7999999821186","stim/yes_29_ver_w1.png","f","pattern_response","true","f","pattern_53","1706.7999999821186","true","61","","","","","","","","","","","","","","","","","","",""
"","","","","","html-keyboard-response","146","522447","0.0-2.0-7.0-0.23","5f5aa60bef062519ff711fe6","A3","batch1","","null","<p class=block-text>Trial 63 out of 78</p>","null","pattern_show_trial_num","","","","","","","","","","","","","","","","","","","","","","","","",""
"","","","","","image-keyboard-response","147","531188","0.0-2.0-7.0-1.23","5f5aa60bef062519ff711fe6","A3","batch1","","8740","stim/no_50_1.png","j","pattern_response","true","j","pattern_30","8740","true","62","","","","","","","","","","","","","","","","","","",""
"","","","","","html-keyboard-response","148","532509","0.0-2.0-7.0-0.24","5f5aa60bef062519ff711fe6","A3","batch1","","null","<p class=block-text>Trial 64 out of 78</p>","null","pattern_show_trial_num","","","","","","","","","","","","","","","","","","","","","","","","",""
"","","","","","image-keyboard-response","149","533828","0.0-2.0-7.0-1.24","5f5aa60bef062519ff711fe6","A3","batch1","","1317.9000000059605","stim/yes_52_ver_w1.png","f","pattern_response","true","f","pattern_73","1317.9000000059605","true","63","","","","","","","","","","","","","","","","","","",""
"","","","","","html-keyboard-response","150","535151","0.0-2.0-7.0-0.25","5f5aa60bef062519ff711fe6","A3","batch1","","null","<p class=block-text>Trial 65 out of 78</p>","null","pattern_show_trial_num","","","","","","","","","","","","","","","","","","","","","","","","",""
"","","","","","image-keyboard-response","151","538223","0.0-2.0-7.0-1.25","5f5aa60bef062519ff711fe6","A3","batch1","","3071.2000000178814","stim/no_23_1.png","j","pattern_response","true","j","pattern_08","3071.2000000178814","true","64","","","","","","","","","","","","","","","","","","",""
"","","","","","html-keyboard-response","152","539533","0.0-2.0-7.0-0.26","5f5aa60bef062519ff711fe6","A3","batch1","","null","<p class=block-text>Trial 66 out of 78</p>","null","pattern_show_trial_num","","","","","","","","","","","","","","","","","","","","","","","","",""
"","","","","","image-keyboard-response","153","540811","0.0-2.0-7.0-1.26","5f5aa60bef062519ff711fe6","A3","batch1","","1276","stim/yes_25_hor_b1_b.png","f","pattern_response","true","f","pattern_49","1276","true","65","","","","","","","","","","","","","","","","","","",""
"","","","","","html-keyboard-response","154","542137","0.0-2.0-7.0-0.27","5f5aa60bef062519ff711fe6","A3","batch1","","null","<p class=block-text>Trial 67 out of 78</p>","null","pattern_show_trial_num","","","","","","","","","","","","","","","","","","","","","","","","",""
"","","","","","image-keyboard-response","155","543114","0.0-2.0-7.0-1.27","5f5aa60bef062519ff711fe6","A3","batch1","","975.5999999940395","stim/yes_22_ver_w1.png","f","pattern_response","true","f","pattern_47","975.5999999940395","true","66","","","","","","","","","","","","","","","","","","",""
"","","","","","html-keyboard-response","156","544423","0.0-2.0-7.0-0.28","5f5aa60bef062519ff711fe6","A3","batch1","","null","<p class=block-text>Trial 68 out of 78</p>","null","pattern_show_trial_num","","","","","","","","","","","","","","","","","","","","","","","","",""
"","","","","","image-keyboard-response","157","552683","0.0-2.0-7.0-1.28","5f5aa60bef062519ff711fe6","A3","batch1","","8258.600000023842","stim/no_38_1_b.png","j","pattern_response","true","j","pattern_20","8258.600000023842","true","67","","","","","","","","","","","","","","","","","","",""
"","","","","","html-keyboard-response","158","553997","0.0-2.0-7.0-0.29","5f5aa60bef062519ff711fe6","A3","batch1","","null","<p class=block-text>Trial 69 out of 78</p>","null","pattern_show_trial_num","","","","","","","","","","","","","","","","","","","","","","","","",""
"","","","","","image-keyboard-response","159","561473","0.0-2.0-7.0-1.29","5f5aa60bef062519ff711fe6","A3","batch1","","7474.699999988079","stim/no_48_1_w.png","j","pattern_response","true","j","pattern_28","7474.699999988079","true","68","","","","","","","","","","","","","","","","","","",""
"","","","","","html-keyboard-response","160","562800","0.0-2.0-7.0-0.30","5f5aa60bef062519ff711fe6","A3","batch1","","null","<p class=block-text>Trial 70 out of 78</p>","null","pattern_show_trial_num","","","","","","","","","","","","","","","","","","","","","","","","",""
"","","","","","image-keyboard-response","161","567706","0.0-2.0-7.0-1.30","5f5aa60bef062519ff711fe6","A3","batch1","","4904.5","stim/no_29_1_b.png","j","pattern_response","true","j","pattern_12","4904.5","true","69","","","","","","","","","","","","","","","","","","",""
"","","","","","html-keyboard-response","162","569029","0.0-2.0-7.0-0.31","5f5aa60bef062519ff711fe6","A3","batch1","","null","<p class=block-text>Trial 71 out of 78</p>","null","pattern_show_trial_num","","","","","","","","","","","","","","","","","","","","","","","","",""
"","","","","","image-keyboard-response","163","570234","0.0-2.0-7.0-1.31","5f5aa60bef062519ff711fe6","A3","batch1","","1204.3999999761581","stim/yes_17_dia_w1.png","f","pattern_response","true","f","pattern_45","1204.3999999761581","true","70","","","","","","","","","","","","","","","","","","",""
"","","","","","html-keyboard-response","164","571550","0.0-2.0-7.0-0.32","5f5aa60bef062519ff711fe6","A3","batch1","","null","<p class=block-text>Trial 72 out of 78</p>","null","pattern_show_trial_num","","","","","","","","","","","","","","","","","","","","","","","","",""
"","","","","","image-keyboard-response","165","574156","0.0-2.0-7.0-1.32","5f5aa60bef062519ff711fe6","A3","batch1","","2605","stim/no_20_1_w.png","j","pattern_response","true","j","pattern_06","2605","true","71","","","","","","","","","","","","","","","","","","",""
"","","","","","html-keyboard-response","166","575476","0.0-2.0-7.0-0.33","5f5aa60bef062519ff711fe6","A3","batch1","","null","<p class=block-text>Trial 73 out of 78</p>","null","pattern_show_trial_num","","","","","","","","","","","","","","","","","","","","","","","","",""
"","","","","","image-keyboard-response","167","577666","0.0-2.0-7.0-1.33","5f5aa60bef062519ff711fe6","A3","batch1","","2188.9000000059605","stim/yes_55_hor_w1_w.png","f","pattern_response","true","f","pattern_75","2188.9000000059605","true","72","","","","","","","","","","","","","","","","","","",""
"","","","","","html-keyboard-response","168","578985","0.0-2.0-7.0-0.34","5f5aa60bef062519ff711fe6","A3","batch1","","null","<p class=block-text>Trial 74 out of 78</p>","null","pattern_show_trial_num","","","","","","","","","","","","","","","","","","","","","","","","",""
"","","","","","image-keyboard-response","169","581206","0.0-2.0-7.0-1.34","5f5aa60bef062519ff711fe6","A3","batch1","","2220.199999988079","stim/yes_48_dia_w1_w.png","f","pattern_response","true","f","pattern_69","2220.199999988079","true","73","","","","","","","","","","","","","","","","","","",""
"","","","","","html-keyboard-response","170","582530","0.0-2.0-7.0-0.35","5f5aa60bef062519ff711fe6","A3","batch1","","null","<p class=block-text>Trial 75 out of 78</p>","null","pattern_show_trial_num","","","","","","","","","","","","","","","","","","","","","","","","",""
"","","","","","image-keyboard-response","171","590093","0.0-2.0-7.0-1.35","5f5aa60bef062519ff711fe6","A3","batch1","","7561.699999988079","stim/no_36_2_w.png","j","pattern_response","true","j","pattern_18","7561.699999988079","true","74","","","","","","","","","","","","","","","","","","",""
"","","","","","html-keyboard-response","172","591419","0.0-2.0-7.0-0.36","5f5aa60bef062519ff711fe6","A3","batch1","","null","<p class=block-text>Trial 76 out of 78</p>","null","pattern_show_trial_num","","","","","","","","","","","","","","","","","","","","","","","","",""
"","","","","","image-keyboard-response","173","592583","0.0-2.0-7.0-1.36","5f5aa60bef062519ff711fe6","A3","batch1","","1162.2000000178814","stim/yes_45_hor_b2_b.png","f","pattern_response","true","f","pattern_67","1162.2000000178814","true","75","","","","","","","","","","","","","","","","","","",""
"","","","","","html-keyboard-response","174","593896","0.0-2.0-7.0-0.37","5f5aa60bef062519ff711fe6","A3","batch1","","null","<p class=block-text>Trial 77 out of 78</p>","null","pattern_show_trial_num","","","","","","","","","","","","","","","","","","","","","","","","",""
"","","","","","image-keyboard-response","175","595396","0.0-2.0-7.0-1.37","5f5aa60bef062519ff711fe6","A3","batch1","","1499","stim/no_13_2_b.png","j","pattern_response","true","j","pattern_02","1499","true","76","","","","","","","","","","","","","","","","","","",""
"","","","","","html-keyboard-response","176","596716","0.0-2.0-7.0-0.38","5f5aa60bef062519ff711fe6","A3","batch1","","null","<p class=block-text>Trial 78 out of 78</p>","null","pattern_show_trial_num","","","","","","","","","","","","","","","","","","","","","","","","",""
"","","","","","image-keyboard-response","177","610545","0.0-2.0-7.0-1.38","5f5aa60bef062519ff711fe6","A3","batch1","","13829.199999988079","stim/no_65_1_b.png","j","pattern_response","true","j","pattern_38","13829.199999988079","true","77","","","","","","","","","","","","","","","","","","",""
"","","","","","html-button-response","178","720218","0.0-2.0-8.0","5f5aa60bef062519ff711fe6","A3","batch1","","109159.5","<p class = block-text>This concludes the 4-in-a-row detection game.Thank you for your responses!<br>
            You responded correctly on 99% of the trials.<br>
            When you are ready, press ""Continue"" button to continue </p>","0","","","","","","","","","","","","","","","","","","","","","","","","","",""
"true","","","","","fullscreen","179","727724","0.0-3.0-0.0","5f5aa60bef062519ff711fe6","A3","batch1","","","","","spm_fullscreen","","","","","","","","","","","","","","","","","","","","","","","","",""
"","","","","","html-button-response","180","747719","0.0-3.0-1.0","5f5aa60bef062519ff711fe6","A3","batch1","","19994.5","<p class = block-text><b>Instructions</b> <br>This is a widely used intelligence test in research. <br>In this test, a figure with a missing piece will be presented.<br>Below the figure are alternative pieces to complete the figure, only one of which is correct.<br> Different figures might involve different principles for obtaining the missing piece<br>Your job is to select the most logical piece to complete the figure.</p>","0","","","","","","","","","","","","","","","","","","","","","","","","","",""
"","","","","","html-keyboard-response","181","748533","0.0-3.0-2.0-0.0","5f5aa60bef062519ff711fe6","A3","batch1","","null","<p class=block-text>Trial 1 out of 60</p>","null","spm_show_trial_num","","","","","","","","","","","","","","","","","","","","","","","","",""
"","","","","","image-button-response","182","780312","0.0-3.0-2.0-1.0","5f5aa60bef062519ff711fe6","A3","batch1","","31777.30000001192","img/question_1_1.jpeg","3","spm_respsonse","1","4","mat_01","","","","","","1","31777.30000001192","","","","","","","","","","","","","","",""
"","","","","","html-keyboard-response","183","781369","0.0-3.0-2.0-0.1","5f5aa60bef062519ff711fe6","A3","batch1","","null","<p class=block-text>Trial 2 out of 60</p>","null","spm_show_trial_num","","","","","","","","","","","","","","","","","","","","","","","","",""
"","","","","","image-button-response","184","785599","0.0-3.0-2.0-1.1","5f5aa60bef062519ff711fe6","A3","batch1","","4228.4000000059605","img/question_1_2.jpeg","4","spm_respsonse","1","5","mat_02","","","","","","1","4228.4000000059605","","","","","","","","","","","","","","",""
"","","","","","html-keyboard-response","185","786650","0.0-3.0-2.0-0.2","5f5aa60bef062519ff711fe6","A3","batch1","","null","<p class=block-text>Trial 3 out of 60</p>","null","spm_show_trial_num","","","","","","","","","","","","","","","","","","","","","","","","",""
"","","","","","image-button-response","186","792140","0.0-3.0-2.0-1.2","5f5aa60bef062519ff711fe6","A3","batch1","","5488.799999982119","img/question_1_3.jpeg","0","spm_respsonse","1","1","mat_03","","","","","","1","5488.799999982119","","","","","","","","","","","","","","",""
"","","","","","html-keyboard-response","187","793194","0.0-3.0-2.0-0.3","5f5aa60bef062519ff711fe6","A3","batch1","","null","<p class=block-text>Trial 4 out of 60</p>","null","spm_show_trial_num","","","","","","","","","","","","","","","","","","","","","","","","",""
"","","","","","image-button-response","188","802850","0.0-3.0-2.0-1.3","5f5aa60bef062519ff711fe6","A3","batch1","","9655.300000011921","img/question_1_4.jpeg","1","spm_respsonse","1","2","mat_04","","","","","","1","9655.300000011921","","","","","","","","","","","","","","",""
"","","","","","html-keyboard-response","189","803910","0.0-3.0-2.0-0.4","5f5aa60bef062519ff711fe6","A3","batch1","","null","<p class=block-text>Trial 5 out of 60</p>","null","spm_show_trial_num","","","","","","","","","","","","","","","","","","","","","","","","",""
"","","","","","image-button-response","190","813892","0.0-3.0-2.0-1.4","5f5aa60bef062519ff711fe6","A3","batch1","","9980.799999982119","img/question_1_5.jpeg","5","spm_respsonse","1","6","mat_05","","","","","","1","9980.799999982119","","","","","","","","","","","","","","",""
"","","","","","html-keyboard-response","191","814955","0.0-3.0-2.0-0.5","5f5aa60bef062519ff711fe6","A3","batch1","","null","<p class=block-text>Trial 6 out of 60</p>","null","spm_show_trial_num","","","","","","","","","","","","","","","","","","","","","","","","",""
"","","","","","image-button-response","192","822443","0.0-3.0-2.0-1.5","5f5aa60bef062519ff711fe6","A3","batch1","","7486.800000011921","img/question_1_6.jpeg","2","spm_respsonse","1","3","mat_06","","","","","","1","7486.800000011921","","","","","","","","","","","","","","",""
"","","","","","html-keyboard-response","193","823494","0.0-3.0-2.0-0.6","5f5aa60bef062519ff711fe6","A3","batch1","","null","<p class=block-text>Trial 7 out of 60</p>","null","spm_show_trial_num","","","","","","","","","","","","","","","","","","","","","","","","",""
"","","","","","image-button-response","194","833626","0.0-3.0-2.0-1.6","5f5aa60bef062519ff711fe6","A3","batch1","","10129.90000000596","img/question_1_7.jpeg","5","spm_respsonse","1","6","mat_07","","","","","","1","10129.90000000596","","","","","","","","","","","","","","",""
"","","","","","html-keyboard-response","195","834686","0.0-3.0-2.0-0.7","5f5aa60bef062519ff711fe6","A3","batch1","","null","<p class=block-text>Trial 8 out of 60</p>","null","spm_show_trial_num","","","","","","","","","","","","","","","","","","","","","","","","",""
"","","","","","image-button-response","196","843391","0.0-3.0-2.0-1.7","5f5aa60bef062519ff711fe6","A3","batch1","","8703","img/question_1_8.jpeg","1","spm_respsonse","1","2","mat_08","","","","","","1","8703","","","","","","","","","","","","","","",""
"","","","","","html-keyboard-response","197","844455","0.0-3.0-2.0-0.8","5f5aa60bef062519ff711fe6","A3","batch1","","null","<p class=block-text>Trial 9 out of 60</p>","null","spm_show_trial_num","","","","","","","","","","","","","","","","","","","","","","","","",""
"","","","","","image-button-response","198","854295","0.0-3.0-2.0-1.8","5f5aa60bef062519ff711fe6","A3","batch1","","9838.5","img/question_1_9.jpeg","0","spm_respsonse","1","1","mat_09","","","","","","1","9838.5","","","","","","","","","","","","","","",""
"","","","","","html-keyboard-response","199","855371","0.0-3.0-2.0-0.9","5f5aa60bef062519ff711fe6","A3","batch1","","null","<p class=block-text>Trial 10 out of 60</p>","null","spm_show_trial_num","","","","","","","","","","","","","","","","","","","","","","","","",""
"","","","","","image-button-response","200","865751","0.0-3.0-2.0-1.9","5f5aa60bef062519ff711fe6","A3","batch1","","10379.200000017881","img/question_1_10.jpeg","2","spm_respsonse","1","3","mat_10","","","","","","1","10379.200000017881","","","","","","","","","","","","","","",""
"","","","","","html-keyboard-response","201","866814","0.0-3.0-2.0-0.10","5f5aa60bef062519ff711fe6","A3","batch1","","null","<p class=block-text>Trial 11 out of 60</p>","null","spm_show_trial_num","","","","","","","","","","","","","","","","","","","","","","","","",""
"","","","","","image-button-response","202","904196","0.0-3.0-2.0-1.10","5f5aa60bef062519ff711fe6","A3","batch1","","37382.40000000596","img/question_1_11.jpeg","3","spm_respsonse","1","4","mat_11","","","","","","1","37382.40000000596","","","","","","","","","","","","","","",""
"","","","","","html-keyboard-response","203","905261","0.0-3.0-2.0-0.11","5f5aa60bef062519ff711fe6","A3","batch1","","null","<p class=block-text>Trial 12 out of 60</p>","null","spm_show_trial_num","","","","","","","","","","","","","","","","","","","","","","","","",""
"","","","","","image-button-response","204","963202","0.0-3.0-2.0-1.11","5f5aa60bef062519ff711fe6","A3","batch1","","57939.80000001192","img/question_1_12.jpeg","4","spm_respsonse","1","5","mat_12","","","","","","1","57939.80000001192","","","","","","","","","","","","","","",""
"","","","","","html-keyboard-response","205","964265","0.0-3.0-2.0-0.12","5f5aa60bef062519ff711fe6","A3","batch1","","null","<p class=block-text>Trial 13 out of 60</p>","null","spm_show_trial_num","","","","","","","","","","","","","","","","","","","","","","","","",""
"","","","","","image-button-response","206","969878","0.0-3.0-2.0-1.12","5f5aa60bef062519ff711fe6","A3","batch1","","5612.600000023842","img/question_2_1.jpeg","1","spm_respsonse","1","2","mat_13","","","","","","1","5612.600000023842","","","","","","","","","","","","","","",""
"","","","","","html-keyboard-response","207","970946","0.0-3.0-2.0-0.13","5f5aa60bef062519ff711fe6","A3","batch1","","null","<p class=block-text>Trial 14 out of 60</p>","null","spm_show_trial_num","","","","","","","","","","","","","","","","","","","","","","","","",""
"","","","","","image-button-response","208","985533","0.0-3.0-2.0-1.13","5f5aa60bef062519ff711fe6","A3","batch1","","14584.800000011921","img/question_2_2.jpeg","5","spm_respsonse","1","6","mat_14","","","","","","1","14584.800000011921","","","","","","","","","","","","","","",""
"","","","","","html-keyboard-response","209","986603","0.0-3.0-2.0-0.14","5f5aa60bef062519ff711fe6","A3","batch1","","null","<p class=block-text>Trial 15 out of 60</p>","null","spm_show_trial_num","","","","","","","","","","","","","","","","","","","","","","","","",""
"","","","","","image-button-response","210","994619","0.0-3.0-2.0-1.14","5f5aa60bef062519ff711fe6","A3","batch1","","8015.0999999940395","img/question_2_3.jpeg","0","spm_respsonse","1","1","mat_15","","","","","","1","8015.0999999940395","","","","","","","","","","","","","","",""
"","","","","","html-keyboard-response","211","995671","0.0-3.0-2.0-0.15","5f5aa60bef062519ff711fe6","A3","batch1","","null","<p class=block-text>Trial 16 out of 60</p>","null","spm_show_trial_num","","","","","","","","","","","","","","","","","","","","","","","","",""
"","","","","","image-button-response","212","1002829","0.0-3.0-2.0-1.15","5f5aa60bef062519ff711fe6","A3","batch1","","7156.9000000059605","img/question_2_4.jpeg","1","spm_respsonse","1","2","mat_16","","","","","","1","7156.9000000059605","","","","","","","","","","","","","","",""
"","","","","","html-keyboard-response","213","1003885","0.0-3.0-2.0-0.16","5f5aa60bef062519ff711fe6","A3","batch1","","null","<p class=block-text>Trial 17 out of 60</p>","null","spm_show_trial_num","","","","","","","","","","","","","","","","","","","","","","","","",""
"","","","","","image-button-response","214","1013384","0.0-3.0-2.0-1.16","5f5aa60bef062519ff711fe6","A3","batch1","","9497.59999999404","img/question_2_5.jpeg","0","spm_respsonse","1","1","mat_17","","","","","","1","9497.59999999404","","","","","","","","","","","","","","",""
"","","","","","html-keyboard-response","215","1014437","0.0-3.0-2.0-0.17","5f5aa60bef062519ff711fe6","A3","batch1","","null","<p class=block-text>Trial 18 out of 60</p>","null","spm_show_trial_num","","","","","","","","","","","","","","","","","","","","","","","","",""
"","","","","","image-button-response","216","1025476","0.0-3.0-2.0-1.17","5f5aa60bef062519ff711fe6","A3","batch1","","11038.300000011921","img/question_2_6.jpeg","2","spm_respsonse","1","3","mat_18","","","","","","1","11038.300000011921","","","","","","","","","","","","","","",""
"","","","","","html-keyboard-response","217","1026535","0.0-3.0-2.0-0.18","5f5aa60bef062519ff711fe6","A3","batch1","","null","<p class=block-text>Trial 19 out of 60</p>","null","spm_show_trial_num","","","","","","","","","","","","","","","","","","","","","","","","",""
"","","","","","image-button-response","218","1038630","0.0-3.0-2.0-1.18","5f5aa60bef062519ff711fe6","A3","batch1","","12093","img/question_2_7.jpeg","4","spm_respsonse","1","5","mat_19","","","","","","1","12093","","","","","","","","","","","","","","",""
"","","","","","html-keyboard-response","219","1039689","0.0-3.0-2.0-0.19","5f5aa60bef062519ff711fe6","A3","batch1","","null","<p class=block-text>Trial 20 out of 60</p>","null","spm_show_trial_num","","","","","","","","","","","","","","","","","","","","","","","","",""
"","","","","","image-button-response","220","1049257","0.0-3.0-2.0-1.19","5f5aa60bef062519ff711fe6","A3","batch1","","9567","img/question_2_8.jpeg","5","spm_respsonse","1","6","mat_20","","","","","","1","9567","","","","","","","","","","","","","","",""
"","","","","","html-keyboard-response","221","1050330","0.0-3.0-2.0-0.20","5f5aa60bef062519ff711fe6","A3","batch1","","null","<p class=block-text>Trial 21 out of 60</p>","null","spm_show_trial_num","","","","","","","","","","","","","","","","","","","","","","","","",""
"","","","","","image-button-response","222","1057733","0.0-3.0-2.0-1.20","5f5aa60bef062519ff711fe6","A3","batch1","","7401.199999988079","img/question_2_9.jpeg","3","spm_respsonse","1","4","mat_21","","","","","","1","7401.199999988079","","","","","","","","","","","","","","",""
"","","","","","html-keyboard-response","223","1058792","0.0-3.0-2.0-0.21","5f5aa60bef062519ff711fe6","A3","batch1","","null","<p class=block-text>Trial 22 out of 60</p>","null","spm_show_trial_num","","","","","","","","","","","","","","","","","","","","","","","","",""
"","","","","","image-button-response","224","1075963","0.0-3.0-2.0-1.21","5f5aa60bef062519ff711fe6","A3","batch1","","17169.29999998212","img/question_2_10.jpeg","2","spm_respsonse","1","3","mat_22","","","","","","1","17169.29999998212","","","","","","","","","","","","","","",""
"","","","","","html-keyboard-response","225","1077026","0.0-3.0-2.0-0.22","5f5aa60bef062519ff711fe6","A3","batch1","","null","<p class=block-text>Trial 23 out of 60</p>","null","spm_show_trial_num","","","","","","","","","","","","","","","","","","","","","","","","",""
"","","","","","image-button-response","226","1083721","0.0-3.0-2.0-1.22","5f5aa60bef062519ff711fe6","A3","batch1","","6693.4000000059605","img/question_2_11.jpeg","3","spm_respsonse","1","4","mat_23","","","","","","1","6693.4000000059605","","","","","","","","","","","","","","",""
"","","","","","html-keyboard-response","227","1084773","0.0-3.0-2.0-0.23","5f5aa60bef062519ff711fe6","A3","batch1","","null","<p class=block-text>Trial 24 out of 60</p>","null","spm_show_trial_num","","","","","","","","","","","","","","","","","","","","","","","","",""
"","","","","","image-button-response","228","1132590","0.0-3.0-2.0-1.23","5f5aa60bef062519ff711fe6","A3","batch1","","47816.20000001788","img/question_2_12.jpeg","4","spm_respsonse","1","5","mat_24","","","","","","1","47816.20000001788","","","","","","","","","","","","","","",""
"","","","","","html-button-response","229","1136009","0.0-3.0-3.0","5f5aa60bef062519ff711fe6","A3","batch1","","3162.4000000059605","<p class = block-text>Attention check: Please choose 1<br></p>","0","attention_check","true","","","","","","","","","","","","","","","","","","","","","","","",""
"","","","","","html-keyboard-response","230","1136809","0.0-3.0-4.0-0.0","5f5aa60bef062519ff711fe6","A3","batch1","","null","<p class=block-text>Trial 25 out of 60</p>","null","spm_show_trial_num","","","","","","","","","","","","","","","","","","","","","","","","",""
"","","","","","image-button-response","231","1147864","0.0-3.0-4.0-1.0","5f5aa60bef062519ff711fe6","A3","batch1","","11053.59999999404","img/question_3_1.jpeg","7","spm_respsonse","1","8","mat_25","","","","","","1","11053.59999999404","","","","","","","","","","","","","","",""
"","","","","","html-keyboard-response","232","1148922","0.0-3.0-4.0-0.1","5f5aa60bef062519ff711fe6","A3","batch1","","null","<p class=block-text>Trial 26 out of 60</p>","null","spm_show_trial_num","","","","","","","","","","","","","","","","","","","","","","","","",""
"","","","","","image-button-response","233","1162607","0.0-3.0-4.0-1.1","5f5aa60bef062519ff711fe6","A3","batch1","","13683.59999999404","img/question_3_2.jpeg","1","spm_respsonse","1","2","mat_26","","","","","","1","13683.59999999404","","","","","","","","","","","","","","",""
"","","","","","html-keyboard-response","234","1163665","0.0-3.0-4.0-0.2","5f5aa60bef062519ff711fe6","A3","batch1","","null","<p class=block-text>Trial 27 out of 60</p>","null","spm_show_trial_num","","","","","","","","","","","","","","","","","","","","","","","","",""
"","","","","","image-button-response","235","1177711","0.0-3.0-4.0-1.2","5f5aa60bef062519ff711fe6","A3","batch1","","14045.699999988079","img/question_3_3.jpeg","2","spm_respsonse","1","3","mat_27","","","","","","1","14045.699999988079","","","","","","","","","","","","","","",""
"","","","","","html-keyboard-response","236","1178776","0.0-3.0-4.0-0.3","5f5aa60bef062519ff711fe6","A3","batch1","","null","<p class=block-text>Trial 28 out of 60</p>","null","spm_show_trial_num","","","","","","","","","","","","","","","","","","","","","","","","",""
"","","","","","image-button-response","237","1203237","0.0-3.0-4.0-1.3","5f5aa60bef062519ff711fe6","A3","batch1","","24459.79999998212","img/question_3_4.jpeg","7","spm_respsonse","1","8","mat_28","","","","","","1","24459.79999998212","","","","","","","","","","","","","","",""
"","","","","","html-keyboard-response","238","1204289","0.0-3.0-4.0-0.4","5f5aa60bef062519ff711fe6","A3","batch1","","null","<p class=block-text>Trial 29 out of 60</p>","null","spm_show_trial_num","","","","","","","","","","","","","","","","","","","","","","","","",""
"","","","","","image-button-response","239","1227131","0.0-3.0-4.0-1.4","5f5aa60bef062519ff711fe6","A3","batch1","","22842","img/question_3_5.jpeg","6","spm_respsonse","1","7","mat_29","","","","","","1","22842","","","","","","","","","","","","","","",""
"","","","","","html-keyboard-response","240","1228188","0.0-3.0-4.0-0.5","5f5aa60bef062519ff711fe6","A3","batch1","","null","<p class=block-text>Trial 30 out of 60</p>","null","spm_show_trial_num","","","","","","","","","","","","","","","","","","","","","","","","",""
"","","","","","image-button-response","241","1246078","0.0-3.0-4.0-1.5","5f5aa60bef062519ff711fe6","A3","batch1","","17888.70000001788","img/question_3_6.jpeg","3","spm_respsonse","1","4","mat_30","","","","","","1","17888.70000001788","","","","","","","","","","","","","","",""
"","","","","","html-keyboard-response","242","1247130","0.0-3.0-4.0-0.6","5f5aa60bef062519ff711fe6","A3","batch1","","null","<p class=block-text>Trial 31 out of 60</p>","null","spm_show_trial_num","","","","","","","","","","","","","","","","","","","","","","","","",""
"","","","","","image-button-response","243","1294943","0.0-3.0-4.0-1.6","5f5aa60bef062519ff711fe6","A3","batch1","","47812.80000001192","img/question_3_7.jpeg","4","spm_respsonse","1","5","mat_31","","","","","","1","47812.80000001192","","","","","","","","","","","","","","",""
"","","","","","html-keyboard-response","244","1296011","0.0-3.0-4.0-0.7","5f5aa60bef062519ff711fe6","A3","batch1","","null","<p class=block-text>Trial 32 out of 60</p>","null","spm_show_trial_num","","","","","","","","","","","","","","","","","","","","","","","","",""
"","","","","","image-button-response","245","1441691","0.0-3.0-4.0-1.7","5f5aa60bef062519ff711fe6","A3","batch1","","145677.59999999404","img/question_3_8.jpeg","0","spm_respsonse","1","1","mat_32","","","","","","1","145677.59999999404","","","","","","","","","","","","","","",""
"","","","","","html-keyboard-response","246","1442742","0.0-3.0-4.0-0.8","5f5aa60bef062519ff711fe6","A3","batch1","","null","<p class=block-text>Trial 33 out of 60</p>","null","spm_show_trial_num","","","","","","","","","","","","","","","","","","","","","","","","",""
"","","","","","image-button-response","247","1468142","0.0-3.0-4.0-1.8","5f5aa60bef062519ff711fe6","A3","batch1","","25399","img/question_3_9.jpeg","6","spm_respsonse","1","7","mat_33","","","","","","1","25399","","","","","","","","","","","","","","",""
"","","","","","html-keyboard-response","248","1469215","0.0-3.0-4.0-0.9","5f5aa60bef062519ff711fe6","A3","batch1","","null","<p class=block-text>Trial 34 out of 60</p>","null","spm_show_trial_num","","","","","","","","","","","","","","","","","","","","","","","","",""
"","","","","","image-button-response","249","1564726","0.0-3.0-4.0-1.9","5f5aa60bef062519ff711fe6","A3","batch1","","95510.19999998808","img/question_3_10.jpeg","3","spm_respsonse","0","6","mat_34","","","","","","0","95510.19999998808","","","","","","","","","","","","","","",""
"","","","","","html-keyboard-response","250","1565778","0.0-3.0-4.0-0.10","5f5aa60bef062519ff711fe6","A3","batch1","","null","<p class=block-text>Trial 35 out of 60</p>","null","spm_show_trial_num","","","","","","","","","","","","","","","","","","","","","","","","",""
"","","","","","image-button-response","251","1619746","0.0-3.0-4.0-1.10","5f5aa60bef062519ff711fe6","A3","batch1","","53966.79999998212","img/question_3_11.jpeg","4","spm_respsonse","0","1","mat_35","","","","","","0","53966.79999998212","","","","","","","","","","","","","","",""
"","","","","","html-keyboard-response","252","1620813","0.0-3.0-4.0-0.11","5f5aa60bef062519ff711fe6","A3","batch1","","null","<p class=block-text>Trial 36 out of 60</p>","null","spm_show_trial_num","","","","","","","","","","","","","","","","","","","","","","","","",""
"","","","","","image-button-response","253","1669051","0.0-3.0-4.0-1.11","5f5aa60bef062519ff711fe6","A3","batch1","","48237.09999999404","img/question_3_12.jpeg","1","spm_respsonse","1","2","mat_36","","","","","","1","48237.09999999404","","","","","","","","","","","","","","",""
"","","","","","html-keyboard-response","254","1670110","0.0-3.0-4.0-0.12","5f5aa60bef062519ff711fe6","A3","batch1","","null","<p class=block-text>Trial 37 out of 60</p>","null","spm_show_trial_num","","","","","","","","","","","","","","","","","","","","","","","","",""
"","","","","","image-button-response","255","1676336","0.0-3.0-4.0-1.12","5f5aa60bef062519ff711fe6","A3","batch1","","6225.300000011921","img/question_4_1.jpeg","2","spm_respsonse","1","3","mat_37","","","","","","1","6225.300000011921","","","","","","","","","","","","","","",""
"","","","","","html-keyboard-response","256","1677390","0.0-3.0-4.0-0.13","5f5aa60bef062519ff711fe6","A3","batch1","","null","<p class=block-text>Trial 38 out of 60</p>","null","spm_show_trial_num","","","","","","","","","","","","","","","","","","","","","","","","",""
"","","","","","image-button-response","257","1687526","0.0-3.0-4.0-1.13","5f5aa60bef062519ff711fe6","A3","batch1","","10134","img/question_4_2.jpeg","3","spm_respsonse","1","4","mat_38","","","","","","1","10134","","","","","","","","","","","","","","",""
"","","","","","html-keyboard-response","258","1688582","0.0-3.0-4.0-0.14","5f5aa60bef062519ff711fe6","A3","batch1","","null","<p class=block-text>Trial 39 out of 60</p>","null","spm_show_trial_num","","","","","","","","","","","","","","","","","","","","","","","","",""
"","","","","","image-button-response","259","1697846","0.0-3.0-4.0-1.14","5f5aa60bef062519ff711fe6","A3","batch1","","9262.59999999404","img/question_4_3.jpeg","2","spm_respsonse","1","3","mat_39","","","","","","1","9262.59999999404","","","","","","","","","","","","","","",""
"","","","","","html-keyboard-response","260","1698913","0.0-3.0-4.0-0.15","5f5aa60bef062519ff711fe6","A3","batch1","","null","<p class=block-text>Trial 40 out of 60</p>","null","spm_show_trial_num","","","","","","","","","","","","","","","","","","","","","","","","",""
"","","","","","image-button-response","261","1707950","0.0-3.0-4.0-1.15","5f5aa60bef062519ff711fe6","A3","batch1","","9035.300000011921","img/question_4_4.jpeg","6","spm_respsonse","1","7","mat_40","","","","","","1","9035.300000011921","","","","","","","","","","","","","","",""
"","","","","","html-keyboard-response","262","1709004","0.0-3.0-4.0-0.16","5f5aa60bef062519ff711fe6","A3","batch1","","null","<p class=block-text>Trial 41 out of 60</p>","null","spm_show_trial_num","","","","","","","","","","","","","","","","","","","","","","","","",""
"","","","","","image-button-response","263","1720869","0.0-3.0-4.0-1.16","5f5aa60bef062519ff711fe6","A3","batch1","","11863.800000011921","img/question_4_5.jpeg","7","spm_respsonse","1","8","mat_41","","","","","","1","11863.800000011921","","","","","","","","","","","","","","",""
"","","","","","html-keyboard-response","264","1721930","0.0-3.0-4.0-0.17","5f5aa60bef062519ff711fe6","A3","batch1","","null","<p class=block-text>Trial 42 out of 60</p>","null","spm_show_trial_num","","","","","","","","","","","","","","","","","","","","","","","","",""
"","","","","","image-button-response","265","1740238","0.0-3.0-4.0-1.17","5f5aa60bef062519ff711fe6","A3","batch1","","18305.70000001788","img/question_4_6.jpeg","5","spm_respsonse","1","6","mat_42","","","","","","1","18305.70000001788","","","","","","","","","","","","","","",""
"","","","","","html-keyboard-response","266","1741303","0.0-3.0-4.0-0.18","5f5aa60bef062519ff711fe6","A3","batch1","","null","<p class=block-text>Trial 43 out of 60</p>","null","spm_show_trial_num","","","","","","","","","","","","","","","","","","","","","","","","",""
"","","","","","image-button-response","267","1783166","0.0-3.0-4.0-1.18","5f5aa60bef062519ff711fe6","A3","batch1","","41862.70000001788","img/question_4_7.jpeg","4","spm_respsonse","1","5","mat_43","","","","","","1","41862.70000001788","","","","","","","","","","","","","","",""
"","","","","","html-keyboard-response","268","1784239","0.0-3.0-4.0-0.19","5f5aa60bef062519ff711fe6","A3","batch1","","null","<p class=block-text>Trial 44 out of 60</p>","null","spm_show_trial_num","","","","","","","","","","","","","","","","","","","","","","","","",""
"","","","","","image-button-response","269","1796787","0.0-3.0-4.0-1.19","5f5aa60bef062519ff711fe6","A3","batch1","","12547.300000011921","img/question_4_8.jpeg","3","spm_respsonse","1","4","mat_44","","","","","","1","12547.300000011921","","","","","","","","","","","","","","",""
"","","","","","html-keyboard-response","270","1797853","0.0-3.0-4.0-0.20","5f5aa60bef062519ff711fe6","A3","batch1","","null","<p class=block-text>Trial 45 out of 60</p>","null","spm_show_trial_num","","","","","","","","","","","","","","","","","","","","","","","","",""
"","","","","","image-button-response","271","1830373","0.0-3.0-4.0-1.20","5f5aa60bef062519ff711fe6","A3","batch1","","32519.19999998808","img/question_4_9.jpeg","0","spm_respsonse","1","1","mat_45","","","","","","1","32519.19999998808","","","","","","","","","","","","","","",""
"","","","","","html-keyboard-response","272","1831432","0.0-3.0-4.0-0.21","5f5aa60bef062519ff711fe6","A3","batch1","","null","<p class=block-text>Trial 46 out of 60</p>","null","spm_show_trial_num","","","","","","","","","","","","","","","","","","","","","","","","",""
"","","","","","image-button-response","273","1870138","0.0-3.0-4.0-1.21","5f5aa60bef062519ff711fe6","A3","batch1","","38704.30000001192","img/question_4_10.jpeg","1","spm_respsonse","1","2","mat_46","","","","","","1","38704.30000001192","","","","","","","","","","","","","","",""
"","","","","","html-keyboard-response","274","1871214","0.0-3.0-4.0-0.22","5f5aa60bef062519ff711fe6","A3","batch1","","null","<p class=block-text>Trial 47 out of 60</p>","null","spm_show_trial_num","","","","","","","","","","","","","","","","","","","","","","","","",""
"","","","","","image-button-response","275","2005691","0.0-3.0-4.0-1.22","5f5aa60bef062519ff711fe6","A3","batch1","","134476","img/question_4_11.jpeg","5","spm_respsonse","0","5","mat_47","","","","","","0","134476","","","","","","","","","","","","","","",""
"","","","","","html-keyboard-response","276","2006756","0.0-3.0-4.0-0.23","5f5aa60bef062519ff711fe6","A3","batch1","","null","<p class=block-text>Trial 48 out of 60</p>","null","spm_show_trial_num","","","","","","","","","","","","","","","","","","","","","","","","",""
"","","","","","image-button-response","277","2078997","0.0-3.0-4.0-1.23","5f5aa60bef062519ff711fe6","A3","batch1","","72240.20000001788","img/question_4_12.jpeg","5","spm_respsonse","1","6","mat_48","","","","","","1","72240.20000001788","","","","","","","","","","","","","","",""
"","","","","","html-keyboard-response","278","2080057","0.0-3.0-4.0-0.24","5f5aa60bef062519ff711fe6","A3","batch1","","null","<p class=block-text>Trial 49 out of 60</p>","null","spm_show_trial_num","","","","","","","","","","","","","","","","","","","","","","","","",""
"","","","","","image-button-response","279","2093970","0.0-3.0-4.0-1.24","5f5aa60bef062519ff711fe6","A3","batch1","","13911.699999988079","img/question_5_1.jpeg","6","spm_respsonse","1","7","mat_49","","","","","","1","13911.699999988079","","","","","","","","","","","","","","",""
"","","","","","html-keyboard-response","280","2095031","0.0-3.0-4.0-0.25","5f5aa60bef062519ff711fe6","A3","batch1","","null","<p class=block-text>Trial 50 out of 60</p>","null","spm_show_trial_num","","","","","","","","","","","","","","","","","","","","","","","","",""
"","","","","","image-button-response","281","2108708","0.0-3.0-4.0-1.25","5f5aa60bef062519ff711fe6","A3","batch1","","13676.09999999404","img/question_5_2.jpeg","5","spm_respsonse","1","6","mat_50","","","","","","1","13676.09999999404","","","","","","","","","","","","","","",""
"","","","","","html-keyboard-response","282","2109766","0.0-3.0-4.0-0.26","5f5aa60bef062519ff711fe6","A3","batch1","","null","<p class=block-text>Trial 51 out of 60</p>","null","spm_show_trial_num","","","","","","","","","","","","","","","","","","","","","","","","",""
"","","","","","image-button-response","283","2129396","0.0-3.0-4.0-1.26","5f5aa60bef062519ff711fe6","A3","batch1","","19628","img/question_5_3.jpeg","7","spm_respsonse","1","8","mat_51","","","","","","1","19628","","","","","","","","","","","","","","",""
"","","","","","html-keyboard-response","284","2130453","0.0-3.0-4.0-0.27","5f5aa60bef062519ff711fe6","A3","batch1","","null","<p class=block-text>Trial 52 out of 60</p>","null","spm_show_trial_num","","","","","","","","","","","","","","","","","","","","","","","","",""
"","","","","","image-button-response","285","2140128","0.0-3.0-4.0-1.27","5f5aa60bef062519ff711fe6","A3","batch1","","9673.5","img/question_5_4.jpeg","1","spm_respsonse","1","2","mat_52","","","","","","1","9673.5","","","","","","","","","","","","","","",""
"","","","","","html-keyboard-response","286","2141179","0.0-3.0-4.0-0.28","5f5aa60bef062519ff711fe6","A3","batch1","","null","<p class=block-text>Trial 53 out of 60</p>","null","spm_show_trial_num","","","","","","","","","","","","","","","","","","","","","","","","",""
"","","","","","image-button-response","287","2160630","0.0-3.0-4.0-1.28","5f5aa60bef062519ff711fe6","A3","batch1","","19450.5","img/question_5_5.jpeg","0","spm_respsonse","1","1","mat_53","","","","","","1","19450.5","","","","","","","","","","","","","","",""
"","","","","","html-keyboard-response","288","2161681","0.0-3.0-4.0-0.29","5f5aa60bef062519ff711fe6","A3","batch1","","null","<p class=block-text>Trial 54 out of 60</p>","null","spm_show_trial_num","","","","","","","","","","","","","","","","","","","","","","","","",""
"","","","","","image-button-response","289","2192122","0.0-3.0-4.0-1.29","5f5aa60bef062519ff711fe6","A3","batch1","","30439.40000000596","img/question_5_6.jpeg","4","spm_respsonse","1","5","mat_54","","","","","","1","30439.40000000596","","","","","","","","","","","","","","",""
"","","","","","html-keyboard-response","290","2193174","0.0-3.0-4.0-0.30","5f5aa60bef062519ff711fe6","A3","batch1","","null","<p class=block-text>Trial 55 out of 60</p>","null","spm_show_trial_num","","","","","","","","","","","","","","","","","","","","","","","","",""
"","","","","","image-button-response","291","2242085","0.0-3.0-4.0-1.30","5f5aa60bef062519ff711fe6","A3","batch1","","48908.40000000596","img/question_5_7.jpeg","0","spm_respsonse","1","1","mat_55","","","","","","1","48908.40000000596","","","","","","","","","","","","","","",""
"","","","","","html-keyboard-response","292","2243136","0.0-3.0-4.0-0.31","5f5aa60bef062519ff711fe6","A3","batch1","","null","<p class=block-text>Trial 56 out of 60</p>","null","spm_show_trial_num","","","","","","","","","","","","","","","","","","","","","","","","",""
"","","","","","image-button-response","293","2298525","0.0-3.0-4.0-1.31","5f5aa60bef062519ff711fe6","A3","batch1","","55387.79999998212","img/question_5_8.jpeg","5","spm_respsonse","1","6","mat_56","","","","","","1","55387.79999998212","","","","","","","","","","","","","","",""
"","","","","","html-keyboard-response","294","2299577","0.0-3.0-4.0-0.32","5f5aa60bef062519ff711fe6","A3","batch1","","null","<p class=block-text>Trial 57 out of 60</p>","null","spm_show_trial_num","","","","","","","","","","","","","","","","","","","","","","","","",""
"","","","","","image-button-response","295","2341126","0.0-3.0-4.0-1.32","5f5aa60bef062519ff711fe6","A3","batch1","","41547.80000001192","img/question_5_9.jpeg","0","spm_respsonse","0","3","mat_57","","","","","","0","41547.80000001192","","","","","","","","","","","","","","",""
"","","","","","html-keyboard-response","296","2342178","0.0-3.0-4.0-0.33","5f5aa60bef062519ff711fe6","A3","batch1","","null","<p class=block-text>Trial 58 out of 60</p>","null","spm_show_trial_num","","","","","","","","","","","","","","","","","","","","","","","","",""
"","","","","","image-button-response","297","2362824","0.0-3.0-4.0-1.33","5f5aa60bef062519ff711fe6","A3","batch1","","20644.40000000596","img/question_5_10.jpeg","1","spm_respsonse","1","2","mat_58","","","","","","1","20644.40000000596","","","","","","","","","","","","","","",""
"","","","","","html-keyboard-response","298","2363890","0.0-3.0-4.0-0.34","5f5aa60bef062519ff711fe6","A3","batch1","","null","<p class=block-text>Trial 59 out of 60</p>","null","spm_show_trial_num","","","","","","","","","","","","","","","","","","","","","","","","",""
"","","","","","image-button-response","299","2487996","0.0-3.0-4.0-1.34","5f5aa60bef062519ff711fe6","A3","batch1","","124105.19999998808","img/question_5_11.jpeg","6","spm_respsonse","0","4","mat_59","","","","","","0","124105.19999998808","","","","","","","","","","","","","","",""
"","","","","","html-keyboard-response","300","2489047","0.0-3.0-4.0-0.35","5f5aa60bef062519ff711fe6","A3","batch1","","null","<p class=block-text>Trial 60 out of 60</p>","null","spm_show_trial_num","","","","","","","","","","","","","","","","","","","","","","","","",""
"","","","","","image-button-response","301","2525147","0.0-3.0-4.0-1.35","5f5aa60bef062519ff711fe6","A3","batch1","","36099.39999997616","img/question_5_12.jpeg","1","spm_respsonse","0","5","mat_60","","","","","","0","36099.39999997616","","","","","","","","","","","","","","",""
"","","","","","html-button-response","302","2527794","0.0-3.0-5.0","5f5aa60bef062519ff711fe6","A3","batch1","","2395.7999999821186","<p class= block-text>This concludes the Standard Progressive Matrix game. Thank you for your responses!<br> When you are ready, click the button continue</p>","0","spm_goodbye","","","","","","","","","","","","","","","","","","","","","","","","",""
"true","","","","","fullscreen","303","2531215","0.0-4.0-0.0","5f5aa60bef062519ff711fe6","A3","batch1","","","","","","","","","","","","","","","","","","","","","","","","","","","","","",""
"","","","","","instructions","304","2610845","0.0-4.0-1.0-0.0-0.0","5f5aa60bef062519ff711fe6","A3","batch1","[{""page_index"":0,""viewing_time"":16447},{""page_index"":1,""viewing_time"":6088.700000017881},{""page_index"":2,""viewing_time"":7754.9000000059605},{""page_index"":3,""viewing_time"":14600.699999988079},{""page_index"":4,""viewing_time"":1544.0999999940395},{""page_index"":3,""viewing_time"":1054},{""page_index"":4,""viewing_time"":13598.5},{""page_index"":5,""viewing_time"":14761.59999999404},{""page_index"":6,""viewing_time"":3778.600000023842}]","79628.40000000596","","","tol-instructions","","","","","","","","","","","","","","","","","","","","","","","","",""
"","","","","","html-button-response","305","2611779","0.0-4.0-1.0-1.0-0.0","5f5aa60bef062519ff711fe6","A3","batch1","","933.5","<p class=block-text> Let's answer a few questions <br>","0","tol_enter_quiz","","","","","","","","","","","","","","","","","","","","","","","","",""
"","","","","","html-button-response","306","2618961","0.0-4.0-1.0-1.0-1.0","5f5aa60bef062519ff711fe6","A3","batch1","","7181.0999999940395","<p class = block-text>True or False: You can only move the ball on top of a peg. <br></p>","0","tol_quiz","true","","","","","","","","","","","","","","","","","","","","","","","",""
"","","","","","html-button-response","307","2620697","0.0-4.0-1.0-1.0-2.0","5f5aa60bef062519ff711fe6","A3","batch1","","1735.199999988079","<p class = block-text>Correct! You can only move the ball on top of a peg.</p>","0","tol_quiz_feedback","","","","","","","","","","","","","","","","","","","","","","","","",""
"","","","","","html-button-response","308","2627880","0.0-4.0-1.0-1.0-3.0","5f5aa60bef062519ff711fe6","A3","batch1","","7182.4000000059605","<p class = block-text>True or False: You should try to match your board with the target board with fewest moves possible. <br></p>","0","tol_quiz","true","","","","","","","","","","","","","","","","","","","","","","","",""
"","","","","","html-button-response","309","2628768","0.0-4.0-1.0-1.0-4.0","5f5aa60bef062519ff711fe6","A3","batch1","","887.5999999940395","<p class = block-text>Correct! </p>","0","tol_quiz_feedback","","","","","","","","","","","","","","","","","","","","","","","","",""
"","","","","","html-button-response","310","2631289","0.0-4.0-2.0","5f5aa60bef062519ff711fe6","A3","batch1","","2520.699999988079","<p class=block-text> Now that you've understood the game, let's practice a few easier examples before we start!<br> <br>","0","","","","","","","","","","","","","","","","","","","","","","","","","",""
"","","","","","single-stim-button","311","2635129","0.0-4.0-3.0-0.0","5f5aa60bef062519ff711fe6","A3","batch1","","3839","","","tol_practice","","","","","","","","","","","tol_peg_2","3839","3839","0","[[1,2,0],[0,0],[0]]","1","[[1,2,0],[0,0],[3]]","practice","3839","","","","","",""
"","","","","","single-stim-button","312","2636362","0.0-4.0-3.0-1.0","5f5aa60bef062519ff711fe6","A3","batch1","","1232","","","tol_practice","","","","","","","","","","","tol_peg_3","1232","1232","0","[[1,2,0],[0,0],[3]]","1","[[1,2,0],[0,0],[3]]","practice","1232","","","","","",""
"","","","","","poldrack-single-stim","313","2637363","0.0-4.0-4.0","5f5aa60bef062519ff711fe6","A3","batch1","","-1","","","tol_feedback","true","","","","","","","","","","","1000","1000","500","","","","","","-1","none","true","","0",""
"","","","","","single-stim-button","314","2641385","0.0-4.0-5.0-0.0","5f5aa60bef062519ff711fe6","A3","batch1","","4022","","","tol_practice","","","","","","","","","","","tol_peg_1","4022","4022","0","[[1,0,0],[3,0],[0]]","2","[[0,0,0],[3,1],[2]]","practice","4022","","","","","",""
"","","","","","single-stim-button","315","2642554","0.0-4.0-5.0-1.0","5f5aa60bef062519ff711fe6","A3","batch1","","1167","","","tol_practice","","","","","","","","","","","tol_peg_3","1167","1167","0","[[1,0,0],[3,0],[2]]","2","[[0,0,0],[3,1],[2]]","practice","1167","","","","","",""
"","","","","","single-stim-button","316","2643576","0.0-4.0-5.1-0.1","5f5aa60bef062519ff711fe6","A3","batch1","","1021","","","tol_practice","","","","","","","","","","","tol_peg_1","1021","1021","0","[[0,0,0],[3,0],[2]]","3","[[0,0,0],[3,1],[2]]","practice","1021","","","","","",""
"","","","","","single-stim-button","317","2644331","0.0-4.0-5.1-1.1","5f5aa60bef062519ff711fe6","A3","batch1","","754","","","tol_practice","","","","","","","","","","","tol_peg_2","754","754","0","[[0,0,0],[3,1],[2]]","3","[[0,0,0],[3,1],[2]]","practice","754","","","","","",""
"","","","","","poldrack-single-stim","318","2645331","0.0-4.0-6.0","5f5aa60bef062519ff711fe6","A3","batch1","","-1","","","tol_feedback","true","","","","","","","","","","","1000","1000","500","","","","","","-1","none","true","","0",""
"","","","","","single-stim-button","319","2647500","0.0-4.0-7.0-0.0","5f5aa60bef062519ff711fe6","A3","batch1","","2169","","","tol_practice","","","","","","","","","","","tol_peg_2","2169","2169","0","[[1,2,0],[0,0],[0]]","4","[[1,0,0],[2,0],[3]]","practice","2169","","","","","",""
"","","","","","single-stim-button","320","2648349","0.0-4.0-7.0-1.0","5f5aa60bef062519ff711fe6","A3","batch1","","849","","","tol_practice","","","","","","","","","","","tol_peg_3","849","849","0","[[1,2,0],[0,0],[3]]","4","[[1,0,0],[2,0],[3]]","practice","849","","","","","",""
"","","","","","single-stim-button","321","2648935","0.0-4.0-7.1-0.1","5f5aa60bef062519ff711fe6","A3","batch1","","586","","","tol_practice","","","","","","","","","","","tol_peg_1","586","586","0","[[1,0,0],[0,0],[3]]","5","[[1,0,0],[2,0],[3]]","practice","586","","","","","",""
"","","","","","single-stim-button","322","2649503","0.0-4.0-7.1-1.1","5f5aa60bef062519ff711fe6","A3","batch1","","568","","","tol_practice","","","","","","","","","","","tol_peg_2","568","568","0","[[1,0,0],[2,0],[3]]","5","[[1,0,0],[2,0],[3]]","practice","568","","","","","",""
"","","","","","poldrack-single-stim","323","2650506","0.0-4.0-8.0","5f5aa60bef062519ff711fe6","A3","batch1","","-1","","","tol_feedback","true","","","","","","","","","","","1000","1000","500","","","","","","-1","none","true","","0",""
"","","","","","html-button-response","324","2653941","0.0-4.0-9.0","5f5aa60bef062519ff711fe6","A3","batch1","","3434.4000000059605","<div class = centerbox><p class = center-block-text>Great job! You are done with practice trials<br>You are about to start official trials.<br> <br> Problem <strong>1</strong> out of 25 problems</p></div>","0","tol_instruction","","","","","","","","","","","","","","","","","","","","","","","","",""
"","","","","","single-stim-button","325","2663104","0.0-4.0-10.0-0.0","5f5aa60bef062519ff711fe6","A3","batch1","","8161","","","tol_tohand","","","","","","","","","","","tol_peg_1","8161","8161","0","[[1,0,0],[3,0],[0]]","1","[[1,3,0],[2,0],[0]]","0","0","","","","","","3"
"","","","","","single-stim-button","326","2664987","0.0-4.0-10.0-1.0","5f5aa60bef062519ff711fe6","A3","batch1","","1883","","","tol_toboard","","","","","","","","","","","tol_peg_3","1883","1883","0","[[1,0,0],[3,0],[2]]","1","[[1,3,0],[2,0],[0]]","0","0","","","","","","3"
"","","","","","single-stim-button","327","2665630","0.0-4.0-10.1-0.1","5f5aa60bef062519ff711fe6","A3","batch1","","642","","","tol_tohand","","","","","","","","","","","tol_peg_2","642","642","0","[[1,0,0],[0,0],[2]]","2","[[1,3,0],[2,0],[0]]","0","0","","","","","","3"
"","","","","","single-stim-button","328","2666402","0.0-4.0-10.1-1.1","5f5aa60bef062519ff711fe6","A3","batch1","","772","","","tol_toboard","","","","","","","","","","","tol_peg_1","772","772","0","[[1,3,0],[0,0],[2]]","2","[[1,3,0],[2,0],[0]]","0","0","","","","","","3"
"","","","","","single-stim-button","329","2667301","0.0-4.0-10.2-0.2","5f5aa60bef062519ff711fe6","A3","batch1","","899","","","tol_tohand","","","","","","","","","","","tol_peg_3","899","899","0","[[1,3,0],[0,0],[0]]","3","[[1,3,0],[2,0],[0]]","0","0","","","","","","3"
"","","","","","single-stim-button","330","2667857","0.0-4.0-10.2-1.2","5f5aa60bef062519ff711fe6","A3","batch1","","556","","","tol_toboard","","","","","","","","","","","tol_peg_2","556","556","0","[[1,3,0],[2,0],[0]]","3","[[1,3,0],[2,0],[0]]","0","0","","","","","","3"
"","","","","","poldrack-single-stim","331","2668859","0.0-4.0-11.0","5f5aa60bef062519ff711fe6","A3","batch1","","-1","","","tol_feedback","true","","","","","","","","","","","1000","1000","500","","","","","","-1","none","true","8161","9702",""
"","","","","","html-button-response","332","2669892","0.0-4.0-12.0","5f5aa60bef062519ff711fe6","A3","batch1","","1032.5999999940395","<div class = centerbox><p class = center-block-text>problem <strong>2</strong> out of 25 problems</p></div>","0","tol_trial_num","","","","","","","","","","","","","","","","","","","","","","","","",""
"","","","","","single-stim-button","333","2681854","0.0-4.0-13.0-0.0","5f5aa60bef062519ff711fe6","A3","batch1","","11962","","","tol_tohand","","","","","","","","","","","tol_peg_1","11962","11962","0","[[1,0,0],[3,0],[0]]","1","[[2,1,3],[0,0],[0]]","1","0","","","","","","5"
"","","","","","single-stim-button","334","2683446","0.0-4.0-13.0-1.0","5f5aa60bef062519ff711fe6","A3","batch1","","1592","","","tol_toboard","","","","","","","","","","","tol_peg_3","1592","1592","0","[[1,0,0],[3,0],[2]]","1","[[2,1,3],[0,0],[0]]","1","0","","","","","","5"
"","","","","","single-stim-button","335","2684498","0.0-4.0-13.1-0.1","5f5aa60bef062519ff711fe6","A3","batch1","","1052","","","tol_tohand","","","","","","","","","","","tol_peg_1","1052","1052","0","[[0,0,0],[3,0],[2]]","2","[[2,1,3],[0,0],[0]]","1","0","","","","","","5"
"","","","","","single-stim-button","336","2685068","0.0-4.0-13.1-1.1","5f5aa60bef062519ff711fe6","A3","batch1","","570","","","tol_toboard","","","","","","","","","","","tol_peg_2","570","570","0","[[0,0,0],[3,1],[2]]","2","[[2,1,3],[0,0],[0]]","1","0","","","","","","5"
"","","","","","single-stim-button","337","2685547","0.0-4.0-13.2-0.2","5f5aa60bef062519ff711fe6","A3","batch1","","478","","","tol_tohand","","","","","","","","","","","tol_peg_3","478","478","0","[[0,0,0],[3,1],[0]]","3","[[2,1,3],[0,0],[0]]","1","0","","","","","","5"
"","","","","","single-stim-button","338","2686090","0.0-4.0-13.2-1.2","5f5aa60bef062519ff711fe6","A3","batch1","","542","","","tol_toboard","","","","","","","","","","","tol_peg_1","542","542","0","[[2,0,0],[3,1],[0]]","3","[[2,1,3],[0,0],[0]]","1","0","","","","","","5"
"","","","","","single-stim-button","339","2686627","0.0-4.0-13.3-0.3","5f5aa60bef062519ff711fe6","A3","batch1","","536","","","tol_tohand","","","","","","","","","","","tol_peg_2","536","536","0","[[2,0,0],[3,0],[0]]","4","[[2,1,3],[0,0],[0]]","1","0","","","","","","5"
"","","","","","single-stim-button","340","2687132","0.0-4.0-13.3-1.3","5f5aa60bef062519ff711fe6","A3","batch1","","505","","","tol_toboard","","","","","","","","","","","tol_peg_1","505","505","0","[[2,1,0],[3,0],[0]]","4","[[2,1,3],[0,0],[0]]","1","0","","","","","","5"
"","","","","","single-stim-button","341","2687584","0.0-4.0-13.4-0.4","5f5aa60bef062519ff711fe6","A3","batch1","","450","","","tol_tohand","","","","","","","","","","","tol_peg_2","450","450","0","[[2,1,0],[0,0],[0]]","5","[[2,1,3],[0,0],[0]]","1","0","","","","","","5"
"","","","","","single-stim-button","342","2688068","0.0-4.0-13.4-1.4","5f5aa60bef062519ff711fe6","A3","batch1","","483","","","tol_toboard","","","","","","","","","","","tol_peg_1","483","483","0","[[2,1,3],[0,0],[0]]","5","[[2,1,3],[0,0],[0]]","1","0","","","","","","5"
"","","","","","poldrack-single-stim","343","2689069","0.0-4.0-14.0","5f5aa60bef062519ff711fe6","A3","batch1","","-1","","","tol_feedback","true","","","","","","","","","","","1000","1000","500","","","","","","-1","none","true","11962","14478",""
"","","","","","html-button-response","344","2690302","0.0-4.0-15.0","5f5aa60bef062519ff711fe6","A3","batch1","","1231.9000000059605","<div class = centerbox><p class = center-block-text>problem <strong>3</strong> out of 25 problems</p></div>","0","tol_trial_num","","","","","","","","","","","","","","","","","","","","","","","","",""
"","","","","","single-stim-button","345","2696546","0.0-4.0-16.0-0.0","5f5aa60bef062519ff711fe6","A3","batch1","","6243","","","tol_tohand","","","","","","","","","","","tol_peg_1","6243","6243","0","[[2,0,0],[0,0],[1]]","1","[[1,2,0],[3,0],[0]]","2","0","","","","","","4"
"","","","","","single-stim-button","346","2698717","0.0-4.0-16.0-1.0","5f5aa60bef062519ff711fe6","A3","batch1","","2171","","","tol_toboard","","","","","","","","","","","tol_peg_2","2171","2171","0","[[2,0,0],[3,0],[1]]","1","[[1,2,0],[3,0],[0]]","2","0","","","","","","4"
"","","","","","single-stim-button","347","2699810","0.0-4.0-16.1-0.1","5f5aa60bef062519ff711fe6","A3","batch1","","1093","","","tol_tohand","","","","","","","","","","","tol_peg_1","1093","1093","0","[[0,0,0],[3,0],[1]]","2","[[1,2,0],[3,0],[0]]","2","0","","","","","","4"
