"success","timeout","failed_images","failed_audio","failed_video","trial_type","trial_index","time_elapsed","internal_node_id","subject_id","study_id","session_id","task","rt","stimulus","response","item","answer","correct","spm_correct","spm_rt","view_history","fiar_detect_rt","fiar_detect_correct","total_correct_fiar_detect","post_trial_gap","choices","mouse_click","stim_duration","block_duration","timing_post_trial","current_position","tol_num_moves_made","tol_target","tol_problem_id","tol_rt","key_press","possible_responses","tol_correct","preplanning","tol_rt_per_trial","tol_min_moves"
"true","false","[]","[]","[]","preload","0","1230","0.0-0.0","5f5c4b9c062e0f43a15ed050","D2","batch4","","","","","","","","","","","","","","","","","","","","","","","","","","","","","",""
"true","","","","","fullscreen","1","11699","0.0-1.0-0.0","5f5c4b9c062e0f43a15ed050","D2","batch4","","","","","","","","","","","","","","","","","","","","","","","","","","","","","",""
"true","","","","","fullscreen","2","100472","0.0-2.0-0.0","5f5c4b9c062e0f43a15ed050","D2","batch4","spm_fullscreen","","","","","","","","","","","","","","","","","","","","","","","","","","","","",""
"","","","","","html-button-response","3","108928","0.0-2.0-1.0","5f5c4b9c062e0f43a15ed050","D2","batch4","","8455.60000000149","<p class = block-text><b>Instructions</b> <br>This is a widely used intelligence test in research. <br>In this test, a figure with a missing piece will be presented.<br>Below the figure are alternative pieces to complete the figure, only one of which is correct.<br> Different figures might involve different principles for obtaining the missing piece<br>Your job is to select the most logical piece to complete the figure.</p>","0","","","","","","","","","","","","","","","","","","","","","","","","","",""
"","","","","","html-keyboard-response","4","109732","0.0-2.0-2.0-0.0","5f5c4b9c062e0f43a15ed050","D2","batch4","spm_show_trial_num","null","<p class=block-text>Trial 1 out of 60</p>","null","","","","","","","","","","","","","","","","","","","","","","","","","",""
"","","","","","image-button-response","5","122646","0.0-2.0-2.0-1.0","5f5c4b9c062e0f43a15ed050","D2","batch4","spm_respsonse","12910.79999999702","img/question_1_1.jpeg","3","mat_01","4","1","1","12910.79999999702","","","","","","","","","","","","","","","","","","","","",""
"","","","","","html-keyboard-response","6","123697","0.0-2.0-2.0-0.1","5f5c4b9c062e0f43a15ed050","D2","batch4","spm_show_trial_num","null","<p class=block-text>Trial 2 out of 60</p>","null","","","","","","","","","","","","","","","","","","","","","","","","","",""
"","","","","","image-button-response","7","125697","0.0-2.0-2.0-1.1","5f5c4b9c062e0f43a15ed050","D2","batch4","spm_respsonse","1999.2000000029802","img/question_1_2.jpeg","4","mat_02","5","1","1","1999.2000000029802","","","","","","","","","","","","","","","","","","","","",""
"","","","","","html-keyboard-response","8","126750","0.0-2.0-2.0-0.2","5f5c4b9c062e0f43a15ed050","D2","batch4","spm_show_trial_num","null","<p class=block-text>Trial 3 out of 60</p>","null","","","","","","","","","","","","","","","","","","","","","","","","","",""
"","","","","","image-button-response","9","129811","0.0-2.0-2.0-1.2","5f5c4b9c062e0f43a15ed050","D2","batch4","spm_respsonse","3059.7000000029802","img/question_1_3.jpeg","0","mat_03","1","1","1","3059.7000000029802","","","","","","","","","","","","","","","","","","","","",""
"","","","","","html-keyboard-response","10","130863","0.0-2.0-2.0-0.3","5f5c4b9c062e0f43a15ed050","D2","batch4","spm_show_trial_num","null","<p class=block-text>Trial 4 out of 60</p>","null","","","","","","","","","","","","","","","","","","","","","","","","","",""
"","","","","","image-button-response","11","133818","0.0-2.0-2.0-1.3","5f5c4b9c062e0f43a15ed050","D2","batch4","spm_respsonse","2953.7000000029802","img/question_1_4.jpeg","1","mat_04","2","1","1","2953.7000000029802","","","","","","","","","","","","","","","","","","","","",""
"","","","","","html-keyboard-response","12","134870","0.0-2.0-2.0-0.4","5f5c4b9c062e0f43a15ed050","D2","batch4","spm_show_trial_num","null","<p class=block-text>Trial 5 out of 60</p>","null","","","","","","","","","","","","","","","","","","","","","","","","","",""
"","","","","","image-button-response","13","138755","0.0-2.0-2.0-1.4","5f5c4b9c062e0f43a15ed050","D2","batch4","spm_respsonse","3883.89999999851","img/question_1_5.jpeg","5","mat_05","6","1","1","3883.89999999851","","","","","","","","","","","","","","","","","","","","",""
"","","","","","html-keyboard-response","14","139808","0.0-2.0-2.0-0.5","5f5c4b9c062e0f43a15ed050","D2","batch4","spm_show_trial_num","null","<p class=block-text>Trial 6 out of 60</p>","null","","","","","","","","","","","","","","","","","","","","","","","","","",""
"","","","","","image-button-response","15","142435","0.0-2.0-2.0-1.5","5f5c4b9c062e0f43a15ed050","D2","batch4","spm_respsonse","2626","img/question_1_6.jpeg","2","mat_06","3","1","1","2626","","","","","","","","","","","","","","","","","","","","",""
"","","","","","html-keyboard-response","16","143487","0.0-2.0-2.0-0.6","5f5c4b9c062e0f43a15ed050","D2","batch4","spm_show_trial_num","null","<p class=block-text>Trial 7 out of 60</p>","null","","","","","","","","","","","","","","","","","","","","","","","","","",""
"","","","","","image-button-response","17","147127","0.0-2.0-2.0-1.6","5f5c4b9c062e0f43a15ed050","D2","batch4","spm_respsonse","3639.2999999970198","img/question_1_7.jpeg","5","mat_07","6","1","1","3639.2999999970198","","","","","","","","","","","","","","","","","","","","",""
"","","","","","html-keyboard-response","18","148180","0.0-2.0-2.0-0.7","5f5c4b9c062e0f43a15ed050","D2","batch4","spm_show_trial_num","null","<p class=block-text>Trial 8 out of 60</p>","null","","","","","","","","","","","","","","","","","","","","","","","","","",""
"","","","","","image-button-response","19","153364","0.0-2.0-2.0-1.7","5f5c4b9c062e0f43a15ed050","D2","batch4","spm_respsonse","5182.89999999851","img/question_1_8.jpeg","1","mat_08","2","1","1","5182.89999999851","","","","","","","","","","","","","","","","","","","","",""
"","","","","","html-keyboard-response","20","154416","0.0-2.0-2.0-0.8","5f5c4b9c062e0f43a15ed050","D2","batch4","spm_show_trial_num","null","<p class=block-text>Trial 9 out of 60</p>","null","","","","","","","","","","","","","","","","","","","","","","","","","",""
"","","","","","image-button-response","21","157710","0.0-2.0-2.0-1.8","5f5c4b9c062e0f43a15ed050","D2","batch4","spm_respsonse","3292.9000000059605","img/question_1_9.jpeg","0","mat_09","1","1","1","3292.9000000059605","","","","","","","","","","","","","","","","","","","","",""
"","","","","","html-keyboard-response","22","158777","0.0-2.0-2.0-0.9","5f5c4b9c062e0f43a15ed050","D2","batch4","spm_show_trial_num","null","<p class=block-text>Trial 10 out of 60</p>","null","","","","","","","","","","","","","","","","","","","","","","","","","",""
"","","","","","image-button-response","23","163536","0.0-2.0-2.0-1.9","5f5c4b9c062e0f43a15ed050","D2","batch4","spm_respsonse","4757.10000000149","img/question_1_10.jpeg","2","mat_10","3","1","1","4757.10000000149","","","","","","","","","","","","","","","","","","","","",""
"","","","","","html-keyboard-response","24","164596","0.0-2.0-2.0-0.10","5f5c4b9c062e0f43a15ed050","D2","batch4","spm_show_trial_num","null","<p class=block-text>Trial 11 out of 60</p>","null","","","","","","","","","","","","","","","","","","","","","","","","","",""
"","","","","","image-button-response","25","174715","0.0-2.0-2.0-1.10","5f5c4b9c062e0f43a15ed050","D2","batch4","spm_respsonse","10116.79999999702","img/question_1_11.jpeg","3","mat_11","4","1","1","10116.79999999702","","","","","","","","","","","","","","","","","","","","",""
"","","","","","html-keyboard-response","26","175773","0.0-2.0-2.0-0.11","5f5c4b9c062e0f43a15ed050","D2","batch4","spm_show_trial_num","null","<p class=block-text>Trial 12 out of 60</p>","null","","","","","","","","","","","","","","","","","","","","","","","","","",""
"","","","","","image-button-response","27","188865","0.0-2.0-2.0-1.11","5f5c4b9c062e0f43a15ed050","D2","batch4","spm_respsonse","13090.79999999702","img/question_1_12.jpeg","4","mat_12","5","1","1","13090.79999999702","","","","","","","","","","","","","","","","","","","","",""
"","","","","","html-keyboard-response","28","189922","0.0-2.0-2.0-0.12","5f5c4b9c062e0f43a15ed050","D2","batch4","spm_show_trial_num","null","<p class=block-text>Trial 13 out of 60</p>","null","","","","","","","","","","","","","","","","","","","","","","","","","",""
"","","","","","image-button-response","29","192389","0.0-2.0-2.0-1.12","5f5c4b9c062e0f43a15ed050","D2","batch4","spm_respsonse","2466","img/question_2_1.jpeg","1","mat_13","2","1","1","2466","","","","","","","","","","","","","","","","","","","","",""
"","","","","","html-keyboard-response","30","193457","0.0-2.0-2.0-0.13","5f5c4b9c062e0f43a15ed050","D2","batch4","spm_show_trial_num","null","<p class=block-text>Trial 14 out of 60</p>","null","","","","","","","","","","","","","","","","","","","","","","","","","",""
"","","","","","image-button-response","31","198189","0.0-2.0-2.0-1.13","5f5c4b9c062e0f43a15ed050","D2","batch4","spm_respsonse","4730.89999999851","img/question_2_2.jpeg","5","mat_14","6","1","1","4730.89999999851","","","","","","","","","","","","","","","","","","","","",""
"","","","","","html-keyboard-response","32","199260","0.0-2.0-2.0-0.14","5f5c4b9c062e0f43a15ed050","D2","batch4","spm_show_trial_num","null","<p class=block-text>Trial 15 out of 60</p>","null","","","","","","","","","","","","","","","","","","","","","","","","","",""
"","","","","","image-button-response","33","203357","0.0-2.0-2.0-1.14","5f5c4b9c062e0f43a15ed050","D2","batch4","spm_respsonse","4096.79999999702","img/question_2_3.jpeg","0","mat_15","1","1","1","4096.79999999702","","","","","","","","","","","","","","","","","","","","",""
"","","","","","html-keyboard-response","34","204430","0.0-2.0-2.0-0.15","5f5c4b9c062e0f43a15ed050","D2","batch4","spm_show_trial_num","null","<p class=block-text>Trial 16 out of 60</p>","null","","","","","","","","","","","","","","","","","","","","","","","","","",""
"","","","","","image-button-response","35","208238","0.0-2.0-2.0-1.15","5f5c4b9c062e0f43a15ed050","D2","batch4","spm_respsonse","3807.39999999851","img/question_2_4.jpeg","1","mat_16","2","1","1","3807.39999999851","","","","","","","","","","","","","","","","","","","","",""
"","","","","","html-keyboard-response","36","209306","0.0-2.0-2.0-0.16","5f5c4b9c062e0f43a15ed050","D2","batch4","spm_show_trial_num","null","<p class=block-text>Trial 17 out of 60</p>","null","","","","","","","","","","","","","","","","","","","","","","","","","",""
"","","","","","image-button-response","37","217224","0.0-2.0-2.0-1.16","5f5c4b9c062e0f43a15ed050","D2","batch4","spm_respsonse","7917.29999999702","img/question_2_5.jpeg","0","mat_17","1","1","1","7917.29999999702","","","","","","","","","","","","","","","","","","","","",""
"","","","","","html-keyboard-response","38","218289","0.0-2.0-2.0-0.17","5f5c4b9c062e0f43a15ed050","D2","batch4","spm_show_trial_num","null","<p class=block-text>Trial 18 out of 60</p>","null","","","","","","","","","","","","","","","","","","","","","","","","","",""
"","","","","","image-button-response","39","222499","0.0-2.0-2.0-1.17","5f5c4b9c062e0f43a15ed050","D2","batch4","spm_respsonse","4208.69999999553","img/question_2_6.jpeg","2","mat_18","3","1","1","4208.69999999553","","","","","","","","","","","","","","","","","","","","",""
"","","","","","html-keyboard-response","40","223560","0.0-2.0-2.0-0.18","5f5c4b9c062e0f43a15ed050","D2","batch4","spm_show_trial_num","null","<p class=block-text>Trial 19 out of 60</p>","null","","","","","","","","","","","","","","","","","","","","","","","","","",""
"","","","","","image-button-response","41","230412","0.0-2.0-2.0-1.18","5f5c4b9c062e0f43a15ed050","D2","batch4","spm_respsonse","6850.89999999851","img/question_2_7.jpeg","4","mat_19","5","1","1","6850.89999999851","","","","","","","","","","","","","","","","","","","","",""
"","","","","","html-keyboard-response","42","231464","0.0-2.0-2.0-0.19","5f5c4b9c062e0f43a15ed050","D2","batch4","spm_show_trial_num","null","<p class=block-text>Trial 20 out of 60</p>","null","","","","","","","","","","","","","","","","","","","","","","","","","",""
"","","","","","image-button-response","43","238948","0.0-2.0-2.0-1.19","5f5c4b9c062e0f43a15ed050","D2","batch4","spm_respsonse","7483","img/question_2_8.jpeg","5","mat_20","6","1","1","7483","","","","","","","","","","","","","","","","","","","","",""
"","","","","","html-keyboard-response","44","240000","0.0-2.0-2.0-0.20","5f5c4b9c062e0f43a15ed050","D2","batch4","spm_show_trial_num","null","<p class=block-text>Trial 21 out of 60</p>","null","","","","","","","","","","","","","","","","","","","","","","","","","",""
"","","","","","image-button-response","45","243780","0.0-2.0-2.0-1.20","5f5c4b9c062e0f43a15ed050","D2","batch4","spm_respsonse","3778.89999999851","img/question_2_9.jpeg","0","mat_21","4","0","0","3778.89999999851","","","","","","","","","","","","","","","","","","","","",""
"","","","","","html-keyboard-response","46","244832","0.0-2.0-2.0-0.21","5f5c4b9c062e0f43a15ed050","D2","batch4","spm_show_trial_num","null","<p class=block-text>Trial 22 out of 60</p>","null","","","","","","","","","","","","","","","","","","","","","","","","","",""
"","","","","","image-button-response","47","252417","0.0-2.0-2.0-1.21","5f5c4b9c062e0f43a15ed050","D2","batch4","spm_respsonse","7583.89999999851","img/question_2_10.jpeg","5","mat_22","3","0","0","7583.89999999851","","","","","","","","","","","","","","","","","","","","",""
"","","","","","html-keyboard-response","48","253470","0.0-2.0-2.0-0.22","5f5c4b9c062e0f43a15ed050","D2","batch4","spm_show_trial_num","null","<p class=block-text>Trial 23 out of 60</p>","null","","","","","","","","","","","","","","","","","","","","","","","","","",""
"","","","","","image-button-response","49","258342","0.0-2.0-2.0-1.22","5f5c4b9c062e0f43a15ed050","D2","batch4","spm_respsonse","4870.79999999702","img/question_2_11.jpeg","3","mat_23","4","1","1","4870.79999999702","","","","","","","","","","","","","","","","","","","","",""
"","","","","","html-keyboard-response","50","259409","0.0-2.0-2.0-0.23","5f5c4b9c062e0f43a15ed050","D2","batch4","spm_show_trial_num","null","<p class=block-text>Trial 24 out of 60</p>","null","","","","","","","","","","","","","","","","","","","","","","","","","",""
"","","","","","image-button-response","51","265935","0.0-2.0-2.0-1.23","5f5c4b9c062e0f43a15ed050","D2","batch4","spm_respsonse","6525","img/question_2_12.jpeg","1","mat_24","5","0","0","6525","","","","","","","","","","","","","","","","","","","","",""
"","","","","","html-button-response","52","267745","0.0-2.0-3.0","5f5c4b9c062e0f43a15ed050","D2","batch4","attention_check","1559.1999999955297","<p class = block-text>Attention check: Please choose 1<br></p>","0","","","true","","","","","","","","","","","","","","","","","","","","","","",""
"","","","","","html-keyboard-response","53","268554","0.0-2.0-4.0-0.0","5f5c4b9c062e0f43a15ed050","D2","batch4","spm_show_trial_num","null","<p class=block-text>Trial 25 out of 60</p>","null","","","","","","","","","","","","","","","","","","","","","","","","","",""
"","","","","","image-button-response","54","274267","0.0-2.0-4.0-1.0","5f5c4b9c062e0f43a15ed050","D2","batch4","spm_respsonse","5711.69999999553","img/question_3_1.jpeg","7","mat_25","8","1","1","5711.69999999553","","","","","","","","","","","","","","","","","","","","",""
"","","","","","html-keyboard-response","55","275319","0.0-2.0-4.0-0.1","5f5c4b9c062e0f43a15ed050","D2","batch4","spm_show_trial_num","null","<p class=block-text>Trial 26 out of 60</p>","null","","","","","","","","","","","","","","","","","","","","","","","","","",""
"","","","","","image-button-response","56","280312","0.0-2.0-4.0-1.1","5f5c4b9c062e0f43a15ed050","D2","batch4","spm_respsonse","4991.89999999851","img/question_3_2.jpeg","1","mat_26","2","1","1","4991.89999999851","","","","","","","","","","","","","","","","","","","","",""
"","","","","","html-keyboard-response","57","281376","0.0-2.0-4.0-0.2","5f5c4b9c062e0f43a15ed050","D2","batch4","spm_show_trial_num","null","<p class=block-text>Trial 27 out of 60</p>","null","","","","","","","","","","","","","","","","","","","","","","","","","",""
"","","","","","image-button-response","58","287494","0.0-2.0-4.0-1.2","5f5c4b9c062e0f43a15ed050","D2","batch4","spm_respsonse","6117.69999999553","img/question_3_3.jpeg","2","mat_27","3","1","1","6117.69999999553","","","","","","","","","","","","","","","","","","","","",""
"","","","","","html-keyboard-response","59","288548","0.0-2.0-4.0-0.3","5f5c4b9c062e0f43a15ed050","D2","batch4","spm_show_trial_num","null","<p class=block-text>Trial 28 out of 60</p>","null","","","","","","","","","","","","","","","","","","","","","","","","","",""
"","","","","","image-button-response","60","299792","0.0-2.0-4.0-1.3","5f5c4b9c062e0f43a15ed050","D2","batch4","spm_respsonse","11242.69999999553","img/question_3_4.jpeg","7","mat_28","8","1","1","11242.69999999553","","","","","","","","","","","","","","","","","","","","",""
"","","","","","html-keyboard-response","61","300844","0.0-2.0-4.0-0.4","5f5c4b9c062e0f43a15ed050","D2","batch4","spm_show_trial_num","null","<p class=block-text>Trial 29 out of 60</p>","null","","","","","","","","","","","","","","","","","","","","","","","","","",""
"","","","","","image-button-response","62","309784","0.0-2.0-4.0-1.4","5f5c4b9c062e0f43a15ed050","D2","batch4","spm_respsonse","8938.89999999851","img/question_3_5.jpeg","6","mat_29","7","1","1","8938.89999999851","","","","","","","","","","","","","","","","","","","","",""
"","","","","","html-keyboard-response","63","310837","0.0-2.0-4.0-0.5","5f5c4b9c062e0f43a15ed050","D2","batch4","spm_show_trial_num","null","<p class=block-text>Trial 30 out of 60</p>","null","","","","","","","","","","","","","","","","","","","","","","","","","",""
"","","","","","image-button-response","64","317321","0.0-2.0-4.0-1.5","5f5c4b9c062e0f43a15ed050","D2","batch4","spm_respsonse","6482.89999999851","img/question_3_6.jpeg","3","mat_30","4","1","1","6482.89999999851","","","","","","","","","","","","","","","","","","","","",""
"","","","","","html-keyboard-response","65","318382","0.0-2.0-4.0-0.6","5f5c4b9c062e0f43a15ed050","D2","batch4","spm_show_trial_num","null","<p class=block-text>Trial 31 out of 60</p>","null","","","","","","","","","","","","","","","","","","","","","","","","","",""
"","","","","","image-button-response","66","324718","0.0-2.0-4.0-1.6","5f5c4b9c062e0f43a15ed050","D2","batch4","spm_respsonse","6334.89999999851","img/question_3_7.jpeg","4","mat_31","5","1","1","6334.89999999851","","","","","","","","","","","","","","","","","","","","",""
"","","","","","html-keyboard-response","67","325789","0.0-2.0-4.0-0.7","5f5c4b9c062e0f43a15ed050","D2","batch4","spm_show_trial_num","null","<p class=block-text>Trial 32 out of 60</p>","null","","","","","","","","","","","","","","","","","","","","","","","","","",""
"","","","","","image-button-response","68","338602","0.0-2.0-4.0-1.7","5f5c4b9c062e0f43a15ed050","D2","batch4","spm_respsonse","12811.89999999851","img/question_3_8.jpeg","0","mat_32","1","1","1","12811.89999999851","","","","","","","","","","","","","","","","","","","","",""
"","","","","","html-keyboard-response","69","339665","0.0-2.0-4.0-0.8","5f5c4b9c062e0f43a15ed050","D2","batch4","spm_show_trial_num","null","<p class=block-text>Trial 33 out of 60</p>","null","","","","","","","","","","","","","","","","","","","","","","","","","",""
"","","","","","image-button-response","70","353441","0.0-2.0-4.0-1.8","5f5c4b9c062e0f43a15ed050","D2","batch4","spm_respsonse","13774.69999999553","img/question_3_9.jpeg","6","mat_33","7","1","1","13774.69999999553","","","","","","","","","","","","","","","","","","","","",""
"","","","","","html-keyboard-response","71","354504","0.0-2.0-4.0-0.9","5f5c4b9c062e0f43a15ed050","D2","batch4","spm_show_trial_num","null","<p class=block-text>Trial 34 out of 60</p>","null","","","","","","","","","","","","","","","","","","","","","","","","","",""
"","","","","","image-button-response","72","380903","0.0-2.0-4.0-1.9","5f5c4b9c062e0f43a15ed050","D2","batch4","spm_respsonse","26397.79999999702","img/question_3_10.jpeg","5","mat_34","6","1","1","26397.79999999702","","","","","","","","","","","","","","","","","","","","",""
"","","","","","html-keyboard-response","73","381955","0.0-2.0-4.0-0.10","5f5c4b9c062e0f43a15ed050","D2","batch4","spm_show_trial_num","null","<p class=block-text>Trial 35 out of 60</p>","null","","","","","","","","","","","","","","","","","","","","","","","","","",""
"","","","","","image-button-response","74","400078","0.0-2.0-4.0-1.10","5f5c4b9c062e0f43a15ed050","D2","batch4","spm_respsonse","18120.29999999702","img/question_3_11.jpeg","0","mat_35","1","1","1","18120.29999999702","","","","","","","","","","","","","","","","","","","","",""
"","","","","","html-keyboard-response","75","401133","0.0-2.0-4.0-0.11","5f5c4b9c062e0f43a15ed050","D2","batch4","spm_show_trial_num","null","<p class=block-text>Trial 36 out of 60</p>","null","","","","","","","","","","","","","","","","","","","","","","","","","",""
"","","","","","image-button-response","76","410923","0.0-2.0-4.0-1.11","5f5c4b9c062e0f43a15ed050","D2","batch4","spm_respsonse","9788.79999999702","img/question_3_12.jpeg","5","mat_36","2","0","0","9788.79999999702","","","","","","","","","","","","","","","","","","","","",""
"","","","","","html-keyboard-response","77","411980","0.0-2.0-4.0-0.12","5f5c4b9c062e0f43a15ed050","D2","batch4","spm_show_trial_num","null","<p class=block-text>Trial 37 out of 60</p>","null","","","","","","","","","","","","","","","","","","","","","","","","","",""
"","","","","","image-button-response","78","414907","0.0-2.0-4.0-1.12","5f5c4b9c062e0f43a15ed050","D2","batch4","spm_respsonse","2925.7999999970198","img/question_4_1.jpeg","2","mat_37","3","1","1","2925.7999999970198","","","","","","","","","","","","","","","","","","","","",""
"","","","","","html-keyboard-response","79","415977","0.0-2.0-4.0-0.13","5f5c4b9c062e0f43a15ed050","D2","batch4","spm_show_trial_num","null","<p class=block-text>Trial 38 out of 60</p>","null","","","","","","","","","","","","","","","","","","","","","","","","","",""
"","","","","","image-button-response","80","436650","0.0-2.0-4.0-1.13","5f5c4b9c062e0f43a15ed050","D2","batch4","spm_respsonse","20671.29999999702","img/question_4_2.jpeg","3","mat_38","4","1","1","20671.29999999702","","","","","","","","","","","","","","","","","","","","",""
"","","","","","html-keyboard-response","81","437714","0.0-2.0-4.0-0.14","5f5c4b9c062e0f43a15ed050","D2","batch4","spm_show_trial_num","null","<p class=block-text>Trial 39 out of 60</p>","null","","","","","","","","","","","","","","","","","","","","","","","","","",""
"","","","","","image-button-response","82","447380","0.0-2.0-4.0-1.14","5f5c4b9c062e0f43a15ed050","D2","batch4","spm_respsonse","9664","img/question_4_3.jpeg","2","mat_39","3","1","1","9664","","","","","","","","","","","","","","","","","","","","",""
"","","","","","html-keyboard-response","83","448457","0.0-2.0-4.0-0.15","5f5c4b9c062e0f43a15ed050","D2","batch4","spm_show_trial_num","null","<p class=block-text>Trial 40 out of 60</p>","null","","","","","","","","","","","","","","","","","","","","","","","","","",""
"","","","","","image-button-response","84","457326","0.0-2.0-4.0-1.15","5f5c4b9c062e0f43a15ed050","D2","batch4","spm_respsonse","8867","img/question_4_4.jpeg","6","mat_40","7","1","1","8867","","","","","","","","","","","","","","","","","","","","",""
"","","","","","html-keyboard-response","85","458383","0.0-2.0-4.0-0.16","5f5c4b9c062e0f43a15ed050","D2","batch4","spm_show_trial_num","null","<p class=block-text>Trial 41 out of 60</p>","null","","","","","","","","","","","","","","","","","","","","","","","","","",""
"","","","","","image-button-response","86","468388","0.0-2.0-4.0-1.16","5f5c4b9c062e0f43a15ed050","D2","batch4","spm_respsonse","10004.5","img/question_4_5.jpeg","7","mat_41","8","1","1","10004.5","","","","","","","","","","","","","","","","","","","","",""
"","","","","","html-keyboard-response","87","469457","0.0-2.0-4.0-0.17","5f5c4b9c062e0f43a15ed050","D2","batch4","spm_show_trial_num","null","<p class=block-text>Trial 42 out of 60</p>","null","","","","","","","","","","","","","","","","","","","","","","","","","",""
"","","","","","image-button-response","88","486142","0.0-2.0-4.0-1.17","5f5c4b9c062e0f43a15ed050","D2","batch4","spm_respsonse","16683.39999999851","img/question_4_6.jpeg","5","mat_42","6","1","1","16683.39999999851","","","","","","","","","","","","","","","","","","","","",""
"","","","","","html-keyboard-response","89","487195","0.0-2.0-4.0-0.18","5f5c4b9c062e0f43a15ed050","D2","batch4","spm_show_trial_num","null","<p class=block-text>Trial 43 out of 60</p>","null","","","","","","","","","","","","","","","","","","","","","","","","","",""
"","","","","","image-button-response","90","522088","0.0-2.0-4.0-1.18","5f5c4b9c062e0f43a15ed050","D2","batch4","spm_respsonse","34890.79999999702","img/question_4_7.jpeg","4","mat_43","5","1","1","34890.79999999702","","","","","","","","","","","","","","","","","","","","",""
"","","","","","html-keyboard-response","91","523158","0.0-2.0-4.0-0.19","5f5c4b9c062e0f43a15ed050","D2","batch4","spm_show_trial_num","null","<p class=block-text>Trial 44 out of 60</p>","null","","","","","","","","","","","","","","","","","","","","","","","","","",""
"","","","","","image-button-response","92","536924","0.0-2.0-4.0-1.19","5f5c4b9c062e0f43a15ed050","D2","batch4","spm_respsonse","13764.10000000149","img/question_4_8.jpeg","3","mat_44","4","1","1","13764.10000000149","","","","","","","","","","","","","","","","","","","","",""
"","","","","","html-keyboard-response","93","537987","0.0-2.0-4.0-0.20","5f5c4b9c062e0f43a15ed050","D2","batch4","spm_show_trial_num","null","<p class=block-text>Trial 45 out of 60</p>","null","","","","","","","","","","","","","","","","","","","","","","","","","",""
"","","","","","image-button-response","94","573713","0.0-2.0-4.0-1.20","5f5c4b9c062e0f43a15ed050","D2","batch4","spm_respsonse","35724.80000000447","img/question_4_9.jpeg","2","mat_45","1","0","0","35724.80000000447","","","","","","","","","","","","","","","","","","","","",""
"","","","","","html-keyboard-response","95","574784","0.0-2.0-4.0-0.21","5f5c4b9c062e0f43a15ed050","D2","batch4","spm_show_trial_num","null","<p class=block-text>Trial 46 out of 60</p>","null","","","","","","","","","","","","","","","","","","","","","","","","","",""
"","","","","","image-button-response","96","606798","0.0-2.0-4.0-1.21","5f5c4b9c062e0f43a15ed050","D2","batch4","spm_respsonse","32012.5","img/question_4_10.jpeg","1","mat_46","2","1","1","32012.5","","","","","","","","","","","","","","","","","","","","",""
"","","","","","html-keyboard-response","97","607850","0.0-2.0-4.0-0.22","5f5c4b9c062e0f43a15ed050","D2","batch4","spm_show_trial_num","null","<p class=block-text>Trial 47 out of 60</p>","null","","","","","","","","","","","","","","","","","","","","","","","","","",""
"","","","","","image-button-response","98","661385","0.0-2.0-4.0-1.22","5f5c4b9c062e0f43a15ed050","D2","batch4","spm_respsonse","53534","img/question_4_11.jpeg","1","mat_47","5","0","0","53534","","","","","","","","","","","","","","","","","","","","",""
"","","","","","html-keyboard-response","99","662437","0.0-2.0-4.0-0.23","5f5c4b9c062e0f43a15ed050","D2","batch4","spm_show_trial_num","null","<p class=block-text>Trial 48 out of 60</p>","null","","","","","","","","","","","","","","","","","","","","","","","","","",""
"","","","","","image-button-response","100","698666","0.0-2.0-4.0-1.23","5f5c4b9c062e0f43a15ed050","D2","batch4","spm_respsonse","36228.10000000149","img/question_4_12.jpeg","7","mat_48","6","0","0","36228.10000000149","","","","","","","","","","","","","","","","","","","","",""
"","","","","","html-keyboard-response","101","699729","0.0-2.0-4.0-0.24","5f5c4b9c062e0f43a15ed050","D2","batch4","spm_show_trial_num","null","<p class=block-text>Trial 49 out of 60</p>","null","","","","","","","","","","","","","","","","","","","","","","","","","",""
"","","","","","image-button-response","102","712504","0.0-2.0-4.0-1.24","5f5c4b9c062e0f43a15ed050","D2","batch4","spm_respsonse","12773.90000000596","img/question_5_1.jpeg","6","mat_49","7","1","1","12773.90000000596","","","","","","","","","","","","","","","","","","","","",""
"","","","","","html-keyboard-response","103","713559","0.0-2.0-4.0-0.25","5f5c4b9c062e0f43a15ed050","D2","batch4","spm_show_trial_num","null","<p class=block-text>Trial 50 out of 60</p>","null","","","","","","","","","","","","","","","","","","","","","","","","","",""
"","","","","","image-button-response","104","726856","0.0-2.0-4.0-1.25","5f5c4b9c062e0f43a15ed050","D2","batch4","spm_respsonse","13296.10000000149","img/question_5_2.jpeg","5","mat_50","6","1","1","13296.10000000149","","","","","","","","","","","","","","","","","","","","",""
"","","","","","html-keyboard-response","105","727923","0.0-2.0-4.0-0.26","5f5c4b9c062e0f43a15ed050","D2","batch4","spm_show_trial_num","null","<p class=block-text>Trial 51 out of 60</p>","null","","","","","","","","","","","","","","","","","","","","","","","","","",""
"","","","","","image-button-response","106","741087","0.0-2.0-4.0-1.26","5f5c4b9c062e0f43a15ed050","D2","batch4","spm_respsonse","13162.80000000447","img/question_5_3.jpeg","7","mat_51","8","1","1","13162.80000000447","","","","","","","","","","","","","","","","","","","","",""
"","","","","","html-keyboard-response","107","742148","0.0-2.0-4.0-0.27","5f5c4b9c062e0f43a15ed050","D2","batch4","spm_show_trial_num","null","<p class=block-text>Trial 52 out of 60</p>","null","","","","","","","","","","","","","","","","","","","","","","","","","",""
"","","","","","image-button-response","108","749331","0.0-2.0-4.0-1.27","5f5c4b9c062e0f43a15ed050","D2","batch4","spm_respsonse","7181.39999999851","img/question_5_4.jpeg","1","mat_52","2","1","1","7181.39999999851","","","","","","","","","","","","","","","","","","","","",""
"","","","","","html-keyboard-response","109","750405","0.0-2.0-4.0-0.28","5f5c4b9c062e0f43a15ed050","D2","batch4","spm_show_trial_num","null","<p class=block-text>Trial 53 out of 60</p>","null","","","","","","","","","","","","","","","","","","","","","","","","","",""
"","","","","","image-button-response","110","763606","0.0-2.0-4.0-1.28","5f5c4b9c062e0f43a15ed050","D2","batch4","spm_respsonse","13199.10000000149","img/question_5_5.jpeg","0","mat_53","1","1","1","13199.10000000149","","","","","","","","","","","","","","","","","","","","",""
"","","","","","html-keyboard-response","111","764664","0.0-2.0-4.0-0.29","5f5c4b9c062e0f43a15ed050","D2","batch4","spm_show_trial_num","null","<p class=block-text>Trial 54 out of 60</p>","null","","","","","","","","","","","","","","","","","","","","","","","","","",""
"","","","","","image-button-response","112","775818","0.0-2.0-4.0-1.29","5f5c4b9c062e0f43a15ed050","D2","batch4","spm_respsonse","11154.09999999404","img/question_5_6.jpeg","4","mat_54","5","1","1","11154.09999999404","","","","","","","","","","","","","","","","","","","","",""
"","","","","","html-keyboard-response","113","776876","0.0-2.0-4.0-0.30","5f5c4b9c062e0f43a15ed050","D2","batch4","spm_show_trial_num","null","<p class=block-text>Trial 55 out of 60</p>","null","","","","","","","","","","","","","","","","","","","","","","","","","",""
"","","","","","image-button-response","114","802348","0.0-2.0-4.0-1.30","5f5c4b9c062e0f43a15ed050","D2","batch4","spm_respsonse","25470.89999999851","img/question_5_7.jpeg","0","mat_55","1","1","1","25470.89999999851","","","","","","","","","","","","","","","","","","","","",""
"","","","","","html-keyboard-response","115","803402","0.0-2.0-4.0-0.31","5f5c4b9c062e0f43a15ed050","D2","batch4","spm_show_trial_num","null","<p class=block-text>Trial 56 out of 60</p>","null","","","","","","","","","","","","","","","","","","","","","","","","","",""
"","","","","","image-button-response","116","813276","0.0-2.0-4.0-1.31","5f5c4b9c062e0f43a15ed050","D2","batch4","spm_respsonse","9873.20000000298","img/question_5_8.jpeg","5","mat_56","6","1","1","9873.20000000298","","","","","","","","","","","","","","","","","","","","",""
"","","","","","html-keyboard-response","117","814336","0.0-2.0-4.0-0.32","5f5c4b9c062e0f43a15ed050","D2","batch4","spm_show_trial_num","null","<p class=block-text>Trial 57 out of 60</p>","null","","","","","","","","","","","","","","","","","","","","","","","","","",""
"","","","","","image-button-response","118","835973","0.0-2.0-4.0-1.32","5f5c4b9c062e0f43a15ed050","D2","batch4","spm_respsonse","21635.89999999851","img/question_5_9.jpeg","6","mat_57","3","0","0","21635.89999999851","","","","","","","","","","","","","","","","","","","","",""
"","","","","","html-keyboard-response","119","837040","0.0-2.0-4.0-0.33","5f5c4b9c062e0f43a15ed050","D2","batch4","spm_show_trial_num","null","<p class=block-text>Trial 58 out of 60</p>","null","","","","","","","","","","","","","","","","","","","","","","","","","",""
"","","","","","image-button-response","120","879961","0.0-2.0-4.0-1.33","5f5c4b9c062e0f43a15ed050","D2","batch4","spm_respsonse","42919.80000000447","img/question_5_10.jpeg","3","mat_58","2","0","0","42919.80000000447","","","","","","","","","","","","","","","","","","","","",""
"","","","","","html-keyboard-response","121","881016","0.0-2.0-4.0-0.34","5f5c4b9c062e0f43a15ed050","D2","batch4","spm_show_trial_num","null","<p class=block-text>Trial 59 out of 60</p>","null","","","","","","","","","","","","","","","","","","","","","","","","","",""
"","","","","","image-button-response","122","927260","0.0-2.0-4.0-1.34","5f5c4b9c062e0f43a15ed050","D2","batch4","spm_respsonse","46242.89999999851","img/question_5_11.jpeg","6","mat_59","4","0","0","46242.89999999851","","","","","","","","","","","","","","","","","","","","",""
"","","","","","html-keyboard-response","123","928324","0.0-2.0-4.0-0.35","5f5c4b9c062e0f43a15ed050","D2","batch4","spm_show_trial_num","null","<p class=block-text>Trial 60 out of 60</p>","null","","","","","","","","","","","","","","","","","","","","","","","","","",""
"","","","","","image-button-response","124","950777","0.0-2.0-4.0-1.35","5f5c4b9c062e0f43a15ed050","D2","batch4","spm_respsonse","22451.89999999851","img/question_5_12.jpeg","4","mat_60","5","1","1","22451.89999999851","","","","","","","","","","","","","","","","","","","","",""
"","","","","","html-button-response","125","953328","0.0-2.0-5.0","5f5c4b9c062e0f43a15ed050","D2","batch4","spm_goodbye","2287.2999999970198","<p class= block-text>This concludes the Standard Progressive Matrix game. Thank you for your responses!<br> When you are ready, click the button continue</p>","0","","","","","","","","","","","","","","","","","","","","","","","","","",""
"true","","","","","fullscreen","126","1053771","0.0-3.0-0.0","5f5c4b9c062e0f43a15ed050","D2","batch4","","","","","","","","","","","","","","","","","","","","","","","","","","","","","",""
"","","","","","instructions","127","1068637","0.0-3.0-1.0-0.0","5f5c4b9c062e0f43a15ed050","D2","batch4","","14865.39999999851","","","","","","","","[{""page_index"":0,""viewing_time"":8460.19999999553},{""page_index"":1,""viewing_time"":6405.10000000149}]","","","","","","","","","","","","","","","","","","","",""
"","","","","","html-button-response","128","1069683","0.0-3.0-1.0-1.0-0.0","5f5c4b9c062e0f43a15ed050","D2","batch4","pattern_enter_quiz","1045.2999999970198","<p class=block-text> Let's answer a few questions <br>","0","","","","","","","","","","","","","","","","","","","","","","","","","",""
"","","","","","html-button-response","129","1072138","0.0-3.0-1.0-1.0-1.0","5f5c4b9c062e0f43a15ed050","D2","batch4","pattern_quiz","2454.39999999851","<p class = block-text>True or False: You will have as much time as you want to make each choice. <br></p>","1","","","true","","","","","","","","","","","","","","","","","","","","","","",""
"","","","","","html-button-response","130","1073108","0.0-3.0-1.0-1.0-2.0","5f5c4b9c062e0f43a15ed050","D2","batch4","pattern_quiz_feedback","969.1000000014901","<p class = block-text>Correct! You should make your choice <strong> as fast as you can</strong>.</p>","0","","","","","","","","","","","","","","","","","","","","","","","","","",""
"","","","","","html-button-response","131","1076723","0.0-3.0-1.0-1.0-3.0","5f5c4b9c062e0f43a15ed050","D2","batch4","pattern_quiz","3614.39999999851","<p class = block-text>True or False: You will look for 4 pieces in black or white color connected in a row either horizontally, vertically or diagonally. <br></p>","0","","","true","","","","","","","","","","","","","","","","","","","","","","",""
"","","","","","html-button-response","132","1077349","0.0-3.0-1.0-1.0-4.0","5f5c4b9c062e0f43a15ed050","D2","batch4","pattern_quiz_feedback","625.2999999970198","<p class = block-text>Correct! </p>","0","","","","","","","","","","","","","","","","","","","","","","","","","",""
"","","","","","html-button-response","133","1079436","0.0-3.0-2.0","5f5c4b9c062e0f43a15ed050","D2","batch4","pattern_enter_practice","2086.2000000029802","<p class=block-text> Now that you've understood the game, let's do a few practice trials before we start!<br> <br>","0","","","","","","","","","","","","","","","","","","","","","","","","","",""
"","","","","","image-keyboard-response","134","1081302","0.0-3.0-3.0-0.0","5f5c4b9c062e0f43a15ed050","D2","batch4","pattern_practice","1864.3999999985099","stim/prac_no_16_1.png","j","","j","true","","","","","","","","","","","","","","","","","","","","","","",""
"","","","","","html-keyboard-response","135","1082303","0.0-3.0-3.0-1.0","5f5c4b9c062e0f43a15ed050","D2","batch4","pattern_feedback","null","<p style=""font-size:30px;color:green;"">Correct!</p>","null","","","","","","","","","","","","","","","","","","","","","","","","","",""
"","","","","","image-keyboard-response","136","1083150","0.0-3.0-3.0-0.1","5f5c4b9c062e0f43a15ed050","D2","batch4","pattern_practice","845.8999999985099","stim/prac_yes_18_hor_w1.png","f","","f","true","","","","","","","","","","","","","","","","","","","","","","",""
"","","","","","html-keyboard-response","137","1084173","0.0-3.0-3.0-1.1","5f5c4b9c062e0f43a15ed050","D2","batch4","pattern_feedback","null","<p style=""font-size:30px;color:green;"">Correct!</p>","null","","","","","","","","","","","","","","","","","","","","","","","","","",""
"","","","","","image-keyboard-response","138","1085349","0.0-3.0-3.0-0.2","5f5c4b9c062e0f43a15ed050","D2","batch4","pattern_practice","1175.6000000014901","stim/prac_no_18_1.png","j","","j","true","","","","","","","","","","","","","","","","","","","","","","",""
"","","","","","html-keyboard-response","139","1086358","0.0-3.0-3.0-1.2","5f5c4b9c062e0f43a15ed050","D2","batch4","pattern_feedback","null","<p style=""font-size:30px;color:green;"">Correct!</p>","null","","","","","","","","","","","","","","","","","","","","","","","","","",""
"","","","","","image-keyboard-response","140","1087707","0.0-3.0-3.0-0.3","5f5c4b9c062e0f43a15ed050","D2","batch4","pattern_practice","1348.8999999985099","stim/prac_yes_20_dia_b1.png","j","","f","false","","","","","","","","","","","","","","","","","","","","","","",""
"","","","","","html-keyboard-response","141","1088732","0.0-3.0-3.0-1.3","5f5c4b9c062e0f43a15ed050","D2","batch4","pattern_feedback","null","<p style=""font-size:30px;color:red;"">Wrong.</p>","null","","","","","","","","","","","","","","","","","","","","","","","","","",""
"","","","","","image-keyboard-response","142","1089649","0.0-3.0-3.0-0.4","5f5c4b9c062e0f43a15ed050","D2","batch4","pattern_practice","916","stim/prac_yes_16_ver_w1.png","f","","f","true","","","","","","","","","","","","","","","","","","","","","","",""
"","","","","","html-keyboard-response","143","1090673","0.0-3.0-3.0-1.4","5f5c4b9c062e0f43a15ed050","D2","batch4","pattern_feedback","null","<p style=""font-size:30px;color:green;"">Correct!</p>","null","","","","","","","","","","","","","","","","","","","","","","","","","",""
"","","","","","html-button-response","144","1094050","0.0-3.0-4.0","5f5c4b9c062e0f43a15ed050","D2","batch4","pattern_enter_official_trials","3376","<p class=block-text> Good job! You are done with practice trials!<br>
        You responded correctly on 80% of the trials.<br>
        Press the button below to start official trials. Now you won't see any feedback about your response</p>","0","","","","","","","","","","","","","","","","","","","","","","","","","",""
"","","","","","html-keyboard-response","145","1094858","0.0-3.0-5.0-0.0","5f5c4b9c062e0f43a15ed050","D2","batch4","pattern_show_trial_num","null","<p class=block-text>Trial 1 out of 78</p>","null","","","","","","","","","","","","","","","","","","","","","","","","","",""
"","","","","","image-keyboard-response","146","1097468","0.0-3.0-5.0-1.0","5f5c4b9c062e0f43a15ed050","D2","batch4","pattern_response","2609.5","stim/no_58_1_w.png","j","pattern_35","j","true","","","","2609.5","true","1","","","","","","","","","","","","","","","","",""
"","","","","","html-keyboard-response","147","1098793","0.0-3.0-5.0-0.1","5f5c4b9c062e0f43a15ed050","D2","batch4","pattern_show_trial_num","null","<p class=block-text>Trial 2 out of 78</p>","null","","","","","","","","","","","","","","","","","","","","","","","","","",""
"","","","","","image-keyboard-response","148","1101163","0.0-3.0-5.0-1.1","5f5c4b9c062e0f43a15ed050","D2","batch4","pattern_response","2368.5","stim/yes_51_dia_b1.png","j","pattern_72","f","false","","","","2368.5","false","1","","","","","","","","","","","","","","","","",""
"","","","","","html-keyboard-response","149","1102475","0.0-3.0-5.0-0.2","5f5c4b9c062e0f43a15ed050","D2","batch4","pattern_show_trial_num","null","<p class=block-text>Trial 3 out of 78</p>","null","","","","","","","","","","","","","","","","","","","","","","","","","",""
"","","","","","image-keyboard-response","150","1107966","0.0-3.0-5.0-1.2","5f5c4b9c062e0f43a15ed050","D2","batch4","pattern_response","5490.5","stim/no_67_1.png","j","pattern_39","j","true","","","","5490.5","true","2","","","","","","","","","","","","","","","","",""
"","","","","","html-keyboard-response","151","1109272","0.0-3.0-5.0-0.3","5f5c4b9c062e0f43a15ed050","D2","batch4","pattern_show_trial_num","null","<p class=block-text>Trial 4 out of 78</p>","null","","","","","","","","","","","","","","","","","","","","","","","","","",""
"","","","","","image-keyboard-response","152","1111612","0.0-3.0-5.0-1.3","5f5c4b9c062e0f43a15ed050","D2","batch4","pattern_response","2338.2000000029802","stim/yes_49_hor_w1_b.png","f","pattern_70","f","true","","","","2338.2000000029802","true","3","","","","","","","","","","","","","","","","",""
"","","","","","html-keyboard-response","153","1112919","0.0-3.0-5.0-0.4","5f5c4b9c062e0f43a15ed050","D2","batch4","pattern_show_trial_num","null","<p class=block-text>Trial 5 out of 78</p>","null","","","","","","","","","","","","","","","","","","","","","","","","","",""
"","","","","","image-keyboard-response","154","1114384","0.0-3.0-5.0-1.4","5f5c4b9c062e0f43a15ed050","D2","batch4","pattern_response","1464.1000000014901","stim/yes_30_ver_b1_b.png","f","pattern_54","f","true","","","","1464.1000000014901","true","4","","","","","","","","","","","","","","","","",""
"","","","","","html-keyboard-response","155","1115704","0.0-3.0-5.0-0.5","5f5c4b9c062e0f43a15ed050","D2","batch4","pattern_show_trial_num","null","<p class=block-text>Trial 6 out of 78</p>","null","","","","","","","","","","","","","","","","","","","","","","","","","",""
"","","","","","image-keyboard-response","156","1116930","0.0-3.0-5.0-1.5","5f5c4b9c062e0f43a15ed050","D2","batch4","pattern_response","1224.5","stim/no_15_1_w.png","j","pattern_03","j","true","","","","1224.5","true","5","","","","","","","","","","","","","","","","",""
"","","","","","html-keyboard-response","157","1118253","0.0-3.0-5.0-0.6","5f5c4b9c062e0f43a15ed050","D2","batch4","pattern_show_trial_num","null","<p class=block-text>Trial 7 out of 78</p>","null","","","","","","","","","","","","","","","","","","","","","","","","","",""
"","","","","","image-keyboard-response","158","1126038","0.0-3.0-5.0-1.6","5f5c4b9c062e0f43a15ed050","D2","batch4","pattern_response","7784","stim/yes_70_ver_b1.png","j","pattern_80","f","false","","","","7784","false","5","","","","","","","","","","","","","","","","",""
"","","","","","html-keyboard-response","159","1127357","0.0-3.0-5.0-0.7","5f5c4b9c062e0f43a15ed050","D2","batch4","pattern_show_trial_num","null","<p class=block-text>Trial 8 out of 78</p>","null","","","","","","","","","","","","","","","","","","","","","","","","","",""
"","","","","","image-keyboard-response","160","1128485","0.0-3.0-5.0-1.7","5f5c4b9c062e0f43a15ed050","D2","batch4","pattern_response","1126.3999999985099","stim/yes_53_ver_b1_b.png","f","pattern_74","f","true","","","","1126.3999999985099","true","6","","","","","","","","","","","","","","","","",""
"","","","","","html-keyboard-response","161","1129807","0.0-3.0-5.0-0.8","5f5c4b9c062e0f43a15ed050","D2","batch4","pattern_show_trial_num","null","<p class=block-text>Trial 9 out of 78</p>","null","","","","","","","","","","","","","","","","","","","","","","","","","",""
"","","","","","image-keyboard-response","162","1130866","0.0-3.0-5.0-1.8","5f5c4b9c062e0f43a15ed050","D2","batch4","pattern_response","1058.1000000014901","stim/yes_15_dia_b1u_b.png","f","pattern_44","f","true","","","","1058.1000000014901","true","7","","","","","","","","","","","","","","","","",""
"","","","","","html-keyboard-response","163","1132177","0.0-3.0-5.0-0.9","5f5c4b9c062e0f43a15ed050","D2","batch4","pattern_show_trial_num","null","<p class=block-text>Trial 10 out of 78</p>","null","","","","","","","","","","","","","","","","","","","","","","","","","",""
"","","","","","image-keyboard-response","164","1134124","0.0-3.0-5.0-1.9","5f5c4b9c062e0f43a15ed050","D2","batch4","pattern_response","1946.1999999955297","stim/yes_26_dia_w2_w.png","f","pattern_50","f","true","","","","1946.1999999955297","true","8","","","","","","","","","","","","","","","","",""
"","","","","","html-keyboard-response","165","1135433","0.0-3.0-5.0-0.10","5f5c4b9c062e0f43a15ed050","D2","batch4","pattern_show_trial_num","null","<p class=block-text>Trial 11 out of 78</p>","null","","","","","","","","","","","","","","","","","","","","","","","","","",""
"","","","","","image-keyboard-response","166","1141993","0.0-3.0-5.0-1.10","5f5c4b9c062e0f43a15ed050","D2","batch4","pattern_response","6558.9000000059605","stim/yes_58_dia_w1_w.png","j","pattern_76","f","false","","","","6558.9000000059605","false","8","","","","","","","","","","","","","","","","",""
"","","","","","html-keyboard-response","167","1143322","0.0-3.0-5.0-0.11","5f5c4b9c062e0f43a15ed050","D2","batch4","pattern_show_trial_num","null","<p class=block-text>Trial 12 out of 78</p>","null","","","","","","","","","","","","","","","","","","","","","","","","","",""
"","","","","","image-keyboard-response","168","1144233","0.0-3.0-5.0-1.11","5f5c4b9c062e0f43a15ed050","D2","batch4","pattern_response","909.5","stim/yes_23_ver_b1.png","f","pattern_48","f","true","","","","909.5","true","9","","","","","","","","","","","","","","","","",""
"","","","","","html-keyboard-response","169","1145549","0.0-3.0-5.0-0.12","5f5c4b9c062e0f43a15ed050","D2","batch4","pattern_show_trial_num","null","<p class=block-text>Trial 13 out of 78</p>","null","","","","","","","","","","","","","","","","","","","","","","","","","",""
"","","","","","image-keyboard-response","170","1149313","0.0-3.0-5.0-1.12","5f5c4b9c062e0f43a15ed050","D2","batch4","pattern_response","3763.2999999970198","stim/no_36_1_b.png","j","pattern_17","j","true","","","","3763.2999999970198","true","10","","","","","","","","","","","","","","","","",""
"","","","","","html-keyboard-response","171","1150632","0.0-3.0-5.0-0.13","5f5c4b9c062e0f43a15ed050","D2","batch4","pattern_show_trial_num","null","<p class=block-text>Trial 14 out of 78</p>","null","","","","","","","","","","","","","","","","","","","","","","","","","",""
"","","","","","image-keyboard-response","172","1153423","0.0-3.0-5.0-1.13","5f5c4b9c062e0f43a15ed050","D2","batch4","pattern_response","2789.60000000149","stim/yes_46_ver_b1_b.png","j","pattern_68","f","false","","","","2789.60000000149","false","10","","","","","","","","","","","","","","","","",""
"","","","","","html-keyboard-response","173","1154736","0.0-3.0-5.0-0.14","5f5c4b9c062e0f43a15ed050","D2","batch4","pattern_show_trial_num","null","<p class=block-text>Trial 15 out of 78</p>","null","","","","","","","","","","","","","","","","","","","","","","","","","",""
"","","","","","image-keyboard-response","174","1159283","0.0-3.0-5.0-1.14","5f5c4b9c062e0f43a15ed050","D2","batch4","pattern_response","4545.89999999851","stim/no_49_2_b.png","j","pattern_29","j","true","","","","4545.89999999851","true","11","","","","","","","","","","","","","","","","",""
"","","","","","html-keyboard-response","175","1160595","0.0-3.0-5.0-0.15","5f5c4b9c062e0f43a15ed050","D2","batch4","pattern_show_trial_num","null","<p class=block-text>Trial 16 out of 78</p>","null","","","","","","","","","","","","","","","","","","","","","","","","","",""
"","","","","","image-keyboard-response","176","1164635","0.0-3.0-5.0-1.15","5f5c4b9c062e0f43a15ed050","D2","batch4","pattern_response","4039.2000000029802","stim/no_47_1_b.png","j","pattern_27","j","true","","","","4039.2000000029802","true","12","","","","","","","","","","","","","","","","",""
"","","","","","html-keyboard-response","177","1165954","0.0-3.0-5.0-0.16","5f5c4b9c062e0f43a15ed050","D2","batch4","pattern_show_trial_num","null","<p class=block-text>Trial 17 out of 78</p>","null","","","","","","","","","","","","","","","","","","","","","","","","","",""
"","","","","","image-keyboard-response","178","1168191","0.0-3.0-5.0-1.16","5f5c4b9c062e0f43a15ed050","D2","batch4","pattern_response","2236","stim/no_25_1_b.png","j","pattern_09","j","true","","","","2236","true","13","","","","","","","","","","","","","","","","",""
"","","","","","html-keyboard-response","179","1169505","0.0-3.0-5.0-0.17","5f5c4b9c062e0f43a15ed050","D2","batch4","pattern_show_trial_num","null","<p class=block-text>Trial 18 out of 78</p>","null","","","","","","","","","","","","","","","","","","","","","","","","","",""
"","","","","","image-keyboard-response","180","1171214","0.0-3.0-5.0-1.17","5f5c4b9c062e0f43a15ed050","D2","batch4","pattern_response","1707.8999999985099","stim/yes_44_ver_w1_w.png","f","pattern_66","f","true","","","","1707.8999999985099","true","14","","","","","","","","","","","","","","","","",""
"","","","","","html-keyboard-response","181","1172534","0.0-3.0-5.0-0.18","5f5c4b9c062e0f43a15ed050","D2","batch4","pattern_show_trial_num","null","<p class=block-text>Trial 19 out of 78</p>","null","","","","","","","","","","","","","","","","","","","","","","","","","",""
"","","","","","image-keyboard-response","182","1173572","0.0-3.0-5.0-1.18","5f5c4b9c062e0f43a15ed050","D2","batch4","pattern_response","1037.7999999970198","stim/yes_37_hor_w1_w.png","f","pattern_60","f","true","","","","1037.7999999970198","true","15","","","","","","","","","","","","","","","","",""
"","","","","","html-keyboard-response","183","1174895","0.0-3.0-5.0-0.19","5f5c4b9c062e0f43a15ed050","D2","batch4","pattern_show_trial_num","null","<p class=block-text>Trial 20 out of 78</p>","null","","","","","","","","","","","","","","","","","","","","","","","","","",""
"","","","","","image-keyboard-response","184","1178284","0.0-3.0-5.0-1.19","5f5c4b9c062e0f43a15ed050","D2","batch4","pattern_response","3387.8000000044703","stim/no_33_1_b.png","j","pattern_15","j","true","","","","3387.8000000044703","true","16","","","","","","","","","","","","","","","","",""
"","","","","","html-keyboard-response","185","1179594","0.0-3.0-5.0-0.20","5f5c4b9c062e0f43a15ed050","D2","batch4","pattern_show_trial_num","null","<p class=block-text>Trial 21 out of 78</p>","null","","","","","","","","","","","","","","","","","","","","","","","","","",""
"","","","","","image-keyboard-response","186","1182529","0.0-3.0-5.0-1.20","5f5c4b9c062e0f43a15ed050","D2","batch4","pattern_response","2934.2999999970198","stim/yes_42_dia_w1_w.png","j","pattern_64","f","false","","","","2934.2999999970198","false","16","","","","","","","","","","","","","","","","",""
"","","","","","html-keyboard-response","187","1183852","0.0-3.0-5.0-0.21","5f5c4b9c062e0f43a15ed050","D2","batch4","pattern_show_trial_num","null","<p class=block-text>Trial 22 out of 78</p>","null","","","","","","","","","","","","","","","","","","","","","","","","","",""
"","","","","","image-keyboard-response","188","1185256","0.0-3.0-5.0-1.21","5f5c4b9c062e0f43a15ed050","D2","batch4","pattern_response","1403.5","stim/no_22_1_b.png","j","pattern_07","j","true","","","","1403.5","true","17","","","","","","","","","","","","","","","","",""
"","","","","","html-keyboard-response","189","1186563","0.0-3.0-5.0-0.22","5f5c4b9c062e0f43a15ed050","D2","batch4","pattern_show_trial_num","null","<p class=block-text>Trial 23 out of 78</p>","null","","","","","","","","","","","","","","","","","","","","","","","","","",""
"","","","","","image-keyboard-response","190","1191186","0.0-3.0-5.0-1.22","5f5c4b9c062e0f43a15ed050","D2","batch4","pattern_response","4622.5","stim/no_51_1.png","j","pattern_31","j","true","","","","4622.5","true","18","","","","","","","","","","","","","","","","",""
"","","","","","html-keyboard-response","191","1192506","0.0-3.0-5.0-0.23","5f5c4b9c062e0f43a15ed050","D2","batch4","pattern_show_trial_num","null","<p class=block-text>Trial 24 out of 78</p>","null","","","","","","","","","","","","","","","","","","","","","","","","","",""
"","","","","","image-keyboard-response","192","1193430","0.0-3.0-5.0-1.23","5f5c4b9c062e0f43a15ed050","D2","batch4","pattern_response","923.5","stim/no_12_1.png","j","pattern_01","j","true","","","","923.5","true","19","","","","","","","","","","","","","","","","",""
"","","","","","html-keyboard-response","193","1194740","0.0-3.0-5.0-0.24","5f5c4b9c062e0f43a15ed050","D2","batch4","pattern_show_trial_num","null","<p class=block-text>Trial 25 out of 78</p>","null","","","","","","","","","","","","","","","","","","","","","","","","","",""
"","","","","","image-keyboard-response","194","1195486","0.0-3.0-5.0-1.24","5f5c4b9c062e0f43a15ed050","D2","batch4","pattern_response","745.7000000029802","stim/yes_12_hor_w1_w.png","f","pattern_42","f","true","","","","745.7000000029802","true","20","","","","","","","","","","","","","","","","",""
"","","","","","html-keyboard-response","195","1196795","0.0-3.0-5.0-0.25","5f5c4b9c062e0f43a15ed050","D2","batch4","pattern_show_trial_num","null","<p class=block-text>Trial 26 out of 78</p>","null","","","","","","","","","","","","","","","","","","","","","","","","","",""
"","","","","","image-keyboard-response","196","1199876","0.0-3.0-5.0-1.25","5f5c4b9c062e0f43a15ed050","D2","batch4","pattern_response","3080.60000000149","stim/no_43_2_b.png","j","pattern_23","j","true","","","","3080.60000000149","true","21","","","","","","","","","","","","","","","","",""
"","","","","","html-keyboard-response","197","1201187","0.0-3.0-5.0-0.26","5f5c4b9c062e0f43a15ed050","D2","batch4","pattern_show_trial_num","null","<p class=block-text>Trial 27 out of 78</p>","null","","","","","","","","","","","","","","","","","","","","","","","","","",""
"","","","","","image-keyboard-response","198","1204631","0.0-3.0-5.0-1.26","5f5c4b9c062e0f43a15ed050","D2","batch4","pattern_response","3443.10000000149","stim/no_37_2_w.png","j","pattern_19","j","true","","","","3443.10000000149","true","22","","","","","","","","","","","","","","","","",""
"","","","","","html-keyboard-response","199","1205946","0.0-3.0-5.0-0.27","5f5c4b9c062e0f43a15ed050","D2","batch4","pattern_show_trial_num","null","<p class=block-text>Trial 28 out of 78</p>","null","","","","","","","","","","","","","","","","","","","","","","","","","",""
"","","","","","image-keyboard-response","200","1206755","0.0-3.0-5.0-1.27","5f5c4b9c062e0f43a15ed050","D2","batch4","pattern_response","808.7000000029802","stim/yes_39_hor_w1_w.png","f","pattern_62","f","true","","","","808.7000000029802","true","23","","","","","","","","","","","","","","","","",""
"","","","","","html-keyboard-response","201","1208070","0.0-3.0-5.0-0.28","5f5c4b9c062e0f43a15ed050","D2","batch4","pattern_show_trial_num","null","<p class=block-text>Trial 29 out of 78</p>","null","","","","","","","","","","","","","","","","","","","","","","","","","",""
"","","","","","image-keyboard-response","202","1210245","0.0-3.0-5.0-1.28","5f5c4b9c062e0f43a15ed050","D2","batch4","pattern_response","2175.10000000149","stim/yes_33_dia_w1_w.png","j","pattern_56","f","false","","","","2175.10000000149","false","23","","","","","","","","","","","","","","","","",""
"","","","","","html-keyboard-response","203","1211557","0.0-3.0-5.0-0.29","5f5c4b9c062e0f43a15ed050","D2","batch4","pattern_show_trial_num","null","<p class=block-text>Trial 30 out of 78</p>","null","","","","","","","","","","","","","","","","","","","","","","","","","",""
"","","","","","image-keyboard-response","204","1212302","0.0-3.0-5.0-1.29","5f5c4b9c062e0f43a15ed050","D2","batch4","pattern_response","744.6000000014901","stim/yes_36_ver_w1_w.png","f","pattern_58","f","true","","","","744.6000000014901","true","24","","","","","","","","","","","","","","","","",""
"","","","","","html-keyboard-response","205","1213611","0.0-3.0-5.0-0.30","5f5c4b9c062e0f43a15ed050","D2","batch4","pattern_show_trial_num","null","<p class=block-text>Trial 31 out of 78</p>","null","","","","","","","","","","","","","","","","","","","","","","","","","",""
"","","","","","image-keyboard-response","206","1216532","0.0-3.0-5.0-1.30","5f5c4b9c062e0f43a15ed050","D2","batch4","pattern_response","2919.8000000044703","stim/no_39_1_w.png","j","pattern_21","j","true","","","","2919.8000000044703","true","25","","","","","","","","","","","","","","","","",""
"","","","","","html-keyboard-response","207","1217856","0.0-3.0-5.0-0.31","5f5c4b9c062e0f43a15ed050","D2","batch4","pattern_show_trial_num","null","<p class=block-text>Trial 32 out of 78</p>","null","","","","","","","","","","","","","","","","","","","","","","","","","",""
"","","","","","image-keyboard-response","208","1218798","0.0-3.0-5.0-1.31","5f5c4b9c062e0f43a15ed050","D2","batch4","pattern_response","941.8999999985099","stim/no_18_1_b.png","j","pattern_05","j","true","","","","941.8999999985099","true","26","","","","","","","","","","","","","","","","",""
"","","","","","html-keyboard-response","209","1220103","0.0-3.0-5.0-0.32","5f5c4b9c062e0f43a15ed050","D2","batch4","pattern_show_trial_num","null","<p class=block-text>Trial 33 out of 78</p>","null","","","","","","","","","","","","","","","","","","","","","","","","","",""
"","","","","","image-keyboard-response","210","1222977","0.0-3.0-5.0-1.32","5f5c4b9c062e0f43a15ed050","D2","batch4","pattern_response","2873.89999999851","stim/no_30_1_b.png","j","pattern_13","j","true","","","","2873.89999999851","true","27","","","","","","","","","","","","","","","","",""
"","","","","","html-keyboard-response","211","1224290","0.0-3.0-5.0-0.33","5f5c4b9c062e0f43a15ed050","D2","batch4","pattern_show_trial_num","null","<p class=block-text>Trial 34 out of 78</p>","null","","","","","","","","","","","","","","","","","","","","","","","","","",""
"","","","","","image-keyboard-response","212","1231395","0.0-3.0-5.0-1.33","5f5c4b9c062e0f43a15ed050","D2","batch4","pattern_response","7103.5","stim/yes_63_dia_b1.png","j","pattern_78","f","false","","","","7103.5","false","27","","","","","","","","","","","","","","","","",""
"","","","","","html-keyboard-response","213","1232705","0.0-3.0-5.0-0.34","5f5c4b9c062e0f43a15ed050","D2","batch4","pattern_show_trial_num","null","<p class=block-text>Trial 35 out of 78</p>","null","","","","","","","","","","","","","","","","","","","","","","","","","",""
"","","","","","image-keyboard-response","214","1237368","0.0-3.0-5.0-1.34","5f5c4b9c062e0f43a15ed050","D2","batch4","pattern_response","4662.20000000298","stim/no_45_1_w.png","j","pattern_25","j","true","","","","4662.20000000298","true","28","","","","","","","","","","","","","","","","",""
"","","","","","html-keyboard-response","215","1238682","0.0-3.0-5.0-0.35","5f5c4b9c062e0f43a15ed050","D2","batch4","pattern_show_trial_num","null","<p class=block-text>Trial 36 out of 78</p>","null","","","","","","","","","","","","","","","","","","","","","","","","","",""
"","","","","","image-keyboard-response","216","1243822","0.0-3.0-5.0-1.35","5f5c4b9c062e0f43a15ed050","D2","batch4","pattern_response","5138.70000000298","stim/no_53_1_b.png","j","pattern_33","j","true","","","","5138.70000000298","true","29","","","","","","","","","","","","","","","","",""
"","","","","","html-keyboard-response","217","1245133","0.0-3.0-5.0-0.36","5f5c4b9c062e0f43a15ed050","D2","batch4","pattern_show_trial_num","null","<p class=block-text>Trial 37 out of 78</p>","null","","","","","","","","","","","","","","","","","","","","","","","","","",""
"","","","","","image-keyboard-response","218","1246708","0.0-3.0-5.0-1.36","5f5c4b9c062e0f43a15ed050","D2","batch4","pattern_response","1574.3999999985099","stim/no_28_2.png","j","pattern_11","j","true","","","","1574.3999999985099","true","30","","","","","","","","","","","","","","","","",""
"","","","","","html-keyboard-response","219","1248034","0.0-3.0-5.0-0.37","5f5c4b9c062e0f43a15ed050","D2","batch4","pattern_show_trial_num","null","<p class=block-text>Trial 38 out of 78</p>","null","","","","","","","","","","","","","","","","","","","","","","","","","",""
"","","","","","image-keyboard-response","220","1249108","0.0-3.0-5.0-1.37","5f5c4b9c062e0f43a15ed050","D2","batch4","pattern_response","1072.5","stim/yes_17_ver_b1_b.png","f","pattern_46","f","true","","","","1072.5","true","31","","","","","","","","","","","","","","","","",""
"","","","","","html-keyboard-response","221","1250426","0.0-3.0-5.0-0.38","5f5c4b9c062e0f43a15ed050","D2","batch4","pattern_show_trial_num","null","<p class=block-text>Trial 39 out of 78</p>","null","","","","","","","","","","","","","","","","","","","","","","","","","",""
"","","","","","image-keyboard-response","222","1251440","0.0-3.0-5.0-1.38","5f5c4b9c062e0f43a15ed050","D2","batch4","pattern_response","1013.6000000014901","stim/yes_29_hor_b1_b.png","f","pattern_52","f","true","","","","1013.6000000014901","true","32","","","","","","","","","","","","","","","","",""
"","","","","","image-keyboard-response","223","1253615","0.0-3.0-6.0","5f5c4b9c062e0f43a15ed050","D2","batch4","attention_check","1665.3999999985099","stim/empty_board.png","j","","j","true","","","","","","","500","[""f"",""j""]","","","","","","","","","","","","","","",""
"","","","","","html-keyboard-response","224","1254419","0.0-3.0-7.0-0.0","5f5c4b9c062e0f43a15ed050","D2","batch4","pattern_show_trial_num","null","<p class=block-text>Trial 40 out of 78</p>","null","","","","","","","","","","","","","","","","","","","","","","","","","",""
"","","","","","image-keyboard-response","225","1257883","0.0-3.0-7.0-1.0","5f5c4b9c062e0f43a15ed050","D2","batch4","pattern_response","3462.5","stim/no_52_1.png","j","pattern_32","j","true","","","","3462.5","true","33","","","","","","","","","","","","","","","","",""
"","","","","","html-keyboard-response","226","1259205","0.0-3.0-7.0-0.1","5f5c4b9c062e0f43a15ed050","D2","batch4","pattern_show_trial_num","null","<p class=block-text>Trial 41 out of 78</p>","null","","","","","","","","","","","","","","","","","","","","","","","","","",""
"","","","","","image-keyboard-response","227","1265551","0.0-3.0-7.0-1.1","5f5c4b9c062e0f43a15ed050","D2","batch4","pattern_response","6345.5","stim/yes_60_ver_b1_b.png","f","pattern_77","f","true","","","","6345.5","true","34","","","","","","","","","","","","","","","","",""
"","","","","","html-keyboard-response","228","1266867","0.0-3.0-7.0-0.2","5f5c4b9c062e0f43a15ed050","D2","batch4","pattern_show_trial_num","null","<p class=block-text>Trial 42 out of 78</p>","null","","","","","","","","","","","","","","","","","","","","","","","","","",""
"","","","","","image-keyboard-response","229","1267655","0.0-3.0-7.0-1.2","5f5c4b9c062e0f43a15ed050","D2","batch4","pattern_response","786.7999999970198","stim/yes_22_ver_w1.png","f","pattern_47","f","true","","","","786.7999999970198","true","35","","","","","","","","","","","","","","","","",""
"","","","","","html-keyboard-response","230","1268958","0.0-3.0-7.0-0.3","5f5c4b9c062e0f43a15ed050","D2","batch4","pattern_show_trial_num","null","<p class=block-text>Trial 43 out of 78</p>","null","","","","","","","","","","","","","","","","","","","","","","","","","",""
"","","","","","image-keyboard-response","231","1270752","0.0-3.0-7.0-1.3","5f5c4b9c062e0f43a15ed050","D2","batch4","pattern_response","1793.1000000014901","stim/no_23_1.png","j","pattern_08","j","true","","","","1793.1000000014901","true","36","","","","","","","","","","","","","","","","",""
"","","","","","html-keyboard-response","232","1272072","0.0-3.0-7.0-0.4","5f5c4b9c062e0f43a15ed050","D2","batch4","pattern_show_trial_num","null","<p class=block-text>Trial 44 out of 78</p>","null","","","","","","","","","","","","","","","","","","","","","","","","","",""
"","","","","","image-keyboard-response","233","1272967","0.0-3.0-7.0-1.4","5f5c4b9c062e0f43a15ed050","D2","batch4","pattern_response","894.7000000029802","stim/yes_25_hor_b1_b.png","f","pattern_49","f","true","","","","894.7000000029802","true","37","","","","","","","","","","","","","","","","",""
"","","","","","html-keyboard-response","234","1274281","0.0-3.0-7.0-0.5","5f5c4b9c062e0f43a15ed050","D2","batch4","pattern_show_trial_num","null","<p class=block-text>Trial 45 out of 78</p>","null","","","","","","","","","","","","","","","","","","","","","","","","","",""
"","","","","","image-keyboard-response","235","1275347","0.0-3.0-7.0-1.5","5f5c4b9c062e0f43a15ed050","D2","batch4","pattern_response","1064.8999999985099","stim/yes_55_hor_w1_w.png","f","pattern_75","f","true","","","","1064.8999999985099","true","38","","","","","","","","","","","","","","","","",""
"","","","","","html-keyboard-response","236","1276661","0.0-3.0-7.0-0.6","5f5c4b9c062e0f43a15ed050","D2","batch4","pattern_show_trial_num","null","<p class=block-text>Trial 46 out of 78</p>","null","","","","","","","","","","","","","","","","","","","","","","","","","",""
"","","","","","image-keyboard-response","237","1277819","0.0-3.0-7.0-1.6","5f5c4b9c062e0f43a15ed050","D2","batch4","pattern_response","1157.2999999970198","stim/yes_29_ver_w1.png","f","pattern_53","f","true","","","","1157.2999999970198","true","39","","","","","","","","","","","","","","","","",""
"","","","","","html-keyboard-response","238","1279132","0.0-3.0-7.0-0.7","5f5c4b9c062e0f43a15ed050","D2","batch4","pattern_show_trial_num","null","<p class=block-text>Trial 47 out of 78</p>","null","","","","","","","","","","","","","","","","","","","","","","","","","",""
"","","","","","image-keyboard-response","239","1281212","0.0-3.0-7.0-1.7","5f5c4b9c062e0f43a15ed050","D2","batch4","pattern_response","2079","stim/yes_48_dia_w1_w.png","f","pattern_69","f","true","","","","2079","true","40","","","","","","","","","","","","","","","","",""
"","","","","","html-keyboard-response","240","1282524","0.0-3.0-7.0-0.8","5f5c4b9c062e0f43a15ed050","D2","batch4","pattern_show_trial_num","null","<p class=block-text>Trial 48 out of 78</p>","null","","","","","","","","","","","","","","","","","","","","","","","","","",""
"","","","","","image-keyboard-response","241","1284743","0.0-3.0-7.0-1.8","5f5c4b9c062e0f43a15ed050","D2","batch4","pattern_response","2218","stim/yes_37_dia_w1.png","f","pattern_59","f","true","","","","2218","true","41","","","","","","","","","","","","","","","","",""
"","","","","","html-keyboard-response","242","1286052","0.0-3.0-7.0-0.9","5f5c4b9c062e0f43a15ed050","D2","batch4","pattern_show_trial_num","null","<p class=block-text>Trial 49 out of 78</p>","null","","","","","","","","","","","","","","","","","","","","","","","","","",""
"","","","","","image-keyboard-response","243","1288575","0.0-3.0-7.0-1.9","5f5c4b9c062e0f43a15ed050","D2","batch4","pattern_response","2521.5","stim/yes_35_dia_b1.png","j","pattern_57","f","false","","","","2521.5","false","41","","","","","","","","","","","","","","","","",""
"","","","","","html-keyboard-response","244","1289884","0.0-3.0-7.0-0.10","5f5c4b9c062e0f43a15ed050","D2","batch4","pattern_show_trial_num","null","<p class=block-text>Trial 50 out of 78</p>","null","","","","","","","","","","","","","","","","","","","","","","","","","",""
"","","","","","image-keyboard-response","245","1295763","0.0-3.0-7.0-1.10","5f5c4b9c062e0f43a15ed050","D2","batch4","pattern_response","5878.70000000298","stim/no_55_1_w.png","j","pattern_34","j","true","","","","5878.70000000298","true","42","","","","","","","","","","","","","","","","",""
"","","","","","html-keyboard-response","246","1297071","0.0-3.0-7.0-0.11","5f5c4b9c062e0f43a15ed050","D2","batch4","pattern_show_trial_num","null","<p class=block-text>Trial 51 out of 78</p>","null","","","","","","","","","","","","","","","","","","","","","","","","","",""
"","","","","","image-keyboard-response","247","1303528","0.0-3.0-7.0-1.11","5f5c4b9c062e0f43a15ed050","D2","batch4","pattern_response","6455.5999999940395","stim/no_48_1_w.png","j","pattern_28","j","true","","","","6455.5999999940395","true","43","","","","","","","","","","","","","","","","",""
"","","","","","html-keyboard-response","248","1304842","0.0-3.0-7.0-0.12","5f5c4b9c062e0f43a15ed050","D2","batch4","pattern_show_trial_num","null","<p class=block-text>Trial 52 out of 78</p>","null","","","","","","","","","","","","","","","","","","","","","","","","","",""
"","","","","","image-keyboard-response","249","1305696","0.0-3.0-7.0-1.12","5f5c4b9c062e0f43a15ed050","D2","batch4","pattern_response","852.5","stim/yes_14_hor_b1_w.png","f","pattern_43","f","true","","","","852.5","true","44","","","","","","","","","","","","","","","","",""
"","","","","","html-keyboard-response","250","1307017","0.0-3.0-7.0-0.13","5f5c4b9c062e0f43a15ed050","D2","batch4","pattern_show_trial_num","null","<p class=block-text>Trial 53 out of 78</p>","null","","","","","","","","","","","","","","","","","","","","","","","","","",""
"","","","","","image-keyboard-response","251","1311255","0.0-3.0-7.0-1.13","5f5c4b9c062e0f43a15ed050","D2","batch4","pattern_response","4237.5","stim/no_38_1_b.png","j","pattern_20","j","true","","","","4237.5","true","45","","","","","","","","","","","","","","","","",""
"","","","","","html-keyboard-response","252","1312571","0.0-3.0-7.0-0.14","5f5c4b9c062e0f43a15ed050","D2","batch4","pattern_show_trial_num","null","<p class=block-text>Trial 54 out of 78</p>","null","","","","","","","","","","","","","","","","","","","","","","","","","",""
"","","","","","image-keyboard-response","253","1313611","0.0-3.0-7.0-1.14","5f5c4b9c062e0f43a15ed050","D2","batch4","pattern_response","1038.3000000044703","stim/no_13_2_b.png","j","pattern_02","j","true","","","","1038.3000000044703","true","46","","","","","","","","","","","","","","","","",""
"","","","","","html-keyboard-response","254","1314930","0.0-3.0-7.0-0.15","5f5c4b9c062e0f43a15ed050","D2","batch4","pattern_show_trial_num","null","<p class=block-text>Trial 55 out of 78</p>","null","","","","","","","","","","","","","","","","","","","","","","","","","",""
"","","","","","image-keyboard-response","255","1318219","0.0-3.0-7.0-1.15","5f5c4b9c062e0f43a15ed050","D2","batch4","pattern_response","3287.60000000149","stim/yes_43_ver_w1_w.png","f","pattern_65","f","true","","","","3287.60000000149","true","47","","","","","","","","","","","","","","","","",""
"","","","","","html-keyboard-response","256","1319532","0.0-3.0-7.0-0.16","5f5c4b9c062e0f43a15ed050","D2","batch4","pattern_show_trial_num","null","<p class=block-text>Trial 56 out of 78</p>","null","","","","","","","","","","","","","","","","","","","","","","","","","",""
"","","","","","image-keyboard-response","257","1322097","0.0-3.0-7.0-1.16","5f5c4b9c062e0f43a15ed050","D2","batch4","pattern_response","2564.5","stim/no_34_1_b.png","j","pattern_16","j","true","","","","2564.5","true","48","","","","","","","","","","","","","","","","",""
"","","","","","html-keyboard-response","258","1323419","0.0-3.0-7.0-0.17","5f5c4b9c062e0f43a15ed050","D2","batch4","pattern_show_trial_num","null","<p class=block-text>Trial 57 out of 78</p>","null","","","","","","","","","","","","","","","","","","","","","","","","","",""
"","","","","","image-keyboard-response","259","1326387","0.0-3.0-7.0-1.17","5f5c4b9c062e0f43a15ed050","D2","batch4","pattern_response","2967.2000000029802","stim/no_42_1_w.png","j","pattern_22","j","true","","","","2967.2000000029802","true","49","","","","","","","","","","","","","","","","",""
"","","","","","html-keyboard-response","260","1327689","0.0-3.0-7.0-0.18","5f5c4b9c062e0f43a15ed050","D2","batch4","pattern_show_trial_num","null","<p class=block-text>Trial 58 out of 78</p>","null","","","","","","","","","","","","","","","","","","","","","","","","","",""
"","","","","","image-keyboard-response","261","1329388","0.0-3.0-7.0-1.18","5f5c4b9c062e0f43a15ed050","D2","batch4","pattern_response","1698","stim/no_20_1_w.png","j","pattern_06","j","true","","","","1698","true","50","","","","","","","","","","","","","","","","",""
"","","","","","html-keyboard-response","262","1330702","0.0-3.0-7.0-0.19","5f5c4b9c062e0f43a15ed050","D2","batch4","pattern_show_trial_num","null","<p class=block-text>Trial 59 out of 78</p>","null","","","","","","","","","","","","","","","","","","","","","","","","","",""
"","","","","","image-keyboard-response","263","1332988","0.0-3.0-7.0-1.19","5f5c4b9c062e0f43a15ed050","D2","batch4","pattern_response","2284.60000000149","stim/no_29_1_b.png","j","pattern_12","j","true","","","","2284.60000000149","true","51","","","","","","","","","","","","","","","","",""
"","","","","","html-keyboard-response","264","1334294","0.0-3.0-7.0-0.20","5f5c4b9c062e0f43a15ed050","D2","batch4","pattern_show_trial_num","null","<p class=block-text>Trial 60 out of 78</p>","null","","","","","","","","","","","","","","","","","","","","","","","","","",""
"","","","","","image-keyboard-response","265","1335110","0.0-3.0-7.0-1.20","5f5c4b9c062e0f43a15ed050","D2","batch4","pattern_response","814.7000000029802","stim/yes_17_dia_w1.png","f","pattern_45","f","true","","","","814.7000000029802","true","52","","","","","","","","","","","","","","","","",""
"","","","","","html-keyboard-response","266","1336436","0.0-3.0-7.0-0.21","5f5c4b9c062e0f43a15ed050","D2","batch4","pattern_show_trial_num","null","<p class=block-text>Trial 61 out of 78</p>","null","","","","","","","","","","","","","","","","","","","","","","","","","",""
"","","","","","image-keyboard-response","267","1339173","0.0-3.0-7.0-1.21","5f5c4b9c062e0f43a15ed050","D2","batch4","pattern_response","2735.5","stim/yes_38_hor_b1_b.png","j","pattern_61","f","false","","","","2735.5","false","52","","","","","","","","","","","","","","","","",""
"","","","","","html-keyboard-response","268","1340494","0.0-3.0-7.0-0.22","5f5c4b9c062e0f43a15ed050","D2","batch4","pattern_show_trial_num","null","<p class=block-text>Trial 62 out of 78</p>","null","","","","","","","","","","","","","","","","","","","","","","","","","",""
"","","","","","image-keyboard-response","269","1341641","0.0-3.0-7.0-1.22","5f5c4b9c062e0f43a15ed050","D2","batch4","pattern_response","1145.7000000029802","stim/yes_31_hor_b1.png","f","pattern_55","f","true","","","","1145.7000000029802","true","53","","","","","","","","","","","","","","","","",""
"","","","","","html-keyboard-response","270","1342964","0.0-3.0-7.0-0.23","5f5c4b9c062e0f43a15ed050","D2","batch4","pattern_show_trial_num","null","<p class=block-text>Trial 63 out of 78</p>","null","","","","","","","","","","","","","","","","","","","","","","","","","",""
"","","","","","image-keyboard-response","271","1350168","0.0-3.0-7.0-1.23","5f5c4b9c062e0f43a15ed050","D2","batch4","pattern_response","7203.0999999940395","stim/no_70_2.png","j","pattern_40","j","true","","","","7203.0999999940395","true","54","","","","","","","","","","","","","","","","",""
"","","","","","html-keyboard-response","272","1351481","0.0-3.0-7.0-0.24","5f5c4b9c062e0f43a15ed050","D2","batch4","pattern_show_trial_num","null","<p class=block-text>Trial 64 out of 78</p>","null","","","","","","","","","","","","","","","","","","","","","","","","","",""
"","","","","","image-keyboard-response","273","1353491","0.0-3.0-7.0-1.24","5f5c4b9c062e0f43a15ed050","D2","batch4","pattern_response","2008.5","stim/no_32_1_w.png","j","pattern_14","j","true","","","","2008.5","true","55","","","","","","","","","","","","","","","","",""
"","","","","","html-keyboard-response","274","1354812","0.0-3.0-7.0-0.25","5f5c4b9c062e0f43a15ed050","D2","batch4","pattern_show_trial_num","null","<p class=block-text>Trial 65 out of 78</p>","null","","","","","","","","","","","","","","","","","","","","","","","","","",""
"","","","","","image-keyboard-response","275","1356075","0.0-3.0-7.0-1.25","5f5c4b9c062e0f43a15ed050","D2","batch4","pattern_response","1261.9000000059605","stim/yes_52_ver_w1.png","f","pattern_73","f","true","","","","1261.9000000059605","true","56","","","","","","","","","","","","","","","","",""
"","","","","","html-keyboard-response","276","1357395","0.0-3.0-7.0-0.26","5f5c4b9c062e0f43a15ed050","D2","batch4","pattern_show_trial_num","null","<p class=block-text>Trial 66 out of 78</p>","null","","","","","","","","","","","","","","","","","","","","","","","","","",""
"","","","","","image-keyboard-response","277","1358780","0.0-3.0-7.0-1.26","5f5c4b9c062e0f43a15ed050","D2","batch4","pattern_response","1384.5","stim/no_17_1_w.png","j","pattern_04","j","true","","","","1384.5","true","57","","","","","","","","","","","","","","","","",""
"","","","","","html-keyboard-response","278","1360099","0.0-3.0-7.0-0.27","5f5c4b9c062e0f43a15ed050","D2","batch4","pattern_show_trial_num","null","<p class=block-text>Trial 67 out of 78</p>","null","","","","","","","","","","","","","","","","","","","","","","","","","",""
"","","","","","image-keyboard-response","279","1363737","0.0-3.0-7.0-1.27","5f5c4b9c062e0f43a15ed050","D2","batch4","pattern_response","3636.89999999851","stim/no_36_2_w.png","j","pattern_18","j","true","","","","3636.89999999851","true","58","","","","","","","","","","","","","","","","",""
"","","","","","html-keyboard-response","280","1365049","0.0-3.0-7.0-0.28","5f5c4b9c062e0f43a15ed050","D2","batch4","pattern_show_trial_num","null","<p class=block-text>Trial 68 out of 78</p>","null","","","","","","","","","","","","","","","","","","","","","","","","","",""
"","","","","","image-keyboard-response","281","1368855","0.0-3.0-7.0-1.28","5f5c4b9c062e0f43a15ed050","D2","batch4","pattern_response","3805","stim/no_50_1.png","j","pattern_30","j","true","","","","3805","true","59","","","","","","","","","","","","","","","","",""
"","","","","","html-keyboard-response","282","1370178","0.0-3.0-7.0-0.29","5f5c4b9c062e0f43a15ed050","D2","batch4","pattern_show_trial_num","null","<p class=block-text>Trial 69 out of 78</p>","null","","","","","","","","","","","","","","","","","","","","","","","","","",""
"","","","","","image-keyboard-response","283","1376114","0.0-3.0-7.0-1.29","5f5c4b9c062e0f43a15ed050","D2","batch4","pattern_response","5935.10000000149","stim/no_65_1_b.png","j","pattern_38","j","true","","","","5935.10000000149","true","60","","","","","","","","","","","","","","","","",""
"","","","","","html-keyboard-response","284","1377430","0.0-3.0-7.0-0.30","5f5c4b9c062e0f43a15ed050","D2","batch4","pattern_show_trial_num","null","<p class=block-text>Trial 70 out of 78</p>","null","","","","","","","","","","","","","","","","","","","","","","","","","",""
"","","","","","image-keyboard-response","285","1378629","0.0-3.0-7.0-1.30","5f5c4b9c062e0f43a15ed050","D2","batch4","pattern_response","1198.2000000029802","stim/yes_45_hor_b2_b.png","f","pattern_67","f","true","","","","1198.2000000029802","true","61","","","","","","","","","","","","","","","","",""
"","","","","","html-keyboard-response","286","1379942","0.0-3.0-7.0-0.31","5f5c4b9c062e0f43a15ed050","D2","batch4","pattern_show_trial_num","null","<p class=block-text>Trial 71 out of 78</p>","null","","","","","","","","","","","","","","","","","","","","","","","","","",""
"","","","","","image-keyboard-response","287","1385154","0.0-3.0-7.0-1.31","5f5c4b9c062e0f43a15ed050","D2","batch4","pattern_response","5211.79999999702","stim/no_62_1_w.png","j","pattern_36","j","true","","","","5211.79999999702","true","62","","","","","","","","","","","","","","","","",""
"","","","","","html-keyboard-response","288","1386474","0.0-3.0-7.0-0.32","5f5c4b9c062e0f43a15ed050","D2","batch4","pattern_show_trial_num","null","<p class=block-text>Trial 72 out of 78</p>","null","","","","","","","","","","","","","","","","","","","","","","","","","",""
"","","","","","image-keyboard-response","289","1387833","0.0-3.0-7.0-1.32","5f5c4b9c062e0f43a15ed050","D2","batch4","pattern_response","1358.5999999940395","stim/no_26_1_w.png","j","pattern_10","j","true","","","","1358.5999999940395","true","63","","","","","","","","","","","","","","","","",""
"","","","","","html-keyboard-response","290","1389145","0.0-3.0-7.0-0.33","5f5c4b9c062e0f43a15ed050","D2","batch4","pattern_show_trial_num","null","<p class=block-text>Trial 73 out of 78</p>","null","","","","","","","","","","","","","","","","","","","","","","","","","",""
"","","","","","image-keyboard-response","291","1391525","0.0-3.0-7.0-1.33","5f5c4b9c062e0f43a15ed050","D2","batch4","pattern_response","2379.60000000149","stim/yes_40_dia_b1_b.png","j","pattern_63","f","false","","","","2379.60000000149","false","63","","","","","","","","","","","","","","","","",""
"","","","","","html-keyboard-response","292","1392838","0.0-3.0-7.0-0.34","5f5c4b9c062e0f43a15ed050","D2","batch4","pattern_show_trial_num","null","<p class=block-text>Trial 74 out of 78</p>","null","","","","","","","","","","","","","","","","","","","","","","","","","",""
"","","","","","image-keyboard-response","293","1398877","0.0-3.0-7.0-1.34","5f5c4b9c062e0f43a15ed050","D2","batch4","pattern_response","6038.4000000059605","stim/no_44_1.png","j","pattern_24","j","true","","","","6038.4000000059605","true","64","","","","","","","","","","","","","","","","",""
"","","","","","html-keyboard-response","294","1400188","0.0-3.0-7.0-0.35","5f5c4b9c062e0f43a15ed050","D2","batch4","pattern_show_trial_num","null","<p class=block-text>Trial 75 out of 78</p>","null","","","","","","","","","","","","","","","","","","","","","","","","","",""
"","","","","","image-keyboard-response","295","1404249","0.0-3.0-7.0-1.35","5f5c4b9c062e0f43a15ed050","D2","batch4","pattern_response","4059.7000000029802","stim/no_46_1_b.png","j","pattern_26","j","true","","","","4059.7000000029802","true","65","","","","","","","","","","","","","","","","",""
"","","","","","html-keyboard-response","296","1405573","0.0-3.0-7.0-0.36","5f5c4b9c062e0f43a15ed050","D2","batch4","pattern_show_trial_num","null","<p class=block-text>Trial 76 out of 78</p>","null","","","","","","","","","","","","","","","","","","","","","","","","","",""
"","","","","","image-keyboard-response","297","1408540","0.0-3.0-7.0-1.36","5f5c4b9c062e0f43a15ed050","D2","batch4","pattern_response","2965.89999999851","stim/yes_50_dia_w1.png","j","pattern_71","f","false","","","","2965.89999999851","false","65","","","","","","","","","","","","","","","","",""
"","","","","","html-keyboard-response","298","1409855","0.0-3.0-7.0-0.37","5f5c4b9c062e0f43a15ed050","D2","batch4","pattern_show_trial_num","null","<p class=block-text>Trial 77 out of 78</p>","null","","","","","","","","","","","","","","","","","","","","","","","","","",""
"","","","","","image-keyboard-response","299","1410986","0.0-3.0-7.0-1.37","5f5c4b9c062e0f43a15ed050","D2","batch4","pattern_response","1130.5","stim/yes_67_hor_b1.png","f","pattern_79","f","true","","","","1130.5","true","66","","","","","","","","","","","","","","","","",""
"","","","","","html-keyboard-response","300","1412308","0.0-3.0-7.0-0.38","5f5c4b9c062e0f43a15ed050","D2","batch4","pattern_show_trial_num","null","<p class=block-text>Trial 78 out of 78</p>","null","","","","","","","","","","","","","","","","","","","","","","","","","",""
"","","","","","image-keyboard-response","301","1413367","0.0-3.0-7.0-1.38","5f5c4b9c062e0f43a15ed050","D2","batch4","pattern_response","1058.6000000014901","stim/yes_28_ver_b1.png","f","pattern_51","f","true","","","","1058.6000000014901","true","67","","","","","","","","","","","","","","","","",""
"","","","","","html-button-response","302","1417289","0.0-3.0-8.0","5f5c4b9c062e0f43a15ed050","D2","batch4","","3415.5","<p class = block-text>This concludes the 4-in-a-row detection game.Thank you for your responses!<br>
            You responded correctly on 86% of the trials.<br>
            When you are ready, press ""Continue"" button to continue </p>","0","","","","","","","","","","","","","","","","","","","","","","","","","",""
"true","","","","","fullscreen","303","1523600","0.0-4.0-0.0","5f5c4b9c062e0f43a15ed050","D2","batch4","","","","","","","","","","","","","","","","","","","","","","","","","","","","","",""
"","","","","","instructions","304","1564372","0.0-4.0-1.0-0.0-0.0","5f5c4b9c062e0f43a15ed050","D2","batch4","tol-instructions","40771.69999999553","","","","","","","","[{""page_index"":0,""viewing_time"":9999.39999999851},{""page_index"":1,""viewing_time"":5106},{""page_index"":2,""viewing_time"":3355.10000000149},{""page_index"":3,""viewing_time"":9313.89999999851},{""page_index"":4,""viewing_time"":4025.10000000149},{""page_index"":5,""viewing_time"":6605},{""page_index"":6,""viewing_time"":2367.0999999940395}]","","","","","","","","","","","","","","","","","","","",""
"","","","","","html-button-response","305","1565588","0.0-4.0-1.0-1.0-0.0","5f5c4b9c062e0f43a15ed050","D2","batch4","tol_enter_quiz","1215.3999999985099","<p class=block-text> Let's answer a few questions <br>","0","","","","","","","","","","","","","","","","","","","","","","","","","",""
"","","","","","html-button-response","306","1574205","0.0-4.0-1.0-1.0-1.0","5f5c4b9c062e0f43a15ed050","D2","batch4","tol_quiz","8616.19999999553","<p class = block-text>True or False: You can only move the ball on top of a peg. <br></p>","1","","","false","","","","","","","","","","","","","","","","","","","","","","",""
"","","","","","html-button-response","307","1574948","0.0-4.0-1.0-1.0-2.0","5f5c4b9c062e0f43a15ed050","D2","batch4","tol_quiz_feedback","742.0999999940395","<p class = block-text>Incorrect. Remember, you can only move the ball on top of a peg.</p>","0","","","","","","","","","","","","","","","","","","","","","","","","","",""
"","","","","","html-button-response","308","1577735","0.0-4.0-1.0-1.0-3.0","5f5c4b9c062e0f43a15ed050","D2","batch4","tol_quiz","2786.3000000044703","<p class = block-text>True or False: You should try to match your board with the target board with fewest moves possible. <br></p>","0","","","true","","","","","","","","","","","","","","","","","","","","","","",""
"","","","","","html-button-response","309","1577988","0.0-4.0-1.0-1.0-4.0","5f5c4b9c062e0f43a15ed050","D2","batch4","tol_quiz_feedback","252.69999999552965","<p class = block-text>Correct! </p>","0","","","","","","","","","","","","","","","","","","","","","","","","","",""
"","","","","","html-button-response","310","1579082","0.0-4.0-1.0-2.0-0.0","5f5c4b9c062e0f43a15ed050","D2","batch4","","1093.2000000029802","<p class = block-text>You made too many incorrect choices.</p><p class = block-text>You will now repeat the instructions and quiz</p>","0","","","","","","","","","","","","","","","","","","","","","","","","","",""
"","","","","","instructions","311","1585567","0.0-4.0-1.1-0.1-0.1","5f5c4b9c062e0f43a15ed050","D2","batch4","tol-instructions","6484.69999999553","","","","","","","","[{""page_index"":0,""viewing_time"":869.5},{""page_index"":1,""viewing_time"":395.09999999403954},{""page_index"":2,""viewing_time"":371},{""page_index"":3,""viewing_time"":374},{""page_index"":4,""viewing_time"":392.90000000596046},{""page_index"":5,""viewing_time"":377},{""page_index"":6,""viewing_time"":3705.0999999940395}]","","","","","","","","","","","","","","","","","","","",""
"","","","","","html-button-response","312","1586433","0.0-4.0-1.1-1.1-0.1","5f5c4b9c062e0f43a15ed050","D2","batch4","tol_enter_quiz","865.5","<p class=block-text> Let's answer a few questions <br>","0","","","","","","","","","","","","","","","","","","","","","","","","","",""
"","","","","","html-button-response","313","1587054","0.0-4.0-1.1-1.1-1.1","5f5c4b9c062e0f43a15ed050","D2","batch4","tol_quiz","620.3000000044703","<p class = block-text>True or False: You can only move the ball on top of a peg. <br></p>","0","","","true","","","","","","","","","","","","","","","","","","","","","","",""
"","","","","","html-button-response","314","1587631","0.0-4.0-1.1-1.1-2.1","5f5c4b9c062e0f43a15ed050","D2","batch4","tol_quiz_feedback","576.2000000029802","<p class = block-text>Correct! You can only move the ball on top of a peg.</p>","0","","","","","","","","","","","","","","","","","","","","","","","","","",""
"","","","","","html-button-response","315","1588971","0.0-4.0-1.1-1.1-3.1","5f5c4b9c062e0f43a15ed050","D2","batch4","tol_quiz","1339.3999999985099","<p class = block-text>True or False: You should try to match your board with the target board with fewest moves possible. <br></p>","0","","","true","","","","","","","","","","","","","","","","","","","","","","",""
"","","","","","html-button-response","316","1589435","0.0-4.0-1.1-1.1-4.1","5f5c4b9c062e0f43a15ed050","D2","batch4","tol_quiz_feedback","463.5","<p class = block-text>Correct! </p>","0","","","","","","","","","","","","","","","","","","","","","","","","","",""
"","","","","","html-button-response","317","1590533","0.0-4.0-2.0","5f5c4b9c062e0f43a15ed050","D2","batch4","","1097.5999999940395","<p class=block-text> Now that you've understood the game, let's practice a few easier examples before we start!<br> <br>","0","","","","","","","","","","","","","","","","","","","","","","","","","",""
"","","","","","single-stim-button","318","1592306","0.0-4.0-3.0-0.0","5f5c4b9c062e0f43a15ed050","D2","batch4","tol_practice","1772","","","","","","","","","","","","","","tol_peg_2","1772","1772","0","[[1,2,0],[0,0],[0]]","1","[[1,2,0],[0,0],[3]]","practice","1772","","","","","",""
"","","","","","single-stim-button","319","1593347","0.0-4.0-3.0-1.0","5f5c4b9c062e0f43a15ed050","D2","batch4","tol_practice","1041","","","","","","","","","","","","","","tol_peg_3","1041","1041","0","[[1,2,0],[0,0],[3]]","1","[[1,2,0],[0,0],[3]]","practice","1041","","","","","",""
"","","","","","poldrack-single-stim","320","1594358","0.0-4.0-4.0","5f5c4b9c062e0f43a15ed050","D2","batch4","tol_feedback","-1","","","","","true","","","","","","","","","","1000","1000","500","","","","","","-1","none","true","","0",""
"","","","","","single-stim-button","321","1598247","0.0-4.0-5.0-0.0","5f5c4b9c062e0f43a15ed050","D2","batch4","tol_practice","3889","","","","","","","","","","","","","","tol_peg_1","3889","3889","0","[[1,0,0],[3,0],[0]]","2","[[0,0,0],[3,1],[2]]","practice","3889","","","","","",""
"","","","","","single-stim-button","322","1598818","0.0-4.0-5.0-1.0","5f5c4b9c062e0f43a15ed050","D2","batch4","tol_practice","571","","","","","","","","","","","","","","tol_peg_3","571","571","0","[[1,0,0],[3,0],[2]]","2","[[0,0,0],[3,1],[2]]","practice","571","","","","","",""
"","","","","","single-stim-button","323","1599376","0.0-4.0-5.1-0.1","5f5c4b9c062e0f43a15ed050","D2","batch4","tol_practice","558","","","","","","","","","","","","","","tol_peg_1","558","558","0","[[0,0,0],[3,0],[2]]","3","[[0,0,0],[3,1],[2]]","practice","558","","","","","",""
"","","","","","single-stim-button","324","1599852","0.0-4.0-5.1-1.1","5f5c4b9c062e0f43a15ed050","D2","batch4","tol_practice","476","","","","","","","","","","","","","","tol_peg_2","476","476","0","[[0,0,0],[3,1],[2]]","3","[[0,0,0],[3,1],[2]]","practice","476","","","","","",""
"","","","","","poldrack-single-stim","325","1600853","0.0-4.0-6.0","5f5c4b9c062e0f43a15ed050","D2","batch4","tol_feedback","-1","","","","","true","","","","","","","","","","1000","1000","500","","","","","","-1","none","true","","0",""
"","","","","","single-stim-button","326","1604192","0.0-4.0-7.0-0.0","5f5c4b9c062e0f43a15ed050","D2","batch4","tol_practice","3338","","","","","","","","","","","","","","tol_peg_1","3338","3338","0","[[1,0,0],[3,0],[0]]","4","[[1,0,0],[2,0],[3]]","practice","3338","","","","","",""
"","","","","","single-stim-button","327","1605816","0.0-4.0-7.0-1.0","5f5c4b9c062e0f43a15ed050","D2","batch4","tol_practice","1623","","","","","","","","","","","","","","tol_peg_1","1623","1623","0","[[1,2,0],[3,0],[0]]","4","[[1,0,0],[2,0],[3]]","practice","1623","","","","","",""
"","","","","","single-stim-button","328","1606750","0.0-4.0-7.1-0.1","5f5c4b9c062e0f43a15ed050","D2","batch4","tol_practice","933","","","","","","","","","","","","","","tol_peg_2","933","933","0","[[1,2,0],[0,0],[0]]","5","[[1,0,0],[2,0],[3]]","practice","933","","","","","",""
"","","","","","single-stim-button","329","1607254","0.0-4.0-7.1-1.1","5f5c4b9c062e0f43a15ed050","D2","batch4","tol_practice","504","","","","","","","","","","","","","","tol_peg_3","504","504","0","[[1,2,0],[0,0],[3]]","5","[[1,0,0],[2,0],[3]]","practice","504","","","","","",""
"","","","","","single-stim-button","330","1608012","0.0-4.0-7.2-0.2","5f5c4b9c062e0f43a15ed050","D2","batch4","tol_practice","757","","","","","","","","","","","","","","tol_peg_1","757","757","0","[[1,0,0],[0,0],[3]]","6","[[1,0,0],[2,0],[3]]","practice","757","","","","","",""
"","","","","","single-stim-button","331","1608353","0.0-4.0-7.2-1.2","5f5c4b9c062e0f43a15ed050","D2","batch4","tol_practice","341","","","","","","","","","","","","","","tol_peg_2","341","341","0","[[1,0,0],[2,0],[3]]","6","[[1,0,0],[2,0],[3]]","practice","341","","","","","",""
"","","","","","poldrack-single-stim","332","1609359","0.0-4.0-8.0","5f5c4b9c062e0f43a15ed050","D2","batch4","tol_feedback","-1","","","","","true","","","","","","","","","","1000","1000","500","","","","","","-1","none","true","","0",""
"","","","","","html-button-response","333","1613409","0.0-4.0-9.0","5f5c4b9c062e0f43a15ed050","D2","batch4","tol_instruction","4049.2000000029802","<div class = centerbox><p class = center-block-text>Great job! You are done with practice trials<br>You are about to start official trials.<br> <br> Problem <strong>1</strong> out of 25 problems</p></div>","0","","","","","","","","","","","","","","","","","","","","","","","","","",""
"","","","","","single-stim-button","334","1618175","0.0-4.0-10.0-0.0","5f5c4b9c062e0f43a15ed050","D2","batch4","tol_tohand","3753","","","","","","","","","","","","","","tol_peg_2","3753","3753","0","[[1,2,0],[0,0],[0]]","1","[[1,3,0],[2,0],[0]]","0","0","","","","","","3"
"","","","","","single-stim-button","335","1618780","0.0-4.0-10.0-1.0","5f5c4b9c062e0f43a15ed050","D2","batch4","tol_toboard","604","","","","","","","","","","","","","","tol_peg_3","604","604","0","[[1,2,0],[0,0],[3]]","1","[[1,3,0],[2,0],[0]]","0","0","","","","","","3"
"","","","","","single-stim-button","336","1619344","0.0-4.0-10.1-0.1","5f5c4b9c062e0f43a15ed050","D2","batch4","tol_tohand","563","","","","","","","","","","","","","","tol_peg_1","563","563","0","[[1,0,0],[0,0],[3]]","2","[[1,3,0],[2,0],[0]]","0","0","","","","","","3"
"","","","","","single-stim-button","337","1619746","0.0-4.0-10.1-1.1","5f5c4b9c062e0f43a15ed050","D2","batch4","tol_toboard","402","","","","","","","","","","","","","","tol_peg_2","402","402","0","[[1,0,0],[2,0],[3]]","2","[[1,3,0],[2,0],[0]]","0","0","","","","","","3"
"","","","","","single-stim-button","338","1620117","0.0-4.0-10.2-0.2","5f5c4b9c062e0f43a15ed050","D2","batch4","tol_tohand","371","","","","","","","","","","","","","","tol_peg_3","371","371","0","[[1,0,0],[2,0],[0]]","3","[[1,3,0],[2,0],[0]]","0","0","","","","","","3"
"","","","","","single-stim-button","339","1620704","0.0-4.0-10.2-1.2","5f5c4b9c062e0f43a15ed050","D2","batch4","tol_toboard","587","","","","","","","","","","","","","","tol_peg_1","587","587","0","[[1,3,0],[2,0],[0]]","3","[[1,3,0],[2,0],[0]]","0","0","","","","","","3"
"","","","","","poldrack-single-stim","340","1621710","0.0-4.0-11.0","5f5c4b9c062e0f43a15ed050","D2","batch4","tol_feedback","-1","","","","","true","","","","","","","","","","1000","1000","500","","","","","","-1","none","true","3753","4687",""
"","","","","","html-button-response","341","1622628","0.0-4.0-12.0","5f5c4b9c062e0f43a15ed050","D2","batch4","tol_trial_num","917.1000000014901","<div class = centerbox><p class = center-block-text>problem <strong>2</strong> out of 25 problems</p></div>","0","","","","","","","","","","","","","","","","","","","","","","","","","",""
"","","","","","single-stim-button","342","1627969","0.0-4.0-13.0-0.0","5f5c4b9c062e0f43a15ed050","D2","batch4","tol_tohand","5339","","","","","","","","","","","","","","tol_peg_1","5339","5339","0","[[1,0,0],[3,0],[0]]","1","[[2,1,3],[0,0],[0]]","1","0","","","","","","5"
"","","","","","single-stim-button","343","1630196","0.0-4.0-13.0-1.0","5f5c4b9c062e0f43a15ed050","D2","batch4","tol_toboard","2227","","","","","","","","","","","","","","tol_peg_2","2227","2227","0","[[1,0,0],[3,2],[0]]","1","[[2,1,3],[0,0],[0]]","1","0","","","","","","5"
"","","","","","single-stim-button","344","1630688","0.0-4.0-13.1-0.1","5f5c4b9c062e0f43a15ed050","D2","batch4","tol_tohand","491","","","","","","","","","","","","","","tol_peg_1","491","491","0","[[0,0,0],[3,2],[0]]","2","[[2,1,3],[0,0],[0]]","1","0","","","","","","5"
"","","","","","single-stim-button","345","1631452","0.0-4.0-13.1-1.1","5f5c4b9c062e0f43a15ed050","D2","batch4","tol_toboard","763","","","","","","","","","","","","","","tol_peg_3","763","763","0","[[0,0,0],[3,2],[1]]","2","[[2,1,3],[0,0],[0]]","1","0","","","","","","5"
