"success","timeout","failed_images","failed_audio","failed_video","trial_type","trial_index","time_elapsed","internal_node_id","subject_id","study_id","session_id","view_history","rt","task","stimulus","response","correct","mouse_click","stim_duration","block_duration","timing_post_trial","current_position","tol_num_moves_made","tol_target","tol_problem_id","tol_rt","key_press","possible_responses","tol_correct","preplanning","tol_rt_per_trial","tol_min_moves","answer","item","fiar_detect_rt","fiar_detect_correct","total_correct_fiar_detect","post_trial_gap","choices","spm_correct","spm_rt"
"true","false","[]","[]","[]","preload","0","1815","0.0-0.0","5f5e401d77501a6b82743d56","F1","batch6","","","","","","","","","","","","","","","","","","","","","","","","","","","","","",""
"true","","","","","fullscreen","1","10361","0.0-1.0-0.0","5f5e401d77501a6b82743d56","F1","batch6","","","","","","","","","","","","","","","","","","","","","","","","","","","","","",""
"true","","","","","fullscreen","2","13023","0.0-2.0-0.0","5f5e401d77501a6b82743d56","F1","batch6","","","","","","","","","","","","","","","","","","","","","","","","","","","","","",""
"","","","","","instructions","3","120913","0.0-2.0-1.0-0.0-0.0","5f5e401d77501a6b82743d56","F1","batch6","[{""page_index"":0,""viewing_time"":28014.100000023842},{""page_index"":1,""viewing_time"":6539.899999976158},{""page_index"":2,""viewing_time"":3940.600000023842},{""page_index"":3,""viewing_time"":3631.7999999523163},{""page_index"":4,""viewing_time"":3327.100000023842},{""page_index"":5,""viewing_time"":60584.60000002384},{""page_index"":6,""viewing_time"":1850}]","107888.70000004768","tol-instructions","","","","","","","","","","","","","","","","","","","","","","","","","","",""
"","","","","","html-button-response","4","122014","0.0-2.0-1.0-1.0-0.0","5f5e401d77501a6b82743d56","F1","batch6","","1097.6000000238419","tol_enter_quiz","<p class=block-text> Let's answer a few questions <br>","0","","","","","","","","","","","","","","","","","","","","","","","","",""
"","","","","","html-button-response","5","124864","0.0-2.0-1.0-1.0-1.0","5f5e401d77501a6b82743d56","F1","batch6","","2846.7999999523163","tol_quiz","<p class = block-text>True or False: You can only move the ball on top of a peg. <br></p>","0","true","","","","","","","","","","","","","","","","","","","","","","","",""
"","","","","","html-button-response","6","125821","0.0-2.0-1.0-1.0-2.0","5f5e401d77501a6b82743d56","F1","batch6","","954.7999999523163","tol_quiz_feedback","<p class = block-text>Correct! You can only move the ball on top of a peg.</p>","0","","","","","","","","","","","","","","","","","","","","","","","","",""
"","","","","","html-button-response","7","128146","0.0-2.0-1.0-1.0-3.0","5f5e401d77501a6b82743d56","F1","batch6","","2323.8000000715256","tol_quiz","<p class = block-text>True or False: You should try to match your board with the target board with fewest moves possible. <br></p>","0","true","","","","","","","","","","","","","","","","","","","","","","","",""
"","","","","","html-button-response","8","128866","0.0-2.0-1.0-1.0-4.0","5f5e401d77501a6b82743d56","F1","batch6","","718.6999999284744","tol_quiz_feedback","<p class = block-text>Correct! </p>","0","","","","","","","","","","","","","","","","","","","","","","","","",""
"","","","","","html-button-response","9","130303","0.0-2.0-2.0","5f5e401d77501a6b82743d56","F1","batch6","","1436.3999999761581","","<p class=block-text> Now that you've understood the game, let's practice a few easier examples before we start!<br> <br>","0","","","","","","","","","","","","","","","","","","","","","","","","",""
"","","","","","single-stim-button","10","133623","0.0-2.0-3.0-0.0","5f5e401d77501a6b82743d56","F1","batch6","","3318","tol_practice","","","","tol_peg_2","3318","3318","0","[[1,2,0],[0,0],[0]]","1","[[1,2,0],[0,0],[3]]","practice","3318","","","","","","","","","","","","","","",""
"","","","","","single-stim-button","11","135157","0.0-2.0-3.0-1.0","5f5e401d77501a6b82743d56","F1","batch6","","1532","tol_practice","","","","tol_peg_3","1532","1532","0","[[1,2,0],[0,0],[3]]","1","[[1,2,0],[0,0],[3]]","practice","1532","","","","","","","","","","","","","","",""
"","","","","","poldrack-single-stim","12","136173","0.0-2.0-4.0","5f5e401d77501a6b82743d56","F1","batch6","","-1","tol_feedback","","","true","","1000","1000","500","","","","","","-1","none","true","","0","","","","","","","","","",""
"","","","","","single-stim-button","13","146169","0.0-2.0-5.0-0.0","5f5e401d77501a6b82743d56","F1","batch6","","9992","tol_practice","","","","tol_peg_1","9992","9992","0","[[1,0,0],[3,0],[0]]","2","[[0,0,0],[3,1],[2]]","practice","9992","","","","","","","","","","","","","","",""
"","","","","","single-stim-button","14","148767","0.0-2.0-5.0-1.0","5f5e401d77501a6b82743d56","F1","batch6","","2596","tol_practice","","","","tol_peg_3","2596","2596","0","[[1,0,0],[3,0],[2]]","2","[[0,0,0],[3,1],[2]]","practice","2596","","","","","","","","","","","","","","",""
"","","","","","single-stim-button","15","150062","0.0-2.0-5.1-0.1","5f5e401d77501a6b82743d56","F1","batch6","","1292","tol_practice","","","","tol_peg_1","1292","1292","0","[[0,0,0],[3,0],[2]]","3","[[0,0,0],[3,1],[2]]","practice","1292","","","","","","","","","","","","","","",""
"","","","","","single-stim-button","16","151336","0.0-2.0-5.1-1.1","5f5e401d77501a6b82743d56","F1","batch6","","1273","tol_practice","","","","tol_peg_2","1273","1273","0","[[0,0,0],[3,1],[2]]","3","[[0,0,0],[3,1],[2]]","practice","1273","","","","","","","","","","","","","","",""
"","","","","","poldrack-single-stim","17","152354","0.0-2.0-6.0","5f5e401d77501a6b82743d56","F1","batch6","","-1","tol_feedback","","","true","","1000","1000","500","","","","","","-1","none","true","","0","","","","","","","","","",""
"","","","","","single-stim-button","18","155054","0.0-2.0-7.0-0.0","5f5e401d77501a6b82743d56","F1","batch6","","2698","tol_practice","","","","tol_peg_2","2698","2698","0","[[1,2,0],[0,0],[0]]","4","[[1,0,0],[2,0],[3]]","practice","2698","","","","","","","","","","","","","","",""
"","","","","","single-stim-button","19","156348","0.0-2.0-7.0-1.0","5f5e401d77501a6b82743d56","F1","batch6","","1292","tol_practice","","","","tol_peg_3","1292","1292","0","[[1,2,0],[0,0],[3]]","4","[[1,0,0],[2,0],[3]]","practice","1292","","","","","","","","","","","","","","",""
"","","","","","single-stim-button","20","157368","0.0-2.0-7.1-0.1","5f5e401d77501a6b82743d56","F1","batch6","","1020","tol_practice","","","","tol_peg_1","1020","1020","0","[[1,0,0],[0,0],[3]]","5","[[1,0,0],[2,0],[3]]","practice","1020","","","","","","","","","","","","","","",""
"","","","","","single-stim-button","21","158278","0.0-2.0-7.1-1.1","5f5e401d77501a6b82743d56","F1","batch6","","908","tol_practice","","","","tol_peg_2","908","908","0","[[1,0,0],[2,0],[3]]","5","[[1,0,0],[2,0],[3]]","practice","908","","","","","","","","","","","","","","",""
"","","","","","poldrack-single-stim","22","159283","0.0-2.0-8.0","5f5e401d77501a6b82743d56","F1","batch6","","-1","tol_feedback","","","true","","1000","1000","500","","","","","","-1","none","true","","0","","","","","","","","","",""
"","","","","","html-button-response","23","161296","0.0-2.0-9.0","5f5e401d77501a6b82743d56","F1","batch6","","2011.1000000238419","tol_instruction","<div class = centerbox><p class = center-block-text>Great job! You are done with practice trials<br>You are about to start official trials.<br> <br> Problem <strong>1</strong> out of 25 problems</p></div>","0","","","","","","","","","","","","","","","","","","","","","","","","",""
"","","","","","single-stim-button","24","168311","0.0-2.0-10.0-0.0","5f5e401d77501a6b82743d56","F1","batch6","","6009","tol_tohand","","","","tol_peg_2","6009","6009","0","[[1,2,0],[0,0],[0]]","1","[[1,3,0],[2,0],[0]]","0","0","","","","","","3","","","","","","","","",""
"","","","","","single-stim-button","25","169312","0.0-2.0-10.0-1.0","5f5e401d77501a6b82743d56","F1","batch6","","998","tol_toboard","","","","tol_peg_3","998","998","0","[[1,2,0],[0,0],[3]]","1","[[1,3,0],[2,0],[0]]","0","0","","","","","","3","","","","","","","","",""
"","","","","","single-stim-button","26","170268","0.0-2.0-10.1-0.1","5f5e401d77501a6b82743d56","F1","batch6","","953","tol_tohand","","","","tol_peg_1","953","953","0","[[1,0,0],[0,0],[3]]","2","[[1,3,0],[2,0],[0]]","0","0","","","","","","3","","","","","","","","",""
"","","","","","single-stim-button","27","171394","0.0-2.0-10.1-1.1","5f5e401d77501a6b82743d56","F1","batch6","","1124","tol_toboard","","","","tol_peg_2","1124","1124","0","[[1,0,0],[2,0],[3]]","2","[[1,3,0],[2,0],[0]]","0","0","","","","","","3","","","","","","","","",""
"","","","","","single-stim-button","28","172827","0.0-2.0-10.2-0.2","5f5e401d77501a6b82743d56","F1","batch6","","1433","tol_tohand","","","","tol_peg_3","1433","1433","0","[[1,0,0],[2,0],[0]]","3","[[1,3,0],[2,0],[0]]","0","0","","","","","","3","","","","","","","","",""
"","","","","","single-stim-button","29","173878","0.0-2.0-10.2-1.2","5f5e401d77501a6b82743d56","F1","batch6","","1050","tol_toboard","","","","tol_peg_1","1050","1050","0","[[1,3,0],[2,0],[0]]","3","[[1,3,0],[2,0],[0]]","0","0","","","","","","3","","","","","","","","",""
"","","","","","poldrack-single-stim","30","174895","0.0-2.0-11.0","5f5e401d77501a6b82743d56","F1","batch6","","-1","tol_feedback","","","true","","1000","1000","500","","","","","","-1","none","true","6009","8395","","","","","","","","","",""
"","","","","","html-button-response","31","176273","0.0-2.0-12.0","5f5e401d77501a6b82743d56","F1","batch6","","1376.3999999761581","tol_trial_num","<div class = centerbox><p class = center-block-text>problem <strong>2</strong> out of 25 problems</p></div>","0","","","","","","","","","","","","","","","","","","","","","","","","",""
"","","","","","single-stim-button","32","199922","0.0-2.0-13.0-0.0","5f5e401d77501a6b82743d56","F1","batch6","","23648","tol_tohand","","","","tol_peg_1","23648","23648","0","[[1,0,0],[3,0],[0]]","1","[[2,1,3],[0,0],[0]]","1","0","","","","","","5","","","","","","","","",""
"","","","","","single-stim-button","33","200956","0.0-2.0-13.0-1.0","5f5e401d77501a6b82743d56","F1","batch6","","1031","tol_toboard","","","","tol_peg_2","1031","1031","0","[[1,0,0],[3,2],[0]]","1","[[2,1,3],[0,0],[0]]","1","0","","","","","","5","","","","","","","","",""
"","","","","","single-stim-button","34","203967","0.0-2.0-13.1-0.1","5f5e401d77501a6b82743d56","F1","batch6","","3009","tol_tohand","","","","tol_peg_1","3009","3009","0","[[0,0,0],[3,2],[0]]","2","[[2,1,3],[0,0],[0]]","1","0","","","","","","5","","","","","","","","",""
"","","","","","single-stim-button","35","205272","0.0-2.0-13.1-1.1","5f5e401d77501a6b82743d56","F1","batch6","","1304","tol_toboard","","","","tol_peg_3","1304","1304","0","[[0,0,0],[3,2],[1]]","2","[[2,1,3],[0,0],[0]]","1","0","","","","","","5","","","","","","","","",""
"","","","","","single-stim-button","36","206557","0.0-2.0-13.2-0.2","5f5e401d77501a6b82743d56","F1","batch6","","1284","tol_tohand","","","","tol_peg_2","1284","1284","0","[[0,0,0],[3,0],[1]]","3","[[2,1,3],[0,0],[0]]","1","0","","","","","","5","","","","","","","","",""
"","","","","","single-stim-button","37","207873","0.0-2.0-13.2-1.2","5f5e401d77501a6b82743d56","F1","batch6","","1314","tol_toboard","","","","tol_peg_1","1314","1314","0","[[2,0,0],[3,0],[1]]","3","[[2,1,3],[0,0],[0]]","1","0","","","","","","5","","","","","","","","",""
"","","","","","single-stim-button","38","209246","0.0-2.0-13.3-0.3","5f5e401d77501a6b82743d56","F1","batch6","","1371","tol_tohand","","","","tol_peg_3","1371","1371","0","[[2,0,0],[3,0],[0]]","4","[[2,1,3],[0,0],[0]]","1","0","","","","","","5","","","","","","","","",""
"","","","","","single-stim-button","39","210260","0.0-2.0-13.3-1.3","5f5e401d77501a6b82743d56","F1","batch6","","1014","tol_toboard","","","","tol_peg_1","1014","1014","0","[[2,1,0],[3,0],[0]]","4","[[2,1,3],[0,0],[0]]","1","0","","","","","","5","","","","","","","","",""
"","","","","","single-stim-button","40","211441","0.0-2.0-13.4-0.4","5f5e401d77501a6b82743d56","F1","batch6","","1180","tol_tohand","","","","tol_peg_2","1180","1180","0","[[2,1,0],[0,0],[0]]","5","[[2,1,3],[0,0],[0]]","1","0","","","","","","5","","","","","","","","",""
"","","","","","single-stim-button","41","212362","0.0-2.0-13.4-1.4","5f5e401d77501a6b82743d56","F1","batch6","","920","tol_toboard","","","","tol_peg_1","920","920","0","[[2,1,3],[0,0],[0]]","5","[[2,1,3],[0,0],[0]]","1","0","","","","","","5","","","","","","","","",""
"","","","","","poldrack-single-stim","42","213369","0.0-2.0-14.0","5f5e401d77501a6b82743d56","F1","batch6","","-1","tol_feedback","","","true","","1000","1000","500","","","","","","-1","none","true","23648","30492","","","","","","","","","",""
"","","","","","html-button-response","43","214558","0.0-2.0-15.0","5f5e401d77501a6b82743d56","F1","batch6","","1188.3999999761581","tol_trial_num","<div class = centerbox><p class = center-block-text>problem <strong>3</strong> out of 25 problems</p></div>","0","","","","","","","","","","","","","","","","","","","","","","","","",""
"","","","","","single-stim-button","44","220106","0.0-2.0-16.0-0.0","5f5e401d77501a6b82743d56","F1","batch6","","5546","tol_tohand","","","","tol_peg_1","5546","5546","0","[[2,0,0],[0,0],[1]]","1","[[1,2,0],[3,0],[0]]","2","0","","","","","","4","","","","","","","","",""
"","","","","","single-stim-button","45","224307","0.0-2.0-16.0-1.0","5f5e401d77501a6b82743d56","F1","batch6","","4198","tol_toboard","","","","tol_peg_2","4198","4198","0","[[2,0,0],[3,0],[1]]","1","[[1,2,0],[3,0],[0]]","2","0","","","","","","4","","","","","","","","",""
"","","","","","single-stim-button","46","225495","0.0-2.0-16.1-0.1","5f5e401d77501a6b82743d56","F1","batch6","","1188","tol_tohand","","","","tol_peg_1","1188","1188","0","[[0,0,0],[3,0],[1]]","2","[[1,2,0],[3,0],[0]]","2","0","","","","","","4","","","","","","","","",""
"","","","","","single-stim-button","47","226406","0.0-2.0-16.1-1.1","5f5e401d77501a6b82743d56","F1","batch6","","909","tol_toboard","","","","tol_peg_2","909","909","0","[[0,0,0],[3,2],[1]]","2","[[1,2,0],[3,0],[0]]","2","0","","","","","","4","","","","","","","","",""
"","","","","","single-stim-button","48","228303","0.0-2.0-16.2-0.2","5f5e401d77501a6b82743d56","F1","batch6","","1896","tol_tohand","","","","tol_peg_3","1896","1896","0","[[0,0,0],[3,2],[0]]","3","[[1,2,0],[3,0],[0]]","2","0","","","","","","4","","","","","","","","",""
"","","","","","single-stim-button","49","229165","0.0-2.0-16.2-1.2","5f5e401d77501a6b82743d56","F1","batch6","","861","tol_toboard","","","","tol_peg_1","861","861","0","[[1,0,0],[3,2],[0]]","3","[[1,2,0],[3,0],[0]]","2","0","","","","","","4","","","","","","","","",""
"","","","","","single-stim-button","50","230445","0.0-2.0-16.3-0.3","5f5e401d77501a6b82743d56","F1","batch6","","1278","tol_tohand","","","","tol_peg_2","1278","1278","0","[[1,0,0],[3,0],[0]]","4","[[1,2,0],[3,0],[0]]","2","0","","","","","","4","","","","","","","","",""
"","","","","","single-stim-button","51","231616","0.0-2.0-16.3-1.3","5f5e401d77501a6b82743d56","F1","batch6","","1170","tol_toboard","","","","tol_peg_1","1170","1170","0","[[1,2,0],[3,0],[0]]","4","[[1,2,0],[3,0],[0]]","2","0","","","","","","4","","","","","","","","",""
"","","","","","poldrack-single-stim","52","232618","0.0-2.0-17.0","5f5e401d77501a6b82743d56","F1","batch6","","-1","tol_feedback","","","true","","1000","1000","500","","","","","","-1","none","true","5546","9908","","","","","","","","","",""
"","","","","","html-button-response","53","233578","0.0-2.0-18.0","5f5e401d77501a6b82743d56","F1","batch6","","958.7999999523163","tol_trial_num","<div class = centerbox><p class = center-block-text>problem <strong>4</strong> out of 25 problems</p></div>","0","","","","","","","","","","","","","","","","","","","","","","","","",""
"","","","","","single-stim-button","54","240785","0.0-2.0-19.0-0.0","5f5e401d77501a6b82743d56","F1","batch6","","7205","tol_tohand","","","","tol_peg_2","7205","7205","0","[[3,0,0],[2,0],[0]]","1","[[3,0,0],[1,0],[2]]","3","0","","","","","","3","","","","","","","","",""
"","","","","","single-stim-button","55","241654","0.0-2.0-19.0-1.0","5f5e401d77501a6b82743d56","F1","batch6","","868","tol_toboard","","","","tol_peg_1","868","868","0","[[3,1,0],[2,0],[0]]","1","[[3,0,0],[1,0],[2]]","3","0","","","","","","3","","","","","","","","",""
"","","","","","single-stim-button","56","242849","0.0-2.0-19.1-0.1","5f5e401d77501a6b82743d56","F1","batch6","","1193","tol_tohand","","","","tol_peg_2","1193","1193","0","[[3,1,0],[0,0],[0]]","2","[[3,0,0],[1,0],[2]]","3","0","","","","","","3","","","","","","","","",""
"","","","","","single-stim-button","57","243533","0.0-2.0-19.1-1.1","5f5e401d77501a6b82743d56","F1","batch6","","681","tol_toboard","","","","tol_peg_3","681","681","0","[[3,1,0],[0,0],[2]]","2","[[3,0,0],[1,0],[2]]","3","0","","","","","","3","","","","","","","","",""
"","","","","","single-stim-button","58","244336","0.0-2.0-19.2-0.2","5f5e401d77501a6b82743d56","F1","batch6","","801","tol_tohand","","","","tol_peg_1","801","801","0","[[3,0,0],[0,0],[2]]","3","[[3,0,0],[1,0],[2]]","3","0","","","","","","3","","","","","","","","",""
"","","","","","single-stim-button","59","245212","0.0-2.0-19.2-1.2","5f5e401d77501a6b82743d56","F1","batch6","","874","tol_toboard","","","","tol_peg_2","874","874","0","[[3,0,0],[1,0],[2]]","3","[[3,0,0],[1,0],[2]]","3","0","","","","","","3","","","","","","","","",""
"","","","","","poldrack-single-stim","60","246217","0.0-2.0-20.0","5f5e401d77501a6b82743d56","F1","batch6","","-1","tol_feedback","","","true","","1000","1000","500","","","","","","-1","none","true","7205","9199","","","","","","","","","",""
"","","","","","html-button-response","61","247395","0.0-2.0-21.0","5f5e401d77501a6b82743d56","F1","batch6","","1176","tol_trial_num","<div class = centerbox><p class = center-block-text>problem <strong>5</strong> out of 25 problems</p></div>","0","","","","","","","","","","","","","","","","","","","","","","","","",""
"","","","","","single-stim-button","62","330869","0.0-2.0-22.0-0.0","5f5e401d77501a6b82743d56","F1","batch6","","83472","tol_tohand","","","","tol_peg_1","83472","83472","0","[[0,0,0],[2,0],[3]]","1","[[0,0,0],[1,2],[3]]","4","0","","","","","","7","","","","","","","","",""
"","","","","","single-stim-button","63","332271","0.0-2.0-22.0-1.0","5f5e401d77501a6b82743d56","F1","batch6","","1402","tol_toboard","","","","tol_peg_2","1402","1402","0","[[0,0,0],[2,1],[3]]","1","[[0,0,0],[1,2],[3]]","4","0","","","","","","7","","","","","","","","",""
"","","","","","single-stim-button","64","333734","0.0-2.0-22.1-0.1","5f5e401d77501a6b82743d56","F1","batch6","","1461","tol_tohand","","","","tol_peg_3","1461","1461","0","[[0,0,0],[2,1],[0]]","2","[[0,0,0],[1,2],[3]]","4","0","","","","","","7","","","","","","","","",""
"","","","","","single-stim-button","65","334767","0.0-2.0-22.1-1.1","5f5e401d77501a6b82743d56","F1","batch6","","1031","tol_toboard","","","","tol_peg_1","1031","1031","0","[[3,0,0],[2,1],[0]]","2","[[0,0,0],[1,2],[3]]","4","0","","","","","","7","","","","","","","","",""
"","","","","","single-stim-button","66","338012","0.0-2.0-22.2-0.2","5f5e401d77501a6b82743d56","F1","batch6","","3244","tol_tohand","","","","tol_peg_2","3244","3244","0","[[3,0,0],[2,0],[0]]","3","[[0,0,0],[1,2],[3]]","4","0","","","","","","7","","","","","","","","",""
"","","","","","single-stim-button","67","338901","0.0-2.0-22.2-1.2","5f5e401d77501a6b82743d56","F1","batch6","","887","tol_toboard","","","","tol_peg_3","887","887","0","[[3,0,0],[2,0],[1]]","3","[[0,0,0],[1,2],[3]]","4","0","","","","","","7","","","","","","","","",""
"","","","","","single-stim-button","68","340000","0.0-2.0-22.3-0.3","5f5e401d77501a6b82743d56","F1","batch6","","1096","tol_tohand","","","","tol_peg_2","1096","1096","0","[[3,0,0],[0,0],[1]]","4","[[0,0,0],[1,2],[3]]","4","0","","","","","","7","","","","","","","","",""
"","","","","","single-stim-button","69","341324","0.0-2.0-22.3-1.3","5f5e401d77501a6b82743d56","F1","batch6","","1322","tol_toboard","","","","tol_peg_1","1322","1322","0","[[3,2,0],[0,0],[1]]","4","[[0,0,0],[1,2],[3]]","4","0","","","","","","7","","","","","","","","",""
"","","","","","single-stim-button","70","342293","0.0-2.0-22.4-0.4","5f5e401d77501a6b82743d56","F1","batch6","","968","tol_tohand","","","","tol_peg_3","968","968","0","[[3,2,0],[0,0],[0]]","5","[[0,0,0],[1,2],[3]]","4","0","","","","","","7","","","","","","","","",""
"","","","","","single-stim-button","71","343189","0.0-2.0-22.4-1.4","5f5e401d77501a6b82743d56","F1","batch6","","895","tol_toboard","","","","tol_peg_2","895","895","0","[[3,2,0],[1,0],[0]]","5","[[0,0,0],[1,2],[3]]","4","0","","","","","","7","","","","","","","","",""
"","","","","","single-stim-button","72","343983","0.0-2.0-22.5-0.5","5f5e401d77501a6b82743d56","F1","batch6","","791","tol_tohand","","","","tol_peg_1","791","791","0","[[3,0,0],[1,0],[0]]","6","[[0,0,0],[1,2],[3]]","4","0","","","","","","7","","","","","","","","",""
"","","","","","single-stim-button","73","344935","0.0-2.0-22.5-1.5","5f5e401d77501a6b82743d56","F1","batch6","","951","tol_toboard","","","","tol_peg_2","951","951","0","[[3,0,0],[1,2],[0]]","6","[[0,0,0],[1,2],[3]]","4","0","","","","","","7","","","","","","","","",""
"","","","","","single-stim-button","74","345762","0.0-2.0-22.6-0.6","5f5e401d77501a6b82743d56","F1","batch6","","826","tol_tohand","","","","tol_peg_1","826","826","0","[[0,0,0],[1,2],[0]]","7","[[0,0,0],[1,2],[3]]","4","0","","","","","","7","","","","","","","","",""
"","","","","","single-stim-button","75","346685","0.0-2.0-22.6-1.6","5f5e401d77501a6b82743d56","F1","batch6","","921","tol_toboard","","","","tol_peg_3","921","921","0","[[0,0,0],[1,2],[3]]","7","[[0,0,0],[1,2],[3]]","4","0","","","","","","7","","","","","","","","",""
"","","","","","poldrack-single-stim","76","347688","0.0-2.0-23.0","5f5e401d77501a6b82743d56","F1","batch6","","-1","tol_feedback","","","true","","1000","1000","500","","","","","","-1","none","true","83472","91858","","","","","","","","","",""
"","","","","","html-button-response","77","348691","0.0-2.0-24.0","5f5e401d77501a6b82743d56","F1","batch6","","1001.6999999284744","tol_trial_num","<div class = centerbox><p class = center-block-text>problem <strong>6</strong> out of 25 problems</p></div>","0","","","","","","","","","","","","","","","","","","","","","","","","",""
"","","","","","single-stim-button","78","363074","0.0-2.0-25.0-0.0","5f5e401d77501a6b82743d56","F1","batch6","","14380","tol_tohand","","","","tol_peg_3","14380","14380","0","[[0,0,0],[1,2],[0]]","1","[[1,0,0],[2,3],[0]]","5","0","","","","","","6","","","","","","","","",""
"","","","","","single-stim-button","79","363980","0.0-2.0-25.0-1.0","5f5e401d77501a6b82743d56","F1","batch6","","904","tol_toboard","","","","tol_peg_1","904","904","0","[[3,0,0],[1,2],[0]]","1","[[1,0,0],[2,3],[0]]","5","0","","","","","","6","","","","","","","","",""
"","","","","","single-stim-button","80","364791","0.0-2.0-25.1-0.1","5f5e401d77501a6b82743d56","F1","batch6","","809","tol_tohand","","","","tol_peg_2","809","809","0","[[3,0,0],[1,0],[0]]","2","[[1,0,0],[2,3],[0]]","5","0","","","","","","6","","","","","","","","",""
"","","","","","single-stim-button","81","366030","0.0-2.0-25.1-1.1","5f5e401d77501a6b82743d56","F1","batch6","","1237","tol_toboard","","","","tol_peg_1","1237","1237","0","[[3,2,0],[1,0],[0]]","2","[[1,0,0],[2,3],[0]]","5","0","","","","","","6","","","","","","","","",""
"","","","","","single-stim-button","82","368400","0.0-2.0-25.2-0.2","5f5e401d77501a6b82743d56","F1","batch6","","2368","tol_tohand","","","","tol_peg_2","2368","2368","0","[[3,2,0],[0,0],[0]]","3","[[1,0,0],[2,3],[0]]","5","0","","","","","","6","","","","","","","","",""
"","","","","","single-stim-button","83","369245","0.0-2.0-25.2-1.2","5f5e401d77501a6b82743d56","F1","batch6","","844","tol_toboard","","","","tol_peg_3","844","844","0","[[3,2,0],[0,0],[1]]","3","[[1,0,0],[2,3],[0]]","5","0","","","","","","6","","","","","","","","",""
"","","","","","single-stim-button","84","370188","0.0-2.0-25.3-0.3","5f5e401d77501a6b82743d56","F1","batch6","","941","tol_tohand","","","","tol_peg_1","941","941","0","[[3,0,0],[0,0],[1]]","4","[[1,0,0],[2,3],[0]]","5","0","","","","","","6","","","","","","","","",""
"","","","","","single-stim-button","85","371047","0.0-2.0-25.3-1.3","5f5e401d77501a6b82743d56","F1","batch6","","858","tol_toboard","","","","tol_peg_2","858","858","0","[[3,0,0],[2,0],[1]]","4","[[1,0,0],[2,3],[0]]","5","0","","","","","","6","","","","","","","","",""
"","","","","","single-stim-button","86","372080","0.0-2.0-25.4-0.4","5f5e401d77501a6b82743d56","F1","batch6","","1031","tol_tohand","","","","tol_peg_1","1031","1031","0","[[0,0,0],[2,0],[1]]","5","[[1,0,0],[2,3],[0]]","5","0","","","","","","6","","","","","","","","",""
"","","","","","single-stim-button","87","372927","0.0-2.0-25.4-1.4","5f5e401d77501a6b82743d56","F1","batch6","","846","tol_toboard","","","","tol_peg_2","846","846","0","[[0,0,0],[2,3],[1]]","5","[[1,0,0],[2,3],[0]]","5","0","","","","","","6","","","","","","","","",""
"","","","","","single-stim-button","88","373805","0.0-2.0-25.5-0.5","5f5e401d77501a6b82743d56","F1","batch6","","875","tol_tohand","","","","tol_peg_3","875","875","0","[[0,0,0],[2,3],[0]]","6","[[1,0,0],[2,3],[0]]","5","0","","","","","","6","","","","","","","","",""
"","","","","","single-stim-button","89","374676","0.0-2.0-25.5-1.5","5f5e401d77501a6b82743d56","F1","batch6","","870","tol_toboard","","","","tol_peg_1","870","870","0","[[1,0,0],[2,3],[0]]","6","[[1,0,0],[2,3],[0]]","5","0","","","","","","6","","","","","","","","",""
"","","","","","poldrack-single-stim","90","375677","0.0-2.0-26.0","5f5e401d77501a6b82743d56","F1","batch6","","-1","tol_feedback","","","true","","1000","1000","500","","","","","","-1","none","true","14380","20404","","","","","","","","","",""
"","","","","","html-button-response","91","376437","0.0-2.0-27.0","5f5e401d77501a6b82743d56","F1","batch6","","758.3999999761581","tol_trial_num","<div class = centerbox><p class = center-block-text>problem <strong>7</strong> out of 25 problems</p></div>","0","","","","","","","","","","","","","","","","","","","","","","","","",""
"","","","","","single-stim-button","92","386399","0.0-2.0-28.0-0.0","5f5e401d77501a6b82743d56","F1","batch6","","9960","tol_tohand","","","","tol_peg_3","9960","9960","0","[[2,1,0],[0,0],[0]]","1","[[1,2,0],[3,0],[0]]","6","0","","","","","","5","","","","","","","","",""
"","","","","","single-stim-button","93","387275","0.0-2.0-28.0-1.0","5f5e401d77501a6b82743d56","F1","batch6","","873","tol_toboard","","","","tol_peg_2","873","873","0","[[2,1,0],[3,0],[0]]","1","[[1,2,0],[3,0],[0]]","6","0","","","","","","5","","","","","","","","",""
"","","","","","single-stim-button","94","388533","0.0-2.0-28.1-0.1","5f5e401d77501a6b82743d56","F1","batch6","","1257","tol_tohand","","","","tol_peg_1","1257","1257","0","[[2,0,0],[3,0],[0]]","2","[[1,2,0],[3,0],[0]]","6","0","","","","","","5","","","","","","","","",""
"","","","","","single-stim-button","95","390486","0.0-2.0-28.1-1.1","5f5e401d77501a6b82743d56","F1","batch6","","1951","tol_toboard","","","","tol_peg_3","1951","1951","0","[[2,0,0],[3,0],[1]]","2","[[1,2,0],[3,0],[0]]","6","0","","","","","","5","","","","","","","","",""
"","","","","","single-stim-button","96","391218","0.0-2.0-28.2-0.2","5f5e401d77501a6b82743d56","F1","batch6","","731","tol_tohand","","","","tol_peg_1","731","731","0","[[0,0,0],[3,0],[1]]","3","[[1,2,0],[3,0],[0]]","6","0","","","","","","5","","","","","","","","",""
"","","","","","single-stim-button","97","392204","0.0-2.0-28.2-1.2","5f5e401d77501a6b82743d56","F1","batch6","","986","tol_toboard","","","","tol_peg_2","986","986","0","[[0,0,0],[3,2],[1]]","3","[[1,2,0],[3,0],[0]]","6","0","","","","","","5","","","","","","","","",""
"","","","","","single-stim-button","98","394848","0.0-2.0-28.3-0.3","5f5e401d77501a6b82743d56","F1","batch6","","2641","tol_tohand","","","","tol_peg_3","2641","2641","0","[[0,0,0],[3,2],[0]]","4","[[1,2,0],[3,0],[0]]","6","0","","","","","","5","","","","","","","","",""
"","","","","","single-stim-button","99","395660","0.0-2.0-28.3-1.3","5f5e401d77501a6b82743d56","F1","batch6","","809","tol_toboard","","","","tol_peg_1","809","809","0","[[1,0,0],[3,2],[0]]","4","[[1,2,0],[3,0],[0]]","6","0","","","","","","5","","","","","","","","",""
"","","","","","single-stim-button","100","396567","0.0-2.0-28.4-0.4","5f5e401d77501a6b82743d56","F1","batch6","","906","tol_tohand","","","","tol_peg_2","906","906","0","[[1,0,0],[3,0],[0]]","5","[[1,2,0],[3,0],[0]]","6","0","","","","","","5","","","","","","","","",""
"","","","","","single-stim-button","101","397427","0.0-2.0-28.4-1.4","5f5e401d77501a6b82743d56","F1","batch6","","858","tol_toboard","","","","tol_peg_1","858","858","0","[[1,2,0],[3,0],[0]]","5","[[1,2,0],[3,0],[0]]","6","0","","","","","","5","","","","","","","","",""
"","","","","","poldrack-single-stim","102","398446","0.0-2.0-29.0","5f5e401d77501a6b82743d56","F1","batch6","","-1","tol_feedback","","","true","","1000","1000","500","","","","","","-1","none","true","9960","15495","","","","","","","","","",""
"","","","","","html-button-response","103","399745","0.0-2.0-30.0","5f5e401d77501a6b82743d56","F1","batch6","","1297.4000000953674","tol_trial_num","<div class = centerbox><p class = center-block-text>problem <strong>8</strong> out of 25 problems</p></div>","0","","","","","","","","","","","","","","","","","","","","","","","","",""
"","","","","","single-stim-button","104","405030","0.0-2.0-31.0-0.0","5f5e401d77501a6b82743d56","F1","batch6","","5283","tol_tohand","","","","tol_peg_3","5283","5283","0","[[0,0,0],[2,3],[0]]","1","[[1,2,0],[3,0],[0]]","7","0","","","","","","4","","","","","","","","",""
"","","","","","single-stim-button","105","406104","0.0-2.0-31.0-1.0","5f5e401d77501a6b82743d56","F1","batch6","","1072","tol_toboard","","","","tol_peg_1","1072","1072","0","[[1,0,0],[2,3],[0]]","1","[[1,2,0],[3,0],[0]]","7","0","","","","","","4","","","","","","","","",""
"","","","","","single-stim-button","106","407279","0.0-2.0-31.1-0.1","5f5e401d77501a6b82743d56","F1","batch6","","1174","tol_tohand","","","","tol_peg_2","1174","1174","0","[[1,0,0],[2,0],[0]]","2","[[1,2,0],[3,0],[0]]","7","0","","","","","","4","","","","","","","","",""
"","","","","","single-stim-button","107","408172","0.0-2.0-31.1-1.1","5f5e401d77501a6b82743d56","F1","batch6","","892","tol_toboard","","","","tol_peg_3","892","892","0","[[1,0,0],[2,0],[3]]","2","[[1,2,0],[3,0],[0]]","7","0","","","","","","4","","","","","","","","",""
"","","","","","single-stim-button","108","409054","0.0-2.0-31.2-0.2","5f5e401d77501a6b82743d56","F1","batch6","","880","tol_tohand","","","","tol_peg_2","880","880","0","[[1,0,0],[0,0],[3]]","3","[[1,2,0],[3,0],[0]]","7","0","","","","","","4","","","","","","","","",""
"","","","","","single-stim-button","109","409936","0.0-2.0-31.2-1.2","5f5e401d77501a6b82743d56","F1","batch6","","880","tol_toboard","","","","tol_peg_1","880","880","0","[[1,2,0],[0,0],[3]]","3","[[1,2,0],[3,0],[0]]","7","0","","","","","","4","","","","","","","","",""
"","","","","","single-stim-button","110","410748","0.0-2.0-31.3-0.3","5f5e401d77501a6b82743d56","F1","batch6","","811","tol_tohand","","","","tol_peg_3","811","811","0","[[1,2,0],[0,0],[0]]","4","[[1,2,0],[3,0],[0]]","7","0","","","","","","4","","","","","","","","",""
"","","","","","single-stim-button","111","411597","0.0-2.0-31.3-1.3","5f5e401d77501a6b82743d56","F1","batch6","","848","tol_toboard","","","","tol_peg_2","848","848","0","[[1,2,0],[3,0],[0]]","4","[[1,2,0],[3,0],[0]]","7","0","","","","","","4","","","","","","","","",""
"","","","","","poldrack-single-stim","112","412600","0.0-2.0-32.0","5f5e401d77501a6b82743d56","F1","batch6","","-1","tol_feedback","","","true","","1000","1000","500","","","","","","-1","none","true","5283","8148","","","","","","","","","",""
"","","","","","html-button-response","113","413950","0.0-2.0-33.0","5f5e401d77501a6b82743d56","F1","batch6","","1348.5","tol_trial_num","<div class = centerbox><p class = center-block-text>problem <strong>9</strong> out of 25 problems</p></div>","0","","","","","","","","","","","","","","","","","","","","","","","","",""
"","","","","","single-stim-button","114","427208","0.0-2.0-34.0-0.0","5f5e401d77501a6b82743d56","F1","batch6","","13256","tol_tohand","","","","tol_peg_1","13256","13256","0","[[3,0,0],[0,0],[1]]","1","[[2,1,0],[3,0],[0]]","8","0","","","","","","6","","","","","","","","",""
"","","","","","single-stim-button","115","430127","0.0-2.0-34.0-1.0","5f5e401d77501a6b82743d56","F1","batch6","","2917","tol_toboard","","","","tol_peg_2","2917","2917","0","[[3,0,0],[2,0],[1]]","1","[[2,1,0],[3,0],[0]]","8","0","","","","","","6","","","","","","","","",""
"","","","","","single-stim-button","116","431239","0.0-2.0-34.1-0.1","5f5e401d77501a6b82743d56","F1","batch6","","1110","tol_tohand","","","","tol_peg_1","1110","1110","0","[[0,0,0],[2,0],[1]]","2","[[2,1,0],[3,0],[0]]","8","0","","","","","","6","","","","","","","","",""
"","","","","","single-stim-button","117","441591","0.0-2.0-34.1-1.1","5f5e401d77501a6b82743d56","F1","batch6","","10350","tol_toboard","","","","tol_peg_2","10350","10350","0","[[0,0,0],[2,3],[1]]","2","[[2,1,0],[3,0],[0]]","8","0","","","","","","6","","","","","","","","",""
"","","","","","single-stim-button","118","445126","0.0-2.0-34.2-0.2","5f5e401d77501a6b82743d56","F1","batch6","","3534","tol_tohand","","","","tol_peg_3","3534","3534","0","[[0,0,0],[2,3],[0]]","3","[[2,1,0],[3,0],[0]]","8","0","","","","","","6","","","","","","","","",""
"","","","","","single-stim-button","119","446149","0.0-2.0-34.2-1.2","5f5e401d77501a6b82743d56","F1","batch6","","1021","tol_toboard","","","","tol_peg_1","1021","1021","0","[[1,0,0],[2,3],[0]]","3","[[2,1,0],[3,0],[0]]","8","0","","","","","","6","","","","","","","","",""
"","","","","","single-stim-button","120","447521","0.0-2.0-34.3-0.3","5f5e401d77501a6b82743d56","F1","batch6","","1372","tol_tohand","","","","tol_peg_2","1372","1372","0","[[1,0,0],[2,0],[0]]","4","[[2,1,0],[3,0],[0]]","8","0","","","","","","6","","","","","","","","",""
"","","","","","single-stim-button","121","448397","0.0-2.0-34.3-1.3","5f5e401d77501a6b82743d56","F1","batch6","","875","tol_toboard","","","","tol_peg_3","875","875","0","[[1,0,0],[2,0],[3]]","4","[[2,1,0],[3,0],[0]]","8","0","","","","","","6","","","","","","","","",""
"","","","","","single-stim-button","122","454408","0.0-2.0-34.4-0.4","5f5e401d77501a6b82743d56","F1","batch6","","6010","tol_tohand","","","","tol_peg_3","6010","6010","0","[[1,0,0],[2,0],[0]]","5","[[2,1,0],[3,0],[0]]","8","0","","","","","","6","","","","","","","","",""
"","","","","","single-stim-button","123","455238","0.0-2.0-34.4-1.4","5f5e401d77501a6b82743d56","F1","batch6","","827","tol_toboard","","","","tol_peg_1","827","827","0","[[1,3,0],[2,0],[0]]","5","[[2,1,0],[3,0],[0]]","8","0","","","","","","6","","","","","","","","",""
"","","","","","single-stim-button","124","456037","0.0-2.0-34.5-0.5","5f5e401d77501a6b82743d56","F1","batch6","","799","tol_tohand","","","","tol_peg_2","799","799","0","[[1,3,0],[0,0],[0]]","6","[[2,1,0],[3,0],[0]]","8","0","","","","","","6","","","","","","","","",""
"","","","","","single-stim-button","125","457382","0.0-2.0-34.5-1.5","5f5e401d77501a6b82743d56","F1","batch6","","1343","tol_toboard","","","","tol_peg_3","1343","1343","0","[[1,3,0],[0,0],[2]]","6","[[2,1,0],[3,0],[0]]","8","0","","","","","","6","","","","","","","","",""
"","","","","","single-stim-button","126","458460","0.0-2.0-34.6-0.6","5f5e401d77501a6b82743d56","F1","batch6","","1078","tol_tohand","","","","tol_peg_1","1078","1078","0","[[1,0,0],[0,0],[2]]","7","[[2,1,0],[3,0],[0]]","8","0","","","","","","6","","","","","","","","",""
"","","","","","single-stim-button","127","459666","0.0-2.0-34.6-1.6","5f5e401d77501a6b82743d56","F1","batch6","","1204","tol_toboard","","","","tol_peg_2","1204","1204","0","[[1,0,0],[3,0],[2]]","7","[[2,1,0],[3,0],[0]]","8","0","","","","","","6","","","","","","","","",""
"","","","","","single-stim-button","128","460761","0.0-2.0-34.7-0.7","5f5e401d77501a6b82743d56","F1","batch6","","1093","tol_tohand","","","","tol_peg_1","1093","1093","0","[[0,0,0],[3,0],[2]]","8","[[2,1,0],[3,0],[0]]","8","0","","","","","","6","","","","","","","","",""
"","","","","","single-stim-button","129","461677","0.0-2.0-34.7-1.7","5f5e401d77501a6b82743d56","F1","batch6","","914","tol_toboard","","","","tol_peg_2","914","914","0","[[0,0,0],[3,1],[2]]","8","[[2,1,0],[3,0],[0]]","8","0","","","","","","6","","","","","","","","",""
"","","","","","single-stim-button","130","463062","0.0-2.0-34.8-0.8","5f5e401d77501a6b82743d56","F1","batch6","","1383","tol_tohand","","","","tol_peg_3","1383","1383","0","[[0,0,0],[3,1],[0]]","9","[[2,1,0],[3,0],[0]]","8","0","","","","","","6","","","","","","","","",""
"","","","","","single-stim-button","131","464219","0.0-2.0-34.8-1.8","5f5e401d77501a6b82743d56","F1","batch6","","1154","tol_toboard","","","","tol_peg_1","1154","1154","0","[[2,0,0],[3,1],[0]]","9","[[2,1,0],[3,0],[0]]","8","0","","","","","","6","","","","","","","","",""
"","","","","","single-stim-button","132","465079","0.0-2.0-34.9-0.9","5f5e401d77501a6b82743d56","F1","batch6","","857","tol_tohand","","","","tol_peg_2","857","857","0","[[2,0,0],[3,0],[0]]","10","[[2,1,0],[3,0],[0]]","8","0","","","","","","6","","","","","","","","",""
"","","","","","single-stim-button","133","465879","0.0-2.0-34.9-1.9","5f5e401d77501a6b82743d56","F1","batch6","","800","tol_toboard","","","","tol_peg_1","800","800","0","[[2,1,0],[3,0],[0]]","10","[[2,1,0],[3,0],[0]]","8","0","","","","","","6","","","","","","","","",""
"","","","","","poldrack-single-stim","134","466894","0.0-2.0-35.0","5f5e401d77501a6b82743d56","F1","batch6","","-1","tol_feedback","","","true","","1000","1000","500","","","","","","-1","none","true","13256","30492","","","","","","","","","",""
"","","","","","html-button-response","135","467711","0.0-2.0-36.0","5f5e401d77501a6b82743d56","F1","batch6","","815.7000000476837","tol_trial_num","<div class = centerbox><p class = center-block-text>problem <strong>10</strong> out of 25 problems</p></div>","0","","","","","","","","","","","","","","","","","","","","","","","","",""
"","","","","","single-stim-button","136","472097","0.0-2.0-37.0-0.0","5f5e401d77501a6b82743d56","F1","batch6","","4384","tol_tohand","","","","tol_peg_2","4384","4384","0","[[3,0,0],[0,0],[2]]","1","[[3,0,0],[2,1],[0]]","9","0","","","","","","3","","","","","","","","",""
"","","","","","single-stim-button","137","472928","0.0-2.0-37.0-1.0","5f5e401d77501a6b82743d56","F1","batch6","","831","tol_toboard","","","","tol_peg_1","831","831","0","[[3,1,0],[0,0],[2]]","1","[[3,0,0],[2,1],[0]]","9","0","","","","","","3","","","","","","","","",""
"","","","","","single-stim-button","138","475741","0.0-2.0-37.1-0.1","5f5e401d77501a6b82743d56","F1","batch6","","2811","tol_tohand","","","","tol_peg_3","2811","2811","0","[[3,1,0],[0,0],[0]]","2","[[3,0,0],[2,1],[0]]","9","0","","","","","","3","","","","","","","","",""
"","","","","","single-stim-button","139","476579","0.0-2.0-37.1-1.1","5f5e401d77501a6b82743d56","F1","batch6","","836","tol_toboard","","","","tol_peg_2","836","836","0","[[3,1,0],[2,0],[0]]","2","[[3,0,0],[2,1],[0]]","9","0","","","","","","3","","","","","","","","",""
"","","","","","single-stim-button","140","477371","0.0-2.0-37.2-0.2","5f5e401d77501a6b82743d56","F1","batch6","","789","tol_tohand","","","","tol_peg_1","789","789","0","[[3,0,0],[2,0],[0]]","3","[[3,0,0],[2,1],[0]]","9","0","","","","","","3","","","","","","","","",""
"","","","","","single-stim-button","141","478375","0.0-2.0-37.2-1.2","5f5e401d77501a6b82743d56","F1","batch6","","1004","tol_toboard","","","","tol_peg_2","1004","1004","0","[[3,0,0],[2,1],[0]]","3","[[3,0,0],[2,1],[0]]","9","0","","","","","","3","","","","","","","","",""
"","","","","","poldrack-single-stim","142","479384","0.0-2.0-38.0","5f5e401d77501a6b82743d56","F1","batch6","","-1","tol_feedback","","","true","","1000","1000","500","","","","","","-1","none","true","4384","7984","","","","","","","","","",""
"","","","","","html-button-response","143","481123","0.0-2.0-39.0","5f5e401d77501a6b82743d56","F1","batch6","","1738.2999999523163","tol_trial_num","<div class = centerbox><p class = center-block-text>problem <strong>11</strong> out of 25 problems</p></div>","0","","","","","","","","","","","","","","","","","","","","","","","","",""
"","","","","","single-stim-button","144","494434","0.0-2.0-40.0-0.0","5f5e401d77501a6b82743d56","F1","batch6","","13310","tol_tohand","","","","tol_peg_2","13310","13310","0","[[1,2,0],[0,0],[0]]","1","[[2,0,0],[1,3],[0]]","10","0","","","","","","6","","","","","","","","",""
"","","","","","single-stim-button","145","495498","0.0-2.0-40.0-1.0","5f5e401d77501a6b82743d56","F1","batch6","","1063","tol_toboard","","","","tol_peg_3","1063","1063","0","[[1,2,0],[0,0],[3]]","1","[[2,0,0],[1,3],[0]]","10","0","","","","","","6","","","","","","","","",""
"","","","","","single-stim-button","146","496357","0.0-2.0-40.1-0.1","5f5e401d77501a6b82743d56","F1","batch6","","856","tol_tohand","","","","tol_peg_1","856","856","0","[[1,0,0],[0,0],[3]]","2","[[2,0,0],[1,3],[0]]","10","0","","","","","","6","","","","","","","","",""
"","","","","","single-stim-button","147","497171","0.0-2.0-40.1-1.1","5f5e401d77501a6b82743d56","F1","batch6","","813","tol_toboard","","","","tol_peg_2","813","813","0","[[1,0,0],[2,0],[3]]","2","[[2,0,0],[1,3],[0]]","10","0","","","","","","6","","","","","","","","",""
"","","","","","single-stim-button","148","515630","0.0-2.0-40.2-0.2","5f5e401d77501a6b82743d56","F1","batch6","","18456","tol_tohand","","","","tol_peg_2","18456","18456","0","[[1,0,0],[0,0],[3]]","3","[[2,0,0],[1,3],[0]]","10","0","","","","","","6","","","","","","","","",""
"","","","","","single-stim-button","149","516229","0.0-2.0-40.2-1.2","5f5e401d77501a6b82743d56","F1","batch6","","598","tol_toboard","","","","tol_peg_1","598","598","0","[[1,2,0],[0,0],[3]]","3","[[2,0,0],[1,3],[0]]","10","0","","","","","","6","","","","","","","","",""
"","","","","","single-stim-button","150","517602","0.0-2.0-40.3-0.3","5f5e401d77501a6b82743d56","F1","batch6","","1370","tol_tohand","","","","tol_peg_3","1370","1370","0","[[1,2,0],[0,0],[0]]","4","[[2,0,0],[1,3],[0]]","10","0","","","","","","6","","","","","","","","",""
"","","","","","single-stim-button","151","518434","0.0-2.0-40.3-1.3","5f5e401d77501a6b82743d56","F1","batch6","","830","tol_toboard","","","","tol_peg_2","830","830","0","[[1,2,0],[3,0],[0]]","4","[[2,0,0],[1,3],[0]]","10","0","","","","","","6","","","","","","","","",""
"","","","","","single-stim-button","152","519153","0.0-2.0-40.4-0.4","5f5e401d77501a6b82743d56","F1","batch6","","716","tol_tohand","","","","tol_peg_1","716","716","0","[[1,0,0],[3,0],[0]]","5","[[2,0,0],[1,3],[0]]","10","0","","","","","","6","","","","","","","","",""
"","","","","","single-stim-button","153","520074","0.0-2.0-40.4-1.4","5f5e401d77501a6b82743d56","F1","batch6","","919","tol_toboard","","","","tol_peg_3","919","919","0","[[1,0,0],[3,0],[2]]","5","[[2,0,0],[1,3],[0]]","10","0","","","","","","6","","","","","","","","",""
"","","","","","single-stim-button","154","523102","0.0-2.0-40.5-0.5","5f5e401d77501a6b82743d56","F1","batch6","","3027","tol_tohand","","","","tol_peg_1","3027","3027","0","[[0,0,0],[3,0],[2]]","6","[[2,0,0],[1,3],[0]]","10","0","","","","","","6","","","","","","","","",""
"","","","","","single-stim-button","155","523880","0.0-2.0-40.5-1.5","5f5e401d77501a6b82743d56","F1","batch6","","776","tol_toboard","","","","tol_peg_2","776","776","0","[[0,0,0],[3,1],[2]]","6","[[2,0,0],[1,3],[0]]","10","0","","","","","","6","","","","","","","","",""
"","","","","","single-stim-button","156","524849","0.0-2.0-40.6-0.6","5f5e401d77501a6b82743d56","F1","batch6","","967","tol_tohand","","","","tol_peg_3","967","967","0","[[0,0,0],[3,1],[0]]","7","[[2,0,0],[1,3],[0]]","10","0","","","","","","6","","","","","","","","",""
"","","","","","single-stim-button","157","525680","0.0-2.0-40.6-1.6","5f5e401d77501a6b82743d56","F1","batch6","","829","tol_toboard","","","","tol_peg_1","829","829","0","[[2,0,0],[3,1],[0]]","7","[[2,0,0],[1,3],[0]]","10","0","","","","","","6","","","","","","","","",""
"","","","","","single-stim-button","158","526716","0.0-2.0-40.7-0.7","5f5e401d77501a6b82743d56","F1","batch6","","1035","tol_tohand","","","","tol_peg_2","1035","1035","0","[[2,0,0],[3,0],[0]]","8","[[2,0,0],[1,3],[0]]","10","0","","","","","","6","","","","","","","","",""
"","","","","","single-stim-button","159","530137","0.0-2.0-40.7-1.7","5f5e401d77501a6b82743d56","F1","batch6","","3420","tol_toboard","","","","tol_peg_1","3420","3420","0","[[2,1,0],[3,0],[0]]","8","[[2,0,0],[1,3],[0]]","10","0","","","","","","6","","","","","","","","",""
"","","","","","single-stim-button","160","531025","0.0-2.0-40.8-0.8","5f5e401d77501a6b82743d56","F1","batch6","","887","tol_tohand","","","","tol_peg_2","887","887","0","[[2,1,0],[0,0],[0]]","9","[[2,0,0],[1,3],[0]]","10","0","","","","","","6","","","","","","","","",""
"","","","","","single-stim-button","161","531961","0.0-2.0-40.8-1.8","5f5e401d77501a6b82743d56","F1","batch6","","935","tol_toboard","","","","tol_peg_3","935","935","0","[[2,1,0],[0,0],[3]]","9","[[2,0,0],[1,3],[0]]","10","0","","","","","","6","","","","","","","","",""
"","","","","","single-stim-button","162","533745","0.0-2.0-40.9-0.9","5f5e401d77501a6b82743d56","F1","batch6","","1782","tol_tohand","","","","tol_peg_1","1782","1782","0","[[2,0,0],[0,0],[3]]","10","[[2,0,0],[1,3],[0]]","10","0","","","","","","6","","","","","","","","",""
"","","","","","single-stim-button","163","534593","0.0-2.0-40.9-1.9","5f5e401d77501a6b82743d56","F1","batch6","","846","tol_toboard","","","","tol_peg_2","846","846","0","[[2,0,0],[1,0],[3]]","10","[[2,0,0],[1,3],[0]]","10","0","","","","","","6","","","","","","","","",""
"","","","","","single-stim-button","164","535251","0.0-2.0-40.10-0.10","5f5e401d77501a6b82743d56","F1","batch6","","655","tol_tohand","","","","tol_peg_3","655","655","0","[[2,0,0],[1,0],[0]]","11","[[2,0,0],[1,3],[0]]","10","0","","","","","","6","","","","","","","","",""
"","","","","","single-stim-button","165","536340","0.0-2.0-40.10-1.10","5f5e401d77501a6b82743d56","F1","batch6","","1088","tol_toboard","","","","tol_peg_2","1088","1088","0","[[2,0,0],[1,3],[0]]","11","[[2,0,0],[1,3],[0]]","10","0","","","","","","6","","","","","","","","",""
"","","","","","poldrack-single-stim","166","537344","0.0-2.0-41.0","5f5e401d77501a6b82743d56","F1","batch6","","-1","tol_feedback","","","true","","1000","1000","500","","","","","","-1","none","true","13310","43061","","","","","","","","","",""
"","","","","","html-button-response","167","538254","0.0-2.0-42.0","5f5e401d77501a6b82743d56","F1","batch6","","907.2000000476837","tol_trial_num","<div class = centerbox><p class = center-block-text>problem <strong>12</strong> out of 25 problems</p></div>","0","","","","","","","","","","","","","","","","","","","","","","","","",""
"","","","","","single-stim-button","168","546372","0.0-2.0-43.0-0.0","5f5e401d77501a6b82743d56","F1","batch6","","8116","tol_tohand","","","","tol_peg_2","8116","8116","0","[[1,2,0],[0,0],[0]]","1","[[2,3,0],[0,0],[1]]","11","0","","","","","","4","","","","","","","","",""
"","","","","","single-stim-button","169","547471","0.0-2.0-43.0-1.0","5f5e401d77501a6b82743d56","F1","batch6","","1098","tol_toboard","","","","tol_peg_3","1098","1098","0","[[1,2,0],[0,0],[3]]","1","[[2,3,0],[0,0],[1]]","11","0","","","","","","4","","","","","","","","",""
"","","","","","single-stim-button","170","548749","0.0-2.0-43.1-0.1","5f5e401d77501a6b82743d56","F1","batch6","","1277","tol_tohand","","","","tol_peg_1","1277","1277","0","[[1,0,0],[0,0],[3]]","2","[[2,3,0],[0,0],[1]]","11","0","","","","","","4","","","","","","","","",""
"","","","","","single-stim-button","171","550946","0.0-2.0-43.1-1.1","5f5e401d77501a6b82743d56","F1","batch6","","2196","tol_toboard","","","","tol_peg_2","2196","2196","0","[[1,0,0],[2,0],[3]]","2","[[2,3,0],[0,0],[1]]","11","0","","","","","","4","","","","","","","","",""
"","","","","","single-stim-button","172","551980","0.0-2.0-43.2-0.2","5f5e401d77501a6b82743d56","F1","batch6","","1033","tol_tohand","","","","tol_peg_1","1033","1033","0","[[0,0,0],[2,0],[3]]","3","[[2,3,0],[0,0],[1]]","11","0","","","","","","4","","","","","","","","",""
"","","","","","single-stim-button","173","552837","0.0-2.0-43.2-1.2","5f5e401d77501a6b82743d56","F1","batch6","","856","tol_toboard","","","","tol_peg_2","856","856","0","[[0,0,0],[2,1],[3]]","3","[[2,3,0],[0,0],[1]]","11","0","","","","","","4","","","","","","","","",""
"","","","","","single-stim-button","174","554376","0.0-2.0-43.3-0.3","5f5e401d77501a6b82743d56","F1","batch6","","1538","tol_tohand","","","","tol_peg_3","1538","1538","0","[[0,0,0],[2,1],[0]]","4","[[2,3,0],[0,0],[1]]","11","0","","","","","","4","","","","","","","","",""
"","","","","","single-stim-button","175","555267","0.0-2.0-43.3-1.3","5f5e401d77501a6b82743d56","F1","batch6","","890","tol_toboard","","","","tol_peg_1","890","890","0","[[3,0,0],[2,1],[0]]","4","[[2,3,0],[0,0],[1]]","11","0","","","","","","4","","","","","","","","",""
"","","","","","single-stim-button","176","556016","0.0-2.0-43.4-0.4","5f5e401d77501a6b82743d56","F1","batch6","","749","tol_tohand","","","","tol_peg_2","749","749","0","[[3,0,0],[2,0],[0]]","5","[[2,3,0],[0,0],[1]]","11","0","","","","","","4","","","","","","","","",""
"","","","","","single-stim-button","177","556803","0.0-2.0-43.4-1.4","5f5e401d77501a6b82743d56","F1","batch6","","785","tol_toboard","","","","tol_peg_3","785","785","0","[[3,0,0],[2,0],[1]]","5","[[2,3,0],[0,0],[1]]","11","0","","","","","","4","","","","","","","","",""
"","","","","","single-stim-button","178","566134","0.0-2.0-43.5-0.5","5f5e401d77501a6b82743d56","F1","batch6","","9330","tol_tohand","","","","tol_peg_3","9330","9330","0","[[3,0,0],[2,0],[0]]","6","[[2,3,0],[0,0],[1]]","11","0","","","","","","4","","","","","","","","",""
"","","","","","single-stim-button","179","567402","0.0-2.0-43.5-1.5","5f5e401d77501a6b82743d56","F1","batch6","","1265","tol_toboard","","","","tol_peg_1","1265","1265","0","[[3,1,0],[2,0],[0]]","6","[[2,3,0],[0,0],[1]]","11","0","","","","","","4","","","","","","","","",""
"","","","","","single-stim-button","180","568027","0.0-2.0-43.6-0.6","5f5e401d77501a6b82743d56","F1","batch6","","624","tol_tohand","","","","tol_peg_2","624","624","0","[[3,1,0],[0,0],[0]]","7","[[2,3,0],[0,0],[1]]","11","0","","","","","","4","","","","","","","","",""
"","","","","","single-stim-button","181","568809","0.0-2.0-43.6-1.6","5f5e401d77501a6b82743d56","F1","batch6","","781","tol_toboard","","","","tol_peg_3","781","781","0","[[3,1,0],[0,0],[2]]","7","[[2,3,0],[0,0],[1]]","11","0","","","","","","4","","","","","","","","",""
"","","","","","single-stim-button","182","569654","0.0-2.0-43.7-0.7","5f5e401d77501a6b82743d56","F1","batch6","","844","tol_tohand","","","","tol_peg_1","844","844","0","[[3,0,0],[0,0],[2]]","8","[[2,3,0],[0,0],[1]]","11","0","","","","","","4","","","","","","","","",""
"","","","","","single-stim-button","183","570618","0.0-2.0-43.7-1.7","5f5e401d77501a6b82743d56","F1","batch6","","963","tol_toboard","","","","tol_peg_2","963","963","0","[[3,0,0],[1,0],[2]]","8","[[2,3,0],[0,0],[1]]","11","0","","","","","","4","","","","","","","","",""
"","","","","","single-stim-button","184","573322","0.0-2.0-43.8-0.8","5f5e401d77501a6b82743d56","F1","batch6","","2702","tol_tohand","","","","tol_peg_1","2702","2702","0","[[0,0,0],[1,0],[2]]","9","[[2,3,0],[0,0],[1]]","11","0","","","","","","4","","","","","","","","",""
"","","","","","single-stim-button","185","574476","0.0-2.0-43.8-1.8","5f5e401d77501a6b82743d56","F1","batch6","","1152","tol_toboard","","","","tol_peg_2","1152","1152","0","[[0,0,0],[1,3],[2]]","9","[[2,3,0],[0,0],[1]]","11","0","","","","","","4","","","","","","","","",""
"","","","","","single-stim-button","186","575197","0.0-2.0-43.9-0.9","5f5e401d77501a6b82743d56","F1","batch6","","719","tol_tohand","","","","tol_peg_3","719","719","0","[[0,0,0],[1,3],[0]]","10","[[2,3,0],[0,0],[1]]","11","0","","","","","","4","","","","","","","","",""
"","","","","","single-stim-button","187","576305","0.0-2.0-43.9-1.9","5f5e401d77501a6b82743d56","F1","batch6","","1105","tol_toboard","","","","tol_peg_1","1105","1105","0","[[2,0,0],[1,3],[0]]","10","[[2,3,0],[0,0],[1]]","11","0","","","","","","4","","","","","","","","",""
"","","","","","single-stim-button","188","577249","0.0-2.0-43.10-0.10","5f5e401d77501a6b82743d56","F1","batch6","","942","tol_tohand","","","","tol_peg_2","942","942","0","[[2,0,0],[1,0],[0]]","11","[[2,3,0],[0,0],[1]]","11","0","","","","","","4","","","","","","","","",""
"","","","","","single-stim-button","189","578111","0.0-2.0-43.10-1.10","5f5e401d77501a6b82743d56","F1","batch6","","861","tol_toboard","","","","tol_peg_1","861","861","0","[[2,3,0],[1,0],[0]]","11","[[2,3,0],[0,0],[1]]","11","0","","","","","","4","","","","","","","","",""
"","","","","","single-stim-button","190","578877","0.0-2.0-43.11-0.11","5f5e401d77501a6b82743d56","F1","batch6","","765","tol_tohand","","","","tol_peg_2","765","765","0","[[2,3,0],[0,0],[0]]","12","[[2,3,0],[0,0],[1]]","11","0","","","","","","4","","","","","","","","",""
"","","","","","single-stim-button","191","579784","0.0-2.0-43.11-1.11","5f5e401d77501a6b82743d56","F1","batch6","","906","tol_toboard","","","","tol_peg_3","906","906","0","[[2,3,0],[0,0],[1]]","12","[[2,3,0],[0,0],[1]]","11","0","","","","","","4","","","","","","","","",""
"","","","","","poldrack-single-stim","192","580802","0.0-2.0-44.0","5f5e401d77501a6b82743d56","F1","batch6","","-1","tol_feedback","","","true","","1000","1000","500","","","","","","-1","none","true","8116","28639","","","","","","","","","",""
"","","","","","html-button-response","193","582277","0.0-2.0-45.0","5f5e401d77501a6b82743d56","F1","batch6","","1473","tol_trial_num","<div class = centerbox><p class = center-block-text>problem <strong>13</strong> out of 25 problems</p></div>","0","","","","","","","","","","","","","","","","","","","","","","","","",""
"","","","","","single-stim-button","194","596435","0.0-2.0-46.0-0.0","5f5e401d77501a6b82743d56","F1","batch6","","14155","tol_tohand","","","","tol_peg_1","14155","14155","0","[[1,0,0],[3,0],[0]]","1","[[0,0,0],[2,3],[1]]","12","0","","","","","","4","","","","","","","","",""
"","","","","","single-stim-button","195","598727","0.0-2.0-46.0-1.0","5f5e401d77501a6b82743d56","F1","batch6","","2288","tol_toboard","","","","tol_peg_3","2288","2288","0","[[1,0,0],[3,0],[2]]","1","[[0,0,0],[2,3],[1]]","12","0","","","","","","4","","","","","","","","",""
"","","","","","single-stim-button","196","618363","0.0-2.0-46.1-0.1","5f5e401d77501a6b82743d56","F1","batch6","","19636","tol_tohand","","","","tol_peg_2","19636","19636","0","[[1,0,0],[0,0],[2]]","2","[[0,0,0],[2,3],[1]]","12","0","","","","","","4","","","","","","","","",""
"","","","","","single-stim-button","197","619407","0.0-2.0-46.1-1.1","5f5e401d77501a6b82743d56","F1","batch6","","1041","tol_toboard","","","","tol_peg_1","1041","1041","0","[[1,3,0],[0,0],[2]]","2","[[0,0,0],[2,3],[1]]","12","0","","","","","","4","","","","","","","","",""
"","","","","","single-stim-button","198","620576","0.0-2.0-46.2-0.2","5f5e401d77501a6b82743d56","F1","batch6","","1169","tol_tohand","","","","tol_peg_3","1169","1169","0","[[1,3,0],[0,0],[0]]","3","[[0,0,0],[2,3],[1]]","12","0","","","","","","4","","","","","","","","",""
"","","","","","single-stim-button","199","621435","0.0-2.0-46.2-1.2","5f5e401d77501a6b82743d56","F1","batch6","","858","tol_toboard","","","","tol_peg_2","858","858","0","[[1,3,0],[2,0],[0]]","3","[[0,0,0],[2,3],[1]]","12","0","","","","","","4","","","","","","","","",""
"","","","","","single-stim-button","200","622136","0.0-2.0-46.3-0.3","5f5e401d77501a6b82743d56","F1","batch6","","698","tol_tohand","","","","tol_peg_1","698","698","0","[[1,0,0],[2,0],[0]]","4","[[0,0,0],[2,3],[1]]","12","0","","","","","","4","","","","","","","","",""
"","","","","","single-stim-button","201","622991","0.0-2.0-46.3-1.3","5f5e401d77501a6b82743d56","F1","batch6","","854","tol_toboard","","","","tol_peg_2","854","854","0","[[1,0,0],[2,3],[0]]","4","[[0,0,0],[2,3],[1]]","12","0","","","","","","4","","","","","","","","",""
"","","","","","single-stim-button","202","623793","0.0-2.0-46.4-0.4","5f5e401d77501a6b82743d56","F1","batch6","","800","tol_tohand","","","","tol_peg_1","800","800","0","[[0,0,0],[2,3],[0]]","5","[[0,0,0],[2,3],[1]]","12","0","","","","","","4","","","","","","","","",""
"","","","","","single-stim-button","203","624751","0.0-2.0-46.4-1.4","5f5e401d77501a6b82743d56","F1","batch6","","955","tol_toboard","","","","tol_peg_3","955","955","0","[[0,0,0],[2,3],[1]]","5","[[0,0,0],[2,3],[1]]","12","0","","","","","","4","","","","","","","","",""
"","","","","","poldrack-single-stim","204","625755","0.0-2.0-47.0","5f5e401d77501a6b82743d56","F1","batch6","","-1","tol_feedback","","","true","","1000","1000","500","","","","","","-1","none","true","14155","36458","","","","","","","","","",""
"","","","","","html-button-response","205","628386","0.0-2.0-48.0","5f5e401d77501a6b82743d56","F1","batch6","","2628.1999999284744","attention_check","<p class = block-text>How many balls are in your board<br></p>","1","true","","","","","","","","","","","","","","","","","","","","","","","",""
"","","","","","html-button-response","206","629449","0.0-2.0-49.0","5f5e401d77501a6b82743d56","F1","batch6","","1060.6999999284744","tol_trial_num","<div class = centerbox><p class = center-block-text>problem <strong>14</strong> out of 25 problems</p></div>","0","","","","","","","","","","","","","","","","","","","","","","","","",""
"","","","","","single-stim-button","207","634777","0.0-2.0-50.0-0.0","5f5e401d77501a6b82743d56","F1","batch6","","5326","tol_tohand","","","","tol_peg_1","5326","5326","0","[[2,0,0],[3,0],[0]]","1","[[1,2,0],[3,0],[0]]","13","0","","","","","","4","","","","","","","","",""
"","","","","","single-stim-button","208","635745","0.0-2.0-50.0-1.0","5f5e401d77501a6b82743d56","F1","batch6","","964","tol_toboard","","","","tol_peg_2","964","964","0","[[2,0,0],[3,1],[0]]","1","[[1,2,0],[3,0],[0]]","13","0","","","","","","4","","","","","","","","",""
"","","","","","single-stim-button","209","636475","0.0-2.0-50.1-0.1","5f5e401d77501a6b82743d56","F1","batch6","","729","tol_tohand","","","","tol_peg_1","729","729","0","[[0,0,0],[3,1],[0]]","2","[[1,2,0],[3,0],[0]]","13","0","","","","","","4","","","","","","","","",""
"","","","","","single-stim-button","210","637527","0.0-2.0-50.1-1.1","5f5e401d77501a6b82743d56","F1","batch6","","1050","tol_toboard","","","","tol_peg_3","1050","1050","0","[[0,0,0],[3,1],[2]]","2","[[1,2,0],[3,0],[0]]","13","0","","","","","","4","","","","","","","","",""
"","","","","","single-stim-button","211","638311","0.0-2.0-50.2-0.2","5f5e401d77501a6b82743d56","F1","batch6","","784","tol_tohand","","","","tol_peg_2","784","784","0","[[0,0,0],[3,0],[2]]","3","[[1,2,0],[3,0],[0]]","13","0","","","","","","4","","","","","","","","",""
"","","","","","single-stim-button","212","639282","0.0-2.0-50.2-1.2","5f5e401d77501a6b82743d56","F1","batch6","","969","tol_toboard","","","","tol_peg_1","969","969","0","[[1,0,0],[3,0],[2]]","3","[[1,2,0],[3,0],[0]]","13","0","","","","","","4","","","","","","","","",""
"","","","","","single-stim-button","213","640185","0.0-2.0-50.3-0.3","5f5e401d77501a6b82743d56","F1","batch6","","901","tol_tohand","","","","tol_peg_3","901","901","0","[[1,0,0],[3,0],[0]]","4","[[1,2,0],[3,0],[0]]","13","0","","","","","","4","","","","","","","","",""
"","","","","","single-stim-button","214","641049","0.0-2.0-50.3-1.3","5f5e401d77501a6b82743d56","F1","batch6","","863","tol_toboard","","","","tol_peg_1","863","863","0","[[1,2,0],[3,0],[0]]","4","[[1,2,0],[3,0],[0]]","13","0","","","","","","4","","","","","","","","",""
"","","","","","poldrack-single-stim","215","642051","0.0-2.0-51.0","5f5e401d77501a6b82743d56","F1","batch6","","-1","tol_feedback","","","true","","1000","1000","500","","","","","","-1","none","true","5326","7740","","","","","","","","","",""
"","","","","","html-button-response","216","642815","0.0-2.0-52.0","5f5e401d77501a6b82743d56","F1","batch6","","762.7999999523163","tol_trial_num","<div class = centerbox><p class = center-block-text>problem <strong>15</strong> out of 25 problems</p></div>","0","","","","","","","","","","","","","","","","","","","","","","","","",""
"","","","","","single-stim-button","217","646256","0.0-2.0-53.0-0.0","5f5e401d77501a6b82743d56","F1","batch6","","3440","tol_tohand","","","","tol_peg_1","3440","3440","0","[[1,0,0],[3,0],[0]]","1","[[2,0,0],[3,0],[1]]","14","0","","","","","","3","","","","","","","","",""
"","","","","","single-stim-button","218","647176","0.0-2.0-53.0-1.0","5f5e401d77501a6b82743d56","F1","batch6","","918","tol_toboard","","","","tol_peg_2","918","918","0","[[1,0,0],[3,2],[0]]","1","[[2,0,0],[3,0],[1]]","14","0","","","","","","3","","","","","","","","",""
"","","","","","single-stim-button","219","647894","0.0-2.0-53.1-0.1","5f5e401d77501a6b82743d56","F1","batch6","","714","tol_tohand","","","","tol_peg_1","714","714","0","[[0,0,0],[3,2],[0]]","2","[[2,0,0],[3,0],[1]]","14","0","","","","","","3","","","","","","","","",""
"","","","","","single-stim-button","220","649000","0.0-2.0-53.1-1.1","5f5e401d77501a6b82743d56","F1","batch6","","1104","tol_toboard","","","","tol_peg_3","1104","1104","0","[[0,0,0],[3,2],[1]]","2","[[2,0,0],[3,0],[1]]","14","0","","","","","","3","","","","","","","","",""
"","","","","","single-stim-button","221","649778","0.0-2.0-53.2-0.2","5f5e401d77501a6b82743d56","F1","batch6","","776","tol_tohand","","","","tol_peg_2","776","776","0","[[0,0,0],[3,0],[1]]","3","[[2,0,0],[3,0],[1]]","14","0","","","","","","3","","","","","","","","",""
"","","","","","single-stim-button","222","650605","0.0-2.0-53.2-1.2","5f5e401d77501a6b82743d56","F1","batch6","","826","tol_toboard","","","","tol_peg_1","826","826","0","[[2,0,0],[3,0],[1]]","3","[[2,0,0],[3,0],[1]]","14","0","","","","","","3","","","","","","","","",""
"","","","","","poldrack-single-stim","223","651609","0.0-2.0-54.0","5f5e401d77501a6b82743d56","F1","batch6","","-1","tol_feedback","","","true","","1000","1000","500","","","","","","-1","none","true","3440","4930","","","","","","","","","",""
"","","","","","html-button-response","224","652663","0.0-2.0-55.0","5f5e401d77501a6b82743d56","F1","batch6","","1052.7000000476837","tol_trial_num","<div class = centerbox><p class = center-block-text>problem <strong>16</strong> out of 25 problems</p></div>","0","","","","","","","","","","","","","","","","","","","","","","","","",""
"","","","","","single-stim-button","225","657057","0.0-2.0-56.0-0.0","5f5e401d77501a6b82743d56","F1","batch6","","4391","tol_tohand","","","","tol_peg_3","4391","4391","0","[[0,0,0],[2,3],[0]]","1","[[2,3,0],[1,0],[0]]","15","0","","","","","","7","","","","","","","","",""
"","","","","","single-stim-button","226","665038","0.0-2.0-56.0-1.0","5f5e401d77501a6b82743d56","F1","batch6","","7977","tol_toboard","","","","tol_peg_1","7977","7977","0","[[1,0,0],[2,3],[0]]","1","[[2,3,0],[1,0],[0]]","15","0","","","","","","7","","","","","","","","",""
"","","","","","single-stim-button","227","677899","0.0-2.0-56.1-0.1","5f5e401d77501a6b82743d56","F1","batch6","","12861","tol_tohand","","","","tol_peg_2","12861","12861","0","[[1,0,0],[2,0],[0]]","2","[[2,3,0],[1,0],[0]]","15","0","","","","","","7","","","","","","","","",""
"","","","","","single-stim-button","228","678717","0.0-2.0-56.1-1.1","5f5e401d77501a6b82743d56","F1","batch6","","817","tol_toboard","","","","tol_peg_1","817","817","0","[[1,3,0],[2,0],[0]]","2","[[2,3,0],[1,0],[0]]","15","0","","","","","","7","","","","","","","","",""
"","","","","","single-stim-button","229","679409","0.0-2.0-56.2-0.2","5f5e401d77501a6b82743d56","F1","batch6","","691","tol_tohand","","","","tol_peg_2","691","691","0","[[1,3,0],[0,0],[0]]","3","[[2,3,0],[1,0],[0]]","15","0","","","","","","7","","","","","","","","",""
"","","","","","single-stim-button","230","680601","0.0-2.0-56.2-1.2","5f5e401d77501a6b82743d56","F1","batch6","","1190","tol_toboard","","","","tol_peg_3","1190","1190","0","[[1,3,0],[0,0],[2]]","3","[[2,3,0],[1,0],[0]]","15","0","","","","","","7","","","","","","","","",""
"","","","","","single-stim-button","231","681951","0.0-2.0-56.3-0.3","5f5e401d77501a6b82743d56","F1","batch6","","1348","tol_tohand","","","","tol_peg_1","1348","1348","0","[[1,0,0],[0,0],[2]]","4","[[2,3,0],[1,0],[0]]","15","0","","","","","","7","","","","","","","","",""
"","","","","","single-stim-button","232","682746","0.0-2.0-56.3-1.3","5f5e401d77501a6b82743d56","F1","batch6","","793","tol_toboard","","","","tol_peg_2","793","793","0","[[1,0,0],[3,0],[2]]","4","[[2,3,0],[1,0],[0]]","15","0","","","","","","7","","","","","","","","",""
"","","","","","single-stim-button","233","684861","0.0-2.0-56.4-0.4","5f5e401d77501a6b82743d56","F1","batch6","","2114","tol_tohand","","","","tol_peg_3","2114","2114","0","[[1,0,0],[3,0],[0]]","5","[[2,3,0],[1,0],[0]]","15","0","","","","","","7","","","","","","","","",""
"","","","","","single-stim-button","234","685702","0.0-2.0-56.4-1.4","5f5e401d77501a6b82743d56","F1","batch6","","839","tol_toboard","","","","tol_peg_2","839","839","0","[[1,0,0],[3,2],[0]]","5","[[2,3,0],[1,0],[0]]","15","0","","","","","","7","","","","","","","","",""
"","","","","","single-stim-button","235","686420","0.0-2.0-56.5-0.5","5f5e401d77501a6b82743d56","F1","batch6","","717","tol_tohand","","","","tol_peg_1","717","717","0","[[0,0,0],[3,2],[0]]","6","[[2,3,0],[1,0],[0]]","15","0","","","","","","7","","","","","","","","",""
"","","","","","single-stim-button","236","687579","0.0-2.0-56.5-1.5","5f5e401d77501a6b82743d56","F1","batch6","","1158","tol_toboard","","","","tol_peg_3","1158","1158","0","[[0,0,0],[3,2],[1]]","6","[[2,3,0],[1,0],[0]]","15","0","","","","","","7","","","","","","","","",""
"","","","","","single-stim-button","237","688519","0.0-2.0-56.6-0.6","5f5e401d77501a6b82743d56","F1","batch6","","937","tol_tohand","","","","tol_peg_2","937","937","0","[[0,0,0],[3,0],[1]]","7","[[2,3,0],[1,0],[0]]","15","0","","","","","","7","","","","","","","","",""
"","","","","","single-stim-button","238","689282","0.0-2.0-56.6-1.6","5f5e401d77501a6b82743d56","F1","batch6","","761","tol_toboard","","","","tol_peg_1","761","761","0","[[2,0,0],[3,0],[1]]","7","[[2,3,0],[1,0],[0]]","15","0","","","","","","7","","","","","","","","",""
"","","","","","single-stim-button","239","690018","0.0-2.0-56.7-0.7","5f5e401d77501a6b82743d56","F1","batch6","","734","tol_tohand","","","","tol_peg_2","734","734","0","[[2,0,0],[0,0],[1]]","8","[[2,3,0],[1,0],[0]]","15","0","","","","","","7","","","","","","","","",""
"","","","","","single-stim-button","240","690948","0.0-2.0-56.7-1.7","5f5e401d77501a6b82743d56","F1","batch6","","929","tol_toboard","","","","tol_peg_1","929","929","0","[[2,3,0],[0,0],[1]]","8","[[2,3,0],[1,0],[0]]","15","0","","","","","","7","","","","","","","","",""
"","","","","","single-stim-button","241","691721","0.0-2.0-56.8-0.8","5f5e401d77501a6b82743d56","F1","batch6","","772","tol_tohand","","","","tol_peg_3","772","772","0","[[2,3,0],[0,0],[0]]","9","[[2,3,0],[1,0],[0]]","15","0","","","","","","7","","","","","","","","",""
"","","","","","single-stim-button","242","692797","0.0-2.0-56.8-1.8","5f5e401d77501a6b82743d56","F1","batch6","","1074","tol_toboard","","","","tol_peg_2","1074","1074","0","[[2,3,0],[1,0],[0]]","9","[[2,3,0],[1,0],[0]]","15","0","","","","","","7","","","","","","","","",""
"","","","","","poldrack-single-stim","243","693801","0.0-2.0-57.0","5f5e401d77501a6b82743d56","F1","batch6","","-1","tol_feedback","","","true","","1000","1000","500","","","","","","-1","none","true","4391","24565","","","","","","","","","",""
"","","","","","html-button-response","244","694704","0.0-2.0-58.0","5f5e401d77501a6b82743d56","F1","batch6","","901.5","tol_trial_num","<div class = centerbox><p class = center-block-text>problem <strong>17</strong> out of 25 problems</p></div>","0","","","","","","","","","","","","","","","","","","","","","","","","",""
"","","","","","single-stim-button","245","696787","0.0-2.0-59.0-0.0","5f5e401d77501a6b82743d56","F1","batch6","","2081","tol_tohand","","","","tol_peg_1","2081","2081","0","[[1,0,0],[3,0],[0]]","1","[[3,1,0],[2,0],[0]]","16","0","","","","","","5","","","","","","","","",""
"","","","","","single-stim-button","246","718067","0.0-2.0-59.0-1.0","5f5e401d77501a6b82743d56","F1","batch6","","21276","tol_toboard","","","","tol_peg_2","21276","21276","0","[[1,0,0],[3,2],[0]]","1","[[3,1,0],[2,0],[0]]","16","0","","","","","","5","","","","","","","","",""
"","","","","","single-stim-button","247","718849","0.0-2.0-59.1-0.1","5f5e401d77501a6b82743d56","F1","batch6","","780","tol_tohand","","","","tol_peg_1","780","780","0","[[0,0,0],[3,2],[0]]","2","[[3,1,0],[2,0],[0]]","16","0","","","","","","5","","","","","","","","",""
"","","","","","single-stim-button","248","720502","0.0-2.0-59.1-1.1","5f5e401d77501a6b82743d56","F1","batch6","","1651","tol_toboard","","","","tol_peg_3","1651","1651","0","[[0,0,0],[3,2],[1]]","2","[[3,1,0],[2,0],[0]]","16","0","","","","","","5","","","","","","","","",""
"","","","","","single-stim-button","249","729071","0.0-2.0-59.2-0.2","5f5e401d77501a6b82743d56","F1","batch6","","8566","tol_tohand","","","","tol_peg_2","8566","8566","0","[[0,0,0],[3,0],[1]]","3","[[3,1,0],[2,0],[0]]","16","0","","","","","","5","","","","","","","","",""
"","","","","","single-stim-button","250","729945","0.0-2.0-59.2-1.2","5f5e401d77501a6b82743d56","F1","batch6","","872","tol_toboard","","","","tol_peg_1","872","872","0","[[2,0,0],[3,0],[1]]","3","[[3,1,0],[2,0],[0]]","16","0","","","","","","5","","","","","","","","",""
"","","","","","single-stim-button","251","740209","0.0-2.0-59.3-0.3","5f5e401d77501a6b82743d56","F1","batch6","","10263","tol_tohand","","","","tol_peg_3","10263","10263","0","[[2,0,0],[3,0],[0]]","4","[[3,1,0],[2,0],[0]]","16","0","","","","","","5","","","","","","","","",""
"","","","","","single-stim-button","252","741222","0.0-2.0-59.3-1.3","5f5e401d77501a6b82743d56","F1","batch6","","1011","tol_toboard","","","","tol_peg_1","1011","1011","0","[[2,1,0],[3,0],[0]]","4","[[3,1,0],[2,0],[0]]","16","0","","","","","","5","","","","","","","","",""
"","","","","","single-stim-button","253","742205","0.0-2.0-59.4-0.4","5f5e401d77501a6b82743d56","F1","batch6","","981","tol_tohand","","","","tol_peg_2","981","981","0","[[2,1,0],[0,0],[0]]","5","[[3,1,0],[2,0],[0]]","16","0","","","","","","5","","","","","","","","",""
"","","","","","single-stim-button","254","743399","0.0-2.0-59.4-1.4","5f5e401d77501a6b82743d56","F1","batch6","","1192","tol_toboard","","","","tol_peg_3","1192","1192","0","[[2,1,0],[0,0],[3]]","5","[[3,1,0],[2,0],[0]]","16","0","","","","","","5","","","","","","","","",""
"","","","","","single-stim-button","255","744776","0.0-2.0-59.5-0.5","5f5e401d77501a6b82743d56","F1","batch6","","1375","tol_tohand","","","","tol_peg_1","1375","1375","0","[[2,0,0],[0,0],[3]]","6","[[3,1,0],[2,0],[0]]","16","0","","","","","","5","","","","","","","","",""
"","","","","","single-stim-button","256","745934","0.0-2.0-59.5-1.5","5f5e401d77501a6b82743d56","F1","batch6","","1157","tol_toboard","","","","tol_peg_2","1157","1157","0","[[2,0,0],[1,0],[3]]","6","[[3,1,0],[2,0],[0]]","16","0","","","","","","5","","","","","","","","",""
"","","","","","single-stim-button","257","746695","0.0-2.0-59.6-0.6","5f5e401d77501a6b82743d56","F1","batch6","","760","tol_tohand","","","","tol_peg_1","760","760","0","[[0,0,0],[1,0],[3]]","7","[[3,1,0],[2,0],[0]]","16","0","","","","","","5","","","","","","","","",""
"","","","","","single-stim-button","258","747928","0.0-2.0-59.6-1.6","5f5e401d77501a6b82743d56","F1","batch6","","1231","tol_toboard","","","","tol_peg_2","1231","1231","0","[[0,0,0],[1,2],[3]]","7","[[3,1,0],[2,0],[0]]","16","0","","","","","","5","","","","","","","","",""
"","","","","","single-stim-button","259","749486","0.0-2.0-59.7-0.7","5f5e401d77501a6b82743d56","F1","batch6","","1558","tol_tohand","","","","tol_peg_3","1558","1558","0","[[0,0,0],[1,2],[0]]","8","[[3,1,0],[2,0],[0]]","16","0","","","","","","5","","","","","","","","",""
"","","","","","single-stim-button","260","750374","0.0-2.0-59.7-1.7","5f5e401d77501a6b82743d56","F1","batch6","","886","tol_toboard","","","","tol_peg_1","886","886","0","[[3,0,0],[1,2],[0]]","8","[[3,1,0],[2,0],[0]]","16","0","","","","","","5","","","","","","","","",""
"","","","","","single-stim-button","261","751174","0.0-2.0-59.8-0.8","5f5e401d77501a6b82743d56","F1","batch6","","800","tol_tohand","","","","tol_peg_2","800","800","0","[[3,0,0],[1,0],[0]]","9","[[3,1,0],[2,0],[0]]","16","0","","","","","","5","","","","","","","","",""
"","","","","","single-stim-button","262","752065","0.0-2.0-59.8-1.8","5f5e401d77501a6b82743d56","F1","batch6","","888","tol_toboard","","","","tol_peg_3","888","888","0","[[3,0,0],[1,0],[2]]","9","[[3,1,0],[2,0],[0]]","16","0","","","","","","5","","","","","","","","",""
"","","","","","single-stim-button","263","752831","0.0-2.0-59.9-0.9","5f5e401d77501a6b82743d56","F1","batch6","","762","tol_tohand","","","","tol_peg_2","762","762","0","[[3,0,0],[0,0],[2]]","10","[[3,1,0],[2,0],[0]]","16","0","","","","","","5","","","","","","","","",""
"","","","","","single-stim-button","264","753674","0.0-2.0-59.9-1.9","5f5e401d77501a6b82743d56","F1","batch6","","841","tol_toboard","","","","tol_peg_1","841","841","0","[[3,1,0],[0,0],[2]]","10","[[3,1,0],[2,0],[0]]","16","0","","","","","","5","","","","","","","","",""
"","","","","","single-stim-button","265","754577","0.0-2.0-59.10-0.10","5f5e401d77501a6b82743d56","F1","batch6","","902","tol_tohand","","","","tol_peg_3","902","902","0","[[3,1,0],[0,0],[0]]","11","[[3,1,0],[2,0],[0]]","16","0","","","","","","5","","","","","","","","",""
"","","","","","single-stim-button","266","755823","0.0-2.0-59.10-1.10","5f5e401d77501a6b82743d56","F1","batch6","","1245","tol_toboard","","","","tol_peg_2","1245","1245","0","[[3,1,0],[2,0],[0]]","11","[[3,1,0],[2,0],[0]]","16","0","","","","","","5","","","","","","","","",""
"","","","","","poldrack-single-stim","267","756825","0.0-2.0-60.0","5f5e401d77501a6b82743d56","F1","batch6","","-1","tol_feedback","","","true","","1000","1000","500","","","","","","-1","none","true","2081","28828","","","","","","","","","",""
"","","","","","html-button-response","268","757542","0.0-2.0-61.0","5f5e401d77501a6b82743d56","F1","batch6","","715","tol_trial_num","<div class = centerbox><p class = center-block-text>problem <strong>18</strong> out of 25 problems</p></div>","0","","","","","","","","","","","","","","","","","","","","","","","","",""
"","","","","","single-stim-button","269","762460","0.0-2.0-62.0-0.0","5f5e401d77501a6b82743d56","F1","batch6","","4916","tol_tohand","","","","tol_peg_2","4916","4916","0","[[1,2,0],[0,0],[0]]","1","[[3,0,0],[2,0],[1]]","17","0","","","","","","5","","","","","","","","",""
"","","","","","single-stim-button","270","763429","0.0-2.0-62.0-1.0","5f5e401d77501a6b82743d56","F1","batch6","","967","tol_toboard","","","","tol_peg_3","967","967","0","[[1,2,0],[0,0],[3]]","1","[[3,0,0],[2,0],[1]]","17","0","","","","","","5","","","","","","","","",""
"","","","","","single-stim-button","271","764223","0.0-2.0-62.1-0.1","5f5e401d77501a6b82743d56","F1","batch6","","792","tol_tohand","","","","tol_peg_1","792","792","0","[[1,0,0],[0,0],[3]]","2","[[3,0,0],[2,0],[1]]","17","0","","","","","","5","","","","","","","","",""
"","","","","","single-stim-button","272","765127","0.0-2.0-62.1-1.1","5f5e401d77501a6b82743d56","F1","batch6","","903","tol_toboard","","","","tol_peg_2","903","903","0","[[1,0,0],[2,0],[3]]","2","[[3,0,0],[2,0],[1]]","17","0","","","","","","5","","","","","","","","",""
"","","","","","single-stim-button","273","766189","0.0-2.0-62.2-0.2","5f5e401d77501a6b82743d56","F1","batch6","","1062","tol_tohand","","","","tol_peg_1","1062","1062","0","[[0,0,0],[2,0],[3]]","3","[[3,0,0],[2,0],[1]]","17","0","","","","","","5","","","","","","","","",""
"","","","","","single-stim-button","274","767134","0.0-2.0-62.2-1.2","5f5e401d77501a6b82743d56","F1","batch6","","943","tol_toboard","","","","tol_peg_2","943","943","0","[[0,0,0],[2,1],[3]]","3","[[3,0,0],[2,0],[1]]","17","0","","","","","","5","","","","","","","","",""
"","","","","","single-stim-button","275","768201","0.0-2.0-62.3-0.3","5f5e401d77501a6b82743d56","F1","batch6","","1065","tol_tohand","","","","tol_peg_3","1065","1065","0","[[0,0,0],[2,1],[0]]","4","[[3,0,0],[2,0],[1]]","17","0","","","","","","5","","","","","","","","",""
"","","","","","single-stim-button","276","769141","0.0-2.0-62.3-1.3","5f5e401d77501a6b82743d56","F1","batch6","","937","tol_toboard","","","","tol_peg_1","937","937","0","[[3,0,0],[2,1],[0]]","4","[[3,0,0],[2,0],[1]]","17","0","","","","","","5","","","","","","","","",""
"","","","","","single-stim-button","277","769893","0.0-2.0-62.4-0.4","5f5e401d77501a6b82743d56","F1","batch6","","750","tol_tohand","","","","tol_peg_2","750","750","0","[[3,0,0],[2,0],[0]]","5","[[3,0,0],[2,0],[1]]","17","0","","","","","","5","","","","","","","","",""
"","","","","","single-stim-button","278","770799","0.0-2.0-62.4-1.4","5f5e401d77501a6b82743d56","F1","batch6","","903","tol_toboard","","","","tol_peg_3","903","903","0","[[3,0,0],[2,0],[1]]","5","[[3,0,0],[2,0],[1]]","17","0","","","","","","5","","","","","","","","",""
"","","","","","poldrack-single-stim","279","771803","0.0-2.0-63.0","5f5e401d77501a6b82743d56","F1","batch6","","-1","tol_feedback","","","true","","1000","1000","500","","","","","","-1","none","true","4916","8585","","","","","","","","","",""
"","","","","","html-button-response","280","773156","0.0-2.0-64.0","5f5e401d77501a6b82743d56","F1","batch6","","1352.5","tol_trial_num","<div class = centerbox><p class = center-block-text>problem <strong>19</strong> out of 25 problems</p></div>","0","","","","","","","","","","","","","","","","","","","","","","","","",""
"","","","","","single-stim-button","281","775562","0.0-2.0-65.0-0.0","5f5e401d77501a6b82743d56","F1","batch6","","2404","tol_tohand","","","","tol_peg_2","2404","2404","0","[[1,2,0],[0,0],[0]]","1","[[0,0,0],[1,2],[3]]","18","0","","","","","","7","","","","","","","","",""
"","","","","","single-stim-button","282","786568","0.0-2.0-65.0-1.0","5f5e401d77501a6b82743d56","F1","batch6","","11005","tol_toboard","","","","tol_peg_2","11005","11005","0","[[1,2,0],[3,0],[0]]","1","[[0,0,0],[1,2],[3]]","18","0","","","","","","7","","","","","","","","",""
"","","","","","single-stim-button","283","787228","0.0-2.0-65.1-0.1","5f5e401d77501a6b82743d56","F1","batch6","","658","tol_tohand","","","","tol_peg_1","658","658","0","[[1,0,0],[3,0],[0]]","2","[[0,0,0],[1,2],[3]]","18","0","","","","","","7","","","","","","","","",""
"","","","","","single-stim-button","284","788035","0.0-2.0-65.1-1.1","5f5e401d77501a6b82743d56","F1","batch6","","806","tol_toboard","","","","tol_peg_2","806","806","0","[[1,0,0],[3,2],[0]]","2","[[0,0,0],[1,2],[3]]","18","0","","","","","","7","","","","","","","","",""
"","","","","","single-stim-button","285","788820","0.0-2.0-65.2-0.2","5f5e401d77501a6b82743d56","F1","batch6","","783","tol_tohand","","","","tol_peg_1","783","783","0","[[0,0,0],[3,2],[0]]","3","[[0,0,0],[1,2],[3]]","18","0","","","","","","7","","","","","","","","",""
"","","","","","single-stim-button","286","791356","0.0-2.0-65.2-1.2","5f5e401d77501a6b82743d56","F1","batch6","","2536","tol_toboard","","","","tol_peg_3","2536","2536","0","[[0,0,0],[3,2],[1]]","3","[[0,0,0],[1,2],[3]]","18","0","","","","","","7","","","","","","","","",""
"","","","","","single-stim-button","287","792610","0.0-2.0-65.3-0.3","5f5e401d77501a6b82743d56","F1","batch6","","1254","tol_tohand","","","","tol_peg_2","1254","1254","0","[[0,0,0],[3,0],[1]]","4","[[0,0,0],[1,2],[3]]","18","0","","","","","","7","","","","","","","","",""
"","","","","","single-stim-button","288","793753","0.0-2.0-65.3-1.3","5f5e401d77501a6b82743d56","F1","batch6","","1141","tol_toboard","","","","tol_peg_1","1141","1141","0","[[2,0,0],[3,0],[1]]","4","[[0,0,0],[1,2],[3]]","18","0","","","","","","7","","","","","","","","",""
"","","","","","single-stim-button","289","794768","0.0-2.0-65.4-0.4","5f5e401d77501a6b82743d56","F1","batch6","","1014","tol_tohand","","","","tol_peg_2","1014","1014","0","[[2,0,0],[0,0],[1]]","5","[[0,0,0],[1,2],[3]]","18","0","","","","","","7","","","","","","","","",""
"","","","","","single-stim-button","290","795661","0.0-2.0-65.4-1.4","5f5e401d77501a6b82743d56","F1","batch6","","891","tol_toboard","","","","tol_peg_1","891","891","0","[[2,3,0],[0,0],[1]]","5","[[0,0,0],[1,2],[3]]","18","0","","","","","","7","","","","","","","","",""
"","","","","","single-stim-button","291","796928","0.0-2.0-65.5-0.5","5f5e401d77501a6b82743d56","F1","batch6","","1266","tol_tohand","","","","tol_peg_3","1266","1266","0","[[2,3,0],[0,0],[0]]","6","[[0,0,0],[1,2],[3]]","18","0","","","","","","7","","","","","","","","",""
"","","","","","single-stim-button","292","798214","0.0-2.0-65.5-1.5","5f5e401d77501a6b82743d56","F1","batch6","","1284","tol_toboard","","","","tol_peg_2","1284","1284","0","[[2,3,0],[1,0],[0]]","6","[[0,0,0],[1,2],[3]]","18","0","","","","","","7","","","","","","","","",""
"","","","","","single-stim-button","293","798952","0.0-2.0-65.6-0.6","5f5e401d77501a6b82743d56","F1","batch6","","737","tol_tohand","","","","tol_peg_1","737","737","0","[[2,0,0],[1,0],[0]]","7","[[0,0,0],[1,2],[3]]","18","0","","","","","","7","","","","","","","","",""
"","","","","","single-stim-button","294","799821","0.0-2.0-65.6-1.6","5f5e401d77501a6b82743d56","F1","batch6","","867","tol_toboard","","","","tol_peg_3","867","867","0","[[2,0,0],[1,0],[3]]","7","[[0,0,0],[1,2],[3]]","18","0","","","","","","7","","","","","","","","",""
"","","","","","single-stim-button","295","800761","0.0-2.0-65.7-0.7","5f5e401d77501a6b82743d56","F1","batch6","","939","tol_tohand","","","","tol_peg_1","939","939","0","[[0,0,0],[1,0],[3]]","8","[[0,0,0],[1,2],[3]]","18","0","","","","","","7","","","","","","","","",""
"","","","","","single-stim-button","296","801742","0.0-2.0-65.7-1.7","5f5e401d77501a6b82743d56","F1","batch6","","979","tol_toboard","","","","tol_peg_2","979","979","0","[[0,0,0],[1,2],[3]]","8","[[0,0,0],[1,2],[3]]","18","0","","","","","","7","","","","","","","","",""
"","","","","","poldrack-single-stim","297","802744","0.0-2.0-66.0","5f5e401d77501a6b82743d56","F1","batch6","","-1","tol_feedback","","","true","","1000","1000","500","","","","","","-1","none","true","2404","9055","","","","","","","","","",""
"","","","","","html-button-response","298","803527","0.0-2.0-67.0","5f5e401d77501a6b82743d56","F1","batch6","","781","tol_trial_num","<div class = centerbox><p class = center-block-text>problem <strong>20</strong> out of 25 problems</p></div>","0","","","","","","","","","","","","","","","","","","","","","","","","",""
"","","","","","single-stim-button","299","819724","0.0-2.0-68.0-0.0","5f5e401d77501a6b82743d56","F1","batch6","","16197","tol_tohand","","","","tol_peg_1","16197","16197","0","[[1,0,0],[3,0],[0]]","1","[[2,1,0],[0,0],[3]]","19","0","","","","","","5","","","","","","","","",""
"","","","","","single-stim-button","300","820727","0.0-2.0-68.0-1.0","5f5e401d77501a6b82743d56","F1","batch6","","1001","tol_toboard","","","","tol_peg_3","1001","1001","0","[[1,0,0],[3,0],[2]]","1","[[2,1,0],[0,0],[3]]","19","0","","","","","","5","","","","","","","","",""
"","","","","","single-stim-button","301","821670","0.0-2.0-68.1-0.1","5f5e401d77501a6b82743d56","F1","batch6","","942","tol_tohand","","","","tol_peg_1","942","942","0","[[0,0,0],[3,0],[2]]","2","[[2,1,0],[0,0],[3]]","19","0","","","","","","5","","","","","","","","",""
"","","","","","single-stim-button","302","822655","0.0-2.0-68.1-1.1","5f5e401d77501a6b82743d56","F1","batch6","","984","tol_toboard","","","","tol_peg_2","984","984","0","[[0,0,0],[3,1],[2]]","2","[[2,1,0],[0,0],[3]]","19","0","","","","","","5","","","","","","","","",""
"","","","","","single-stim-button","303","824836","0.0-2.0-68.2-0.2","5f5e401d77501a6b82743d56","F1","batch6","","2179","tol_tohand","","","","tol_peg_3","2179","2179","0","[[0,0,0],[3,1],[0]]","3","[[2,1,0],[0,0],[3]]","19","0","","","","","","5","","","","","","","","",""
"","","","","","single-stim-button","304","825762","0.0-2.0-68.2-1.2","5f5e401d77501a6b82743d56","F1","batch6","","925","tol_toboard","","","","tol_peg_1","925","925","0","[[2,0,0],[3,1],[0]]","3","[[2,1,0],[0,0],[3]]","19","0","","","","","","5","","","","","","","","",""
"","","","","","single-stim-button","305","826559","0.0-2.0-68.3-0.3","5f5e401d77501a6b82743d56","F1","batch6","","792","tol_tohand","","","","tol_peg_2","792","792","0","[[2,0,0],[3,0],[0]]","4","[[2,1,0],[0,0],[3]]","19","0","","","","","","5","","","","","","","","",""
"","","","","","single-stim-button","306","827367","0.0-2.0-68.3-1.3","5f5e401d77501a6b82743d56","F1","batch6","","805","tol_toboard","","","","tol_peg_1","805","805","0","[[2,1,0],[3,0],[0]]","4","[[2,1,0],[0,0],[3]]","19","0","","","","","","5","","","","","","","","",""
"","","","","","single-stim-button","307","827586","0.0-2.0-68.4-0.4","5f5e401d77501a6b82743d56","F1","batch6","","218","tol_tohand","","","","tol_peg_1","218","218","0","[[2,0,0],[3,0],[0]]","5","[[2,1,0],[0,0],[3]]","19","0","","","","","","5","","","","","","","","",""
"","","","","","single-stim-button","308","828756","0.0-2.0-68.4-1.4","5f5e401d77501a6b82743d56","F1","batch6","","1169","tol_toboard","","","","tol_peg_1","1169","1169","0","[[2,1,0],[3,0],[0]]","5","[[2,1,0],[0,0],[3]]","19","0","","","","","","5","","","","","","","","",""
"","","","","","single-stim-button","309","829459","0.0-2.0-68.5-0.5","5f5e401d77501a6b82743d56","F1","batch6","","701","tol_tohand","","","","tol_peg_2","701","701","0","[[2,1,0],[0,0],[0]]","6","[[2,1,0],[0,0],[3]]","19","0","","","","","","5","","","","","","","","",""
"","","","","","single-stim-button","310","830431","0.0-2.0-68.5-1.5","5f5e401d77501a6b82743d56","F1","batch6","","971","tol_toboard","","","","tol_peg_3","971","971","0","[[2,1,0],[0,0],[3]]","6","[[2,1,0],[0,0],[3]]","19","0","","","","","","5","","","","","","","","",""
"","","","","","poldrack-single-stim","311","831433","0.0-2.0-69.0","5f5e401d77501a6b82743d56","F1","batch6","","-1","tol_feedback","","","true","","1000","1000","500","","","","","","-1","none","true","16197","21029","","","","","","","","","",""
"","","","","","html-button-response","312","832225","0.0-2.0-70.0","5f5e401d77501a6b82743d56","F1","batch6","","790.3999999761581","tol_trial_num","<div class = centerbox><p class = center-block-text>problem <strong>21</strong> out of 25 problems</p></div>","0","","","","","","","","","","","","","","","","","","","","","","","","",""
"","","","","","single-stim-button","313","847916","0.0-2.0-71.0-0.0","5f5e401d77501a6b82743d56","F1","batch6","","15689","tol_tohand","","","","tol_peg_2","15689","15689","0","[[1,2,0],[0,0],[0]]","1","[[3,2,0],[0,0],[1]]","20","0","","","","","","6","","","","","","","","",""
"","","","","","single-stim-button","314","848680","0.0-2.0-71.0-1.0","5f5e401d77501a6b82743d56","F1","batch6","","761","tol_toboard","","","","tol_peg_3","761","761","0","[[1,2,0],[0,0],[3]]","1","[[3,2,0],[0,0],[1]]","20","0","","","","","","6","","","","","","","","",""
"","","","","","single-stim-button","315","849464","0.0-2.0-71.1-0.1","5f5e401d77501a6b82743d56","F1","batch6","","782","tol_tohand","","","","tol_peg_1","782","782","0","[[1,0,0],[0,0],[3]]","2","[[3,2,0],[0,0],[1]]","20","0","","","","","","6","","","","","","","","",""
"","","","","","single-stim-button","316","850365","0.0-2.0-71.1-1.1","5f5e401d77501a6b82743d56","F1","batch6","","900","tol_toboard","","","","tol_peg_2","900","900","0","[[1,0,0],[2,0],[3]]","2","[[3,2,0],[0,0],[1]]","20","0","","","","","","6","","","","","","","","",""
"","","","","","single-stim-button","317","851427","0.0-2.0-71.2-0.2","5f5e401d77501a6b82743d56","F1","batch6","","1060","tol_tohand","","","","tol_peg_3","1060","1060","0","[[1,0,0],[2,0],[0]]","3","[[3,2,0],[0,0],[1]]","20","0","","","","","","6","","","","","","","","",""
"","","","","","single-stim-button","318","852835","0.0-2.0-71.2-1.2","5f5e401d77501a6b82743d56","F1","batch6","","1408","tol_toboard","","","","tol_peg_2","1408","1408","0","[[1,0,0],[2,3],[0]]","3","[[3,2,0],[0,0],[1]]","20","0","","","","","","6","","","","","","","","",""
"","","","","","single-stim-button","319","853695","0.0-2.0-71.3-0.3","5f5e401d77501a6b82743d56","F1","batch6","","858","tol_tohand","","","","tol_peg_1","858","858","0","[[0,0,0],[2,3],[0]]","4","[[3,2,0],[0,0],[1]]","20","0","","","","","","6","","","","","","","","",""
"","","","","","single-stim-button","320","854744","0.0-2.0-71.3-1.3","5f5e401d77501a6b82743d56","F1","batch6","","1047","tol_toboard","","","","tol_peg_3","1047","1047","0","[[0,0,0],[2,3],[1]]","4","[[3,2,0],[0,0],[1]]","20","0","","","","","","6","","","","","","","","",""
"","","","","","single-stim-button","321","855857","0.0-2.0-71.4-0.4","5f5e401d77501a6b82743d56","F1","batch6","","1113","tol_tohand","","","","tol_peg_2","1113","1113","0","[[0,0,0],[2,0],[1]]","5","[[3,2,0],[0,0],[1]]","20","0","","","","","","6","","","","","","","","",""
"","","","","","single-stim-button","322","856872","0.0-2.0-71.4-1.4","5f5e401d77501a6b82743d56","F1","batch6","","1013","tol_toboard","","","","tol_peg_1","1013","1013","0","[[3,0,0],[2,0],[1]]","5","[[3,2,0],[0,0],[1]]","20","0","","","","","","6","","","","","","","","",""
"","","","","","single-stim-button","323","857560","0.0-2.0-71.5-0.5","5f5e401d77501a6b82743d56","F1","batch6","","687","tol_tohand","","","","tol_peg_2","687","687","0","[[3,0,0],[0,0],[1]]","6","[[3,2,0],[0,0],[1]]","20","0","","","","","","6","","","","","","","","",""
"","","","","","single-stim-button","324","858493","0.0-2.0-71.5-1.5","5f5e401d77501a6b82743d56","F1","batch6","","931","tol_toboard","","","","tol_peg_1","931","931","0","[[3,2,0],[0,0],[1]]","6","[[3,2,0],[0,0],[1]]","20","0","","","","","","6","","","","","","","","",""
"","","","","","poldrack-single-stim","325","859496","0.0-2.0-72.0","5f5e401d77501a6b82743d56","F1","batch6","","-1","tol_feedback","","","true","","1000","1000","500","","","","","","-1","none","true","15689","20189","","","","","","","","","",""
"","","","","","html-button-response","326","860349","0.0-2.0-73.0","5f5e401d77501a6b82743d56","F1","batch6","","851.2000000476837","tol_trial_num","<div class = centerbox><p class = center-block-text>problem <strong>22</strong> out of 25 problems</p></div>","0","","","","","","","","","","","","","","","","","","","","","","","","",""
"","","","","","single-stim-button","327","880053","0.0-2.0-74.0-0.0","5f5e401d77501a6b82743d56","F1","batch6","","19703","tol_tohand","","","","tol_peg_1","19703","19703","0","[[0,0,0],[2,3],[0]]","1","[[0,0,0],[1,2],[3]]","21","0","","","","","","6","","","","","","","","",""
"","","","","","single-stim-button","328","880980","0.0-2.0-74.0-1.0","5f5e401d77501a6b82743d56","F1","batch6","","927","tol_toboard","","","","tol_peg_3","927","927","0","[[0,0,0],[2,3],[1]]","1","[[0,0,0],[1,2],[3]]","21","0","","","","","","6","","","","","","","","",""
"","","","","","single-stim-button","329","881910","0.0-2.0-74.1-0.1","5f5e401d77501a6b82743d56","F1","batch6","","928","tol_tohand","","","","tol_peg_2","928","928","0","[[0,0,0],[2,0],[1]]","2","[[0,0,0],[1,2],[3]]","21","0","","","","","","6","","","","","","","","",""
"","","","","","single-stim-button","330","882923","0.0-2.0-74.1-1.1","5f5e401d77501a6b82743d56","F1","batch6","","1011","tol_toboard","","","","tol_peg_1","1011","1011","0","[[3,0,0],[2,0],[1]]","2","[[0,0,0],[1,2],[3]]","21","0","","","","","","6","","","","","","","","",""
"","","","","","single-stim-button","331","884843","0.0-2.0-74.2-0.2","5f5e401d77501a6b82743d56","F1","batch6","","1918","tol_tohand","","","","tol_peg_2","1918","1918","0","[[3,0,0],[0,0],[1]]","3","[[0,0,0],[1,2],[3]]","21","0","","","","","","6","","","","","","","","",""
"","","","","","single-stim-button","332","885561","0.0-2.0-74.2-1.2","5f5e401d77501a6b82743d56","F1","batch6","","716","tol_toboard","","","","tol_peg_1","716","716","0","[[3,2,0],[0,0],[1]]","3","[[0,0,0],[1,2],[3]]","21","0","","","","","","6","","","","","","","","",""
"","","","","","single-stim-button","333","886598","0.0-2.0-74.3-0.3","5f5e401d77501a6b82743d56","F1","batch6","","1035","tol_tohand","","","","tol_peg_3","1035","1035","0","[[3,2,0],[0,0],[0]]","4","[[0,0,0],[1,2],[3]]","21","0","","","","","","6","","","","","","","","",""
"","","","","","single-stim-button","334","887424","0.0-2.0-74.3-1.3","5f5e401d77501a6b82743d56","F1","batch6","","824","tol_toboard","","","","tol_peg_2","824","824","0","[[3,2,0],[1,0],[0]]","4","[[0,0,0],[1,2],[3]]","21","0","","","","","","6","","","","","","","","",""
"","","","","","single-stim-button","335","888224","0.0-2.0-74.4-0.4","5f5e401d77501a6b82743d56","F1","batch6","","798","tol_tohand","","","","tol_peg_1","798","798","0","[[3,0,0],[1,0],[0]]","5","[[0,0,0],[1,2],[3]]","21","0","","","","","","6","","","","","","","","",""
"","","","","","single-stim-button","336","889147","0.0-2.0-74.4-1.4","5f5e401d77501a6b82743d56","F1","batch6","","923","tol_toboard","","","","tol_peg_2","923","923","0","[[3,0,0],[1,2],[0]]","5","[[0,0,0],[1,2],[3]]","21","0","","","","","","6","","","","","","","","",""
"","","","","","single-stim-button","337","889914","0.0-2.0-74.5-0.5","5f5e401d77501a6b82743d56","F1","batch6","","766","tol_tohand","","","","tol_peg_1","766","766","0","[[0,0,0],[1,2],[0]]","6","[[0,0,0],[1,2],[3]]","21","0","","","","","","6","","","","","","","","",""
"","","","","","single-stim-button","338","890908","0.0-2.0-74.5-1.5","5f5e401d77501a6b82743d56","F1","batch6","","992","tol_toboard","","","","tol_peg_3","992","992","0","[[0,0,0],[1,2],[3]]","6","[[0,0,0],[1,2],[3]]","21","0","","","","","","6","","","","","","","","",""
"","","","","","poldrack-single-stim","339","891922","0.0-2.0-75.0","5f5e401d77501a6b82743d56","F1","batch6","","-1","tol_feedback","","","true","","1000","1000","500","","","","","","-1","none","true","19703","25148","","","","","","","","","",""
"","","","","","html-button-response","340","892798","0.0-2.0-76.0","5f5e401d77501a6b82743d56","F1","batch6","","874.3000000715256","tol_trial_num","<div class = centerbox><p class = center-block-text>problem <strong>23</strong> out of 25 problems</p></div>","0","","","","","","","","","","","","","","","","","","","","","","","","",""
"","","","","","single-stim-button","341","896591","0.0-2.0-77.0-0.0","5f5e401d77501a6b82743d56","F1","batch6","","3791","tol_tohand","","","","tol_peg_1","3791","3791","0","[[1,0,0],[3,0],[0]]","1","[[1,3,2],[0,0],[0]]","22","0","","","","","","3","","","","","","","","",""
"","","","","","single-stim-button","342","897837","0.0-2.0-77.0-1.0","5f5e401d77501a6b82743d56","F1","batch6","","1245","tol_toboard","","","","tol_peg_3","1245","1245","0","[[1,0,0],[3,0],[2]]","1","[[1,3,2],[0,0],[0]]","22","0","","","","","","3","","","","","","","","",""
"","","","","","single-stim-button","343","898729","0.0-2.0-77.1-0.1","5f5e401d77501a6b82743d56","F1","batch6","","889","tol_tohand","","","","tol_peg_2","889","889","0","[[1,0,0],[0,0],[2]]","2","[[1,3,2],[0,0],[0]]","22","0","","","","","","3","","","","","","","","",""
"","","","","","single-stim-button","344","899680","0.0-2.0-77.1-1.1","5f5e401d77501a6b82743d56","F1","batch6","","950","tol_toboard","","","","tol_peg_1","950","950","0","[[1,3,0],[0,0],[2]]","2","[[1,3,2],[0,0],[0]]","22","0","","","","","","3","","","","","","","","",""
"","","","","","single-stim-button","345","900636","0.0-2.0-77.2-0.2","5f5e401d77501a6b82743d56","F1","batch6","","955","tol_tohand","","","","tol_peg_3","955","955","0","[[1,3,0],[0,0],[0]]","3","[[1,3,2],[0,0],[0]]","22","0","","","","","","3","","","","","","","","",""
"","","","","","single-stim-button","346","902057","0.0-2.0-77.2-1.2","5f5e401d77501a6b82743d56","F1","batch6","","1419","tol_toboard","","","","tol_peg_1","1419","1419","0","[[1,3,2],[0,0],[0]]","3","[[1,3,2],[0,0],[0]]","22","0","","","","","","3","","","","","","","","",""
"","","","","","poldrack-single-stim","347","903058","0.0-2.0-78.0","5f5e401d77501a6b82743d56","F1","batch6","","-1","tol_feedback","","","true","","1000","1000","500","","","","","","-1","none","true","3791","5635","","","","","","","","","",""
"","","","","","html-button-response","348","903875","0.0-2.0-79.0","5f5e401d77501a6b82743d56","F1","batch6","","815.1999999284744","tol_trial_num","<div class = centerbox><p class = center-block-text>problem <strong>24</strong> out of 25 problems</p></div>","0","","","","","","","","","","","","","","","","","","","","","","","","",""
"","","","","","single-stim-button","349","923967","0.0-2.0-80.0-0.0","5f5e401d77501a6b82743d56","F1","batch6","","20090","tol_tohand","","","","tol_peg_3","20090","20090","0","[[0,0,0],[2,3],[0]]","1","[[2,0,0],[3,0],[1]]","23","0","","","","","","7","","","","","","","","",""
"","","","","","single-stim-button","350","924888","0.0-2.0-80.0-1.0","5f5e401d77501a6b82743d56","F1","batch6","","920","tol_toboard","","","","tol_peg_1","920","920","0","[[1,0,0],[2,3],[0]]","1","[[2,0,0],[3,0],[1]]","23","0","","","","","","7","","","","","","","","",""
"","","","","","single-stim-button","351","925760","0.0-2.0-80.1-0.1","5f5e401d77501a6b82743d56","F1","batch6","","871","tol_tohand","","","","tol_peg_2","871","871","0","[[1,0,0],[2,0],[0]]","2","[[2,0,0],[3,0],[1]]","23","0","","","","","","7","","","","","","","","",""
"","","","","","single-stim-button","352","926734","0.0-2.0-80.1-1.1","5f5e401d77501a6b82743d56","F1","batch6","","973","tol_toboard","","","","tol_peg_3","973","973","0","[[1,0,0],[2,0],[3]]","2","[[2,0,0],[3,0],[1]]","23","0","","","","","","7","","","","","","","","",""
"","","","","","single-stim-button","353","928189","0.0-2.0-80.2-0.2","5f5e401d77501a6b82743d56","F1","batch6","","1453","tol_tohand","","","","tol_peg_2","1453","1453","0","[[1,0,0],[0,0],[3]]","3","[[2,0,0],[3,0],[1]]","23","0","","","","","","7","","","","","","","","",""
"","","","","","single-stim-button","354","929280","0.0-2.0-80.2-1.2","5f5e401d77501a6b82743d56","F1","batch6","","1089","tol_toboard","","","","tol_peg_1","1089","1089","0","[[1,2,0],[0,0],[3]]","3","[[2,0,0],[3,0],[1]]","23","0","","","","","","7","","","","","","","","",""
"","","","","","single-stim-button","355","930246","0.0-2.0-80.3-0.3","5f5e401d77501a6b82743d56","F1","batch6","","965","tol_tohand","","","","tol_peg_3","965","965","0","[[1,2,0],[0,0],[0]]","4","[[2,0,0],[3,0],[1]]","23","0","","","","","","7","","","","","","","","",""
