"success","timeout","failed_images","failed_audio","failed_video","trial_type","trial_index","time_elapsed","internal_node_id","subject_id","study_id","session_id","view_history","rt","task","stimulus","response","correct","mouse_click","stim_duration","block_duration","timing_post_trial","current_position","tol_num_moves_made","tol_target","tol_problem_id","tol_rt","key_press","possible_responses","tol_correct","preplanning","tol_rt_per_trial","tol_min_moves","answer","item","fiar_detect_rt","fiar_detect_correct","total_correct_fiar_detect","post_trial_gap","choices","spm_correct","spm_rt"
"true","false","[]","[]","[]","preload","0","802","0.0-0.0","5f7058deeb83ab60bb836eae","F1","batch6","","","","","","","","","","","","","","","","","","","","","","","","","","","","","",""
"true","","","","","fullscreen","1","8479","0.0-1.0-0.0","5f7058deeb83ab60bb836eae","F1","batch6","","","","","","","","","","","","","","","","","","","","","","","","","","","","","",""
"true","","","","","fullscreen","2","11597","0.0-2.0-0.0","5f7058deeb83ab60bb836eae","F1","batch6","","","","","","","","","","","","","","","","","","","","","","","","","","","","","",""
"","","","","","instructions","3","51272","0.0-2.0-1.0-0.0-0.0","5f7058deeb83ab60bb836eae","F1","batch6","[{""page_index"":0,""viewing_time"":5226.29999999702},{""page_index"":1,""viewing_time"":2616.800000011921},{""page_index"":2,""viewing_time"":4549.29999999702},{""page_index"":3,""viewing_time"":6283.0999999940395},{""page_index"":4,""viewing_time"":2366.9000000059605},{""page_index"":5,""viewing_time"":15633.39999999106},{""page_index"":6,""viewing_time"":2999.4000000059605}]","39675.29999999702","tol-instructions","","","","","","","","","","","","","","","","","","","","","","","","","","",""
"","","","","","html-button-response","4","53106","0.0-2.0-1.0-1.0-0.0","5f7058deeb83ab60bb836eae","F1","batch6","","1833","tol_enter_quiz","<p class=block-text> Let's answer a few questions <br>","0","","","","","","","","","","","","","","","","","","","","","","","","",""
"","","","","","html-button-response","5","59138","0.0-2.0-1.0-1.0-1.0","5f7058deeb83ab60bb836eae","F1","batch6","","6031.20000000298","tol_quiz","<p class = block-text>True or False: You can only move the ball on top of a peg. <br></p>","0","true","","","","","","","","","","","","","","","","","","","","","","","",""
"","","","","","html-button-response","6","59971","0.0-2.0-1.0-1.0-2.0","5f7058deeb83ab60bb836eae","F1","batch6","","832.2000000029802","tol_quiz_feedback","<p class = block-text>Correct! You can only move the ball on top of a peg.</p>","0","","","","","","","","","","","","","","","","","","","","","","","","",""
"","","","","","html-button-response","7","61721","0.0-2.0-1.0-1.0-3.0","5f7058deeb83ab60bb836eae","F1","batch6","","1749.2000000029802","tol_quiz","<p class = block-text>True or False: You should try to match your board with the target board with fewest moves possible. <br></p>","0","true","","","","","","","","","","","","","","","","","","","","","","","",""
"","","","","","html-button-response","8","62238","0.0-2.0-1.0-1.0-4.0","5f7058deeb83ab60bb836eae","F1","batch6","","516.2999999970198","tol_quiz_feedback","<p class = block-text>Correct! </p>","0","","","","","","","","","","","","","","","","","","","","","","","","",""
"","","","","","html-button-response","9","81670","0.0-2.0-2.0","5f7058deeb83ab60bb836eae","F1","batch6","","19431.20000000298","","<p class=block-text> Now that you've understood the game, let's practice a few easier examples before we start!<br> <br>","0","","","","","","","","","","","","","","","","","","","","","","","","",""
"","","","","","single-stim-button","10","83055","0.0-2.0-3.0-0.0","5f7058deeb83ab60bb836eae","F1","batch6","","1384","tol_practice","","","","tol_peg_2","1384","1384","0","[[1,2,0],[0,0],[0]]","1","[[1,2,0],[0,0],[3]]","practice","1384","","","","","","","","","","","","","","",""
"","","","","","single-stim-button","11","83637","0.0-2.0-3.0-1.0","5f7058deeb83ab60bb836eae","F1","batch6","","581","tol_practice","","","","tol_peg_3","581","581","0","[[1,2,0],[0,0],[3]]","1","[[1,2,0],[0,0],[3]]","practice","581","","","","","","","","","","","","","","",""
"","","","","","poldrack-single-stim","12","84644","0.0-2.0-4.0","5f7058deeb83ab60bb836eae","F1","batch6","","-1","tol_feedback","","","true","","1000","1000","500","","","","","","-1","none","true","","0","","","","","","","","","",""
"","","","","","single-stim-button","13","87337","0.0-2.0-5.0-0.0","5f7058deeb83ab60bb836eae","F1","batch6","","2693","tol_practice","","","","tol_peg_1","2693","2693","0","[[1,0,0],[3,0],[0]]","2","[[0,0,0],[3,1],[2]]","practice","2693","","","","","","","","","","","","","","",""
"","","","","","single-stim-button","14","87904","0.0-2.0-5.0-1.0","5f7058deeb83ab60bb836eae","F1","batch6","","566","tol_practice","","","","tol_peg_3","566","566","0","[[1,0,0],[3,0],[2]]","2","[[0,0,0],[3,1],[2]]","practice","566","","","","","","","","","","","","","","",""
"","","","","","single-stim-button","15","88520","0.0-2.0-5.1-0.1","5f7058deeb83ab60bb836eae","F1","batch6","","615","tol_practice","","","","tol_peg_1","615","615","0","[[0,0,0],[3,0],[2]]","3","[[0,0,0],[3,1],[2]]","practice","615","","","","","","","","","","","","","","",""
"","","","","","single-stim-button","16","89020","0.0-2.0-5.1-1.1","5f7058deeb83ab60bb836eae","F1","batch6","","500","tol_practice","","","","tol_peg_2","500","500","0","[[0,0,0],[3,1],[2]]","3","[[0,0,0],[3,1],[2]]","practice","500","","","","","","","","","","","","","","",""
"","","","","","poldrack-single-stim","17","90031","0.0-2.0-6.0","5f7058deeb83ab60bb836eae","F1","batch6","","-1","tol_feedback","","","true","","1000","1000","500","","","","","","-1","none","true","","0","","","","","","","","","",""
"","","","","","single-stim-button","18","92620","0.0-2.0-7.0-0.0","5f7058deeb83ab60bb836eae","F1","batch6","","2587","tol_practice","","","","tol_peg_2","2587","2587","0","[[1,2,0],[0,0],[0]]","4","[[1,0,0],[2,0],[3]]","practice","2587","","","","","","","","","","","","","","",""
"","","","","","single-stim-button","19","93053","0.0-2.0-7.0-1.0","5f7058deeb83ab60bb836eae","F1","batch6","","433","tol_practice","","","","tol_peg_3","433","433","0","[[1,2,0],[0,0],[3]]","4","[[1,0,0],[2,0],[3]]","practice","433","","","","","","","","","","","","","","",""
"","","","","","single-stim-button","20","93537","0.0-2.0-7.1-0.1","5f7058deeb83ab60bb836eae","F1","batch6","","484","tol_practice","","","","tol_peg_1","484","484","0","[[1,0,0],[0,0],[3]]","5","[[1,0,0],[2,0],[3]]","practice","484","","","","","","","","","","","","","","",""
"","","","","","single-stim-button","21","93887","0.0-2.0-7.1-1.1","5f7058deeb83ab60bb836eae","F1","batch6","","349","tol_practice","","","","tol_peg_2","349","349","0","[[1,0,0],[2,0],[3]]","5","[[1,0,0],[2,0],[3]]","practice","349","","","","","","","","","","","","","","",""
"","","","","","poldrack-single-stim","22","94892","0.0-2.0-8.0","5f7058deeb83ab60bb836eae","F1","batch6","","-1","tol_feedback","","","true","","1000","1000","500","","","","","","-1","none","true","","0","","","","","","","","","",""
"","","","","","html-button-response","23","112603","0.0-2.0-9.0","5f7058deeb83ab60bb836eae","F1","batch6","","17710.20000000298","tol_instruction","<div class = centerbox><p class = center-block-text>Great job! You are done with practice trials<br>You are about to start official trials.<br> <br> Problem <strong>1</strong> out of 25 problems</p></div>","0","","","","","","","","","","","","","","","","","","","","","","","","",""
"","","","","","single-stim-button","24","117085","0.0-2.0-10.0-0.0","5f7058deeb83ab60bb836eae","F1","batch6","","3474","tol_tohand","","","","tol_peg_1","3474","3474","0","[[1,0,0],[3,0],[0]]","1","[[1,3,0],[2,0],[0]]","0","0","","","","","","3","","","","","","","","",""
"","","","","","single-stim-button","25","117752","0.0-2.0-10.0-1.0","5f7058deeb83ab60bb836eae","F1","batch6","","666","tol_toboard","","","","tol_peg_3","666","666","0","[[1,0,0],[3,0],[2]]","1","[[1,3,0],[2,0],[0]]","0","0","","","","","","3","","","","","","","","",""
"","","","","","single-stim-button","26","118135","0.0-2.0-10.1-0.1","5f7058deeb83ab60bb836eae","F1","batch6","","383","tol_tohand","","","","tol_peg_2","383","383","0","[[1,0,0],[0,0],[2]]","2","[[1,3,0],[2,0],[0]]","0","0","","","","","","3","","","","","","","","",""
"","","","","","single-stim-button","27","118569","0.0-2.0-10.1-1.1","5f7058deeb83ab60bb836eae","F1","batch6","","433","tol_toboard","","","","tol_peg_1","433","433","0","[[1,3,0],[0,0],[2]]","2","[[1,3,0],[2,0],[0]]","0","0","","","","","","3","","","","","","","","",""
"","","","","","single-stim-button","28","119069","0.0-2.0-10.2-0.2","5f7058deeb83ab60bb836eae","F1","batch6","","500","tol_tohand","","","","tol_peg_3","500","500","0","[[1,3,0],[0,0],[0]]","3","[[1,3,0],[2,0],[0]]","0","0","","","","","","3","","","","","","","","",""
"","","","","","single-stim-button","29","119452","0.0-2.0-10.2-1.2","5f7058deeb83ab60bb836eae","F1","batch6","","382","tol_toboard","","","","tol_peg_2","382","382","0","[[1,3,0],[2,0],[0]]","3","[[1,3,0],[2,0],[0]]","0","0","","","","","","3","","","","","","","","",""
"","","","","","poldrack-single-stim","30","120459","0.0-2.0-11.0","5f7058deeb83ab60bb836eae","F1","batch6","","-1","tol_feedback","","","true","","1000","1000","500","","","","","","-1","none","true","3474","4357","","","","","","","","","",""
"","","","","","html-button-response","31","121702","0.0-2.0-12.0","5f7058deeb83ab60bb836eae","F1","batch6","","1242","tol_trial_num","<div class = centerbox><p class = center-block-text>problem <strong>2</strong> out of 25 problems</p></div>","0","","","","","","","","","","","","","","","","","","","","","","","","",""
"","","","","","single-stim-button","32","124969","0.0-2.0-13.0-0.0","5f7058deeb83ab60bb836eae","F1","batch6","","3267","tol_tohand","","","","tol_peg_1","3267","3267","0","[[1,0,0],[3,0],[0]]","1","[[2,1,3],[0,0],[0]]","1","0","","","","","","5","","","","","","","","",""
"","","","","","single-stim-button","33","126501","0.0-2.0-13.0-1.0","5f7058deeb83ab60bb836eae","F1","batch6","","1531","tol_toboard","","","","tol_peg_3","1531","1531","0","[[1,0,0],[3,0],[2]]","1","[[2,1,3],[0,0],[0]]","1","0","","","","","","5","","","","","","","","",""
"","","","","","single-stim-button","34","127235","0.0-2.0-13.1-0.1","5f7058deeb83ab60bb836eae","F1","batch6","","733","tol_tohand","","","","tol_peg_1","733","733","0","[[0,0,0],[3,0],[2]]","2","[[2,1,3],[0,0],[0]]","1","0","","","","","","5","","","","","","","","",""
"","","","","","single-stim-button","35","127635","0.0-2.0-13.1-1.1","5f7058deeb83ab60bb836eae","F1","batch6","","400","tol_toboard","","","","tol_peg_2","400","400","0","[[0,0,0],[3,1],[2]]","2","[[2,1,3],[0,0],[0]]","1","0","","","","","","5","","","","","","","","",""
"","","","","","single-stim-button","36","128185","0.0-2.0-13.2-0.2","5f7058deeb83ab60bb836eae","F1","batch6","","550","tol_tohand","","","","tol_peg_3","550","550","0","[[0,0,0],[3,1],[0]]","3","[[2,1,3],[0,0],[0]]","1","0","","","","","","5","","","","","","","","",""
"","","","","","single-stim-button","37","128751","0.0-2.0-13.2-1.2","5f7058deeb83ab60bb836eae","F1","batch6","","566","tol_toboard","","","","tol_peg_1","566","566","0","[[2,0,0],[3,1],[0]]","3","[[2,1,3],[0,0],[0]]","1","0","","","","","","5","","","","","","","","",""
"","","","","","single-stim-button","38","129252","0.0-2.0-13.3-0.3","5f7058deeb83ab60bb836eae","F1","batch6","","500","tol_tohand","","","","tol_peg_2","500","500","0","[[2,0,0],[3,0],[0]]","4","[[2,1,3],[0,0],[0]]","1","0","","","","","","5","","","","","","","","",""
"","","","","","single-stim-button","39","129568","0.0-2.0-13.3-1.3","5f7058deeb83ab60bb836eae","F1","batch6","","316","tol_toboard","","","","tol_peg_1","316","316","0","[[2,1,0],[3,0],[0]]","4","[[2,1,3],[0,0],[0]]","1","0","","","","","","5","","","","","","","","",""
"","","","","","single-stim-button","40","130034","0.0-2.0-13.4-0.4","5f7058deeb83ab60bb836eae","F1","batch6","","466","tol_tohand","","","","tol_peg_2","466","466","0","[[2,1,0],[0,0],[0]]","5","[[2,1,3],[0,0],[0]]","1","0","","","","","","5","","","","","","","","",""
"","","","","","single-stim-button","41","130368","0.0-2.0-13.4-1.4","5f7058deeb83ab60bb836eae","F1","batch6","","333","tol_toboard","","","","tol_peg_1","333","333","0","[[2,1,3],[0,0],[0]]","5","[[2,1,3],[0,0],[0]]","1","0","","","","","","5","","","","","","","","",""
"","","","","","poldrack-single-stim","42","131372","0.0-2.0-14.0","5f7058deeb83ab60bb836eae","F1","batch6","","-1","tol_feedback","","","true","","1000","1000","500","","","","","","-1","none","true","3267","5516","","","","","","","","","",""
"","","","","","html-button-response","43","132152","0.0-2.0-15.0","5f7058deeb83ab60bb836eae","F1","batch6","","778.1999999880791","tol_trial_num","<div class = centerbox><p class = center-block-text>problem <strong>3</strong> out of 25 problems</p></div>","0","","","","","","","","","","","","","","","","","","","","","","","","",""
"","","","","","single-stim-button","44","133868","0.0-2.0-16.0-0.0","5f7058deeb83ab60bb836eae","F1","batch6","","1716","tol_tohand","","","","tol_peg_1","1716","1716","0","[[2,0,0],[0,0],[1]]","1","[[1,2,0],[3,0],[0]]","2","0","","","","","","4","","","","","","","","",""
"","","","","","single-stim-button","45","134667","0.0-2.0-16.0-1.0","5f7058deeb83ab60bb836eae","F1","batch6","","799","tol_toboard","","","","tol_peg_2","799","799","0","[[2,0,0],[3,0],[1]]","1","[[1,2,0],[3,0],[0]]","2","0","","","","","","4","","","","","","","","",""
"","","","","","single-stim-button","46","135335","0.0-2.0-16.1-0.1","5f7058deeb83ab60bb836eae","F1","batch6","","668","tol_tohand","","","","tol_peg_1","668","668","0","[[0,0,0],[3,0],[1]]","2","[[1,2,0],[3,0],[0]]","2","0","","","","","","4","","","","","","","","",""
"","","","","","single-stim-button","47","135684","0.0-2.0-16.1-1.1","5f7058deeb83ab60bb836eae","F1","batch6","","348","tol_toboard","","","","tol_peg_2","348","348","0","[[0,0,0],[3,2],[1]]","2","[[1,2,0],[3,0],[0]]","2","0","","","","","","4","","","","","","","","",""
"","","","","","single-stim-button","48","136134","0.0-2.0-16.2-0.2","5f7058deeb83ab60bb836eae","F1","batch6","","450","tol_tohand","","","","tol_peg_3","450","450","0","[[0,0,0],[3,2],[0]]","3","[[1,2,0],[3,0],[0]]","2","0","","","","","","4","","","","","","","","",""
"","","","","","single-stim-button","49","136467","0.0-2.0-16.2-1.2","5f7058deeb83ab60bb836eae","F1","batch6","","333","tol_toboard","","","","tol_peg_1","333","333","0","[[1,0,0],[3,2],[0]]","3","[[1,2,0],[3,0],[0]]","2","0","","","","","","4","","","","","","","","",""
"","","","","","single-stim-button","50","136884","0.0-2.0-16.3-0.3","5f7058deeb83ab60bb836eae","F1","batch6","","416","tol_tohand","","","","tol_peg_2","416","416","0","[[1,0,0],[3,0],[0]]","4","[[1,2,0],[3,0],[0]]","2","0","","","","","","4","","","","","","","","",""
"","","","","","single-stim-button","51","137168","0.0-2.0-16.3-1.3","5f7058deeb83ab60bb836eae","F1","batch6","","283","tol_toboard","","","","tol_peg_1","283","283","0","[[1,2,0],[3,0],[0]]","4","[[1,2,0],[3,0],[0]]","2","0","","","","","","4","","","","","","","","",""
"","","","","","poldrack-single-stim","52","138172","0.0-2.0-17.0","5f7058deeb83ab60bb836eae","F1","batch6","","-1","tol_feedback","","","true","","1000","1000","500","","","","","","-1","none","true","1716","3250","","","","","","","","","",""
"","","","","","html-button-response","53","138683","0.0-2.0-18.0","5f7058deeb83ab60bb836eae","F1","batch6","","510","tol_trial_num","<div class = centerbox><p class = center-block-text>problem <strong>4</strong> out of 25 problems</p></div>","0","","","","","","","","","","","","","","","","","","","","","","","","",""
"","","","","","single-stim-button","54","141202","0.0-2.0-19.0-0.0","5f7058deeb83ab60bb836eae","F1","batch6","","2517","tol_tohand","","","","tol_peg_2","2517","2517","0","[[3,0,0],[2,0],[0]]","1","[[3,0,0],[1,0],[2]]","3","0","","","","","","3","","","","","","","","",""
"","","","","","single-stim-button","55","141751","0.0-2.0-19.0-1.0","5f7058deeb83ab60bb836eae","F1","batch6","","549","tol_toboard","","","","tol_peg_1","549","549","0","[[3,1,0],[2,0],[0]]","1","[[3,0,0],[1,0],[2]]","3","0","","","","","","3","","","","","","","","",""
"","","","","","single-stim-button","56","142167","0.0-2.0-19.1-0.1","5f7058deeb83ab60bb836eae","F1","batch6","","416","tol_tohand","","","","tol_peg_2","416","416","0","[[3,1,0],[0,0],[0]]","2","[[3,0,0],[1,0],[2]]","3","0","","","","","","3","","","","","","","","",""
"","","","","","single-stim-button","57","142667","0.0-2.0-19.1-1.1","5f7058deeb83ab60bb836eae","F1","batch6","","499","tol_toboard","","","","tol_peg_3","499","499","0","[[3,1,0],[0,0],[2]]","2","[[3,0,0],[1,0],[2]]","3","0","","","","","","3","","","","","","","","",""
"","","","","","single-stim-button","58","143067","0.0-2.0-19.2-0.2","5f7058deeb83ab60bb836eae","F1","batch6","","398","tol_tohand","","","","tol_peg_1","398","398","0","[[3,0,0],[0,0],[2]]","3","[[3,0,0],[1,0],[2]]","3","0","","","","","","3","","","","","","","","",""
"","","","","","single-stim-button","59","143418","0.0-2.0-19.2-1.2","5f7058deeb83ab60bb836eae","F1","batch6","","351","tol_toboard","","","","tol_peg_2","351","351","0","[[3,0,0],[1,0],[2]]","3","[[3,0,0],[1,0],[2]]","3","0","","","","","","3","","","","","","","","",""
"","","","","","poldrack-single-stim","60","144419","0.0-2.0-20.0","5f7058deeb83ab60bb836eae","F1","batch6","","-1","tol_feedback","","","true","","1000","1000","500","","","","","","-1","none","true","2517","3331","","","","","","","","","",""
"","","","","","html-button-response","61","145068","0.0-2.0-21.0","5f7058deeb83ab60bb836eae","F1","batch6","","648.3999999910593","tol_trial_num","<div class = centerbox><p class = center-block-text>problem <strong>5</strong> out of 25 problems</p></div>","0","","","","","","","","","","","","","","","","","","","","","","","","",""
"","","","","","single-stim-button","62","150334","0.0-2.0-22.0-0.0","5f7058deeb83ab60bb836eae","F1","batch6","","5266","tol_tohand","","","","tol_peg_3","5266","5266","0","[[1,0,0],[2,0],[0]]","1","[[0,0,0],[1,2],[3]]","4","0","","","","","","7","","","","","","","","",""
"","","","","","single-stim-button","63","151016","0.0-2.0-22.0-1.0","5f7058deeb83ab60bb836eae","F1","batch6","","681","tol_toboard","","","","tol_peg_1","681","681","0","[[1,3,0],[2,0],[0]]","1","[[0,0,0],[1,2],[3]]","4","0","","","","","","7","","","","","","","","",""
"","","","","","single-stim-button","64","151368","0.0-2.0-22.1-0.1","5f7058deeb83ab60bb836eae","F1","batch6","","350","tol_tohand","","","","tol_peg_2","350","350","0","[[1,3,0],[0,0],[0]]","2","[[0,0,0],[1,2],[3]]","4","0","","","","","","7","","","","","","","","",""
"","","","","","single-stim-button","65","151850","0.0-2.0-22.1-1.1","5f7058deeb83ab60bb836eae","F1","batch6","","482","tol_toboard","","","","tol_peg_3","482","482","0","[[1,3,0],[0,0],[2]]","2","[[0,0,0],[1,2],[3]]","4","0","","","","","","7","","","","","","","","",""
"","","","","","single-stim-button","66","152500","0.0-2.0-22.2-0.2","5f7058deeb83ab60bb836eae","F1","batch6","","649","tol_tohand","","","","tol_peg_1","649","649","0","[[1,0,0],[0,0],[2]]","3","[[0,0,0],[1,2],[3]]","4","0","","","","","","7","","","","","","","","",""
"","","","","","single-stim-button","67","157550","0.0-2.0-22.2-1.2","5f7058deeb83ab60bb836eae","F1","batch6","","5050","tol_toboard","","","","tol_peg_2","5050","5050","0","[[1,0,0],[3,0],[2]]","3","[[0,0,0],[1,2],[3]]","4","0","","","","","","7","","","","","","","","",""
"","","","","","single-stim-button","68","158050","0.0-2.0-22.3-0.3","5f7058deeb83ab60bb836eae","F1","batch6","","500","tol_tohand","","","","tol_peg_1","500","500","0","[[0,0,0],[3,0],[2]]","4","[[0,0,0],[1,2],[3]]","4","0","","","","","","7","","","","","","","","",""
"","","","","","single-stim-button","69","158383","0.0-2.0-22.3-1.3","5f7058deeb83ab60bb836eae","F1","batch6","","333","tol_toboard","","","","tol_peg_2","333","333","0","[[0,0,0],[3,1],[2]]","4","[[0,0,0],[1,2],[3]]","4","0","","","","","","7","","","","","","","","",""
"","","","","","single-stim-button","70","158717","0.0-2.0-22.4-0.4","5f7058deeb83ab60bb836eae","F1","batch6","","334","tol_tohand","","","","tol_peg_3","334","334","0","[[0,0,0],[3,1],[0]]","5","[[0,0,0],[1,2],[3]]","4","0","","","","","","7","","","","","","","","",""
"","","","","","single-stim-button","71","159200","0.0-2.0-22.4-1.4","5f7058deeb83ab60bb836eae","F1","batch6","","482","tol_toboard","","","","tol_peg_1","482","482","0","[[2,0,0],[3,1],[0]]","5","[[0,0,0],[1,2],[3]]","4","0","","","","","","7","","","","","","","","",""
"","","","","","single-stim-button","72","160117","0.0-2.0-22.5-0.5","5f7058deeb83ab60bb836eae","F1","batch6","","916","tol_tohand","","","","tol_peg_2","916","916","0","[[2,0,0],[3,0],[0]]","6","[[0,0,0],[1,2],[3]]","4","0","","","","","","7","","","","","","","","",""
"","","","","","single-stim-button","73","160450","0.0-2.0-22.5-1.5","5f7058deeb83ab60bb836eae","F1","batch6","","333","tol_toboard","","","","tol_peg_1","333","333","0","[[2,1,0],[3,0],[0]]","6","[[0,0,0],[1,2],[3]]","4","0","","","","","","7","","","","","","","","",""
"","","","","","single-stim-button","74","160783","0.0-2.0-22.6-0.6","5f7058deeb83ab60bb836eae","F1","batch6","","333","tol_tohand","","","","tol_peg_2","333","333","0","[[2,1,0],[0,0],[0]]","7","[[0,0,0],[1,2],[3]]","4","0","","","","","","7","","","","","","","","",""
"","","","","","single-stim-button","75","161450","0.0-2.0-22.6-1.6","5f7058deeb83ab60bb836eae","F1","batch6","","666","tol_toboard","","","","tol_peg_3","666","666","0","[[2,1,0],[0,0],[3]]","7","[[0,0,0],[1,2],[3]]","4","0","","","","","","7","","","","","","","","",""
"","","","","","single-stim-button","76","161900","0.0-2.0-22.7-0.7","5f7058deeb83ab60bb836eae","F1","batch6","","450","tol_tohand","","","","tol_peg_1","450","450","0","[[2,0,0],[0,0],[3]]","8","[[0,0,0],[1,2],[3]]","4","0","","","","","","7","","","","","","","","",""
"","","","","","single-stim-button","77","162316","0.0-2.0-22.7-1.7","5f7058deeb83ab60bb836eae","F1","batch6","","416","tol_toboard","","","","tol_peg_2","416","416","0","[[2,0,0],[1,0],[3]]","8","[[0,0,0],[1,2],[3]]","4","0","","","","","","7","","","","","","","","",""
"","","","","","single-stim-button","78","164816","0.0-2.0-22.8-0.8","5f7058deeb83ab60bb836eae","F1","batch6","","2499","tol_tohand","","","","tol_peg_1","2499","2499","0","[[0,0,0],[1,0],[3]]","9","[[0,0,0],[1,2],[3]]","4","0","","","","","","7","","","","","","","","",""
"","","","","","single-stim-button","79","165166","0.0-2.0-22.8-1.8","5f7058deeb83ab60bb836eae","F1","batch6","","349","tol_toboard","","","","tol_peg_2","349","349","0","[[0,0,0],[1,2],[3]]","9","[[0,0,0],[1,2],[3]]","4","0","","","","","","7","","","","","","","","",""
"","","","","","poldrack-single-stim","80","166170","0.0-2.0-23.0","5f7058deeb83ab60bb836eae","F1","batch6","","-1","tol_feedback","","","true","","1000","1000","500","","","","","","-1","none","true","5266","11297","","","","","","","","","",""
"","","","","","html-button-response","81","166783","0.0-2.0-24.0","5f7058deeb83ab60bb836eae","F1","batch6","","611.7000000029802","tol_trial_num","<div class = centerbox><p class = center-block-text>problem <strong>6</strong> out of 25 problems</p></div>","0","","","","","","","","","","","","","","","","","","","","","","","","",""
"","","","","","single-stim-button","82","176332","0.0-2.0-25.0-0.0","5f7058deeb83ab60bb836eae","F1","batch6","","9549","tol_tohand","","","","tol_peg_2","9549","9549","0","[[0,0,0],[1,0],[3]]","1","[[1,0,0],[2,3],[0]]","5","0","","","","","","6","","","","","","","","",""
"","","","","","single-stim-button","83","180648","0.0-2.0-25.0-1.0","5f7058deeb83ab60bb836eae","F1","batch6","","4316","tol_toboard","","","","tol_peg_2","4316","4316","0","[[0,0,0],[1,2],[3]]","1","[[1,0,0],[2,3],[0]]","5","0","","","","","","6","","","","","","","","",""
"","","","","","single-stim-button","84","181332","0.0-2.0-25.1-0.1","5f7058deeb83ab60bb836eae","F1","batch6","","684","tol_tohand","","","","tol_peg_3","684","684","0","[[0,0,0],[1,2],[0]]","2","[[1,0,0],[2,3],[0]]","5","0","","","","","","6","","","","","","","","",""
"","","","","","single-stim-button","85","181782","0.0-2.0-25.1-1.1","5f7058deeb83ab60bb836eae","F1","batch6","","450","tol_toboard","","","","tol_peg_1","450","450","0","[[3,0,0],[1,2],[0]]","2","[[1,0,0],[2,3],[0]]","5","0","","","","","","6","","","","","","","","",""
"","","","","","single-stim-button","86","182149","0.0-2.0-25.2-0.2","5f7058deeb83ab60bb836eae","F1","batch6","","367","tol_tohand","","","","tol_peg_2","367","367","0","[[3,0,0],[1,0],[0]]","3","[[1,0,0],[2,3],[0]]","5","0","","","","","","6","","","","","","","","",""
"","","","","","single-stim-button","87","182499","0.0-2.0-25.2-1.2","5f7058deeb83ab60bb836eae","F1","batch6","","349","tol_toboard","","","","tol_peg_3","349","349","0","[[3,0,0],[1,0],[2]]","3","[[1,0,0],[2,3],[0]]","5","0","","","","","","6","","","","","","","","",""
"","","","","","single-stim-button","88","184498","0.0-2.0-25.3-0.3","5f7058deeb83ab60bb836eae","F1","batch6","","1998","tol_tohand","","","","tol_peg_2","1998","1998","0","[[3,0,0],[0,0],[2]]","4","[[1,0,0],[2,3],[0]]","5","0","","","","","","6","","","","","","","","",""
"","","","","","single-stim-button","89","184848","0.0-2.0-25.3-1.3","5f7058deeb83ab60bb836eae","F1","batch6","","350","tol_toboard","","","","tol_peg_1","350","350","0","[[3,1,0],[0,0],[2]]","4","[[1,0,0],[2,3],[0]]","5","0","","","","","","6","","","","","","","","",""
"","","","","","single-stim-button","90","185265","0.0-2.0-25.4-0.4","5f7058deeb83ab60bb836eae","F1","batch6","","417","tol_tohand","","","","tol_peg_3","417","417","0","[[3,1,0],[0,0],[0]]","5","[[1,0,0],[2,3],[0]]","5","0","","","","","","6","","","","","","","","",""
"","","","","","single-stim-button","91","185598","0.0-2.0-25.4-1.4","5f7058deeb83ab60bb836eae","F1","batch6","","333","tol_toboard","","","","tol_peg_2","333","333","0","[[3,1,0],[2,0],[0]]","5","[[1,0,0],[2,3],[0]]","5","0","","","","","","6","","","","","","","","",""
"","","","","","single-stim-button","92","186015","0.0-2.0-25.5-0.5","5f7058deeb83ab60bb836eae","F1","batch6","","416","tol_tohand","","","","tol_peg_1","416","416","0","[[3,0,0],[2,0],[0]]","6","[[1,0,0],[2,3],[0]]","5","0","","","","","","6","","","","","","","","",""
"","","","","","single-stim-button","93","186948","0.0-2.0-25.5-1.5","5f7058deeb83ab60bb836eae","F1","batch6","","933","tol_toboard","","","","tol_peg_3","933","933","0","[[3,0,0],[2,0],[1]]","6","[[1,0,0],[2,3],[0]]","5","0","","","","","","6","","","","","","","","",""
"","","","","","single-stim-button","94","187348","0.0-2.0-25.6-0.6","5f7058deeb83ab60bb836eae","F1","batch6","","400","tol_tohand","","","","tol_peg_1","400","400","0","[[0,0,0],[2,0],[1]]","7","[[1,0,0],[2,3],[0]]","5","0","","","","","","6","","","","","","","","",""
"","","","","","single-stim-button","95","187699","0.0-2.0-25.6-1.6","5f7058deeb83ab60bb836eae","F1","batch6","","350","tol_toboard","","","","tol_peg_2","350","350","0","[[0,0,0],[2,3],[1]]","7","[[1,0,0],[2,3],[0]]","5","0","","","","","","6","","","","","","","","",""
"","","","","","single-stim-button","96","188098","0.0-2.0-25.7-0.7","5f7058deeb83ab60bb836eae","F1","batch6","","399","tol_tohand","","","","tol_peg_3","399","399","0","[[0,0,0],[2,3],[0]]","8","[[1,0,0],[2,3],[0]]","5","0","","","","","","6","","","","","","","","",""
"","","","","","single-stim-button","97","188531","0.0-2.0-25.7-1.7","5f7058deeb83ab60bb836eae","F1","batch6","","432","tol_toboard","","","","tol_peg_1","432","432","0","[[1,0,0],[2,3],[0]]","8","[[1,0,0],[2,3],[0]]","5","0","","","","","","6","","","","","","","","",""
"","","","","","poldrack-single-stim","98","189539","0.0-2.0-26.0","5f7058deeb83ab60bb836eae","F1","batch6","","-1","tol_feedback","","","true","","1000","1000","500","","","","","","-1","none","true","9549","14230","","","","","","","","","",""
"","","","","","html-button-response","99","190181","0.0-2.0-27.0","5f7058deeb83ab60bb836eae","F1","batch6","","641.5","tol_trial_num","<div class = centerbox><p class = center-block-text>problem <strong>7</strong> out of 25 problems</p></div>","0","","","","","","","","","","","","","","","","","","","","","","","","",""
"","","","","","single-stim-button","100","192915","0.0-2.0-28.0-0.0","5f7058deeb83ab60bb836eae","F1","batch6","","2733","tol_tohand","","","","tol_peg_3","2733","2733","0","[[2,1,0],[0,0],[0]]","1","[[1,2,0],[3,0],[0]]","6","0","","","","","","5","","","","","","","","",""
"","","","","","single-stim-button","101","193247","0.0-2.0-28.0-1.0","5f7058deeb83ab60bb836eae","F1","batch6","","332","tol_toboard","","","","tol_peg_2","332","332","0","[[2,1,0],[3,0],[0]]","1","[[1,2,0],[3,0],[0]]","6","0","","","","","","5","","","","","","","","",""
"","","","","","single-stim-button","102","193665","0.0-2.0-28.1-0.1","5f7058deeb83ab60bb836eae","F1","batch6","","417","tol_tohand","","","","tol_peg_1","417","417","0","[[2,0,0],[3,0],[0]]","2","[[1,2,0],[3,0],[0]]","6","0","","","","","","5","","","","","","","","",""
"","","","","","single-stim-button","103","194132","0.0-2.0-28.1-1.1","5f7058deeb83ab60bb836eae","F1","batch6","","466","tol_toboard","","","","tol_peg_3","466","466","0","[[2,0,0],[3,0],[1]]","2","[[1,2,0],[3,0],[0]]","6","0","","","","","","5","","","","","","","","",""
"","","","","","single-stim-button","104","194981","0.0-2.0-28.2-0.2","5f7058deeb83ab60bb836eae","F1","batch6","","848","tol_tohand","","","","tol_peg_1","848","848","0","[[0,0,0],[3,0],[1]]","3","[[1,2,0],[3,0],[0]]","6","0","","","","","","5","","","","","","","","",""
"","","","","","single-stim-button","105","195281","0.0-2.0-28.2-1.2","5f7058deeb83ab60bb836eae","F1","batch6","","300","tol_toboard","","","","tol_peg_2","300","300","0","[[0,0,0],[3,2],[1]]","3","[[1,2,0],[3,0],[0]]","6","0","","","","","","5","","","","","","","","",""
"","","","","","single-stim-button","106","195598","0.0-2.0-28.3-0.3","5f7058deeb83ab60bb836eae","F1","batch6","","316","tol_tohand","","","","tol_peg_3","316","316","0","[[0,0,0],[3,2],[0]]","4","[[1,2,0],[3,0],[0]]","6","0","","","","","","5","","","","","","","","",""
"","","","","","single-stim-button","107","195981","0.0-2.0-28.3-1.3","5f7058deeb83ab60bb836eae","F1","batch6","","383","tol_toboard","","","","tol_peg_1","383","383","0","[[1,0,0],[3,2],[0]]","4","[[1,2,0],[3,0],[0]]","6","0","","","","","","5","","","","","","","","",""
"","","","","","single-stim-button","108","196598","0.0-2.0-28.4-0.4","5f7058deeb83ab60bb836eae","F1","batch6","","616","tol_tohand","","","","tol_peg_2","616","616","0","[[1,0,0],[3,0],[0]]","5","[[1,2,0],[3,0],[0]]","6","0","","","","","","5","","","","","","","","",""
"","","","","","single-stim-button","109","196880","0.0-2.0-28.4-1.4","5f7058deeb83ab60bb836eae","F1","batch6","","282","tol_toboard","","","","tol_peg_1","282","282","0","[[1,2,0],[3,0],[0]]","5","[[1,2,0],[3,0],[0]]","6","0","","","","","","5","","","","","","","","",""
"","","","","","poldrack-single-stim","110","197884","0.0-2.0-29.0","5f7058deeb83ab60bb836eae","F1","batch6","","-1","tol_feedback","","","true","","1000","1000","500","","","","","","-1","none","true","2733","4930","","","","","","","","","",""
"","","","","","html-button-response","111","198480","0.0-2.0-30.0","5f7058deeb83ab60bb836eae","F1","batch6","","595","tol_trial_num","<div class = centerbox><p class = center-block-text>problem <strong>8</strong> out of 25 problems</p></div>","0","","","","","","","","","","","","","","","","","","","","","","","","",""
"","","","","","single-stim-button","112","203565","0.0-2.0-31.0-0.0","5f7058deeb83ab60bb836eae","F1","batch6","","5083","tol_tohand","","","","tol_peg_2","5083","5083","0","[[0,0,0],[2,0],[1]]","1","[[1,2,0],[3,0],[0]]","7","0","","","","","","4","","","","","","","","",""
"","","","","","single-stim-button","113","204114","0.0-2.0-31.0-1.0","5f7058deeb83ab60bb836eae","F1","batch6","","549","tol_toboard","","","","tol_peg_1","549","549","0","[[3,0,0],[2,0],[1]]","1","[[1,2,0],[3,0],[0]]","7","0","","","","","","4","","","","","","","","",""
"","","","","","single-stim-button","114","204797","0.0-2.0-31.1-0.1","5f7058deeb83ab60bb836eae","F1","batch6","","683","tol_tohand","","","","tol_peg_3","683","683","0","[[3,0,0],[2,0],[0]]","2","[[1,2,0],[3,0],[0]]","7","0","","","","","","4","","","","","","","","",""
"","","","","","single-stim-button","115","205097","0.0-2.0-31.1-1.1","5f7058deeb83ab60bb836eae","F1","batch6","","299","tol_toboard","","","","tol_peg_2","299","299","0","[[3,0,0],[2,1],[0]]","2","[[1,2,0],[3,0],[0]]","7","0","","","","","","4","","","","","","","","",""
"","","","","","single-stim-button","116","205614","0.0-2.0-31.2-0.2","5f7058deeb83ab60bb836eae","F1","batch6","","516","tol_tohand","","","","tol_peg_1","516","516","0","[[0,0,0],[2,1],[0]]","3","[[1,2,0],[3,0],[0]]","7","0","","","","","","4","","","","","","","","",""
"","","","","","single-stim-button","117","206048","0.0-2.0-31.2-1.2","5f7058deeb83ab60bb836eae","F1","batch6","","433","tol_toboard","","","","tol_peg_3","433","433","0","[[0,0,0],[2,1],[3]]","3","[[1,2,0],[3,0],[0]]","7","0","","","","","","4","","","","","","","","",""
"","","","","","single-stim-button","118","206380","0.0-2.0-31.3-0.3","5f7058deeb83ab60bb836eae","F1","batch6","","332","tol_tohand","","","","tol_peg_2","332","332","0","[[0,0,0],[2,0],[3]]","4","[[1,2,0],[3,0],[0]]","7","0","","","","","","4","","","","","","","","",""
"","","","","","single-stim-button","119","206714","0.0-2.0-31.3-1.3","5f7058deeb83ab60bb836eae","F1","batch6","","334","tol_toboard","","","","tol_peg_1","334","334","0","[[1,0,0],[2,0],[3]]","4","[[1,2,0],[3,0],[0]]","7","0","","","","","","4","","","","","","","","",""
"","","","","","single-stim-button","120","207230","0.0-2.0-31.4-0.4","5f7058deeb83ab60bb836eae","F1","batch6","","516","tol_tohand","","","","tol_peg_2","516","516","0","[[1,0,0],[0,0],[3]]","5","[[1,2,0],[3,0],[0]]","7","0","","","","","","4","","","","","","","","",""
"","","","","","single-stim-button","121","207547","0.0-2.0-31.4-1.4","5f7058deeb83ab60bb836eae","F1","batch6","","317","tol_toboard","","","","tol_peg_1","317","317","0","[[1,2,0],[0,0],[3]]","5","[[1,2,0],[3,0],[0]]","7","0","","","","","","4","","","","","","","","",""
"","","","","","single-stim-button","122","208464","0.0-2.0-31.5-0.5","5f7058deeb83ab60bb836eae","F1","batch6","","917","tol_tohand","","","","tol_peg_3","917","917","0","[[1,2,0],[0,0],[0]]","6","[[1,2,0],[3,0],[0]]","7","0","","","","","","4","","","","","","","","",""
"","","","","","single-stim-button","123","208797","0.0-2.0-31.5-1.5","5f7058deeb83ab60bb836eae","F1","batch6","","333","tol_toboard","","","","tol_peg_2","333","333","0","[[1,2,0],[3,0],[0]]","6","[[1,2,0],[3,0],[0]]","7","0","","","","","","4","","","","","","","","",""
"","","","","","poldrack-single-stim","124","209801","0.0-2.0-32.0","5f7058deeb83ab60bb836eae","F1","batch6","","-1","tol_feedback","","","true","","1000","1000","500","","","","","","-1","none","true","5083","8047","","","","","","","","","",""
"","","","","","html-button-response","125","210430","0.0-2.0-33.0","5f7058deeb83ab60bb836eae","F1","batch6","","629.0999999940395","tol_trial_num","<div class = centerbox><p class = center-block-text>problem <strong>9</strong> out of 25 problems</p></div>","0","","","","","","","","","","","","","","","","","","","","","","","","",""
"","","","","","single-stim-button","126","219480","0.0-2.0-34.0-0.0","5f7058deeb83ab60bb836eae","F1","batch6","","9048","tol_tohand","","","","tol_peg_3","9048","9048","0","[[3,2,0],[0,0],[0]]","1","[[2,1,0],[3,0],[0]]","8","0","","","","","","6","","","","","","","","",""
"","","","","","single-stim-button","127","219996","0.0-2.0-34.0-1.0","5f7058deeb83ab60bb836eae","F1","batch6","","516","tol_toboard","","","","tol_peg_2","516","516","0","[[3,2,0],[1,0],[0]]","1","[[2,1,0],[3,0],[0]]","8","0","","","","","","6","","","","","","","","",""
"","","","","","single-stim-button","128","220414","0.0-2.0-34.1-0.1","5f7058deeb83ab60bb836eae","F1","batch6","","417","tol_tohand","","","","tol_peg_1","417","417","0","[[3,0,0],[1,0],[0]]","2","[[2,1,0],[3,0],[0]]","8","0","","","","","","6","","","","","","","","",""
"","","","","","single-stim-button","129","220847","0.0-2.0-34.1-1.1","5f7058deeb83ab60bb836eae","F1","batch6","","432","tol_toboard","","","","tol_peg_2","432","432","0","[[3,0,0],[1,2],[0]]","2","[[2,1,0],[3,0],[0]]","8","0","","","","","","6","","","","","","","","",""
"","","","","","single-stim-button","130","221263","0.0-2.0-34.2-0.2","5f7058deeb83ab60bb836eae","F1","batch6","","416","tol_tohand","","","","tol_peg_1","416","416","0","[[0,0,0],[1,2],[0]]","3","[[2,1,0],[3,0],[0]]","8","0","","","","","","6","","","","","","","","",""
"","","","","","single-stim-button","131","221713","0.0-2.0-34.2-1.2","5f7058deeb83ab60bb836eae","F1","batch6","","450","tol_toboard","","","","tol_peg_3","450","450","0","[[0,0,0],[1,2],[3]]","3","[[2,1,0],[3,0],[0]]","8","0","","","","","","6","","","","","","","","",""
"","","","","","single-stim-button","132","222030","0.0-2.0-34.3-0.3","5f7058deeb83ab60bb836eae","F1","batch6","","317","tol_tohand","","","","tol_peg_2","317","317","0","[[0,0,0],[1,0],[3]]","4","[[2,1,0],[3,0],[0]]","8","0","","","","","","6","","","","","","","","",""
"","","","","","single-stim-button","133","222413","0.0-2.0-34.3-1.3","5f7058deeb83ab60bb836eae","F1","batch6","","383","tol_toboard","","","","tol_peg_1","383","383","0","[[2,0,0],[1,0],[3]]","4","[[2,1,0],[3,0],[0]]","8","0","","","","","","6","","","","","","","","",""
"","","","","","single-stim-button","134","223612","0.0-2.0-34.4-0.4","5f7058deeb83ab60bb836eae","F1","batch6","","1199","tol_tohand","","","","tol_peg_2","1199","1199","0","[[2,0,0],[0,0],[3]]","5","[[2,1,0],[3,0],[0]]","8","0","","","","","","6","","","","","","","","",""
"","","","","","single-stim-button","135","224013","0.0-2.0-34.4-1.4","5f7058deeb83ab60bb836eae","F1","batch6","","400","tol_toboard","","","","tol_peg_1","400","400","0","[[2,1,0],[0,0],[3]]","5","[[2,1,0],[3,0],[0]]","8","0","","","","","","6","","","","","","","","",""
"","","","","","single-stim-button","136","224429","0.0-2.0-34.5-0.5","5f7058deeb83ab60bb836eae","F1","batch6","","415","tol_tohand","","","","tol_peg_3","415","415","0","[[2,1,0],[0,0],[0]]","6","[[2,1,0],[3,0],[0]]","8","0","","","","","","6","","","","","","","","",""
"","","","","","single-stim-button","137","224763","0.0-2.0-34.5-1.5","5f7058deeb83ab60bb836eae","F1","batch6","","333","tol_toboard","","","","tol_peg_2","333","333","0","[[2,1,0],[3,0],[0]]","6","[[2,1,0],[3,0],[0]]","8","0","","","","","","6","","","","","","","","",""
"","","","","","poldrack-single-stim","138","225766","0.0-2.0-35.0","5f7058deeb83ab60bb836eae","F1","batch6","","-1","tol_feedback","","","true","","1000","1000","500","","","","","","-1","none","true","9048","11812","","","","","","","","","",""
"","","","","","html-button-response","139","226429","0.0-2.0-36.0","5f7058deeb83ab60bb836eae","F1","batch6","","662.3999999910593","tol_trial_num","<div class = centerbox><p class = center-block-text>problem <strong>10</strong> out of 25 problems</p></div>","0","","","","","","","","","","","","","","","","","","","","","","","","",""
"","","","","","single-stim-button","140","229129","0.0-2.0-37.0-0.0","5f7058deeb83ab60bb836eae","F1","batch6","","2700","tol_tohand","","","","tol_peg_2","2700","2700","0","[[3,0,0],[0,0],[2]]","1","[[3,0,0],[2,1],[0]]","9","0","","","","","","3","","","","","","","","",""
"","","","","","single-stim-button","141","229478","0.0-2.0-37.0-1.0","5f7058deeb83ab60bb836eae","F1","batch6","","349","tol_toboard","","","","tol_peg_1","349","349","0","[[3,1,0],[0,0],[2]]","1","[[3,0,0],[2,1],[0]]","9","0","","","","","","3","","","","","","","","",""
"","","","","","single-stim-button","142","229929","0.0-2.0-37.1-0.1","5f7058deeb83ab60bb836eae","F1","batch6","","450","tol_tohand","","","","tol_peg_3","450","450","0","[[3,1,0],[0,0],[0]]","2","[[3,0,0],[2,1],[0]]","9","0","","","","","","3","","","","","","","","",""
"","","","","","single-stim-button","143","230346","0.0-2.0-37.1-1.1","5f7058deeb83ab60bb836eae","F1","batch6","","417","tol_toboard","","","","tol_peg_2","417","417","0","[[3,1,0],[2,0],[0]]","2","[[3,0,0],[2,1],[0]]","9","0","","","","","","3","","","","","","","","",""
"","","","","","single-stim-button","144","230678","0.0-2.0-37.2-0.2","5f7058deeb83ab60bb836eae","F1","batch6","","332","tol_tohand","","","","tol_peg_1","332","332","0","[[3,0,0],[2,0],[0]]","3","[[3,0,0],[2,1],[0]]","9","0","","","","","","3","","","","","","","","",""
"","","","","","single-stim-button","145","230963","0.0-2.0-37.2-1.2","5f7058deeb83ab60bb836eae","F1","batch6","","283","tol_toboard","","","","tol_peg_2","283","283","0","[[3,0,0],[2,1],[0]]","3","[[3,0,0],[2,1],[0]]","9","0","","","","","","3","","","","","","","","",""
"","","","","","poldrack-single-stim","146","232857","0.0-2.0-38.0","5f7058deeb83ab60bb836eae","F1","batch6","","-1","tol_feedback","","","true","","1000","1000","500","","","","","","-1","none","true","2700","3482","","","","","","","","","",""
"","","","","","html-button-response","147","233945","0.0-2.0-39.0","5f7058deeb83ab60bb836eae","F1","batch6","","1087.7000000029802","tol_trial_num","<div class = centerbox><p class = center-block-text>problem <strong>11</strong> out of 25 problems</p></div>","0","","","","","","","","","","","","","","","","","","","","","","","","",""
"","","","","","single-stim-button","148","237762","0.0-2.0-40.0-0.0","5f7058deeb83ab60bb836eae","F1","batch6","","3815","tol_tohand","","","","tol_peg_2","3815","3815","0","[[1,2,0],[0,0],[0]]","1","[[2,0,0],[1,3],[0]]","10","0","","","","","","6","","","","","","","","",""
"","","","","","single-stim-button","149","239711","0.0-2.0-40.0-1.0","5f7058deeb83ab60bb836eae","F1","batch6","","1949","tol_toboard","","","","tol_peg_3","1949","1949","0","[[1,2,0],[0,0],[3]]","1","[[2,0,0],[1,3],[0]]","10","0","","","","","","6","","","","","","","","",""
"","","","","","single-stim-button","150","240679","0.0-2.0-40.1-0.1","5f7058deeb83ab60bb836eae","F1","batch6","","967","tol_tohand","","","","tol_peg_1","967","967","0","[[1,0,0],[0,0],[3]]","2","[[2,0,0],[1,3],[0]]","10","0","","","","","","6","","","","","","","","",""
"","","","","","single-stim-button","151","241178","0.0-2.0-40.1-1.1","5f7058deeb83ab60bb836eae","F1","batch6","","499","tol_toboard","","","","tol_peg_2","499","499","0","[[1,0,0],[2,0],[3]]","2","[[2,0,0],[1,3],[0]]","10","0","","","","","","6","","","","","","","","",""
"","","","","","single-stim-button","152","241879","0.0-2.0-40.2-0.2","5f7058deeb83ab60bb836eae","F1","batch6","","700","tol_tohand","","","","tol_peg_1","700","700","0","[[0,0,0],[2,0],[3]]","3","[[2,0,0],[1,3],[0]]","10","0","","","","","","6","","","","","","","","",""
"","","","","","single-stim-button","153","242928","0.0-2.0-40.2-1.2","5f7058deeb83ab60bb836eae","F1","batch6","","1048","tol_toboard","","","","tol_peg_2","1048","1048","0","[[0,0,0],[2,1],[3]]","3","[[2,0,0],[1,3],[0]]","10","0","","","","","","6","","","","","","","","",""
"","","","","","single-stim-button","154","243329","0.0-2.0-40.3-0.3","5f7058deeb83ab60bb836eae","F1","batch6","","401","tol_tohand","","","","tol_peg_3","401","401","0","[[0,0,0],[2,1],[0]]","4","[[2,0,0],[1,3],[0]]","10","0","","","","","","6","","","","","","","","",""
"","","","","","single-stim-button","155","244079","0.0-2.0-40.3-1.3","5f7058deeb83ab60bb836eae","F1","batch6","","749","tol_toboard","","","","tol_peg_1","749","749","0","[[3,0,0],[2,1],[0]]","4","[[2,0,0],[1,3],[0]]","10","0","","","","","","6","","","","","","","","",""
"","","","","","single-stim-button","156","244445","0.0-2.0-40.4-0.4","5f7058deeb83ab60bb836eae","F1","batch6","","366","tol_tohand","","","","tol_peg_2","366","366","0","[[3,0,0],[2,0],[0]]","5","[[2,0,0],[1,3],[0]]","10","0","","","","","","6","","","","","","","","",""
"","","","","","single-stim-button","157","244928","0.0-2.0-40.4-1.4","5f7058deeb83ab60bb836eae","F1","batch6","","483","tol_toboard","","","","tol_peg_3","483","483","0","[[3,0,0],[2,0],[1]]","5","[[2,0,0],[1,3],[0]]","10","0","","","","","","6","","","","","","","","",""
"","","","","","single-stim-button","158","245228","0.0-2.0-40.5-0.5","5f7058deeb83ab60bb836eae","F1","batch6","","300","tol_tohand","","","","tol_peg_2","300","300","0","[[3,0,0],[0,0],[1]]","6","[[2,0,0],[1,3],[0]]","10","0","","","","","","6","","","","","","","","",""
"","","","","","single-stim-button","159","245512","0.0-2.0-40.5-1.5","5f7058deeb83ab60bb836eae","F1","batch6","","282","tol_toboard","","","","tol_peg_1","282","282","0","[[3,2,0],[0,0],[1]]","6","[[2,0,0],[1,3],[0]]","10","0","","","","","","6","","","","","","","","",""
"","","","","","single-stim-button","160","245978","0.0-2.0-40.6-0.6","5f7058deeb83ab60bb836eae","F1","batch6","","466","tol_tohand","","","","tol_peg_3","466","466","0","[[3,2,0],[0,0],[0]]","7","[[2,0,0],[1,3],[0]]","10","0","","","","","","6","","","","","","","","",""
"","","","","","single-stim-button","161","246311","0.0-2.0-40.6-1.6","5f7058deeb83ab60bb836eae","F1","batch6","","333","tol_toboard","","","","tol_peg_2","333","333","0","[[3,2,0],[1,0],[0]]","7","[[2,0,0],[1,3],[0]]","10","0","","","","","","6","","","","","","","","",""
"","","","","","single-stim-button","162","246662","0.0-2.0-40.7-0.7","5f7058deeb83ab60bb836eae","F1","batch6","","350","tol_tohand","","","","tol_peg_1","350","350","0","[[3,0,0],[1,0],[0]]","8","[[2,0,0],[1,3],[0]]","10","0","","","","","","6","","","","","","","","",""
"","","","","","single-stim-button","163","247012","0.0-2.0-40.7-1.7","5f7058deeb83ab60bb836eae","F1","batch6","","349","tol_toboard","","","","tol_peg_3","349","349","0","[[3,0,0],[1,0],[2]]","8","[[2,0,0],[1,3],[0]]","10","0","","","","","","6","","","","","","","","",""
"","","","","","single-stim-button","164","247611","0.0-2.0-40.8-0.8","5f7058deeb83ab60bb836eae","F1","batch6","","599","tol_tohand","","","","tol_peg_1","599","599","0","[[0,0,0],[1,0],[2]]","9","[[2,0,0],[1,3],[0]]","10","0","","","","","","6","","","","","","","","",""
"","","","","","single-stim-button","165","247962","0.0-2.0-40.8-1.8","5f7058deeb83ab60bb836eae","F1","batch6","","350","tol_toboard","","","","tol_peg_2","350","350","0","[[0,0,0],[1,3],[2]]","9","[[2,0,0],[1,3],[0]]","10","0","","","","","","6","","","","","","","","",""
"","","","","","single-stim-button","166","248312","0.0-2.0-40.9-0.9","5f7058deeb83ab60bb836eae","F1","batch6","","350","tol_tohand","","","","tol_peg_3","350","350","0","[[0,0,0],[1,3],[0]]","10","[[2,0,0],[1,3],[0]]","10","0","","","","","","6","","","","","","","","",""
"","","","","","single-stim-button","167","248612","0.0-2.0-40.9-1.9","5f7058deeb83ab60bb836eae","F1","batch6","","300","tol_toboard","","","","tol_peg_1","300","300","0","[[2,0,0],[1,3],[0]]","10","[[2,0,0],[1,3],[0]]","10","0","","","","","","6","","","","","","","","",""
"","","","","","poldrack-single-stim","168","249617","0.0-2.0-41.0","5f7058deeb83ab60bb836eae","F1","batch6","","-1","tol_feedback","","","true","","1000","1000","500","","","","","","-1","none","true","3815","8314","","","","","","","","","",""
"","","","","","html-button-response","169","250211","0.0-2.0-42.0","5f7058deeb83ab60bb836eae","F1","batch6","","593.0999999940395","tol_trial_num","<div class = centerbox><p class = center-block-text>problem <strong>12</strong> out of 25 problems</p></div>","0","","","","","","","","","","","","","","","","","","","","","","","","",""
"","","","","","single-stim-button","170","253994","0.0-2.0-43.0-0.0","5f7058deeb83ab60bb836eae","F1","batch6","","3782","tol_tohand","","","","tol_peg_1","3782","3782","0","[[1,0,0],[3,0],[0]]","1","[[2,3,0],[0,0],[1]]","11","0","","","","","","4","","","","","","","","",""
"","","","","","single-stim-button","171","254378","0.0-2.0-43.0-1.0","5f7058deeb83ab60bb836eae","F1","batch6","","384","tol_toboard","","","","tol_peg_2","384","384","0","[[1,0,0],[3,2],[0]]","1","[[2,3,0],[0,0],[1]]","11","0","","","","","","4","","","","","","","","",""
"","","","","","single-stim-button","172","254728","0.0-2.0-43.1-0.1","5f7058deeb83ab60bb836eae","F1","batch6","","348","tol_tohand","","","","tol_peg_1","348","348","0","[[0,0,0],[3,2],[0]]","2","[[2,3,0],[0,0],[1]]","11","0","","","","","","4","","","","","","","","",""
"","","","","","single-stim-button","173","255261","0.0-2.0-43.1-1.1","5f7058deeb83ab60bb836eae","F1","batch6","","533","tol_toboard","","","","tol_peg_3","533","533","0","[[0,0,0],[3,2],[1]]","2","[[2,3,0],[0,0],[1]]","11","0","","","","","","4","","","","","","","","",""
"","","","","","single-stim-button","174","255611","0.0-2.0-43.2-0.2","5f7058deeb83ab60bb836eae","F1","batch6","","350","tol_tohand","","","","tol_peg_2","350","350","0","[[0,0,0],[3,0],[1]]","3","[[2,3,0],[0,0],[1]]","11","0","","","","","","4","","","","","","","","",""
"","","","","","single-stim-button","175","255960","0.0-2.0-43.2-1.2","5f7058deeb83ab60bb836eae","F1","batch6","","349","tol_toboard","","","","tol_peg_1","349","349","0","[[2,0,0],[3,0],[1]]","3","[[2,3,0],[0,0],[1]]","11","0","","","","","","4","","","","","","","","",""
"","","","","","single-stim-button","176","256577","0.0-2.0-43.3-0.3","5f7058deeb83ab60bb836eae","F1","batch6","","616","tol_tohand","","","","tol_peg_2","616","616","0","[[2,0,0],[0,0],[1]]","4","[[2,3,0],[0,0],[1]]","11","0","","","","","","4","","","","","","","","",""
"","","","","","single-stim-button","177","258494","0.0-2.0-43.3-1.3","5f7058deeb83ab60bb836eae","F1","batch6","","1916","tol_toboard","","","","tol_peg_1","1916","1916","0","[[2,3,0],[0,0],[1]]","4","[[2,3,0],[0,0],[1]]","11","0","","","","","","4","","","","","","","","",""
"","","","","","poldrack-single-stim","178","259496","0.0-2.0-44.0","5f7058deeb83ab60bb836eae","F1","batch6","","-1","tol_feedback","","","true","","1000","1000","500","","","","","","-1","none","true","3782","5096","","","","","","","","","",""
"","","","","","html-button-response","179","260211","0.0-2.0-45.0","5f7058deeb83ab60bb836eae","F1","batch6","","714.7000000029802","tol_trial_num","<div class = centerbox><p class = center-block-text>problem <strong>13</strong> out of 25 problems</p></div>","0","","","","","","","","","","","","","","","","","","","","","","","","",""
"","","","","","single-stim-button","180","264394","0.0-2.0-46.0-0.0","5f7058deeb83ab60bb836eae","F1","batch6","","4182","tol_tohand","","","","tol_peg_2","4182","4182","0","[[1,2,0],[0,0],[0]]","1","[[0,0,0],[2,3],[1]]","12","0","","","","","","4","","","","","","","","",""
"","","","","","single-stim-button","181","264861","0.0-2.0-46.0-1.0","5f7058deeb83ab60bb836eae","F1","batch6","","466","tol_toboard","","","","tol_peg_3","466","466","0","[[1,2,0],[0,0],[3]]","1","[[0,0,0],[2,3],[1]]","12","0","","","","","","4","","","","","","","","",""
"","","","","","single-stim-button","182","265244","0.0-2.0-46.1-0.1","5f7058deeb83ab60bb836eae","F1","batch6","","383","tol_tohand","","","","tol_peg_1","383","383","0","[[1,0,0],[0,0],[3]]","2","[[0,0,0],[2,3],[1]]","12","0","","","","","","4","","","","","","","","",""
"","","","","","single-stim-button","183","265577","0.0-2.0-46.1-1.1","5f7058deeb83ab60bb836eae","F1","batch6","","333","tol_toboard","","","","tol_peg_2","333","333","0","[[1,0,0],[2,0],[3]]","2","[[0,0,0],[2,3],[1]]","12","0","","","","","","4","","","","","","","","",""
"","","","","","single-stim-button","184","265993","0.0-2.0-46.2-0.2","5f7058deeb83ab60bb836eae","F1","batch6","","416","tol_tohand","","","","tol_peg_3","416","416","0","[[1,0,0],[2,0],[0]]","3","[[0,0,0],[2,3],[1]]","12","0","","","","","","4","","","","","","","","",""
"","","","","","single-stim-button","185","266344","0.0-2.0-46.2-1.2","5f7058deeb83ab60bb836eae","F1","batch6","","350","tol_toboard","","","","tol_peg_2","350","350","0","[[1,0,0],[2,3],[0]]","3","[[0,0,0],[2,3],[1]]","12","0","","","","","","4","","","","","","","","",""
"","","","","","single-stim-button","186","266794","0.0-2.0-46.3-0.3","5f7058deeb83ab60bb836eae","F1","batch6","","450","tol_tohand","","","","tol_peg_1","450","450","0","[[0,0,0],[2,3],[0]]","4","[[0,0,0],[2,3],[1]]","12","0","","","","","","4","","","","","","","","",""
"","","","","","single-stim-button","187","267210","0.0-2.0-46.3-1.3","5f7058deeb83ab60bb836eae","F1","batch6","","415","tol_toboard","","","","tol_peg_3","415","415","0","[[0,0,0],[2,3],[1]]","4","[[0,0,0],[2,3],[1]]","12","0","","","","","","4","","","","","","","","",""
"","","","","","poldrack-single-stim","188","268216","0.0-2.0-47.0","5f7058deeb83ab60bb836eae","F1","batch6","","-1","tol_feedback","","","true","","1000","1000","500","","","","","","-1","none","true","4182","5431","","","","","","","","","",""
"","","","","","html-button-response","189","270111","0.0-2.0-48.0","5f7058deeb83ab60bb836eae","F1","batch6","","1894.7000000029802","attention_check","<p class = block-text>How many balls are in your board<br></p>","1","true","","","","","","","","","","","","","","","","","","","","","","","",""
"","","","","","html-button-response","190","270793","0.0-2.0-49.0","5f7058deeb83ab60bb836eae","F1","batch6","","681.2999999970198","tol_trial_num","<div class = centerbox><p class = center-block-text>problem <strong>14</strong> out of 25 problems</p></div>","0","","","","","","","","","","","","","","","","","","","","","","","","",""
"","","","","","single-stim-button","191","273211","0.0-2.0-50.0-0.0","5f7058deeb83ab60bb836eae","F1","batch6","","2416","tol_tohand","","","","tol_peg_1","2416","2416","0","[[2,0,0],[3,0],[0]]","1","[[1,2,0],[3,0],[0]]","13","0","","","","","","4","","","","","","","","",""
"","","","","","single-stim-button","192","276260","0.0-2.0-50.0-1.0","5f7058deeb83ab60bb836eae","F1","batch6","","3049","tol_toboard","","","","tol_peg_2","3049","3049","0","[[2,0,0],[3,1],[0]]","1","[[1,2,0],[3,0],[0]]","13","0","","","","","","4","","","","","","","","",""
"","","","","","single-stim-button","193","276743","0.0-2.0-50.1-0.1","5f7058deeb83ab60bb836eae","F1","batch6","","483","tol_tohand","","","","tol_peg_1","483","483","0","[[0,0,0],[3,1],[0]]","2","[[1,2,0],[3,0],[0]]","13","0","","","","","","4","","","","","","","","",""
"","","","","","single-stim-button","194","277310","0.0-2.0-50.1-1.1","5f7058deeb83ab60bb836eae","F1","batch6","","566","tol_toboard","","","","tol_peg_3","566","566","0","[[0,0,0],[3,1],[2]]","2","[[1,2,0],[3,0],[0]]","13","0","","","","","","4","","","","","","","","",""
"","","","","","single-stim-button","195","277660","0.0-2.0-50.2-0.2","5f7058deeb83ab60bb836eae","F1","batch6","","350","tol_tohand","","","","tol_peg_2","350","350","0","[[0,0,0],[3,0],[2]]","3","[[1,2,0],[3,0],[0]]","13","0","","","","","","4","","","","","","","","",""
"","","","","","single-stim-button","196","277993","0.0-2.0-50.2-1.2","5f7058deeb83ab60bb836eae","F1","batch6","","333","tol_toboard","","","","tol_peg_1","333","333","0","[[1,0,0],[3,0],[2]]","3","[[1,2,0],[3,0],[0]]","13","0","","","","","","4","","","","","","","","",""
"","","","","","single-stim-button","197","278493","0.0-2.0-50.3-0.3","5f7058deeb83ab60bb836eae","F1","batch6","","500","tol_tohand","","","","tol_peg_3","500","500","0","[[1,0,0],[3,0],[0]]","4","[[1,2,0],[3,0],[0]]","13","0","","","","","","4","","","","","","","","",""
"","","","","","single-stim-button","198","278910","0.0-2.0-50.3-1.3","5f7058deeb83ab60bb836eae","F1","batch6","","417","tol_toboard","","","","tol_peg_1","417","417","0","[[1,2,0],[3,0],[0]]","4","[[1,2,0],[3,0],[0]]","13","0","","","","","","4","","","","","","","","",""
"","","","","","poldrack-single-stim","199","279913","0.0-2.0-51.0","5f7058deeb83ab60bb836eae","F1","batch6","","-1","tol_feedback","","","true","","1000","1000","500","","","","","","-1","none","true","2416","3749","","","","","","","","","",""
"","","","","","html-button-response","200","280660","0.0-2.0-52.0","5f7058deeb83ab60bb836eae","F1","batch6","","746.7000000029802","tol_trial_num","<div class = centerbox><p class = center-block-text>problem <strong>15</strong> out of 25 problems</p></div>","0","","","","","","","","","","","","","","","","","","","","","","","","",""
"","","","","","single-stim-button","201","283926","0.0-2.0-53.0-0.0","5f7058deeb83ab60bb836eae","F1","batch6","","3265","tol_tohand","","","","tol_peg_1","3265","3265","0","[[1,0,0],[3,0],[0]]","1","[[2,0,0],[3,0],[1]]","14","0","","","","","","3","","","","","","","","",""
"","","","","","single-stim-button","202","284359","0.0-2.0-53.0-1.0","5f7058deeb83ab60bb836eae","F1","batch6","","432","tol_toboard","","","","tol_peg_2","432","432","0","[[1,0,0],[3,2],[0]]","1","[[2,0,0],[3,0],[1]]","14","0","","","","","","3","","","","","","","","",""
"","","","","","single-stim-button","203","284676","0.0-2.0-53.1-0.1","5f7058deeb83ab60bb836eae","F1","batch6","","316","tol_tohand","","","","tol_peg_1","316","316","0","[[0,0,0],[3,2],[0]]","2","[[2,0,0],[3,0],[1]]","14","0","","","","","","3","","","","","","","","",""
"","","","","","single-stim-button","204","285010","0.0-2.0-53.1-1.1","5f7058deeb83ab60bb836eae","F1","batch6","","334","tol_toboard","","","","tol_peg_3","334","334","0","[[0,0,0],[3,2],[1]]","2","[[2,0,0],[3,0],[1]]","14","0","","","","","","3","","","","","","","","",""
"","","","","","single-stim-button","205","285360","0.0-2.0-53.2-0.2","5f7058deeb83ab60bb836eae","F1","batch6","","349","tol_tohand","","","","tol_peg_2","349","349","0","[[0,0,0],[3,0],[1]]","3","[[2,0,0],[3,0],[1]]","14","0","","","","","","3","","","","","","","","",""
"","","","","","single-stim-button","206","285660","0.0-2.0-53.2-1.2","5f7058deeb83ab60bb836eae","F1","batch6","","300","tol_toboard","","","","tol_peg_1","300","300","0","[[2,0,0],[3,0],[1]]","3","[[2,0,0],[3,0],[1]]","14","0","","","","","","3","","","","","","","","",""
"","","","","","poldrack-single-stim","207","286663","0.0-2.0-54.0","5f7058deeb83ab60bb836eae","F1","batch6","","-1","tol_feedback","","","true","","1000","1000","500","","","","","","-1","none","true","3265","3930","","","","","","","","","",""
"","","","","","html-button-response","208","287226","0.0-2.0-55.0","5f7058deeb83ab60bb836eae","F1","batch6","","562.4000000059605","tol_trial_num","<div class = centerbox><p class = center-block-text>problem <strong>16</strong> out of 25 problems</p></div>","0","","","","","","","","","","","","","","","","","","","","","","","","",""
"","","","","","single-stim-button","209","290325","0.0-2.0-56.0-0.0","5f7058deeb83ab60bb836eae","F1","batch6","","3098","tol_tohand","","","","tol_peg_2","3098","3098","0","[[0,0,0],[2,0],[1]]","1","[[2,3,0],[1,0],[0]]","15","0","","","","","","7","","","","","","","","",""
"","","","","","single-stim-button","210","290826","0.0-2.0-56.0-1.0","5f7058deeb83ab60bb836eae","F1","batch6","","500","tol_toboard","","","","tol_peg_1","500","500","0","[[3,0,0],[2,0],[1]]","1","[[2,3,0],[1,0],[0]]","15","0","","","","","","7","","","","","","","","",""
"","","","","","single-stim-button","211","291176","0.0-2.0-56.1-0.1","5f7058deeb83ab60bb836eae","F1","batch6","","349","tol_tohand","","","","tol_peg_2","349","349","0","[[3,0,0],[0,0],[1]]","2","[[2,3,0],[1,0],[0]]","15","0","","","","","","7","","","","","","","","",""
"","","","","","single-stim-button","212","291476","0.0-2.0-56.1-1.1","5f7058deeb83ab60bb836eae","F1","batch6","","299","tol_toboard","","","","tol_peg_1","299","299","0","[[3,2,0],[0,0],[1]]","2","[[2,3,0],[1,0],[0]]","15","0","","","","","","7","","","","","","","","",""
"","","","","","single-stim-button","213","291860","0.0-2.0-56.2-0.2","5f7058deeb83ab60bb836eae","F1","batch6","","384","tol_tohand","","","","tol_peg_3","384","384","0","[[3,2,0],[0,0],[0]]","3","[[2,3,0],[1,0],[0]]","15","0","","","","","","7","","","","","","","","",""
"","","","","","single-stim-button","214","292225","0.0-2.0-56.2-1.2","5f7058deeb83ab60bb836eae","F1","batch6","","365","tol_toboard","","","","tol_peg_2","365","365","0","[[3,2,0],[1,0],[0]]","3","[[2,3,0],[1,0],[0]]","15","0","","","","","","7","","","","","","","","",""
"","","","","","single-stim-button","215","292559","0.0-2.0-56.3-0.3","5f7058deeb83ab60bb836eae","F1","batch6","","333","tol_tohand","","","","tol_peg_1","333","333","0","[[3,0,0],[1,0],[0]]","4","[[2,3,0],[1,0],[0]]","15","0","","","","","","7","","","","","","","","",""
"","","","","","single-stim-button","216","294459","0.0-2.0-56.3-1.3","5f7058deeb83ab60bb836eae","F1","batch6","","1898","tol_toboard","","","","tol_peg_2","1898","1898","0","[[3,0,0],[1,2],[0]]","4","[[2,3,0],[1,0],[0]]","15","0","","","","","","7","","","","","","","","",""
"","","","","","single-stim-button","217","294760","0.0-2.0-56.4-0.4","5f7058deeb83ab60bb836eae","F1","batch6","","301","tol_tohand","","","","tol_peg_1","301","301","0","[[0,0,0],[1,2],[0]]","5","[[2,3,0],[1,0],[0]]","15","0","","","","","","7","","","","","","","","",""
"","","","","","single-stim-button","218","295126","0.0-2.0-56.4-1.4","5f7058deeb83ab60bb836eae","F1","batch6","","366","tol_toboard","","","","tol_peg_3","366","366","0","[[0,0,0],[1,2],[3]]","5","[[2,3,0],[1,0],[0]]","15","0","","","","","","7","","","","","","","","",""
"","","","","","single-stim-button","219","295459","0.0-2.0-56.5-0.5","5f7058deeb83ab60bb836eae","F1","batch6","","333","tol_tohand","","","","tol_peg_2","333","333","0","[[0,0,0],[1,0],[3]]","6","[[2,3,0],[1,0],[0]]","15","0","","","","","","7","","","","","","","","",""
"","","","","","single-stim-button","220","295925","0.0-2.0-56.5-1.5","5f7058deeb83ab60bb836eae","F1","batch6","","466","tol_toboard","","","","tol_peg_1","466","466","0","[[2,0,0],[1,0],[3]]","6","[[2,3,0],[1,0],[0]]","15","0","","","","","","7","","","","","","","","",""
"","","","","","single-stim-button","221","296359","0.0-2.0-56.6-0.6","5f7058deeb83ab60bb836eae","F1","batch6","","432","tol_tohand","","","","tol_peg_3","432","432","0","[[2,0,0],[1,0],[0]]","7","[[2,3,0],[1,0],[0]]","15","0","","","","","","7","","","","","","","","",""
"","","","","","single-stim-button","222","296842","0.0-2.0-56.6-1.6","5f7058deeb83ab60bb836eae","F1","batch6","","483","tol_toboard","","","","tol_peg_1","483","483","0","[[2,3,0],[1,0],[0]]","7","[[2,3,0],[1,0],[0]]","15","0","","","","","","7","","","","","","","","",""
"","","","","","poldrack-single-stim","223","297846","0.0-2.0-57.0","5f7058deeb83ab60bb836eae","F1","batch6","","-1","tol_feedback","","","true","","1000","1000","500","","","","","","-1","none","true","3098","5230","","","","","","","","","",""
"","","","","","html-button-response","224","298575","0.0-2.0-58.0","5f7058deeb83ab60bb836eae","F1","batch6","","728.3999999910593","tol_trial_num","<div class = centerbox><p class = center-block-text>problem <strong>17</strong> out of 25 problems</p></div>","0","","","","","","","","","","","","","","","","","","","","","","","","",""
"","","","","","single-stim-button","225","301475","0.0-2.0-59.0-0.0","5f7058deeb83ab60bb836eae","F1","batch6","","2899","tol_tohand","","","","tol_peg_2","2899","2899","0","[[1,2,0],[0,0],[0]]","1","[[3,1,0],[2,0],[0]]","16","0","","","","","","5","","","","","","","","",""
"","","","","","single-stim-button","226","301843","0.0-2.0-59.0-1.0","5f7058deeb83ab60bb836eae","F1","batch6","","368","tol_toboard","","","","tol_peg_3","368","368","0","[[1,2,0],[0,0],[3]]","1","[[3,1,0],[2,0],[0]]","16","0","","","","","","5","","","","","","","","",""
"","","","","","single-stim-button","227","302242","0.0-2.0-59.1-0.1","5f7058deeb83ab60bb836eae","F1","batch6","","398","tol_tohand","","","","tol_peg_1","398","398","0","[[1,0,0],[0,0],[3]]","2","[[3,1,0],[2,0],[0]]","16","0","","","","","","5","","","","","","","","",""
"","","","","","single-stim-button","228","302658","0.0-2.0-59.1-1.1","5f7058deeb83ab60bb836eae","F1","batch6","","416","tol_toboard","","","","tol_peg_2","416","416","0","[[1,0,0],[2,0],[3]]","2","[[3,1,0],[2,0],[0]]","16","0","","","","","","5","","","","","","","","",""
"","","","","","single-stim-button","229","303359","0.0-2.0-59.2-0.2","5f7058deeb83ab60bb836eae","F1","batch6","","701","tol_tohand","","","","tol_peg_1","701","701","0","[[0,0,0],[2,0],[3]]","3","[[3,1,0],[2,0],[0]]","16","0","","","","","","5","","","","","","","","",""
"","","","","","single-stim-button","230","303692","0.0-2.0-59.2-1.2","5f7058deeb83ab60bb836eae","F1","batch6","","332","tol_toboard","","","","tol_peg_2","332","332","0","[[0,0,0],[2,1],[3]]","3","[[3,1,0],[2,0],[0]]","16","0","","","","","","5","","","","","","","","",""
"","","","","","single-stim-button","231","304042","0.0-2.0-59.3-0.3","5f7058deeb83ab60bb836eae","F1","batch6","","350","tol_tohand","","","","tol_peg_3","350","350","0","[[0,0,0],[2,1],[0]]","4","[[3,1,0],[2,0],[0]]","16","0","","","","","","5","","","","","","","","",""
"","","","","","single-stim-button","232","304392","0.0-2.0-59.3-1.3","5f7058deeb83ab60bb836eae","F1","batch6","","350","tol_toboard","","","","tol_peg_1","350","350","0","[[3,0,0],[2,1],[0]]","4","[[3,1,0],[2,0],[0]]","16","0","","","","","","5","","","","","","","","",""
"","","","","","single-stim-button","233","304792","0.0-2.0-59.4-0.4","5f7058deeb83ab60bb836eae","F1","batch6","","399","tol_tohand","","","","tol_peg_2","399","399","0","[[3,0,0],[2,0],[0]]","5","[[3,1,0],[2,0],[0]]","16","0","","","","","","5","","","","","","","","",""
"","","","","","single-stim-button","234","305042","0.0-2.0-59.4-1.4","5f7058deeb83ab60bb836eae","F1","batch6","","249","tol_toboard","","","","tol_peg_1","249","249","0","[[3,1,0],[2,0],[0]]","5","[[3,1,0],[2,0],[0]]","16","0","","","","","","5","","","","","","","","",""
"","","","","","poldrack-single-stim","235","306048","0.0-2.0-60.0","5f7058deeb83ab60bb836eae","F1","batch6","","-1","tol_feedback","","","true","","1000","1000","500","","","","","","-1","none","true","2899","4747","","","","","","","","","",""
"","","","","","html-button-response","236","306691","0.0-2.0-61.0","5f7058deeb83ab60bb836eae","F1","batch6","","642.6000000089407","tol_trial_num","<div class = centerbox><p class = center-block-text>problem <strong>18</strong> out of 25 problems</p></div>","0","","","","","","","","","","","","","","","","","","","","","","","","",""
"","","","","","single-stim-button","237","308691","0.0-2.0-62.0-0.0","5f7058deeb83ab60bb836eae","F1","batch6","","2000","tol_tohand","","","","tol_peg_1","2000","2000","0","[[1,0,0],[3,0],[0]]","1","[[3,0,0],[2,0],[1]]","17","0","","","","","","5","","","","","","","","",""
"","","","","","single-stim-button","238","308975","0.0-2.0-62.0-1.0","5f7058deeb83ab60bb836eae","F1","batch6","","282","tol_toboard","","","","tol_peg_2","282","282","0","[[1,0,0],[3,2],[0]]","1","[[3,0,0],[2,0],[1]]","17","0","","","","","","5","","","","","","","","",""
"","","","","","single-stim-button","239","309292","0.0-2.0-62.1-0.1","5f7058deeb83ab60bb836eae","F1","batch6","","316","tol_tohand","","","","tol_peg_1","316","316","0","[[0,0,0],[3,2],[0]]","2","[[3,0,0],[2,0],[1]]","17","0","","","","","","5","","","","","","","","",""
"","","","","","single-stim-button","240","309658","0.0-2.0-62.1-1.1","5f7058deeb83ab60bb836eae","F1","batch6","","366","tol_toboard","","","","tol_peg_3","366","366","0","[[0,0,0],[3,2],[1]]","2","[[3,0,0],[2,0],[1]]","17","0","","","","","","5","","","","","","","","",""
"","","","","","single-stim-button","241","310259","0.0-2.0-62.2-0.2","5f7058deeb83ab60bb836eae","F1","batch6","","599","tol_tohand","","","","tol_peg_2","599","599","0","[[0,0,0],[3,0],[1]]","3","[[3,0,0],[2,0],[1]]","17","0","","","","","","5","","","","","","","","",""
"","","","","","single-stim-button","242","310976","0.0-2.0-62.2-1.2","5f7058deeb83ab60bb836eae","F1","batch6","","716","tol_toboard","","","","tol_peg_1","716","716","0","[[2,0,0],[3,0],[1]]","3","[[3,0,0],[2,0],[1]]","17","0","","","","","","5","","","","","","","","",""
"","","","","","single-stim-button","243","311325","0.0-2.0-62.3-0.3","5f7058deeb83ab60bb836eae","F1","batch6","","349","tol_tohand","","","","tol_peg_2","349","349","0","[[2,0,0],[0,0],[1]]","4","[[3,0,0],[2,0],[1]]","17","0","","","","","","5","","","","","","","","",""
"","","","","","single-stim-button","244","313357","0.0-2.0-62.3-1.3","5f7058deeb83ab60bb836eae","F1","batch6","","2031","tol_toboard","","","","tol_peg_1","2031","2031","0","[[2,3,0],[0,0],[1]]","4","[[3,0,0],[2,0],[1]]","17","0","","","","","","5","","","","","","","","",""
"","","","","","single-stim-button","245","314824","0.0-2.0-62.4-0.4","5f7058deeb83ab60bb836eae","F1","batch6","","1466","tol_tohand","","","","tol_peg_3","1466","1466","0","[[2,3,0],[0,0],[0]]","5","[[3,0,0],[2,0],[1]]","17","0","","","","","","5","","","","","","","","",""
"","","","","","single-stim-button","246","315325","0.0-2.0-62.4-1.4","5f7058deeb83ab60bb836eae","F1","batch6","","501","tol_toboard","","","","tol_peg_2","501","501","0","[[2,3,0],[1,0],[0]]","5","[[3,0,0],[2,0],[1]]","17","0","","","","","","5","","","","","","","","",""
"","","","","","single-stim-button","247","315658","0.0-2.0-62.5-0.5","5f7058deeb83ab60bb836eae","F1","batch6","","333","tol_tohand","","","","tol_peg_1","333","333","0","[[2,0,0],[1,0],[0]]","6","[[3,0,0],[2,0],[1]]","17","0","","","","","","5","","","","","","","","",""
"","","","","","single-stim-button","248","316958","0.0-2.0-62.5-1.5","5f7058deeb83ab60bb836eae","F1","batch6","","1299","tol_toboard","","","","tol_peg_2","1299","1299","0","[[2,0,0],[1,3],[0]]","6","[[3,0,0],[2,0],[1]]","17","0","","","","","","5","","","","","","","","",""
"","","","","","single-stim-button","249","317324","0.0-2.0-62.6-0.6","5f7058deeb83ab60bb836eae","F1","batch6","","366","tol_tohand","","","","tol_peg_1","366","366","0","[[0,0,0],[1,3],[0]]","7","[[3,0,0],[2,0],[1]]","17","0","","","","","","5","","","","","","","","",""
"","","","","","single-stim-button","250","317758","0.0-2.0-62.6-1.6","5f7058deeb83ab60bb836eae","F1","batch6","","432","tol_toboard","","","","tol_peg_3","432","432","0","[[0,0,0],[1,3],[2]]","7","[[3,0,0],[2,0],[1]]","17","0","","","","","","5","","","","","","","","",""
"","","","","","single-stim-button","251","318107","0.0-2.0-62.7-0.7","5f7058deeb83ab60bb836eae","F1","batch6","","349","tol_tohand","","","","tol_peg_2","349","349","0","[[0,0,0],[1,0],[2]]","8","[[3,0,0],[2,0],[1]]","17","0","","","","","","5","","","","","","","","",""
"","","","","","single-stim-button","252","318441","0.0-2.0-62.7-1.7","5f7058deeb83ab60bb836eae","F1","batch6","","333","tol_toboard","","","","tol_peg_1","333","333","0","[[3,0,0],[1,0],[2]]","8","[[3,0,0],[2,0],[1]]","17","0","","","","","","5","","","","","","","","",""
"","","","","","single-stim-button","253","319557","0.0-2.0-62.8-0.8","5f7058deeb83ab60bb836eae","F1","batch6","","1115","tol_tohand","","","","tol_peg_3","1115","1115","0","[[3,0,0],[1,0],[0]]","9","[[3,0,0],[2,0],[1]]","17","0","","","","","","5","","","","","","","","",""
"","","","","","single-stim-button","254","319941","0.0-2.0-62.8-1.8","5f7058deeb83ab60bb836eae","F1","batch6","","383","tol_toboard","","","","tol_peg_1","383","383","0","[[3,2,0],[1,0],[0]]","9","[[3,0,0],[2,0],[1]]","17","0","","","","","","5","","","","","","","","",""
"","","","","","single-stim-button","255","320207","0.0-2.0-62.9-0.9","5f7058deeb83ab60bb836eae","F1","batch6","","266","tol_tohand","","","","tol_peg_2","266","266","0","[[3,2,0],[0,0],[0]]","10","[[3,0,0],[2,0],[1]]","17","0","","","","","","5","","","","","","","","",""
"","","","","","single-stim-button","256","320558","0.0-2.0-62.9-1.9","5f7058deeb83ab60bb836eae","F1","batch6","","350","tol_toboard","","","","tol_peg_3","350","350","0","[[3,2,0],[0,0],[1]]","10","[[3,0,0],[2,0],[1]]","17","0","","","","","","5","","","","","","","","",""
"","","","","","single-stim-button","257","320974","0.0-2.0-62.10-0.10","5f7058deeb83ab60bb836eae","F1","batch6","","415","tol_tohand","","","","tol_peg_1","415","415","0","[[3,0,0],[0,0],[1]]","11","[[3,0,0],[2,0],[1]]","17","0","","","","","","5","","","","","","","","",""
"","","","","","single-stim-button","258","321307","0.0-2.0-62.10-1.10","5f7058deeb83ab60bb836eae","F1","batch6","","333","tol_toboard","","","","tol_peg_2","333","333","0","[[3,0,0],[2,0],[1]]","11","[[3,0,0],[2,0],[1]]","17","0","","","","","","5","","","","","","","","",""
"","","","","","poldrack-single-stim","259","322311","0.0-2.0-63.0","5f7058deeb83ab60bb836eae","F1","batch6","","-1","tol_feedback","","","true","","1000","1000","500","","","","","","-1","none","true","2000","7574","","","","","","","","","",""
"","","","","","html-button-response","260","323258","0.0-2.0-64.0","5f7058deeb83ab60bb836eae","F1","batch6","","946.1000000089407","tol_trial_num","<div class = centerbox><p class = center-block-text>problem <strong>19</strong> out of 25 problems</p></div>","0","","","","","","","","","","","","","","","","","","","","","","","","",""
"","","","","","single-stim-button","261","325141","0.0-2.0-65.0-0.0","5f7058deeb83ab60bb836eae","F1","batch6","","1883","tol_tohand","","","","tol_peg_2","1883","1883","0","[[1,2,0],[0,0],[0]]","1","[[0,0,0],[1,2],[3]]","18","0","","","","","","7","","","","","","","","",""
"","","","","","single-stim-button","262","332524","0.0-2.0-65.0-1.0","5f7058deeb83ab60bb836eae","F1","batch6","","7382","tol_toboard","","","","tol_peg_2","7382","7382","0","[[1,2,0],[3,0],[0]]","1","[[0,0,0],[1,2],[3]]","18","0","","","","","","7","","","","","","","","",""
"","","","","","single-stim-button","263","332890","0.0-2.0-65.1-0.1","5f7058deeb83ab60bb836eae","F1","batch6","","366","tol_tohand","","","","tol_peg_1","366","366","0","[[1,0,0],[3,0],[0]]","2","[[0,0,0],[1,2],[3]]","18","0","","","","","","7","","","","","","","","",""
"","","","","","single-stim-button","264","333274","0.0-2.0-65.1-1.1","5f7058deeb83ab60bb836eae","F1","batch6","","384","tol_toboard","","","","tol_peg_2","384","384","0","[[1,0,0],[3,2],[0]]","2","[[0,0,0],[1,2],[3]]","18","0","","","","","","7","","","","","","","","",""
"","","","","","single-stim-button","265","336540","0.0-2.0-65.2-0.2","5f7058deeb83ab60bb836eae","F1","batch6","","3265","tol_tohand","","","","tol_peg_1","3265","3265","0","[[0,0,0],[3,2],[0]]","3","[[0,0,0],[1,2],[3]]","18","0","","","","","","7","","","","","","","","",""
"","","","","","single-stim-button","266","336907","0.0-2.0-65.2-1.2","5f7058deeb83ab60bb836eae","F1","batch6","","367","tol_toboard","","","","tol_peg_3","367","367","0","[[0,0,0],[3,2],[1]]","3","[[0,0,0],[1,2],[3]]","18","0","","","","","","7","","","","","","","","",""
"","","","","","single-stim-button","267","337206","0.0-2.0-65.3-0.3","5f7058deeb83ab60bb836eae","F1","batch6","","299","tol_tohand","","","","tol_peg_2","299","299","0","[[0,0,0],[3,0],[1]]","4","[[0,0,0],[1,2],[3]]","18","0","","","","","","7","","","","","","","","",""
"","","","","","single-stim-button","268","337540","0.0-2.0-65.3-1.3","5f7058deeb83ab60bb836eae","F1","batch6","","332","tol_toboard","","","","tol_peg_1","332","332","0","[[2,0,0],[3,0],[1]]","4","[[0,0,0],[1,2],[3]]","18","0","","","","","","7","","","","","","","","",""
"","","","","","single-stim-button","269","338157","0.0-2.0-65.4-0.4","5f7058deeb83ab60bb836eae","F1","batch6","","616","tol_tohand","","","","tol_peg_2","616","616","0","[[2,0,0],[0,0],[1]]","5","[[0,0,0],[1,2],[3]]","18","0","","","","","","7","","","","","","","","",""
"","","","","","single-stim-button","270","338457","0.0-2.0-65.4-1.4","5f7058deeb83ab60bb836eae","F1","batch6","","299","tol_toboard","","","","tol_peg_1","299","299","0","[[2,3,0],[0,0],[1]]","5","[[0,0,0],[1,2],[3]]","18","0","","","","","","7","","","","","","","","",""
"","","","","","single-stim-button","271","338806","0.0-2.0-65.5-0.5","5f7058deeb83ab60bb836eae","F1","batch6","","349","tol_tohand","","","","tol_peg_3","349","349","0","[[2,3,0],[0,0],[0]]","6","[[0,0,0],[1,2],[3]]","18","0","","","","","","7","","","","","","","","",""
"","","","","","single-stim-button","272","339140","0.0-2.0-65.5-1.5","5f7058deeb83ab60bb836eae","F1","batch6","","334","tol_toboard","","","","tol_peg_2","334","334","0","[[2,3,0],[1,0],[0]]","6","[[0,0,0],[1,2],[3]]","18","0","","","","","","7","","","","","","","","",""
"","","","","","single-stim-button","273","339473","0.0-2.0-65.6-0.6","5f7058deeb83ab60bb836eae","F1","batch6","","333","tol_tohand","","","","tol_peg_1","333","333","0","[[2,0,0],[1,0],[0]]","7","[[0,0,0],[1,2],[3]]","18","0","","","","","","7","","","","","","","","",""
"","","","","","single-stim-button","274","339806","0.0-2.0-65.6-1.6","5f7058deeb83ab60bb836eae","F1","batch6","","333","tol_toboard","","","","tol_peg_3","333","333","0","[[2,0,0],[1,0],[3]]","7","[[0,0,0],[1,2],[3]]","18","0","","","","","","7","","","","","","","","",""
"","","","","","single-stim-button","275","340440","0.0-2.0-65.7-0.7","5f7058deeb83ab60bb836eae","F1","batch6","","633","tol_tohand","","","","tol_peg_1","633","633","0","[[0,0,0],[1,0],[3]]","8","[[0,0,0],[1,2],[3]]","18","0","","","","","","7","","","","","","","","",""
"","","","","","single-stim-button","276","340740","0.0-2.0-65.7-1.7","5f7058deeb83ab60bb836eae","F1","batch6","","300","tol_toboard","","","","tol_peg_2","300","300","0","[[0,0,0],[1,2],[3]]","8","[[0,0,0],[1,2],[3]]","18","0","","","","","","7","","","","","","","","",""
"","","","","","poldrack-single-stim","277","341741","0.0-2.0-66.0","5f7058deeb83ab60bb836eae","F1","batch6","","-1","tol_feedback","","","true","","1000","1000","500","","","","","","-1","none","true","1883","7744","","","","","","","","","",""
"","","","","","html-button-response","278","342456","0.0-2.0-67.0","5f7058deeb83ab60bb836eae","F1","batch6","","714.7999999970198","tol_trial_num","<div class = centerbox><p class = center-block-text>problem <strong>20</strong> out of 25 problems</p></div>","0","","","","","","","","","","","","","","","","","","","","","","","","",""
"","","","","","single-stim-button","279","344673","0.0-2.0-68.0-0.0","5f7058deeb83ab60bb836eae","F1","batch6","","2215","tol_tohand","","","","tol_peg_1","2215","2215","0","[[1,0,0],[3,0],[0]]","1","[[2,1,0],[0,0],[3]]","19","0","","","","","","5","","","","","","","","",""
"","","","","","single-stim-button","280","345024","0.0-2.0-68.0-1.0","5f7058deeb83ab60bb836eae","F1","batch6","","351","tol_toboard","","","","tol_peg_2","351","351","0","[[1,0,0],[3,2],[0]]","1","[[2,1,0],[0,0],[3]]","19","0","","","","","","5","","","","","","","","",""
"","","","","","single-stim-button","281","345706","0.0-2.0-68.1-0.1","5f7058deeb83ab60bb836eae","F1","batch6","","681","tol_tohand","","","","tol_peg_1","681","681","0","[[0,0,0],[3,2],[0]]","2","[[2,1,0],[0,0],[3]]","19","0","","","","","","5","","","","","","","","",""
"","","","","","single-stim-button","282","346273","0.0-2.0-68.1-1.1","5f7058deeb83ab60bb836eae","F1","batch6","","567","tol_toboard","","","","tol_peg_3","567","567","0","[[0,0,0],[3,2],[1]]","2","[[2,1,0],[0,0],[3]]","19","0","","","","","","5","","","","","","","","",""
"","","","","","single-stim-button","283","346623","0.0-2.0-68.2-0.2","5f7058deeb83ab60bb836eae","F1","batch6","","350","tol_tohand","","","","tol_peg_2","350","350","0","[[0,0,0],[3,0],[1]]","3","[[2,1,0],[0,0],[3]]","19","0","","","","","","5","","","","","","","","",""
"","","","","","single-stim-button","284","346906","0.0-2.0-68.2-1.2","5f7058deeb83ab60bb836eae","F1","batch6","","283","tol_toboard","","","","tol_peg_1","283","283","0","[[2,0,0],[3,0],[1]]","3","[[2,1,0],[0,0],[3]]","19","0","","","","","","5","","","","","","","","",""
"","","","","","single-stim-button","285","347239","0.0-2.0-68.3-0.3","5f7058deeb83ab60bb836eae","F1","batch6","","332","tol_tohand","","","","tol_peg_3","332","332","0","[[2,0,0],[3,0],[0]]","4","[[2,1,0],[0,0],[3]]","19","0","","","","","","5","","","","","","","","",""
"","","","","","single-stim-button","286","347689","0.0-2.0-68.3-1.3","5f7058deeb83ab60bb836eae","F1","batch6","","449","tol_toboard","","","","tol_peg_1","449","449","0","[[2,1,0],[3,0],[0]]","4","[[2,1,0],[0,0],[3]]","19","0","","","","","","5","","","","","","","","",""
"","","","","","single-stim-button","287","348006","0.0-2.0-68.4-0.4","5f7058deeb83ab60bb836eae","F1","batch6","","317","tol_tohand","","","","tol_peg_2","317","317","0","[[2,1,0],[0,0],[0]]","5","[[2,1,0],[0,0],[3]]","19","0","","","","","","5","","","","","","","","",""
"","","","","","single-stim-button","288","348273","0.0-2.0-68.4-1.4","5f7058deeb83ab60bb836eae","F1","batch6","","267","tol_toboard","","","","tol_peg_3","267","267","0","[[2,1,0],[0,0],[3]]","5","[[2,1,0],[0,0],[3]]","19","0","","","","","","5","","","","","","","","",""
"","","","","","poldrack-single-stim","289","349278","0.0-2.0-69.0","5f7058deeb83ab60bb836eae","F1","batch6","","-1","tol_feedback","","","true","","1000","1000","500","","","","","","-1","none","true","2215","3895","","","","","","","","","",""
"","","","","","html-button-response","290","350373","0.0-2.0-70.0","5f7058deeb83ab60bb836eae","F1","batch6","","1094.3999999910593","tol_trial_num","<div class = centerbox><p class = center-block-text>problem <strong>21</strong> out of 25 problems</p></div>","0","","","","","","","","","","","","","","","","","","","","","","","","",""
"","","","","","single-stim-button","291","355488","0.0-2.0-71.0-0.0","5f7058deeb83ab60bb836eae","F1","batch6","","5114","tol_tohand","","","","tol_peg_1","5114","5114","0","[[1,0,0],[3,0],[0]]","1","[[3,2,0],[0,0],[1]]","20","0","","","","","","6","","","","","","","","",""
"","","","","","single-stim-button","292","356005","0.0-2.0-71.0-1.0","5f7058deeb83ab60bb836eae","F1","batch6","","516","tol_toboard","","","","tol_peg_2","516","516","0","[[1,0,0],[3,2],[0]]","1","[[3,2,0],[0,0],[1]]","20","0","","","","","","6","","","","","","","","",""
"","","","","","single-stim-button","293","356322","0.0-2.0-71.1-0.1","5f7058deeb83ab60bb836eae","F1","batch6","","316","tol_tohand","","","","tol_peg_1","316","316","0","[[0,0,0],[3,2],[0]]","2","[[3,2,0],[0,0],[1]]","20","0","","","","","","6","","","","","","","","",""
"","","","","","single-stim-button","294","356789","0.0-2.0-71.1-1.1","5f7058deeb83ab60bb836eae","F1","batch6","","466","tol_toboard","","","","tol_peg_3","466","466","0","[[0,0,0],[3,2],[1]]","2","[[3,2,0],[0,0],[1]]","20","0","","","","","","6","","","","","","","","",""
"","","","","","single-stim-button","295","357538","0.0-2.0-71.2-0.2","5f7058deeb83ab60bb836eae","F1","batch6","","748","tol_tohand","","","","tol_peg_2","748","748","0","[[0,0,0],[3,0],[1]]","3","[[3,2,0],[0,0],[1]]","20","0","","","","","","6","","","","","","","","",""
"","","","","","single-stim-button","296","357839","0.0-2.0-71.2-1.2","5f7058deeb83ab60bb836eae","F1","batch6","","299","tol_toboard","","","","tol_peg_1","299","299","0","[[2,0,0],[3,0],[1]]","3","[[3,2,0],[0,0],[1]]","20","0","","","","","","6","","","","","","","","",""
"","","","","","single-stim-button","297","358173","0.0-2.0-71.3-0.3","5f7058deeb83ab60bb836eae","F1","batch6","","333","tol_tohand","","","","tol_peg_2","333","333","0","[[2,0,0],[0,0],[1]]","4","[[3,2,0],[0,0],[1]]","20","0","","","","","","6","","","","","","","","",""
"","","","","","single-stim-button","298","358539","0.0-2.0-71.3-1.3","5f7058deeb83ab60bb836eae","F1","batch6","","366","tol_toboard","","","","tol_peg_1","366","366","0","[[2,3,0],[0,0],[1]]","4","[[3,2,0],[0,0],[1]]","20","0","","","","","","6","","","","","","","","",""
"","","","","","single-stim-button","299","360423","0.0-2.0-71.4-0.4","5f7058deeb83ab60bb836eae","F1","batch6","","1884","tol_tohand","","","","tol_peg_3","1884","1884","0","[[2,3,0],[0,0],[0]]","5","[[3,2,0],[0,0],[1]]","20","0","","","","","","6","","","","","","","","",""
"","","","","","single-stim-button","300","360738","0.0-2.0-71.4-1.4","5f7058deeb83ab60bb836eae","F1","batch6","","315","tol_toboard","","","","tol_peg_2","315","315","0","[[2,3,0],[1,0],[0]]","5","[[3,2,0],[0,0],[1]]","20","0","","","","","","6","","","","","","","","",""
"","","","","","single-stim-button","301","361039","0.0-2.0-71.5-0.5","5f7058deeb83ab60bb836eae","F1","batch6","","300","tol_tohand","","","","tol_peg_1","300","300","0","[[2,0,0],[1,0],[0]]","6","[[3,2,0],[0,0],[1]]","20","0","","","","","","6","","","","","","","","",""
"","","","","","single-stim-button","302","361355","0.0-2.0-71.5-1.5","5f7058deeb83ab60bb836eae","F1","batch6","","315","tol_toboard","","","","tol_peg_2","315","315","0","[[2,0,0],[1,3],[0]]","6","[[3,2,0],[0,0],[1]]","20","0","","","","","","6","","","","","","","","",""
"","","","","","single-stim-button","303","361705","0.0-2.0-71.6-0.6","5f7058deeb83ab60bb836eae","F1","batch6","","349","tol_tohand","","","","tol_peg_1","349","349","0","[[0,0,0],[1,3],[0]]","7","[[3,2,0],[0,0],[1]]","20","0","","","","","","6","","","","","","","","",""
"","","","","","single-stim-button","304","362073","0.0-2.0-71.6-1.6","5f7058deeb83ab60bb836eae","F1","batch6","","368","tol_toboard","","","","tol_peg_3","368","368","0","[[0,0,0],[1,3],[2]]","7","[[3,2,0],[0,0],[1]]","20","0","","","","","","6","","","","","","","","",""
"","","","","","single-stim-button","305","362422","0.0-2.0-71.7-0.7","5f7058deeb83ab60bb836eae","F1","batch6","","349","tol_tohand","","","","tol_peg_2","349","349","0","[[0,0,0],[1,0],[2]]","8","[[3,2,0],[0,0],[1]]","20","0","","","","","","6","","","","","","","","",""
"","","","","","single-stim-button","306","362705","0.0-2.0-71.7-1.7","5f7058deeb83ab60bb836eae","F1","batch6","","282","tol_toboard","","","","tol_peg_1","282","282","0","[[3,0,0],[1,0],[2]]","8","[[3,2,0],[0,0],[1]]","20","0","","","","","","6","","","","","","","","",""
"","","","","","single-stim-button","307","363055","0.0-2.0-71.8-0.8","5f7058deeb83ab60bb836eae","F1","batch6","","350","tol_tohand","","","","tol_peg_3","350","350","0","[[3,0,0],[1,0],[0]]","9","[[3,2,0],[0,0],[1]]","20","0","","","","","","6","","","","","","","","",""
"","","","","","single-stim-button","308","363439","0.0-2.0-71.8-1.8","5f7058deeb83ab60bb836eae","F1","batch6","","383","tol_toboard","","","","tol_peg_1","383","383","0","[[3,2,0],[1,0],[0]]","9","[[3,2,0],[0,0],[1]]","20","0","","","","","","6","","","","","","","","",""
"","","","","","single-stim-button","309","363855","0.0-2.0-71.9-0.9","5f7058deeb83ab60bb836eae","F1","batch6","","416","tol_tohand","","","","tol_peg_2","416","416","0","[[3,2,0],[0,0],[0]]","10","[[3,2,0],[0,0],[1]]","20","0","","","","","","6","","","","","","","","",""
"","","","","","single-stim-button","310","364155","0.0-2.0-71.9-1.9","5f7058deeb83ab60bb836eae","F1","batch6","","300","tol_toboard","","","","tol_peg_3","300","300","0","[[3,2,0],[0,0],[1]]","10","[[3,2,0],[0,0],[1]]","20","0","","","","","","6","","","","","","","","",""
"","","","","","poldrack-single-stim","311","365159","0.0-2.0-72.0","5f7058deeb83ab60bb836eae","F1","batch6","","-1","tol_feedback","","","true","","1000","1000","500","","","","","","-1","none","true","5114","10159","","","","","","","","","",""
"","","","","","html-button-response","312","365688","0.0-2.0-73.0","5f7058deeb83ab60bb836eae","F1","batch6","","527.7999999970198","tol_trial_num","<div class = centerbox><p class = center-block-text>problem <strong>22</strong> out of 25 problems</p></div>","0","","","","","","","","","","","","","","","","","","","","","","","","",""
"","","","","","single-stim-button","313","374954","0.0-2.0-74.0-0.0","5f7058deeb83ab60bb836eae","F1","batch6","","9266","tol_tohand","","","","tol_peg_2","9266","9266","0","[[1,0,0],[2,0],[0]]","1","[[0,0,0],[1,2],[3]]","21","0","","","","","","6","","","","","","","","",""
"","","","","","single-stim-button","314","375288","0.0-2.0-74.0-1.0","5f7058deeb83ab60bb836eae","F1","batch6","","333","tol_toboard","","","","tol_peg_1","333","333","0","[[1,3,0],[2,0],[0]]","1","[[0,0,0],[1,2],[3]]","21","0","","","","","","6","","","","","","","","",""
"","","","","","single-stim-button","315","375571","0.0-2.0-74.1-0.1","5f7058deeb83ab60bb836eae","F1","batch6","","283","tol_tohand","","","","tol_peg_2","283","283","0","[[1,3,0],[0,0],[0]]","2","[[0,0,0],[1,2],[3]]","21","0","","","","","","6","","","","","","","","",""
"","","","","","single-stim-button","316","380071","0.0-2.0-74.1-1.1","5f7058deeb83ab60bb836eae","F1","batch6","","4500","tol_toboard","","","","tol_peg_3","4500","4500","0","[[1,3,0],[0,0],[2]]","2","[[0,0,0],[1,2],[3]]","21","0","","","","","","6","","","","","","","","",""
"","","","","","single-stim-button","317","380921","0.0-2.0-74.2-0.2","5f7058deeb83ab60bb836eae","F1","batch6","","849","tol_tohand","","","","tol_peg_1","849","849","0","[[1,0,0],[0,0],[2]]","3","[[0,0,0],[1,2],[3]]","21","0","","","","","","6","","","","","","","","",""
"","","","","","single-stim-button","318","382587","0.0-2.0-74.2-1.2","5f7058deeb83ab60bb836eae","F1","batch6","","1666","tol_toboard","","","","tol_peg_2","1666","1666","0","[[1,0,0],[3,0],[2]]","3","[[0,0,0],[1,2],[3]]","21","0","","","","","","6","","","","","","","","",""
"","","","","","single-stim-button","319","385121","0.0-2.0-74.3-0.3","5f7058deeb83ab60bb836eae","F1","batch6","","2532","tol_tohand","","","","tol_peg_1","2532","2532","0","[[0,0,0],[3,0],[2]]","4","[[0,0,0],[1,2],[3]]","21","0","","","","","","6","","","","","","","","",""
"","","","","","single-stim-button","320","385438","0.0-2.0-74.3-1.3","5f7058deeb83ab60bb836eae","F1","batch6","","316","tol_toboard","","","","tol_peg_2","316","316","0","[[0,0,0],[3,1],[2]]","4","[[0,0,0],[1,2],[3]]","21","0","","","","","","6","","","","","","","","",""
"","","","","","single-stim-button","321","386304","0.0-2.0-74.4-0.4","5f7058deeb83ab60bb836eae","F1","batch6","","865","tol_tohand","","","","tol_peg_3","865","865","0","[[0,0,0],[3,1],[0]]","5","[[0,0,0],[1,2],[3]]","21","0","","","","","","6","","","","","","","","",""
"","","","","","single-stim-button","322","386720","0.0-2.0-74.4-1.4","5f7058deeb83ab60bb836eae","F1","batch6","","416","tol_toboard","","","","tol_peg_1","416","416","0","[[2,0,0],[3,1],[0]]","5","[[0,0,0],[1,2],[3]]","21","0","","","","","","6","","","","","","","","",""
"","","","","","single-stim-button","323","387104","0.0-2.0-74.5-0.5","5f7058deeb83ab60bb836eae","F1","batch6","","382","tol_tohand","","","","tol_peg_2","382","382","0","[[2,0,0],[3,0],[0]]","6","[[0,0,0],[1,2],[3]]","21","0","","","","","","6","","","","","","","","",""
"","","","","","single-stim-button","324","387453","0.0-2.0-74.5-1.5","5f7058deeb83ab60bb836eae","F1","batch6","","349","tol_toboard","","","","tol_peg_1","349","349","0","[[2,1,0],[3,0],[0]]","6","[[0,0,0],[1,2],[3]]","21","0","","","","","","6","","","","","","","","",""
"","","","","","single-stim-button","325","387786","0.0-2.0-74.6-0.6","5f7058deeb83ab60bb836eae","F1","batch6","","332","tol_tohand","","","","tol_peg_2","332","332","0","[[2,1,0],[0,0],[0]]","7","[[0,0,0],[1,2],[3]]","21","0","","","","","","6","","","","","","","","",""
"","","","","","single-stim-button","326","388087","0.0-2.0-74.6-1.6","5f7058deeb83ab60bb836eae","F1","batch6","","299","tol_toboard","","","","tol_peg_3","299","299","0","[[2,1,0],[0,0],[3]]","7","[[0,0,0],[1,2],[3]]","21","0","","","","","","6","","","","","","","","",""
"","","","","","single-stim-button","327","388405","0.0-2.0-74.7-0.7","5f7058deeb83ab60bb836eae","F1","batch6","","317","tol_tohand","","","","tol_peg_1","317","317","0","[[2,0,0],[0,0],[3]]","8","[[0,0,0],[1,2],[3]]","21","0","","","","","","6","","","","","","","","",""
"","","","","","single-stim-button","328","388753","0.0-2.0-74.7-1.7","5f7058deeb83ab60bb836eae","F1","batch6","","348","tol_toboard","","","","tol_peg_2","348","348","0","[[2,0,0],[1,0],[3]]","8","[[0,0,0],[1,2],[3]]","21","0","","","","","","6","","","","","","","","",""
"","","","","","single-stim-button","329","389054","0.0-2.0-74.8-0.8","5f7058deeb83ab60bb836eae","F1","batch6","","300","tol_tohand","","","","tol_peg_1","300","300","0","[[0,0,0],[1,0],[3]]","9","[[0,0,0],[1,2],[3]]","21","0","","","","","","6","","","","","","","","",""
"","","","","","single-stim-button","330","389320","0.0-2.0-74.8-1.8","5f7058deeb83ab60bb836eae","F1","batch6","","265","tol_toboard","","","","tol_peg_2","265","265","0","[[0,0,0],[1,2],[3]]","9","[[0,0,0],[1,2],[3]]","21","0","","","","","","6","","","","","","","","",""
"","","","","","poldrack-single-stim","331","390329","0.0-2.0-75.0","5f7058deeb83ab60bb836eae","F1","batch6","","-1","tol_feedback","","","true","","1000","1000","500","","","","","","-1","none","true","9266","15126","","","","","","","","","",""
"","","","","","html-button-response","332","391403","0.0-2.0-76.0","5f7058deeb83ab60bb836eae","F1","batch6","","1073.9000000059605","tol_trial_num","<div class = centerbox><p class = center-block-text>problem <strong>23</strong> out of 25 problems</p></div>","0","","","","","","","","","","","","","","","","","","","","","","","","",""
"","","","","","single-stim-button","333","393903","0.0-2.0-77.0-0.0","5f7058deeb83ab60bb836eae","F1","batch6","","2499","tol_tohand","","","","tol_peg_1","2499","2499","0","[[1,0,0],[3,0],[0]]","1","[[1,3,2],[0,0],[0]]","22","0","","","","","","3","","","","","","","","",""
"","","","","","single-stim-button","334","394403","0.0-2.0-77.0-1.0","5f7058deeb83ab60bb836eae","F1","batch6","","500","tol_toboard","","","","tol_peg_3","500","500","0","[[1,0,0],[3,0],[2]]","1","[[1,3,2],[0,0],[0]]","22","0","","","","","","3","","","","","","","","",""
"","","","","","single-stim-button","335","394720","0.0-2.0-77.1-0.1","5f7058deeb83ab60bb836eae","F1","batch6","","316","tol_tohand","","","","tol_peg_2","316","316","0","[[1,0,0],[0,0],[2]]","2","[[1,3,2],[0,0],[0]]","22","0","","","","","","3","","","","","","","","",""
"","","","","","single-stim-button","336","395054","0.0-2.0-77.1-1.1","5f7058deeb83ab60bb836eae","F1","batch6","","333","tol_toboard","","","","tol_peg_1","333","333","0","[[1,3,0],[0,0],[2]]","2","[[1,3,2],[0,0],[0]]","22","0","","","","","","3","","","","","","","","",""
"","","","","","single-stim-button","337","395520","0.0-2.0-77.2-0.2","5f7058deeb83ab60bb836eae","F1","batch6","","466","tol_tohand","","","","tol_peg_3","466","466","0","[[1,3,0],[0,0],[0]]","3","[[1,3,2],[0,0],[0]]","22","0","","","","","","3","","","","","","","","",""
"","","","","","single-stim-button","338","395804","0.0-2.0-77.2-1.2","5f7058deeb83ab60bb836eae","F1","batch6","","284","tol_toboard","","","","tol_peg_1","284","284","0","[[1,3,2],[0,0],[0]]","3","[[1,3,2],[0,0],[0]]","22","0","","","","","","3","","","","","","","","",""
"","","","","","poldrack-single-stim","339","396806","0.0-2.0-78.0","5f7058deeb83ab60bb836eae","F1","batch6","","-1","tol_feedback","","","true","","1000","1000","500","","","","","","-1","none","true","2499","3281","","","","","","","","","",""
"","","","","","html-button-response","340","397253","0.0-2.0-79.0","5f7058deeb83ab60bb836eae","F1","batch6","","446.5","tol_trial_num","<div class = centerbox><p class = center-block-text>problem <strong>24</strong> out of 25 problems</p></div>","0","","","","","","","","","","","","","","","","","","","","","","","","",""
"","","","","","single-stim-button","341","400786","0.0-2.0-80.0-0.0","5f7058deeb83ab60bb836eae","F1","batch6","","3533","tol_tohand","","","","tol_peg_2","3533","3533","0","[[0,0,0],[2,0],[1]]","1","[[2,0,0],[3,0],[1]]","23","0","","","","","","7","","","","","","","","",""
"","","","","","single-stim-button","342","401187","0.0-2.0-80.0-1.0","5f7058deeb83ab60bb836eae","F1","batch6","","400","tol_toboard","","","","tol_peg_1","400","400","0","[[3,0,0],[2,0],[1]]","1","[[2,0,0],[3,0],[1]]","23","0","","","","","","7","","","","","","","","",""
"","","","","","single-stim-button","343","408803","0.0-2.0-80.1-0.1","5f7058deeb83ab60bb836eae","F1","batch6","","7614","tol_tohand","","","","tol_peg_3","7614","7614","0","[[3,0,0],[2,0],[0]]","2","[[2,0,0],[3,0],[1]]","23","0","","","","","","7","","","","","","","","",""
"","","","","","single-stim-button","344","409152","0.0-2.0-80.1-1.1","5f7058deeb83ab60bb836eae","F1","batch6","","349","tol_toboard","","","","tol_peg_1","349","349","0","[[3,1,0],[2,0],[0]]","2","[[2,0,0],[3,0],[1]]","23","0","","","","","","7","","","","","","","","",""
"","","","","","single-stim-button","345","409436","0.0-2.0-80.2-0.2","5f7058deeb83ab60bb836eae","F1","batch6","","284","tol_tohand","","","","tol_peg_2","284","284","0","[[3,1,0],[0,0],[0]]","3","[[2,0,0],[3,0],[1]]","23","0","","","","","","7","","","","","","","","",""
"","","","","","single-stim-button","346","409769","0.0-2.0-80.2-1.2","5f7058deeb83ab60bb836eae","F1","batch6","","333","tol_toboard","","","","tol_peg_3","333","333","0","[[3,1,0],[0,0],[2]]","3","[[2,0,0],[3,0],[1]]","23","0","","","","","","7","","","","","","","","",""
"","","","","","single-stim-button","347","410136","0.0-2.0-80.3-0.3","5f7058deeb83ab60bb836eae","F1","batch6","","367","tol_tohand","","","","tol_peg_1","367","367","0","[[3,0,0],[0,0],[2]]","4","[[2,0,0],[3,0],[1]]","23","0","","","","","","7","","","","","","","","",""
"","","","","","single-stim-button","348","412269","0.0-2.0-80.3-1.3","5f7058deeb83ab60bb836eae","F1","batch6","","2133","tol_toboard","","","","tol_peg_2","2133","2133","0","[[3,0,0],[1,0],[2]]","4","[[2,0,0],[3,0],[1]]","23","0","","","","","","7","","","","","","","","",""
"","","","","","single-stim-button","349","414636","0.0-2.0-80.4-0.4","5f7058deeb83ab60bb836eae","F1","batch6","","2367","tol_tohand","","","","tol_peg_1","2367","2367","0","[[0,0,0],[1,0],[2]]","5","[[2,0,0],[3,0],[1]]","23","0","","","","","","7","","","","","","","","",""
"","","","","","single-stim-button","350","414903","0.0-2.0-80.4-1.4","5f7058deeb83ab60bb836eae","F1","batch6","","267","tol_toboard","","","","tol_peg_2","267","267","0","[[0,0,0],[1,3],[2]]","5","[[2,0,0],[3,0],[1]]","23","0","","","","","","7","","","","","","","","",""
"","","","","","single-stim-button","351","415236","0.0-2.0-80.5-0.5","5f7058deeb83ab60bb836eae","F1","batch6","","331","tol_tohand","","","","tol_peg_3","331","331","0","[[0,0,0],[1,3],[0]]","6","[[2,0,0],[3,0],[1]]","23","0","","","","","","7","","","","","","","","",""
"","","","","","single-stim-button","352","415570","0.0-2.0-80.5-1.5","5f7058deeb83ab60bb836eae","F1","batch6","","333","tol_toboard","","","","tol_peg_1","333","333","0","[[2,0,0],[1,3],[0]]","6","[[2,0,0],[3,0],[1]]","23","0","","","","","","7","","","","","","","","",""
"","","","","","single-stim-button","353","415903","0.0-2.0-80.6-0.6","5f7058deeb83ab60bb836eae","F1","batch6","","332","tol_tohand","","","","tol_peg_2","332","332","0","[[2,0,0],[1,0],[0]]","7","[[2,0,0],[3,0],[1]]","23","0","","","","","","7","","","","","","","","",""
"","","","","","single-stim-button","354","416735","0.0-2.0-80.6-1.6","5f7058deeb83ab60bb836eae","F1","batch6","","832","tol_toboard","","","","tol_peg_1","832","832","0","[[2,3,0],[1,0],[0]]","7","[[2,0,0],[3,0],[1]]","23","0","","","","","","7","","","","","","","","",""
"","","","","","single-stim-button","355","416986","0.0-2.0-80.7-0.7","5f7058deeb83ab60bb836eae","F1","batch6","","250","tol_tohand","","","","tol_peg_2","250","250","0","[[2,3,0],[0,0],[0]]","8","[[2,0,0],[3,0],[1]]","23","0","","","","","","7","","","","","","","","",""
"","","","","","single-stim-button","356","417368","0.0-2.0-80.7-1.7","5f7058deeb83ab60bb836eae","F1","batch6","","382","tol_toboard","","","","tol_peg_3","382","382","0","[[2,3,0],[0,0],[1]]","8","[[2,0,0],[3,0],[1]]","23","0","","","","","","7","","","","","","","","",""
