"success","timeout","failed_images","failed_audio","failed_video","trial_type","trial_index","time_elapsed","internal_node_id","subject_id","study_id","session_id","task","rt","stimulus","response","item","answer","correct","spm_correct","spm_rt","view_history","mouse_click","stim_duration","block_duration","timing_post_trial","current_position","tol_num_moves_made","tol_target","tol_problem_id","tol_rt","key_press","possible_responses","tol_correct","preplanning","tol_rt_per_trial","tol_min_moves","fiar_detect_rt","fiar_detect_correct","total_correct_fiar_detect","post_trial_gap","choices"
"true","false","[]","[]","[]","preload","0","58778","0.0-0.0","5f88877885e51d02acd71b12","D2","batch4","","","","","","","","","","","","","","","","","","","","","","","","","","","","","",""
"true","","","","","fullscreen","1","89395","0.0-1.0-0.0","5f88877885e51d02acd71b12","D2","batch4","","","","","","","","","","","","","","","","","","","","","","","","","","","","","",""
"true","","","","","fullscreen","2","98641","0.0-2.0-0.0","5f88877885e51d02acd71b12","D2","batch4","spm_fullscreen","","","","","","","","","","","","","","","","","","","","","","","","","","","","",""
"","","","","","html-button-response","3","111702","0.0-2.0-1.0","5f88877885e51d02acd71b12","D2","batch4","","13045.5","<p class = block-text><b>Instructions</b> <br>This is a widely used intelligence test in research. <br>In this test, a figure with a missing piece will be presented.<br>Below the figure are alternative pieces to complete the figure, only one of which is correct.<br> Different figures might involve different principles for obtaining the missing piece<br>Your job is to select the most logical piece to complete the figure.</p>","0","","","","","","","","","","","","","","","","","","","","","","","","","",""
"","","","","","html-keyboard-response","4","112516","0.0-2.0-2.0-0.0","5f88877885e51d02acd71b12","D2","batch4","spm_show_trial_num","null","<p class=block-text>Trial 1 out of 60</p>","null","","","","","","","","","","","","","","","","","","","","","","","","","",""
"","","","","","image-button-response","5","126132","0.0-2.0-2.0-1.0","5f88877885e51d02acd71b12","D2","batch4","spm_respsonse","13537.099999964237","img/question_1_1.jpeg","5","mat_01","4","0","0","13537.099999964237","","","","","","","","","","","","","","","","","","","","",""
"","","","","","html-keyboard-response","6","127203","0.0-2.0-2.0-0.1","5f88877885e51d02acd71b12","D2","batch4","spm_show_trial_num","null","<p class=block-text>Trial 2 out of 60</p>","null","","","","","","","","","","","","","","","","","","","","","","","","","",""
"","","","","","image-button-response","7","133044","0.0-2.0-2.0-1.1","5f88877885e51d02acd71b12","D2","batch4","spm_respsonse","5825.199999988079","img/question_1_2.jpeg","4","mat_02","5","1","1","5825.199999988079","","","","","","","","","","","","","","","","","","","","",""
"","","","","","html-keyboard-response","8","134105","0.0-2.0-2.0-0.2","5f88877885e51d02acd71b12","D2","batch4","spm_show_trial_num","null","<p class=block-text>Trial 3 out of 60</p>","null","","","","","","","","","","","","","","","","","","","","","","","","","",""
"","","","","","image-button-response","9","142637","0.0-2.0-2.0-1.2","5f88877885e51d02acd71b12","D2","batch4","spm_respsonse","8514.5","img/question_1_3.jpeg","3","mat_03","1","0","0","8514.5","","","","","","","","","","","","","","","","","","","","",""
"","","","","","html-keyboard-response","10","143705","0.0-2.0-2.0-0.3","5f88877885e51d02acd71b12","D2","batch4","spm_show_trial_num","null","<p class=block-text>Trial 4 out of 60</p>","null","","","","","","","","","","","","","","","","","","","","","","","","","",""
"","","","","","image-button-response","11","148483","0.0-2.0-2.0-1.3","5f88877885e51d02acd71b12","D2","batch4","spm_respsonse","4758.5","img/question_1_4.jpeg","1","mat_04","2","1","1","4758.5","","","","","","","","","","","","","","","","","","","","",""
"","","","","","html-keyboard-response","12","149545","0.0-2.0-2.0-0.4","5f88877885e51d02acd71b12","D2","batch4","spm_show_trial_num","null","<p class=block-text>Trial 5 out of 60</p>","null","","","","","","","","","","","","","","","","","","","","","","","","","",""
"","","","","","image-button-response","13","157233","0.0-2.0-2.0-1.4","5f88877885e51d02acd71b12","D2","batch4","spm_respsonse","7669.700000047684","img/question_1_5.jpeg","5","mat_05","6","1","1","7669.700000047684","","","","","","","","","","","","","","","","","","","","",""
"","","","","","html-keyboard-response","14","158297","0.0-2.0-2.0-0.5","5f88877885e51d02acd71b12","D2","batch4","spm_show_trial_num","null","<p class=block-text>Trial 6 out of 60</p>","null","","","","","","","","","","","","","","","","","","","","","","","","","",""
"","","","","","image-button-response","15","162829","0.0-2.0-2.0-1.5","5f88877885e51d02acd71b12","D2","batch4","spm_respsonse","4514.5","img/question_1_6.jpeg","2","mat_06","3","1","1","4514.5","","","","","","","","","","","","","","","","","","","","",""
"","","","","","html-keyboard-response","16","163897","0.0-2.0-2.0-0.6","5f88877885e51d02acd71b12","D2","batch4","spm_show_trial_num","null","<p class=block-text>Trial 7 out of 60</p>","null","","","","","","","","","","","","","","","","","","","","","","","","","",""
"","","","","","image-button-response","17","174974","0.0-2.0-2.0-1.6","5f88877885e51d02acd71b12","D2","batch4","spm_respsonse","11057.300000011921","img/question_1_7.jpeg","5","mat_07","6","1","1","11057.300000011921","","","","","","","","","","","","","","","","","","","","",""
"","","","","","html-keyboard-response","18","176041","0.0-2.0-2.0-0.7","5f88877885e51d02acd71b12","D2","batch4","spm_show_trial_num","null","<p class=block-text>Trial 8 out of 60</p>","null","","","","","","","","","","","","","","","","","","","","","","","","","",""
"","","","","","image-button-response","19","190653","0.0-2.0-2.0-1.7","5f88877885e51d02acd71b12","D2","batch4","spm_respsonse","14591.300000011921","img/question_1_8.jpeg","1","mat_08","2","1","1","14591.300000011921","","","","","","","","","","","","","","","","","","","","",""
"","","","","","html-keyboard-response","20","191716","0.0-2.0-2.0-0.8","5f88877885e51d02acd71b12","D2","batch4","spm_show_trial_num","null","<p class=block-text>Trial 9 out of 60</p>","null","","","","","","","","","","","","","","","","","","","","","","","","","",""
"","","","","","image-button-response","21","205130","0.0-2.0-2.0-1.8","5f88877885e51d02acd71b12","D2","batch4","spm_respsonse","13396.899999976158","img/question_1_9.jpeg","0","mat_09","1","1","1","13396.899999976158","","","","","","","","","","","","","","","","","","","","",""
"","","","","","html-keyboard-response","22","206194","0.0-2.0-2.0-0.9","5f88877885e51d02acd71b12","D2","batch4","spm_show_trial_num","null","<p class=block-text>Trial 10 out of 60</p>","null","","","","","","","","","","","","","","","","","","","","","","","","","",""
"","","","","","image-button-response","23","234136","0.0-2.0-2.0-1.9","5f88877885e51d02acd71b12","D2","batch4","spm_respsonse","27922.600000023842","img/question_1_10.jpeg","4","mat_10","3","0","0","27922.600000023842","","","","","","","","","","","","","","","","","","","","",""
"","","","","","html-keyboard-response","24","235201","0.0-2.0-2.0-0.10","5f88877885e51d02acd71b12","D2","batch4","spm_show_trial_num","null","<p class=block-text>Trial 11 out of 60</p>","null","","","","","","","","","","","","","","","","","","","","","","","","","",""
"","","","","","image-button-response","25","268422","0.0-2.0-2.0-1.10","5f88877885e51d02acd71b12","D2","batch4","spm_respsonse","33200","img/question_1_11.jpeg","3","mat_11","4","1","1","33200","","","","","","","","","","","","","","","","","","","","",""
"","","","","","html-keyboard-response","26","269489","0.0-2.0-2.0-0.11","5f88877885e51d02acd71b12","D2","batch4","spm_show_trial_num","null","<p class=block-text>Trial 12 out of 60</p>","null","","","","","","","","","","","","","","","","","","","","","","","","","",""
"","","","","","image-button-response","27","288550","0.0-2.0-2.0-1.11","5f88877885e51d02acd71b12","D2","batch4","spm_respsonse","19041.100000023842","img/question_1_12.jpeg","5","mat_12","5","0","0","19041.100000023842","","","","","","","","","","","","","","","","","","","","",""
"","","","","","html-keyboard-response","28","289618","0.0-2.0-2.0-0.12","5f88877885e51d02acd71b12","D2","batch4","spm_show_trial_num","null","<p class=block-text>Trial 13 out of 60</p>","null","","","","","","","","","","","","","","","","","","","","","","","","","",""
"","","","","","image-button-response","29","294294","0.0-2.0-2.0-1.12","5f88877885e51d02acd71b12","D2","batch4","spm_respsonse","4656.099999964237","img/question_2_1.jpeg","1","mat_13","2","1","1","4656.099999964237","","","","","","","","","","","","","","","","","","","","",""
"","","","","","html-keyboard-response","30","295362","0.0-2.0-2.0-0.13","5f88877885e51d02acd71b12","D2","batch4","spm_show_trial_num","null","<p class=block-text>Trial 14 out of 60</p>","null","","","","","","","","","","","","","","","","","","","","","","","","","",""
"","","","","","image-button-response","31","303624","0.0-2.0-2.0-1.13","5f88877885e51d02acd71b12","D2","batch4","spm_respsonse","8238.5","img/question_2_2.jpeg","5","mat_14","6","1","1","8238.5","","","","","","","","","","","","","","","","","","","","",""
"","","","","","html-keyboard-response","32","304689","0.0-2.0-2.0-0.14","5f88877885e51d02acd71b12","D2","batch4","spm_show_trial_num","null","<p class=block-text>Trial 15 out of 60</p>","null","","","","","","","","","","","","","","","","","","","","","","","","","",""
"","","","","","image-button-response","33","309681","0.0-2.0-2.0-1.14","5f88877885e51d02acd71b12","D2","batch4","spm_respsonse","4975.700000047684","img/question_2_3.jpeg","0","mat_15","1","1","1","4975.700000047684","","","","","","","","","","","","","","","","","","","","",""
"","","","","","html-keyboard-response","34","310749","0.0-2.0-2.0-0.15","5f88877885e51d02acd71b12","D2","batch4","spm_show_trial_num","null","<p class=block-text>Trial 16 out of 60</p>","null","","","","","","","","","","","","","","","","","","","","","","","","","",""
"","","","","","image-button-response","35","323758","0.0-2.0-2.0-1.15","5f88877885e51d02acd71b12","D2","batch4","spm_respsonse","12989.099999964237","img/question_2_4.jpeg","1","mat_16","2","1","1","12989.099999964237","","","","","","","","","","","","","","","","","","","","",""
"","","","","","html-keyboard-response","36","324826","0.0-2.0-2.0-0.16","5f88877885e51d02acd71b12","D2","batch4","spm_show_trial_num","null","<p class=block-text>Trial 17 out of 60</p>","null","","","","","","","","","","","","","","","","","","","","","","","","","",""
"","","","","","image-button-response","37","335557","0.0-2.0-2.0-1.16","5f88877885e51d02acd71b12","D2","batch4","spm_respsonse","10712.100000023842","img/question_2_5.jpeg","0","mat_17","1","1","1","10712.100000023842","","","","","","","","","","","","","","","","","","","","",""
"","","","","","html-keyboard-response","38","336625","0.0-2.0-2.0-0.17","5f88877885e51d02acd71b12","D2","batch4","spm_show_trial_num","null","<p class=block-text>Trial 18 out of 60</p>","null","","","","","","","","","","","","","","","","","","","","","","","","","",""
"","","","","","image-button-response","39","359862","0.0-2.0-2.0-1.17","5f88877885e51d02acd71b12","D2","batch4","spm_respsonse","23221.200000047684","img/question_2_6.jpeg","2","mat_18","3","1","1","23221.200000047684","","","","","","","","","","","","","","","","","","","","",""
"","","","","","html-keyboard-response","40","360938","0.0-2.0-2.0-0.18","5f88877885e51d02acd71b12","D2","batch4","spm_show_trial_num","null","<p class=block-text>Trial 19 out of 60</p>","null","","","","","","","","","","","","","","","","","","","","","","","","","",""
"","","","","","image-button-response","41","372660","0.0-2.0-2.0-1.18","5f88877885e51d02acd71b12","D2","batch4","spm_respsonse","11696.099999964237","img/question_2_7.jpeg","4","mat_19","5","1","1","11696.099999964237","","","","","","","","","","","","","","","","","","","","",""
"","","","","","html-keyboard-response","42","373721","0.0-2.0-2.0-0.19","5f88877885e51d02acd71b12","D2","batch4","spm_show_trial_num","null","<p class=block-text>Trial 20 out of 60</p>","null","","","","","","","","","","","","","","","","","","","","","","","","","",""
"","","","","","image-button-response","43","399560","0.0-2.0-2.0-1.19","5f88877885e51d02acd71b12","D2","batch4","spm_respsonse","25818.100000023842","img/question_2_8.jpeg","5","mat_20","6","1","1","25818.100000023842","","","","","","","","","","","","","","","","","","","","",""
"","","","","","html-keyboard-response","44","400625","0.0-2.0-2.0-0.20","5f88877885e51d02acd71b12","D2","batch4","spm_show_trial_num","null","<p class=block-text>Trial 21 out of 60</p>","null","","","","","","","","","","","","","","","","","","","","","","","","","",""
"","","","","","image-button-response","45","406981","0.0-2.0-2.0-1.20","5f88877885e51d02acd71b12","D2","batch4","spm_respsonse","6336.300000011921","img/question_2_9.jpeg","3","mat_21","4","1","1","6336.300000011921","","","","","","","","","","","","","","","","","","","","",""
"","","","","","html-keyboard-response","46","408049","0.0-2.0-2.0-0.21","5f88877885e51d02acd71b12","D2","batch4","spm_show_trial_num","null","<p class=block-text>Trial 22 out of 60</p>","null","","","","","","","","","","","","","","","","","","","","","","","","","",""
"","","","","","image-button-response","47","424159","0.0-2.0-2.0-1.21","5f88877885e51d02acd71b12","D2","batch4","spm_respsonse","16092","img/question_2_10.jpeg","2","mat_22","3","1","1","16092","","","","","","","","","","","","","","","","","","","","",""
"","","","","","html-keyboard-response","48","425225","0.0-2.0-2.0-0.22","5f88877885e51d02acd71b12","D2","batch4","spm_show_trial_num","null","<p class=block-text>Trial 23 out of 60</p>","null","","","","","","","","","","","","","","","","","","","","","","","","","",""
"","","","","","image-button-response","49","435809","0.0-2.0-2.0-1.22","5f88877885e51d02acd71b12","D2","batch4","spm_respsonse","10564.599999964237","img/question_2_11.jpeg","3","mat_23","4","1","1","10564.599999964237","","","","","","","","","","","","","","","","","","","","",""
"","","","","","html-keyboard-response","50","436873","0.0-2.0-2.0-0.23","5f88877885e51d02acd71b12","D2","batch4","spm_show_trial_num","null","<p class=block-text>Trial 24 out of 60</p>","null","","","","","","","","","","","","","","","","","","","","","","","","","",""
"","","","","","image-button-response","51","450660","0.0-2.0-2.0-1.23","5f88877885e51d02acd71b12","D2","batch4","spm_respsonse","13768.5","img/question_2_12.jpeg","4","mat_24","5","1","1","13768.5","","","","","","","","","","","","","","","","","","","","",""
"","","","","","html-button-response","52","453081","0.0-2.0-3.0","5f88877885e51d02acd71b12","D2","batch4","attention_check","2161.400000035763","<p class = block-text>Attention check: Please choose 1<br></p>","0","","","true","","","","","","","","","","","","","","","","","","","","","","",""
"","","","","","html-keyboard-response","53","453890","0.0-2.0-4.0-0.0","5f88877885e51d02acd71b12","D2","batch4","spm_show_trial_num","null","<p class=block-text>Trial 25 out of 60</p>","null","","","","","","","","","","","","","","","","","","","","","","","","","",""
"","","","","","image-button-response","54","468760","0.0-2.0-4.0-1.0","5f88877885e51d02acd71b12","D2","batch4","spm_respsonse","14848.599999964237","img/question_3_1.jpeg","7","mat_25","8","1","1","14848.599999964237","","","","","","","","","","","","","","","","","","","","",""
"","","","","","html-keyboard-response","55","469825","0.0-2.0-4.0-0.1","5f88877885e51d02acd71b12","D2","batch4","spm_show_trial_num","null","<p class=block-text>Trial 26 out of 60</p>","null","","","","","","","","","","","","","","","","","","","","","","","","","",""
"","","","","","image-button-response","56","481114","0.0-2.0-4.0-1.1","5f88877885e51d02acd71b12","D2","batch4","spm_respsonse","11268.5","img/question_3_2.jpeg","1","mat_26","2","1","1","11268.5","","","","","","","","","","","","","","","","","","","","",""
"","","","","","html-keyboard-response","57","482178","0.0-2.0-4.0-0.2","5f88877885e51d02acd71b12","D2","batch4","spm_show_trial_num","null","<p class=block-text>Trial 27 out of 60</p>","null","","","","","","","","","","","","","","","","","","","","","","","","","",""
"","","","","","image-button-response","58","516299","0.0-2.0-4.0-1.2","5f88877885e51d02acd71b12","D2","batch4","spm_respsonse","34096.39999997616","img/question_3_3.jpeg","2","mat_27","3","1","1","34096.39999997616","","","","","","","","","","","","","","","","","","","","",""
"","","","","","html-keyboard-response","59","517360","0.0-2.0-4.0-0.3","5f88877885e51d02acd71b12","D2","batch4","spm_show_trial_num","null","<p class=block-text>Trial 28 out of 60</p>","null","","","","","","","","","","","","","","","","","","","","","","","","","",""
"","","","","","image-button-response","60","541038","0.0-2.0-4.0-1.3","5f88877885e51d02acd71b12","D2","batch4","spm_respsonse","23657.200000047684","img/question_3_4.jpeg","3","mat_28","8","0","0","23657.200000047684","","","","","","","","","","","","","","","","","","","","",""
"","","","","","html-keyboard-response","61","542105","0.0-2.0-4.0-0.4","5f88877885e51d02acd71b12","D2","batch4","spm_show_trial_num","null","<p class=block-text>Trial 29 out of 60</p>","null","","","","","","","","","","","","","","","","","","","","","","","","","",""
"","","","","","image-button-response","62","554575","0.0-2.0-4.0-1.4","5f88877885e51d02acd71b12","D2","batch4","spm_respsonse","12449","img/question_3_5.jpeg","6","mat_29","7","1","1","12449","","","","","","","","","","","","","","","","","","","","",""
"","","","","","html-keyboard-response","63","555641","0.0-2.0-4.0-0.5","5f88877885e51d02acd71b12","D2","batch4","spm_show_trial_num","null","<p class=block-text>Trial 30 out of 60</p>","null","","","","","","","","","","","","","","","","","","","","","","","","","",""
"","","","","","image-button-response","64","569649","0.0-2.0-4.0-1.5","5f88877885e51d02acd71b12","D2","batch4","spm_respsonse","13988","img/question_3_6.jpeg","3","mat_30","4","1","1","13988","","","","","","","","","","","","","","","","","","","","",""
"","","","","","html-keyboard-response","65","570713","0.0-2.0-4.0-0.6","5f88877885e51d02acd71b12","D2","batch4","spm_show_trial_num","null","<p class=block-text>Trial 31 out of 60</p>","null","","","","","","","","","","","","","","","","","","","","","","","","","",""
"","","","","","image-button-response","66","626097","0.0-2.0-4.0-1.6","5f88877885e51d02acd71b12","D2","batch4","spm_respsonse","55366.90000003576","img/question_3_7.jpeg","4","mat_31","5","1","1","55366.90000003576","","","","","","","","","","","","","","","","","","","","",""
"","","","","","html-keyboard-response","67","627161","0.0-2.0-4.0-0.7","5f88877885e51d02acd71b12","D2","batch4","spm_show_trial_num","null","<p class=block-text>Trial 32 out of 60</p>","null","","","","","","","","","","","","","","","","","","","","","","","","","",""
"","","","","","image-button-response","68","679200","0.0-2.0-4.0-1.7","5f88877885e51d02acd71b12","D2","batch4","spm_respsonse","52021.69999998808","img/question_3_8.jpeg","1","mat_32","1","0","0","52021.69999998808","","","","","","","","","","","","","","","","","","","","",""
"","","","","","html-keyboard-response","69","680265","0.0-2.0-4.0-0.8","5f88877885e51d02acd71b12","D2","batch4","spm_show_trial_num","null","<p class=block-text>Trial 33 out of 60</p>","null","","","","","","","","","","","","","","","","","","","","","","","","","",""
"","","","","","image-button-response","70","694767","0.0-2.0-4.0-1.8","5f88877885e51d02acd71b12","D2","batch4","spm_respsonse","14481","img/question_3_9.jpeg","6","mat_33","7","1","1","14481","","","","","","","","","","","","","","","","","","","","",""
"","","","","","html-keyboard-response","71","695834","0.0-2.0-4.0-0.9","5f88877885e51d02acd71b12","D2","batch4","spm_show_trial_num","null","<p class=block-text>Trial 34 out of 60</p>","null","","","","","","","","","","","","","","","","","","","","","","","","","",""
"","","","","","image-button-response","72","717214","0.0-2.0-4.0-1.9","5f88877885e51d02acd71b12","D2","batch4","spm_respsonse","21357.19999998808","img/question_3_10.jpeg","5","mat_34","6","1","1","21357.19999998808","","","","","","","","","","","","","","","","","","","","",""
"","","","","","html-keyboard-response","73","718281","0.0-2.0-4.0-0.10","5f88877885e51d02acd71b12","D2","batch4","spm_show_trial_num","null","<p class=block-text>Trial 35 out of 60</p>","null","","","","","","","","","","","","","","","","","","","","","","","","","",""
"","","","","","image-button-response","74","741901","0.0-2.0-4.0-1.10","5f88877885e51d02acd71b12","D2","batch4","spm_respsonse","23595","img/question_3_11.jpeg","4","mat_35","1","0","0","23595","","","","","","","","","","","","","","","","","","","","",""
"","","","","","html-keyboard-response","75","742973","0.0-2.0-4.0-0.11","5f88877885e51d02acd71b12","D2","batch4","spm_show_trial_num","null","<p class=block-text>Trial 36 out of 60</p>","null","","","","","","","","","","","","","","","","","","","","","","","","","",""
"","","","","","image-button-response","76","756737","0.0-2.0-4.0-1.11","5f88877885e51d02acd71b12","D2","batch4","spm_respsonse","13744.299999952316","img/question_3_12.jpeg","2","mat_36","2","0","0","13744.299999952316","","","","","","","","","","","","","","","","","","","","",""
"","","","","","html-keyboard-response","77","757801","0.0-2.0-4.0-0.12","5f88877885e51d02acd71b12","D2","batch4","spm_show_trial_num","null","<p class=block-text>Trial 37 out of 60</p>","null","","","","","","","","","","","","","","","","","","","","","","","","","",""
"","","","","","image-button-response","78","761721","0.0-2.0-4.0-1.12","5f88877885e51d02acd71b12","D2","batch4","spm_respsonse","3898.800000011921","img/question_4_1.jpeg","2","mat_37","3","1","1","3898.800000011921","","","","","","","","","","","","","","","","","","","","",""
"","","","","","html-keyboard-response","79","762784","0.0-2.0-4.0-0.13","5f88877885e51d02acd71b12","D2","batch4","spm_show_trial_num","null","<p class=block-text>Trial 38 out of 60</p>","null","","","","","","","","","","","","","","","","","","","","","","","","","",""
"","","","","","image-button-response","80","767626","0.0-2.0-4.0-1.13","5f88877885e51d02acd71b12","D2","batch4","spm_respsonse","4830.700000047684","img/question_4_2.jpeg","3","mat_38","4","1","1","4830.700000047684","","","","","","","","","","","","","","","","","","","","",""
"","","","","","html-keyboard-response","81","768690","0.0-2.0-4.0-0.14","5f88877885e51d02acd71b12","D2","batch4","spm_show_trial_num","null","<p class=block-text>Trial 39 out of 60</p>","null","","","","","","","","","","","","","","","","","","","","","","","","","",""
"","","","","","image-button-response","82","782270","0.0-2.0-4.0-1.14","5f88877885e51d02acd71b12","D2","batch4","spm_respsonse","13558.199999988079","img/question_4_3.jpeg","2","mat_39","3","1","1","13558.199999988079","","","","","","","","","","","","","","","","","","","","",""
"","","","","","html-keyboard-response","83","783343","0.0-2.0-4.0-0.15","5f88877885e51d02acd71b12","D2","batch4","spm_show_trial_num","null","<p class=block-text>Trial 40 out of 60</p>","null","","","","","","","","","","","","","","","","","","","","","","","","","",""
"","","","","","image-button-response","84","789649","0.0-2.0-4.0-1.15","5f88877885e51d02acd71b12","D2","batch4","spm_respsonse","6287.199999988079","img/question_4_4.jpeg","6","mat_40","7","1","1","6287.199999988079","","","","","","","","","","","","","","","","","","","","",""
"","","","","","html-keyboard-response","85","790712","0.0-2.0-4.0-0.16","5f88877885e51d02acd71b12","D2","batch4","spm_show_trial_num","null","<p class=block-text>Trial 41 out of 60</p>","null","","","","","","","","","","","","","","","","","","","","","","","","","",""
"","","","","","image-button-response","86","804164","0.0-2.0-4.0-1.16","5f88877885e51d02acd71b12","D2","batch4","spm_respsonse","13441","img/question_4_5.jpeg","7","mat_41","8","1","1","13441","","","","","","","","","","","","","","","","","","","","",""
"","","","","","html-keyboard-response","87","805226","0.0-2.0-4.0-0.17","5f88877885e51d02acd71b12","D2","batch4","spm_show_trial_num","null","<p class=block-text>Trial 42 out of 60</p>","null","","","","","","","","","","","","","","","","","","","","","","","","","",""
"","","","","","image-button-response","88","822287","0.0-2.0-4.0-1.17","5f88877885e51d02acd71b12","D2","batch4","spm_respsonse","17040.899999976158","img/question_4_6.jpeg","5","mat_42","6","1","1","17040.899999976158","","","","","","","","","","","","","","","","","","","","",""
"","","","","","html-keyboard-response","89","823353","0.0-2.0-4.0-0.18","5f88877885e51d02acd71b12","D2","batch4","spm_show_trial_num","null","<p class=block-text>Trial 43 out of 60</p>","null","","","","","","","","","","","","","","","","","","","","","","","","","",""
"","","","","","image-button-response","90","836365","0.0-2.0-4.0-1.18","5f88877885e51d02acd71b12","D2","batch4","spm_respsonse","12992.200000047684","img/question_4_7.jpeg","1","mat_43","5","0","0","12992.200000047684","","","","","","","","","","","","","","","","","","","","",""
"","","","","","html-keyboard-response","91","837434","0.0-2.0-4.0-0.19","5f88877885e51d02acd71b12","D2","batch4","spm_show_trial_num","null","<p class=block-text>Trial 44 out of 60</p>","null","","","","","","","","","","","","","","","","","","","","","","","","","",""
"","","","","","image-button-response","92","851195","0.0-2.0-4.0-1.19","5f88877885e51d02acd71b12","D2","batch4","spm_respsonse","13740.899999976158","img/question_4_8.jpeg","3","mat_44","4","1","1","13740.899999976158","","","","","","","","","","","","","","","","","","","","",""
"","","","","","html-keyboard-response","93","852271","0.0-2.0-4.0-0.20","5f88877885e51d02acd71b12","D2","batch4","spm_show_trial_num","null","<p class=block-text>Trial 45 out of 60</p>","null","","","","","","","","","","","","","","","","","","","","","","","","","",""
"","","","","","image-button-response","94","866461","0.0-2.0-4.0-1.20","5f88877885e51d02acd71b12","D2","batch4","spm_respsonse","14169.700000047684","img/question_4_9.jpeg","4","mat_45","1","0","0","14169.700000047684","","","","","","","","","","","","","","","","","","","","",""
"","","","","","html-keyboard-response","95","867529","0.0-2.0-4.0-0.21","5f88877885e51d02acd71b12","D2","batch4","spm_show_trial_num","null","<p class=block-text>Trial 46 out of 60</p>","null","","","","","","","","","","","","","","","","","","","","","","","","","",""
"","","","","","image-button-response","96","904146","0.0-2.0-4.0-1.21","5f88877885e51d02acd71b12","D2","batch4","spm_respsonse","36596.59999996424","img/question_4_10.jpeg","1","mat_46","2","1","1","36596.59999996424","","","","","","","","","","","","","","","","","","","","",""
"","","","","","html-keyboard-response","97","905220","0.0-2.0-4.0-0.22","5f88877885e51d02acd71b12","D2","batch4","spm_show_trial_num","null","<p class=block-text>Trial 47 out of 60</p>","null","","","","","","","","","","","","","","","","","","","","","","","","","",""
"","","","","","image-button-response","98","951239","0.0-2.0-4.0-1.22","5f88877885e51d02acd71b12","D2","batch4","spm_respsonse","45996.30000001192","img/question_4_11.jpeg","4","mat_47","5","1","1","45996.30000001192","","","","","","","","","","","","","","","","","","","","",""
"","","","","","html-keyboard-response","99","952307","0.0-2.0-4.0-0.23","5f88877885e51d02acd71b12","D2","batch4","spm_show_trial_num","null","<p class=block-text>Trial 48 out of 60</p>","null","","","","","","","","","","","","","","","","","","","","","","","","","",""
"","","","","","image-button-response","100","998873","0.0-2.0-4.0-1.23","5f88877885e51d02acd71b12","D2","batch4","spm_respsonse","46548.80000001192","img/question_4_12.jpeg","4","mat_48","6","0","0","46548.80000001192","","","","","","","","","","","","","","","","","","","","",""
"","","","","","html-keyboard-response","101","999937","0.0-2.0-4.0-0.24","5f88877885e51d02acd71b12","D2","batch4","spm_show_trial_num","null","<p class=block-text>Trial 49 out of 60</p>","null","","","","","","","","","","","","","","","","","","","","","","","","","",""
"","","","","","image-button-response","102","1017244","0.0-2.0-4.0-1.24","5f88877885e51d02acd71b12","D2","batch4","spm_respsonse","17285.400000035763","img/question_5_1.jpeg","6","mat_49","7","1","1","17285.400000035763","","","","","","","","","","","","","","","","","","","","",""
"","","","","","html-keyboard-response","103","1018309","0.0-2.0-4.0-0.25","5f88877885e51d02acd71b12","D2","batch4","spm_show_trial_num","null","<p class=block-text>Trial 50 out of 60</p>","null","","","","","","","","","","","","","","","","","","","","","","","","","",""
"","","","","","image-button-response","104","1040943","0.0-2.0-4.0-1.25","5f88877885e51d02acd71b12","D2","batch4","spm_respsonse","22614.19999998808","img/question_5_2.jpeg","5","mat_50","6","1","1","22614.19999998808","","","","","","","","","","","","","","","","","","","","",""
"","","","","","html-keyboard-response","105","1042009","0.0-2.0-4.0-0.26","5f88877885e51d02acd71b12","D2","batch4","spm_show_trial_num","null","<p class=block-text>Trial 51 out of 60</p>","null","","","","","","","","","","","","","","","","","","","","","","","","","",""
"","","","","","image-button-response","106","1071363","0.0-2.0-4.0-1.26","5f88877885e51d02acd71b12","D2","batch4","spm_respsonse","29340.600000023842","img/question_5_3.jpeg","7","mat_51","8","1","1","29340.600000023842","","","","","","","","","","","","","","","","","","","","",""
"","","","","","html-keyboard-response","107","1072425","0.0-2.0-4.0-0.27","5f88877885e51d02acd71b12","D2","batch4","spm_show_trial_num","null","<p class=block-text>Trial 52 out of 60</p>","null","","","","","","","","","","","","","","","","","","","","","","","","","",""
"","","","","","image-button-response","108","1081278","0.0-2.0-4.0-1.27","5f88877885e51d02acd71b12","D2","batch4","spm_respsonse","8833.599999964237","img/question_5_4.jpeg","1","mat_52","2","1","1","8833.599999964237","","","","","","","","","","","","","","","","","","","","",""
"","","","","","html-keyboard-response","109","1082344","0.0-2.0-4.0-0.28","5f88877885e51d02acd71b12","D2","batch4","spm_show_trial_num","null","<p class=block-text>Trial 53 out of 60</p>","null","","","","","","","","","","","","","","","","","","","","","","","","","",""
"","","","","","image-button-response","110","1092227","0.0-2.0-4.0-1.28","5f88877885e51d02acd71b12","D2","batch4","spm_respsonse","9872.399999976158","img/question_5_5.jpeg","0","mat_53","1","1","1","9872.399999976158","","","","","","","","","","","","","","","","","","","","",""
"","","","","","html-keyboard-response","111","1093291","0.0-2.0-4.0-0.29","5f88877885e51d02acd71b12","D2","batch4","spm_show_trial_num","null","<p class=block-text>Trial 54 out of 60</p>","null","","","","","","","","","","","","","","","","","","","","","","","","","",""
"","","","","","image-button-response","112","1123249","0.0-2.0-4.0-1.29","5f88877885e51d02acd71b12","D2","batch4","spm_respsonse","29940.69999998808","img/question_5_6.jpeg","5","mat_54","5","0","0","29940.69999998808","","","","","","","","","","","","","","","","","","","","",""
"","","","","","html-keyboard-response","113","1124313","0.0-2.0-4.0-0.30","5f88877885e51d02acd71b12","D2","batch4","spm_show_trial_num","null","<p class=block-text>Trial 55 out of 60</p>","null","","","","","","","","","","","","","","","","","","","","","","","","","",""
"","","","","","image-button-response","114","1147179","0.0-2.0-4.0-1.30","5f88877885e51d02acd71b12","D2","batch4","spm_respsonse","22847.19999998808","img/question_5_7.jpeg","0","mat_55","1","1","1","22847.19999998808","","","","","","","","","","","","","","","","","","","","",""
"","","","","","html-keyboard-response","115","1148242","0.0-2.0-4.0-0.31","5f88877885e51d02acd71b12","D2","batch4","spm_show_trial_num","null","<p class=block-text>Trial 56 out of 60</p>","null","","","","","","","","","","","","","","","","","","","","","","","","","",""
"","","","","","image-button-response","116","1191388","0.0-2.0-4.0-1.31","5f88877885e51d02acd71b12","D2","batch4","spm_respsonse","43123.80000001192","img/question_5_8.jpeg","7","mat_56","6","0","0","43123.80000001192","","","","","","","","","","","","","","","","","","","","",""
"","","","","","html-keyboard-response","117","1192449","0.0-2.0-4.0-0.32","5f88877885e51d02acd71b12","D2","batch4","spm_show_trial_num","null","<p class=block-text>Trial 57 out of 60</p>","null","","","","","","","","","","","","","","","","","","","","","","","","","",""
"","","","","","image-button-response","118","1238293","0.0-2.0-4.0-1.32","5f88877885e51d02acd71b12","D2","batch4","spm_respsonse","45824.19999998808","img/question_5_9.jpeg","2","mat_57","3","1","1","45824.19999998808","","","","","","","","","","","","","","","","","","","","",""
"","","","","","html-keyboard-response","119","1239360","0.0-2.0-4.0-0.33","5f88877885e51d02acd71b12","D2","batch4","spm_show_trial_num","null","<p class=block-text>Trial 58 out of 60</p>","null","","","","","","","","","","","","","","","","","","","","","","","","","",""
"","","","","","image-button-response","120","1276860","0.0-2.0-4.0-1.33","5f88877885e51d02acd71b12","D2","batch4","spm_respsonse","37492.10000002384","img/question_5_10.jpeg","1","mat_58","2","1","1","37492.10000002384","","","","","","","","","","","","","","","","","","","","",""
"","","","","","html-keyboard-response","121","1277921","0.0-2.0-4.0-0.34","5f88877885e51d02acd71b12","D2","batch4","spm_show_trial_num","null","<p class=block-text>Trial 59 out of 60</p>","null","","","","","","","","","","","","","","","","","","","","","","","","","",""
"","","","","","image-button-response","122","1319041","0.0-2.0-4.0-1.34","5f88877885e51d02acd71b12","D2","batch4","spm_respsonse","41100.10000002384","img/question_5_11.jpeg","2","mat_59","4","0","0","41100.10000002384","","","","","","","","","","","","","","","","","","","","",""
"","","","","","html-keyboard-response","123","1320106","0.0-2.0-4.0-0.35","5f88877885e51d02acd71b12","D2","batch4","spm_show_trial_num","null","<p class=block-text>Trial 60 out of 60</p>","null","","","","","","","","","","","","","","","","","","","","","","","","","",""
"","","","","","image-button-response","124","1346183","0.0-2.0-4.0-1.35","5f88877885e51d02acd71b12","D2","batch4","spm_respsonse","26054.099999964237","img/question_5_12.jpeg","5","mat_60","5","0","0","26054.099999964237","","","","","","","","","","","","","","","","","","","","",""
"","","","","","html-button-response","125","1348020","0.0-2.0-5.0","5f88877885e51d02acd71b12","D2","batch4","spm_goodbye","1570","<p class= block-text>This concludes the Standard Progressive Matrix game. Thank you for your responses!<br> When you are ready, click the button continue</p>","0","","","","","","","","","","","","","","","","","","","","","","","","","",""
"true","","","","","fullscreen","126","1356138","0.0-3.0-0.0","5f88877885e51d02acd71b12","D2","batch4","","","","","","","","","","","","","","","","","","","","","","","","","","","","","",""
"","","","","","instructions","127","1430899","0.0-3.0-1.0-0.0-0.0","5f88877885e51d02acd71b12","D2","batch4","tol-instructions","74748.69999998808","","","","","","","","[{""page_index"":0,""viewing_time"":18791.399999976158},{""page_index"":1,""viewing_time"":11796.600000023842},{""page_index"":2,""viewing_time"":8422.199999988079},{""page_index"":3,""viewing_time"":10819.899999976158},{""page_index"":4,""viewing_time"":6450.100000023842},{""page_index"":5,""viewing_time"":15719.899999976158},{""page_index"":6,""viewing_time"":2746.600000023842}]","","","","","","","","","","","","","","","","","","","",""
"","","","","","html-button-response","128","1432352","0.0-3.0-1.0-1.0-0.0","5f88877885e51d02acd71b12","D2","batch4","tol_enter_quiz","1447.800000011921","<p class=block-text> Let's answer a few questions <br>","0","","","","","","","","","","","","","","","","","","","","","","","","","",""
"","","","","","html-button-response","129","1436452","0.0-3.0-1.0-1.0-1.0","5f88877885e51d02acd71b12","D2","batch4","tol_quiz","4093.5","<p class = block-text>True or False: You can only move the ball on top of a peg. <br></p>","0","","","true","","","","","","","","","","","","","","","","","","","","","","",""
"","","","","","html-button-response","130","1437832","0.0-3.0-1.0-1.0-2.0","5f88877885e51d02acd71b12","D2","batch4","tol_quiz_feedback","1373.5","<p class = block-text>Correct! You can only move the ball on top of a peg.</p>","0","","","","","","","","","","","","","","","","","","","","","","","","","",""
"","","","","","html-button-response","131","1441165","0.0-3.0-1.0-1.0-3.0","5f88877885e51d02acd71b12","D2","batch4","tol_quiz","3328.899999976158","<p class = block-text>True or False: You should try to match your board with the target board with fewest moves possible. <br></p>","0","","","true","","","","","","","","","","","","","","","","","","","","","","",""
"","","","","","html-button-response","132","1442093","0.0-3.0-1.0-1.0-4.0","5f88877885e51d02acd71b12","D2","batch4","tol_quiz_feedback","923.6999999880791","<p class = block-text>Correct! </p>","0","","","","","","","","","","","","","","","","","","","","","","","","","",""
"","","","","","html-button-response","133","1444021","0.0-3.0-2.0","5f88877885e51d02acd71b12","D2","batch4","","1922.0999999642372","<p class=block-text> Now that you've understood the game, let's practice a few easier examples before we start!<br> <br>","0","","","","","","","","","","","","","","","","","","","","","","","","","",""
"","","","","","single-stim-button","134","1455519","0.0-3.0-3.0-0.0","5f88877885e51d02acd71b12","D2","batch4","tol_practice","11492","","","","","","","","","tol_peg_2","11492","11492","0","[[1,2,0],[0,0],[0]]","1","[[1,2,0],[0,0],[3]]","practice","11492","","","","","","","","","","",""
"","","","","","single-stim-button","135","1459399","0.0-3.0-3.0-1.0","5f88877885e51d02acd71b12","D2","batch4","tol_practice","3877","","","","","","","","","tol_peg_3","3877","3877","0","[[1,2,0],[0,0],[3]]","1","[[1,2,0],[0,0],[3]]","practice","3877","","","","","","","","","","",""
"","","","","","poldrack-single-stim","136","1460416","0.0-3.0-4.0","5f88877885e51d02acd71b12","D2","batch4","tol_feedback","-1","","","","","true","","","","","1000","1000","500","","","","","","-1","none","true","","0","","","","","",""
"","","","","","single-stim-button","137","1467777","0.0-3.0-5.0-0.0","5f88877885e51d02acd71b12","D2","batch4","tol_practice","7352","","","","","","","","","tol_peg_1","7352","7352","0","[[1,0,0],[3,0],[0]]","2","[[0,0,0],[3,1],[2]]","practice","7352","","","","","","","","","","",""
"","","","","","single-stim-button","138","1468697","0.0-3.0-5.0-1.0","5f88877885e51d02acd71b12","D2","batch4","tol_practice","915","","","","","","","","","tol_peg_3","915","915","0","[[1,0,0],[3,0],[2]]","2","[[0,0,0],[3,1],[2]]","practice","915","","","","","","","","","","",""
"","","","","","single-stim-button","139","1471051","0.0-3.0-5.1-0.1","5f88877885e51d02acd71b12","D2","batch4","tol_practice","2351","","","","","","","","","tol_peg_1","2351","2351","0","[[0,0,0],[3,0],[2]]","3","[[0,0,0],[3,1],[2]]","practice","2351","","","","","","","","","","",""
"","","","","","single-stim-button","140","1471797","0.0-3.0-5.1-1.1","5f88877885e51d02acd71b12","D2","batch4","tol_practice","743","","","","","","","","","tol_peg_2","743","743","0","[[0,0,0],[3,1],[2]]","3","[[0,0,0],[3,1],[2]]","practice","743","","","","","","","","","","",""
"","","","","","poldrack-single-stim","141","1472807","0.0-3.0-6.0","5f88877885e51d02acd71b12","D2","batch4","tol_feedback","-1","","","","","true","","","","","1000","1000","500","","","","","","-1","none","true","","0","","","","","",""
"","","","","","single-stim-button","142","1477291","0.0-3.0-7.0-0.0","5f88877885e51d02acd71b12","D2","batch4","tol_practice","4477","","","","","","","","","tol_peg_2","4477","4477","0","[[1,2,0],[0,0],[0]]","4","[[1,0,0],[2,0],[3]]","practice","4477","","","","","","","","","","",""
"","","","","","single-stim-button","143","1478458","0.0-3.0-7.0-1.0","5f88877885e51d02acd71b12","D2","batch4","tol_practice","1164","","","","","","","","","tol_peg_3","1164","1164","0","[[1,2,0],[0,0],[3]]","4","[[1,0,0],[2,0],[3]]","practice","1164","","","","","","","","","","",""
"","","","","","single-stim-button","144","1489498","0.0-3.0-7.1-0.1","5f88877885e51d02acd71b12","D2","batch4","tol_practice","11037","","","","","","","","","tol_peg_1","11037","11037","0","[[1,0,0],[0,0],[3]]","5","[[1,0,0],[2,0],[3]]","practice","11037","","","","","","","","","","",""
"","","","","","single-stim-button","145","1490536","0.0-3.0-7.1-1.1","5f88877885e51d02acd71b12","D2","batch4","tol_practice","1034","","","","","","","","","tol_peg_2","1034","1034","0","[[1,0,0],[2,0],[3]]","5","[[1,0,0],[2,0],[3]]","practice","1034","","","","","","","","","","",""
"","","","","","poldrack-single-stim","146","1491547","0.0-3.0-8.0","5f88877885e51d02acd71b12","D2","batch4","tol_feedback","-1","","","","","true","","","","","1000","1000","500","","","","","","-1","none","true","","0","","","","","",""
"","","","","","html-button-response","147","1508476","0.0-3.0-9.0","5f88877885e51d02acd71b12","D2","batch4","tol_instruction","16919.899999976158","<div class = centerbox><p class = center-block-text>Great job! You are done with practice trials<br>You are about to start official trials.<br> <br> Problem <strong>1</strong> out of 25 problems</p></div>","0","","","","","","","","","","","","","","","","","","","","","","","","","",""
"","","","","","single-stim-button","148","1514200","0.0-3.0-10.0-0.0","5f88877885e51d02acd71b12","D2","batch4","tol_tohand","4708","","","","","","","","","tol_peg_2","4708","4708","0","[[1,2,0],[0,0],[0]]","1","[[1,3,0],[2,0],[0]]","0","0","","","","","","3","","","","",""
"","","","","","single-stim-button","149","1516017","0.0-3.0-10.0-1.0","5f88877885e51d02acd71b12","D2","batch4","tol_toboard","1813","","","","","","","","","tol_peg_3","1813","1813","0","[[1,2,0],[0,0],[3]]","1","[[1,3,0],[2,0],[0]]","0","0","","","","","","3","","","","",""
"","","","","","single-stim-button","150","1518052","0.0-3.0-10.1-0.1","5f88877885e51d02acd71b12","D2","batch4","tol_tohand","2031","","","","","","","","","tol_peg_1","2031","2031","0","[[1,0,0],[0,0],[3]]","2","[[1,3,0],[2,0],[0]]","0","0","","","","","","3","","","","",""
"","","","","","single-stim-button","151","1518876","0.0-3.0-10.1-1.1","5f88877885e51d02acd71b12","D2","batch4","tol_toboard","822","","","","","","","","","tol_peg_2","822","822","0","[[1,0,0],[2,0],[3]]","2","[[1,3,0],[2,0],[0]]","0","0","","","","","","3","","","","",""
"","","","","","single-stim-button","152","1520660","0.0-3.0-10.2-0.2","5f88877885e51d02acd71b12","D2","batch4","tol_tohand","1781","","","","","","","","","tol_peg_3","1781","1781","0","[[1,0,0],[2,0],[0]]","3","[[1,3,0],[2,0],[0]]","0","0","","","","","","3","","","","",""
"","","","","","single-stim-button","153","1521468","0.0-3.0-10.2-1.2","5f88877885e51d02acd71b12","D2","batch4","tol_toboard","806","","","","","","","","","tol_peg_1","806","806","0","[[1,3,0],[2,0],[0]]","3","[[1,3,0],[2,0],[0]]","0","0","","","","","","3","","","","",""
"","","","","","poldrack-single-stim","154","1522473","0.0-3.0-11.0","5f88877885e51d02acd71b12","D2","batch4","tol_feedback","-1","","","","","true","","","","","1000","1000","500","","","","","","-1","none","true","4708","8520","","","","","",""
"","","","","","html-button-response","155","1523677","0.0-3.0-12.0","5f88877885e51d02acd71b12","D2","batch4","tol_trial_num","1198.8999999761581","<div class = centerbox><p class = center-block-text>problem <strong>2</strong> out of 25 problems</p></div>","0","","","","","","","","","","","","","","","","","","","","","","","","","",""
"","","","","","single-stim-button","156","1530737","0.0-3.0-13.0-0.0","5f88877885e51d02acd71b12","D2","batch4","tol_tohand","7057","","","","","","","","","tol_peg_2","7057","7057","0","[[1,2,0],[0,0],[0]]","1","[[2,1,3],[0,0],[0]]","1","0","","","","","","5","","","","",""
"","","","","","single-stim-button","157","1531472","0.0-3.0-13.0-1.0","5f88877885e51d02acd71b12","D2","batch4","tol_toboard","733","","","","","","","","","tol_peg_3","733","733","0","[[1,2,0],[0,0],[3]]","1","[[2,1,3],[0,0],[0]]","1","0","","","","","","5","","","","",""
"","","","","","single-stim-button","158","1532669","0.0-3.0-13.1-0.1","5f88877885e51d02acd71b12","D2","batch4","tol_tohand","1196","","","","","","","","","tol_peg_1","1196","1196","0","[[1,0,0],[0,0],[3]]","2","[[2,1,3],[0,0],[0]]","1","0","","","","","","5","","","","",""
"","","","","","single-stim-button","159","1546056","0.0-3.0-13.1-1.1","5f88877885e51d02acd71b12","D2","batch4","tol_toboard","13386","","","","","","","","","tol_peg_2","13386","13386","0","[[1,0,0],[2,0],[3]]","2","[[2,1,3],[0,0],[0]]","1","0","","","","","","5","","","","",""
"","","","","","single-stim-button","160","1547033","0.0-3.0-13.2-0.2","5f88877885e51d02acd71b12","D2","batch4","tol_tohand","973","","","","","","","","","tol_peg_1","973","973","0","[[0,0,0],[2,0],[3]]","3","[[2,1,3],[0,0],[0]]","1","0","","","","","","5","","","","",""
"","","","","","single-stim-button","161","1550435","0.0-3.0-13.2-1.2","5f88877885e51d02acd71b12","D2","batch4","tol_toboard","3398","","","","","","","","","tol_peg_2","3398","3398","0","[[0,0,0],[2,1],[3]]","3","[[2,1,3],[0,0],[0]]","1","0","","","","","","5","","","","",""
"","","","","","single-stim-button","162","1555139","0.0-3.0-13.3-0.3","5f88877885e51d02acd71b12","D2","batch4","tol_tohand","4701","","","","","","","","","tol_peg_3","4701","4701","0","[[0,0,0],[2,1],[0]]","4","[[2,1,3],[0,0],[0]]","1","0","","","","","","5","","","","",""
"","","","","","single-stim-button","163","1556370","0.0-3.0-13.3-1.3","5f88877885e51d02acd71b12","D2","batch4","tol_toboard","1228","","","","","","","","","tol_peg_1","1228","1228","0","[[3,0,0],[2,1],[0]]","4","[[2,1,3],[0,0],[0]]","1","0","","","","","","5","","","","",""
"","","","","","single-stim-button","164","1557153","0.0-3.0-13.4-0.4","5f88877885e51d02acd71b12","D2","batch4","tol_tohand","779","","","","","","","","","tol_peg_2","779","779","0","[[3,0,0],[2,0],[0]]","5","[[2,1,3],[0,0],[0]]","1","0","","","","","","5","","","","",""
"","","","","","single-stim-button","165","1557936","0.0-3.0-13.4-1.4","5f88877885e51d02acd71b12","D2","batch4","tol_toboard","780","","","","","","","","","tol_peg_3","780","780","0","[[3,0,0],[2,0],[1]]","5","[[2,1,3],[0,0],[0]]","1","0","","","","","","5","","","","",""
"","","","","","single-stim-button","166","1568613","0.0-3.0-13.5-0.5","5f88877885e51d02acd71b12","D2","batch4","tol_tohand","10674","","","","","","","","","tol_peg_1","10674","10674","0","[[0,0,0],[2,0],[1]]","6","[[2,1,3],[0,0],[0]]","1","0","","","","","","5","","","","",""
"","","","","","single-stim-button","167","1569429","0.0-3.0-13.5-1.5","5f88877885e51d02acd71b12","D2","batch4","tol_toboard","810","","","","","","","","","tol_peg_2","810","810","0","[[0,0,0],[2,3],[1]]","6","[[2,1,3],[0,0],[0]]","1","0","","","","","","5","","","","",""
"","","","","","single-stim-button","168","1577477","0.0-3.0-13.6-0.6","5f88877885e51d02acd71b12","D2","batch4","tol_tohand","8045","","","","","","","","","tol_peg_3","8045","8045","0","[[0,0,0],[2,3],[0]]","7","[[2,1,3],[0,0],[0]]","1","0","","","","","","5","","","","",""
"","","","","","single-stim-button","169","1578371","0.0-3.0-13.6-1.6","5f88877885e51d02acd71b12","D2","batch4","tol_toboard","891","","","","","","","","","tol_peg_1","891","891","0","[[1,0,0],[2,3],[0]]","7","[[2,1,3],[0,0],[0]]","1","0","","","","","","5","","","","",""
"","","","","","single-stim-button","170","1579411","0.0-3.0-13.7-0.7","5f88877885e51d02acd71b12","D2","batch4","tol_tohand","1037","","","","","","","","","tol_peg_2","1037","1037","0","[[1,0,0],[2,0],[0]]","8","[[2,1,3],[0,0],[0]]","1","0","","","","","","5","","","","",""
"","","","","","single-stim-button","171","1580058","0.0-3.0-13.7-1.7","5f88877885e51d02acd71b12","D2","batch4","tol_toboard","645","","","","","","","","","tol_peg_1","645","645","0","[[1,3,0],[2,0],[0]]","8","[[2,1,3],[0,0],[0]]","1","0","","","","","","5","","","","",""
"","","","","","single-stim-button","172","1580851","0.0-3.0-13.8-0.8","5f88877885e51d02acd71b12","D2","batch4","tol_tohand","791","","","","","","","","","tol_peg_2","791","791","0","[[1,3,0],[0,0],[0]]","9","[[2,1,3],[0,0],[0]]","1","0","","","","","","5","","","","",""
"","","","","","single-stim-button","173","1581689","0.0-3.0-13.8-1.8","5f88877885e51d02acd71b12","D2","batch4","tol_toboard","836","","","","","","","","","tol_peg_3","836","836","0","[[1,3,0],[0,0],[2]]","9","[[2,1,3],[0,0],[0]]","1","0","","","","","","5","","","","",""
"","","","","","single-stim-button","174","1582854","0.0-3.0-13.9-0.9","5f88877885e51d02acd71b12","D2","batch4","tol_tohand","1162","","","","","","","","","tol_peg_1","1162","1162","0","[[1,0,0],[0,0],[2]]","10","[[2,1,3],[0,0],[0]]","1","0","","","","","","5","","","","",""
"","","","","","single-stim-button","175","1583631","0.0-3.0-13.9-1.9","5f88877885e51d02acd71b12","D2","batch4","tol_toboard","774","","","","","","","","","tol_peg_2","774","774","0","[[1,0,0],[3,0],[2]]","10","[[2,1,3],[0,0],[0]]","1","0","","","","","","5","","","","",""
"","","","","","single-stim-button","176","1584341","0.0-3.0-13.10-0.10","5f88877885e51d02acd71b12","D2","batch4","tol_tohand","705","","","","","","","","","tol_peg_1","705","705","0","[[0,0,0],[3,0],[2]]","11","[[2,1,3],[0,0],[0]]","1","0","","","","","","5","","","","",""
"","","","","","single-stim-button","177","1584940","0.0-3.0-13.10-1.10","5f88877885e51d02acd71b12","D2","batch4","tol_toboard","597","","","","","","","","","tol_peg_2","597","597","0","[[0,0,0],[3,1],[2]]","11","[[2,1,3],[0,0],[0]]","1","0","","","","","","5","","","","",""
"","","","","","single-stim-button","178","1586007","0.0-3.0-13.11-0.11","5f88877885e51d02acd71b12","D2","batch4","tol_tohand","1064","","","","","","","","","tol_peg_3","1064","1064","0","[[0,0,0],[3,1],[0]]","12","[[2,1,3],[0,0],[0]]","1","0","","","","","","5","","","","",""
"","","","","","single-stim-button","179","1586644","0.0-3.0-13.11-1.11","5f88877885e51d02acd71b12","D2","batch4","tol_toboard","633","","","","","","","","","tol_peg_1","633","633","0","[[2,0,0],[3,1],[0]]","12","[[2,1,3],[0,0],[0]]","1","0","","","","","","5","","","","",""
"","","","","","single-stim-button","180","1587365","0.0-3.0-13.12-0.12","5f88877885e51d02acd71b12","D2","batch4","tol_tohand","718","","","","","","","","","tol_peg_2","718","718","0","[[2,0,0],[3,0],[0]]","13","[[2,1,3],[0,0],[0]]","1","0","","","","","","5","","","","",""
"","","","","","single-stim-button","181","1588146","0.0-3.0-13.12-1.12","5f88877885e51d02acd71b12","D2","batch4","tol_toboard","778","","","","","","","","","tol_peg_1","778","778","0","[[2,1,0],[3,0],[0]]","13","[[2,1,3],[0,0],[0]]","1","0","","","","","","5","","","","",""
"","","","","","single-stim-button","182","1588880","0.0-3.0-13.13-0.13","5f88877885e51d02acd71b12","D2","batch4","tol_tohand","729","","","","","","","","","tol_peg_2","729","729","0","[[2,1,0],[0,0],[0]]","14","[[2,1,3],[0,0],[0]]","1","0","","","","","","5","","","","",""
"","","","","","single-stim-button","183","1589651","0.0-3.0-13.13-1.13","5f88877885e51d02acd71b12","D2","batch4","tol_toboard","767","","","","","","","","","tol_peg_1","767","767","0","[[2,1,3],[0,0],[0]]","14","[[2,1,3],[0,0],[0]]","1","0","","","","","","5","","","","",""
"","","","","","poldrack-single-stim","184","1590666","0.0-3.0-14.0","5f88877885e51d02acd71b12","D2","batch4","tol_feedback","-1","","","","","true","","","","","1000","1000","500","","","","","","-1","none","true","7057","39631","","","","","",""
"","","","","","html-button-response","185","1592140","0.0-3.0-15.0","5f88877885e51d02acd71b12","D2","batch4","tol_trial_num","1466","<div class = centerbox><p class = center-block-text>problem <strong>3</strong> out of 25 problems</p></div>","0","","","","","","","","","","","","","","","","","","","","","","","","","",""
"","","","","","single-stim-button","186","1607194","0.0-3.0-16.0-0.0","5f88877885e51d02acd71b12","D2","batch4","tol_tohand","15051","","","","","","","","","tol_peg_1","15051","15051","0","[[2,0,0],[0,0],[1]]","1","[[1,2,0],[3,0],[0]]","2","0","","","","","","4","","","","",""
"","","","","","single-stim-button","187","1608193","0.0-3.0-16.0-1.0","5f88877885e51d02acd71b12","D2","batch4","tol_toboard","995","","","","","","","","","tol_peg_2","995","995","0","[[2,0,0],[3,0],[1]]","1","[[1,2,0],[3,0],[0]]","2","0","","","","","","4","","","","",""
"","","","","","single-stim-button","188","1611837","0.0-3.0-16.1-0.1","5f88877885e51d02acd71b12","D2","batch4","tol_tohand","3640","","","","","","","","","tol_peg_1","3640","3640","0","[[0,0,0],[3,0],[1]]","2","[[1,2,0],[3,0],[0]]","2","0","","","","","","4","","","","",""
"","","","","","single-stim-button","189","1613738","0.0-3.0-16.1-1.1","5f88877885e51d02acd71b12","D2","batch4","tol_toboard","1898","","","","","","","","","tol_peg_2","1898","1898","0","[[0,0,0],[3,2],[1]]","2","[[1,2,0],[3,0],[0]]","2","0","","","","","","4","","","","",""
"","","","","","single-stim-button","190","1617878","0.0-3.0-16.2-0.2","5f88877885e51d02acd71b12","D2","batch4","tol_tohand","4138","","","","","","","","","tol_peg_3","4138","4138","0","[[0,0,0],[3,2],[0]]","3","[[1,2,0],[3,0],[0]]","2","0","","","","","","4","","","","",""
"","","","","","single-stim-button","191","1618590","0.0-3.0-16.2-1.2","5f88877885e51d02acd71b12","D2","batch4","tol_toboard","709","","","","","","","","","tol_peg_1","709","709","0","[[1,0,0],[3,2],[0]]","3","[[1,2,0],[3,0],[0]]","2","0","","","","","","4","","","","",""
"","","","","","single-stim-button","192","1619350","0.0-3.0-16.3-0.3","5f88877885e51d02acd71b12","D2","batch4","tol_tohand","757","","","","","","","","","tol_peg_2","757","757","0","[[1,0,0],[3,0],[0]]","4","[[1,2,0],[3,0],[0]]","2","0","","","","","","4","","","","",""
"","","","","","single-stim-button","193","1619942","0.0-3.0-16.3-1.3","5f88877885e51d02acd71b12","D2","batch4","tol_toboard","589","","","","","","","","","tol_peg_1","589","589","0","[[1,2,0],[3,0],[0]]","4","[[1,2,0],[3,0],[0]]","2","0","","","","","","4","","","","",""
"","","","","","poldrack-single-stim","194","1620958","0.0-3.0-17.0","5f88877885e51d02acd71b12","D2","batch4","tol_feedback","-1","","","","","true","","","","","1000","1000","500","","","","","","-1","none","true","15051","23586","","","","","",""
"","","","","","html-button-response","195","1621893","0.0-3.0-18.0","5f88877885e51d02acd71b12","D2","batch4","tol_trial_num","928.5999999642372","<div class = centerbox><p class = center-block-text>problem <strong>4</strong> out of 25 problems</p></div>","0","","","","","","","","","","","","","","","","","","","","","","","","","",""
"","","","","","single-stim-button","196","1627980","0.0-3.0-19.0-0.0","5f88877885e51d02acd71b12","D2","batch4","tol_tohand","6083","","","","","","","","","tol_peg_2","6083","6083","0","[[3,0,0],[2,0],[0]]","1","[[3,0,0],[1,0],[2]]","3","0","","","","","","3","","","","",""
"","","","","","single-stim-button","197","1628491","0.0-3.0-19.0-1.0","5f88877885e51d02acd71b12","D2","batch4","tol_toboard","509","","","","","","","","","tol_peg_1","509","509","0","[[3,1,0],[2,0],[0]]","1","[[3,0,0],[1,0],[2]]","3","0","","","","","","3","","","","",""
"","","","","","single-stim-button","198","1629432","0.0-3.0-19.1-0.1","5f88877885e51d02acd71b12","D2","batch4","tol_tohand","934","","","","","","","","","tol_peg_2","934","934","0","[[3,1,0],[0,0],[0]]","2","[[3,0,0],[1,0],[2]]","3","0","","","","","","3","","","","",""
"","","","","","single-stim-button","199","1630366","0.0-3.0-19.1-1.1","5f88877885e51d02acd71b12","D2","batch4","tol_toboard","930","","","","","","","","","tol_peg_3","930","930","0","[[3,1,0],[0,0],[2]]","2","[[3,0,0],[1,0],[2]]","3","0","","","","","","3","","","","",""
"","","","","","single-stim-button","200","1631031","0.0-3.0-19.2-0.2","5f88877885e51d02acd71b12","D2","batch4","tol_tohand","659","","","","","","","","","tol_peg_1","659","659","0","[[3,0,0],[0,0],[2]]","3","[[3,0,0],[1,0],[2]]","3","0","","","","","","3","","","","",""
"","","","","","single-stim-button","201","1631540","0.0-3.0-19.2-1.2","5f88877885e51d02acd71b12","D2","batch4","tol_toboard","506","","","","","","","","","tol_peg_2","506","506","0","[[3,0,0],[1,0],[2]]","3","[[3,0,0],[1,0],[2]]","3","0","","","","","","3","","","","",""
"","","","","","poldrack-single-stim","202","1632556","0.0-3.0-20.0","5f88877885e51d02acd71b12","D2","batch4","tol_feedback","-1","","","","","true","","","","","1000","1000","500","","","","","","-1","none","true","6083","7676","","","","","",""
"","","","","","html-button-response","203","1633348","0.0-3.0-21.0","5f88877885e51d02acd71b12","D2","batch4","tol_trial_num","783.8999999761581","<div class = centerbox><p class = center-block-text>problem <strong>5</strong> out of 25 problems</p></div>","0","","","","","","","","","","","","","","","","","","","","","","","","","",""
"","","","","","single-stim-button","204","1643230","0.0-3.0-22.0-0.0","5f88877885e51d02acd71b12","D2","batch4","tol_tohand","9878","","","","","","","","","tol_peg_1","9878","9878","0","[[0,0,0],[2,0],[3]]","1","[[0,0,0],[1,2],[3]]","4","0","","","","","","7","","","","",""
"","","","","","single-stim-button","205","1644016","0.0-3.0-22.0-1.0","5f88877885e51d02acd71b12","D2","batch4","tol_toboard","781","","","","","","","","","tol_peg_2","781","781","0","[[0,0,0],[2,1],[3]]","1","[[0,0,0],[1,2],[3]]","4","0","","","","","","7","","","","",""
"","","","","","single-stim-button","206","1647989","0.0-3.0-22.1-0.1","5f88877885e51d02acd71b12","D2","batch4","tol_tohand","3971","","","","","","","","","tol_peg_3","3971","3971","0","[[0,0,0],[2,1],[0]]","2","[[0,0,0],[1,2],[3]]","4","0","","","","","","7","","","","",""
"","","","","","single-stim-button","207","1648552","0.0-3.0-22.1-1.1","5f88877885e51d02acd71b12","D2","batch4","tol_toboard","558","","","","","","","","","tol_peg_1","558","558","0","[[3,0,0],[2,1],[0]]","2","[[0,0,0],[1,2],[3]]","4","0","","","","","","7","","","","",""
"","","","","","single-stim-button","208","1651528","0.0-3.0-22.2-0.2","5f88877885e51d02acd71b12","D2","batch4","tol_tohand","2970","","","","","","","","","tol_peg_2","2970","2970","0","[[3,0,0],[2,0],[0]]","3","[[0,0,0],[1,2],[3]]","4","0","","","","","","7","","","","",""
"","","","","","single-stim-button","209","1652052","0.0-3.0-22.2-1.2","5f88877885e51d02acd71b12","D2","batch4","tol_toboard","522","","","","","","","","","tol_peg_1","522","522","0","[[3,1,0],[2,0],[0]]","3","[[0,0,0],[1,2],[3]]","4","0","","","","","","7","","","","",""
"","","","","","single-stim-button","210","1653360","0.0-3.0-22.3-0.3","5f88877885e51d02acd71b12","D2","batch4","tol_tohand","1305","","","","","","","","","tol_peg_2","1305","1305","0","[[3,1,0],[0,0],[0]]","4","[[0,0,0],[1,2],[3]]","4","0","","","","","","7","","","","",""
"","","","","","single-stim-button","211","1654015","0.0-3.0-22.3-1.3","5f88877885e51d02acd71b12","D2","batch4","tol_toboard","653","","","","","","","","","tol_peg_3","653","653","0","[[3,1,0],[0,0],[2]]","4","[[0,0,0],[1,2],[3]]","4","0","","","","","","7","","","","",""
"","","","","","single-stim-button","212","1654840","0.0-3.0-22.4-0.4","5f88877885e51d02acd71b12","D2","batch4","tol_tohand","822","","","","","","","","","tol_peg_1","822","822","0","[[3,0,0],[0,0],[2]]","5","[[0,0,0],[1,2],[3]]","4","0","","","","","","7","","","","",""
"","","","","","single-stim-button","213","1655607","0.0-3.0-22.4-1.4","5f88877885e51d02acd71b12","D2","batch4","tol_toboard","764","","","","","","","","","tol_peg_2","764","764","0","[[3,0,0],[1,0],[2]]","5","[[0,0,0],[1,2],[3]]","4","0","","","","","","7","","","","",""
"","","","","","single-stim-button","214","1656329","0.0-3.0-22.5-0.5","5f88877885e51d02acd71b12","D2","batch4","tol_tohand","719","","","","","","","","","tol_peg_3","719","719","0","[[3,0,0],[1,0],[0]]","6","[[0,0,0],[1,2],[3]]","4","0","","","","","","7","","","","",""
"","","","","","single-stim-button","215","1657021","0.0-3.0-22.5-1.5","5f88877885e51d02acd71b12","D2","batch4","tol_toboard","690","","","","","","","","","tol_peg_2","690","690","0","[[3,0,0],[1,2],[0]]","6","[[0,0,0],[1,2],[3]]","4","0","","","","","","7","","","","",""
"","","","","","single-stim-button","216","1657873","0.0-3.0-22.6-0.6","5f88877885e51d02acd71b12","D2","batch4","tol_tohand","849","","","","","","","","","tol_peg_1","849","849","0","[[0,0,0],[1,2],[0]]","7","[[0,0,0],[1,2],[3]]","4","0","","","","","","7","","","","",""
"","","","","","single-stim-button","217","1658498","0.0-3.0-22.6-1.6","5f88877885e51d02acd71b12","D2","batch4","tol_toboard","624","","","","","","","","","tol_peg_3","624","624","0","[[0,0,0],[1,2],[3]]","7","[[0,0,0],[1,2],[3]]","4","0","","","","","","7","","","","",""
"","","","","","poldrack-single-stim","218","1659507","0.0-3.0-23.0","5f88877885e51d02acd71b12","D2","batch4","tol_feedback","-1","","","","","true","","","","","1000","1000","500","","","","","","-1","none","true","9878","20514","","","","","",""
"","","","","","html-button-response","219","1660463","0.0-3.0-24.0","5f88877885e51d02acd71b12","D2","batch4","tol_trial_num","949.3999999761581","<div class = centerbox><p class = center-block-text>problem <strong>6</strong> out of 25 problems</p></div>","0","","","","","","","","","","","","","","","","","","","","","","","","","",""
"","","","","","single-stim-button","220","1666673","0.0-3.0-25.0-0.0","5f88877885e51d02acd71b12","D2","batch4","tol_tohand","6207","","","","","","","","","tol_peg_2","6207","6207","0","[[0,0,0],[1,0],[3]]","1","[[1,0,0],[2,3],[0]]","5","0","","","","","","6","","","","",""
"","","","","","single-stim-button","221","1669650","0.0-3.0-25.0-1.0","5f88877885e51d02acd71b12","D2","batch4","tol_toboard","2974","","","","","","","","","tol_peg_1","2974","2974","0","[[2,0,0],[1,0],[3]]","1","[[1,0,0],[2,3],[0]]","5","0","","","","","","6","","","","",""
"","","","","","single-stim-button","222","1677511","0.0-3.0-25.1-0.1","5f88877885e51d02acd71b12","D2","batch4","tol_tohand","7858","","","","","","","","","tol_peg_1","7858","7858","0","[[0,0,0],[1,0],[3]]","2","[[1,0,0],[2,3],[0]]","5","0","","","","","","6","","","","",""
"","","","","","single-stim-button","223","1678070","0.0-3.0-25.1-1.1","5f88877885e51d02acd71b12","D2","batch4","tol_toboard","555","","","","","","","","","tol_peg_2","555","555","0","[[0,0,0],[1,2],[3]]","2","[[1,0,0],[2,3],[0]]","5","0","","","","","","6","","","","",""
"","","","","","single-stim-button","224","1678898","0.0-3.0-25.2-0.2","5f88877885e51d02acd71b12","D2","batch4","tol_tohand","823","","","","","","","","","tol_peg_3","823","823","0","[[0,0,0],[1,2],[0]]","3","[[1,0,0],[2,3],[0]]","5","0","","","","","","6","","","","",""
"","","","","","single-stim-button","225","1679509","0.0-3.0-25.2-1.2","5f88877885e51d02acd71b12","D2","batch4","tol_toboard","609","","","","","","","","","tol_peg_1","609","609","0","[[3,0,0],[1,2],[0]]","3","[[1,0,0],[2,3],[0]]","5","0","","","","","","6","","","","",""
"","","","","","single-stim-button","226","1681430","0.0-3.0-25.3-0.3","5f88877885e51d02acd71b12","D2","batch4","tol_tohand","1918","","","","","","","","","tol_peg_2","1918","1918","0","[[3,0,0],[1,0],[0]]","4","[[1,0,0],[2,3],[0]]","5","0","","","","","","6","","","","",""
"","","","","","single-stim-button","227","1684107","0.0-3.0-25.3-1.3","5f88877885e51d02acd71b12","D2","batch4","tol_toboard","2674","","","","","","","","","tol_peg_3","2674","2674","0","[[3,0,0],[1,0],[2]]","4","[[1,0,0],[2,3],[0]]","5","0","","","","","","6","","","","",""
"","","","","","single-stim-button","228","1684876","0.0-3.0-25.4-0.4","5f88877885e51d02acd71b12","D2","batch4","tol_tohand","763","","","","","","","","","tol_peg_2","763","763","0","[[3,0,0],[0,0],[2]]","5","[[1,0,0],[2,3],[0]]","5","0","","","","","","6","","","","",""
"","","","","","single-stim-button","229","1685913","0.0-3.0-25.4-1.4","5f88877885e51d02acd71b12","D2","batch4","tol_toboard","1035","","","","","","","","","tol_peg_1","1035","1035","0","[[3,1,0],[0,0],[2]]","5","[[1,0,0],[2,3],[0]]","5","0","","","","","","6","","","","",""
"","","","","","single-stim-button","230","1687114","0.0-3.0-25.5-0.5","5f88877885e51d02acd71b12","D2","batch4","tol_tohand","1197","","","","","","","","","tol_peg_3","1197","1197","0","[[3,1,0],[0,0],[0]]","6","[[1,0,0],[2,3],[0]]","5","0","","","","","","6","","","","",""
"","","","","","single-stim-button","231","1687677","0.0-3.0-25.5-1.5","5f88877885e51d02acd71b12","D2","batch4","tol_toboard","560","","","","","","","","","tol_peg_2","560","560","0","[[3,1,0],[2,0],[0]]","6","[[1,0,0],[2,3],[0]]","5","0","","","","","","6","","","","",""
"","","","","","single-stim-button","232","1688474","0.0-3.0-25.6-0.6","5f88877885e51d02acd71b12","D2","batch4","tol_tohand","794","","","","","","","","","tol_peg_1","794","794","0","[[3,0,0],[2,0],[0]]","7","[[1,0,0],[2,3],[0]]","5","0","","","","","","6","","","","",""
"","","","","","single-stim-button","233","1689287","0.0-3.0-25.6-1.6","5f88877885e51d02acd71b12","D2","batch4","tol_toboard","809","","","","","","","","","tol_peg_3","809","809","0","[[3,0,0],[2,0],[1]]","7","[[1,0,0],[2,3],[0]]","5","0","","","","","","6","","","","",""
"","","","","","single-stim-button","234","1689974","0.0-3.0-25.7-0.7","5f88877885e51d02acd71b12","D2","batch4","tol_tohand","683","","","","","","","","","tol_peg_1","683","683","0","[[0,0,0],[2,0],[1]]","8","[[1,0,0],[2,3],[0]]","5","0","","","","","","6","","","","",""
"","","","","","single-stim-button","235","1691900","0.0-3.0-25.7-1.7","5f88877885e51d02acd71b12","D2","batch4","tol_toboard","1923","","","","","","","","","tol_peg_2","1923","1923","0","[[0,0,0],[2,3],[1]]","8","[[1,0,0],[2,3],[0]]","5","0","","","","","","6","","","","",""
"","","","","","single-stim-button","236","1692532","0.0-3.0-25.8-0.8","5f88877885e51d02acd71b12","D2","batch4","tol_tohand","630","","","","","","","","","tol_peg_3","630","630","0","[[0,0,0],[2,3],[0]]","9","[[1,0,0],[2,3],[0]]","5","0","","","","","","6","","","","",""
"","","","","","single-stim-button","237","1692908","0.0-3.0-25.8-1.8","5f88877885e51d02acd71b12","D2","batch4","tol_toboard","373","","","","","","","","","tol_peg_1","373","373","0","[[1,0,0],[2,3],[0]]","9","[[1,0,0],[2,3],[0]]","5","0","","","","","","6","","","","",""
"","","","","","poldrack-single-stim","238","1693916","0.0-3.0-26.0","5f88877885e51d02acd71b12","D2","batch4","tol_feedback","-1","","","","","true","","","","","1000","1000","500","","","","","","-1","none","true","6207","20873","","","","","",""
"","","","","","html-button-response","239","1694776","0.0-3.0-27.0","5f88877885e51d02acd71b12","D2","batch4","tol_trial_num","852","<div class = centerbox><p class = center-block-text>problem <strong>7</strong> out of 25 problems</p></div>","0","","","","","","","","","","","","","","","","","","","","","","","","","",""
"","","","","","single-stim-button","240","1702741","0.0-3.0-28.0-0.0","5f88877885e51d02acd71b12","D2","batch4","tol_tohand","7962","","","","","","","","","tol_peg_1","7962","7962","0","[[2,0,0],[0,0],[3]]","1","[[1,2,0],[3,0],[0]]","6","0","","","","","","5","","","","",""
"","","","","","single-stim-button","241","1703732","0.0-3.0-28.0-1.0","5f88877885e51d02acd71b12","D2","batch4","tol_toboard","987","","","","","","","","","tol_peg_2","987","987","0","[[2,0,0],[1,0],[3]]","1","[[1,2,0],[3,0],[0]]","6","0","","","","","","5","","","","",""
"","","","","","single-stim-button","242","1706236","0.0-3.0-28.1-0.1","5f88877885e51d02acd71b12","D2","batch4","tol_tohand","2502","","","","","","","","","tol_peg_3","2502","2502","0","[[2,0,0],[1,0],[0]]","2","[[1,2,0],[3,0],[0]]","6","0","","","","","","5","","","","",""
"","","","","","single-stim-button","243","1706751","0.0-3.0-28.1-1.1","5f88877885e51d02acd71b12","D2","batch4","tol_toboard","512","","","","","","","","","tol_peg_2","512","512","0","[[2,0,0],[1,3],[0]]","2","[[1,2,0],[3,0],[0]]","6","0","","","","","","5","","","","",""
"","","","","","single-stim-button","244","1720355","0.0-3.0-28.2-0.2","5f88877885e51d02acd71b12","D2","batch4","tol_tohand","13598","","","","","","","","","tol_peg_1","13598","13598","0","[[0,0,0],[1,3],[0]]","3","[[1,2,0],[3,0],[0]]","6","0","","","","","","5","","","","",""
"","","","","","single-stim-button","245","1721796","0.0-3.0-28.2-1.2","5f88877885e51d02acd71b12","D2","batch4","tol_toboard","1437","","","","","","","","","tol_peg_3","1437","1437","0","[[0,0,0],[1,3],[2]]","3","[[1,2,0],[3,0],[0]]","6","0","","","","","","5","","","","",""
"","","","","","single-stim-button","246","1723290","0.0-3.0-28.3-0.3","5f88877885e51d02acd71b12","D2","batch4","tol_tohand","1490","","","","","","","","","tol_peg_2","1490","1490","0","[[0,0,0],[1,0],[2]]","4","[[1,2,0],[3,0],[0]]","6","0","","","","","","5","","","","",""
"","","","","","single-stim-button","247","1723762","0.0-3.0-28.3-1.3","5f88877885e51d02acd71b12","D2","batch4","tol_toboard","469","","","","","","","","","tol_peg_1","469","469","0","[[3,0,0],[1,0],[2]]","4","[[1,2,0],[3,0],[0]]","6","0","","","","","","5","","","","",""
"","","","","","single-stim-button","248","1724749","0.0-3.0-28.4-0.4","5f88877885e51d02acd71b12","D2","batch4","tol_tohand","985","","","","","","","","","tol_peg_2","985","985","0","[[3,0,0],[0,0],[2]]","5","[[1,2,0],[3,0],[0]]","6","0","","","","","","5","","","","",""
"","","","","","single-stim-button","249","1726432","0.0-3.0-28.4-1.4","5f88877885e51d02acd71b12","D2","batch4","tol_toboard","1681","","","","","","","","","tol_peg_1","1681","1681","0","[[3,1,0],[0,0],[2]]","5","[[1,2,0],[3,0],[0]]","6","0","","","","","","5","","","","",""
"","","","","","single-stim-button","250","1727652","0.0-3.0-28.5-0.5","5f88877885e51d02acd71b12","D2","batch4","tol_tohand","1218","","","","","","","","","tol_peg_3","1218","1218","0","[[3,1,0],[0,0],[0]]","6","[[1,2,0],[3,0],[0]]","6","0","","","","","","5","","","","",""
"","","","","","single-stim-button","251","1728348","0.0-3.0-28.5-1.5","5f88877885e51d02acd71b12","D2","batch4","tol_toboard","694","","","","","","","","","tol_peg_2","694","694","0","[[3,1,0],[2,0],[0]]","6","[[1,2,0],[3,0],[0]]","6","0","","","","","","5","","","","",""
"","","","","","single-stim-button","252","1729977","0.0-3.0-28.6-0.6","5f88877885e51d02acd71b12","D2","batch4","tol_tohand","1624","","","","","","","","","tol_peg_1","1624","1624","0","[[3,0,0],[2,0],[0]]","7","[[1,2,0],[3,0],[0]]","6","0","","","","","","5","","","","",""
"","","","","","single-stim-button","253","1731692","0.0-3.0-28.6-1.6","5f88877885e51d02acd71b12","D2","batch4","tol_toboard","1712","","","","","","","","","tol_peg_3","1712","1712","0","[[3,0,0],[2,0],[1]]","7","[[1,2,0],[3,0],[0]]","6","0","","","","","","5","","","","",""
"","","","","","single-stim-button","254","1740497","0.0-3.0-28.7-0.7","5f88877885e51d02acd71b12","D2","batch4","tol_tohand","8799","","","","","","","","","tol_peg_1","8799","8799","0","[[0,0,0],[2,0],[1]]","8","[[1,2,0],[3,0],[0]]","6","0","","","","","","5","","","","",""
"","","","","","single-stim-button","255","1741288","0.0-3.0-28.7-1.7","5f88877885e51d02acd71b12","D2","batch4","tol_toboard","789","","","","","","","","","tol_peg_2","789","789","0","[[0,0,0],[2,3],[1]]","8","[[1,2,0],[3,0],[0]]","6","0","","","","","","5","","","","",""
"","","","","","single-stim-button","256","1742169","0.0-3.0-28.8-0.8","5f88877885e51d02acd71b12","D2","batch4","tol_tohand","879","","","","","","","","","tol_peg_3","879","879","0","[[0,0,0],[2,3],[0]]","9","[[1,2,0],[3,0],[0]]","6","0","","","","","","5","","","","",""
"","","","","","single-stim-button","257","1742619","0.0-3.0-28.8-1.8","5f88877885e51d02acd71b12","D2","batch4","tol_toboard","448","","","","","","","","","tol_peg_1","448","448","0","[[1,0,0],[2,3],[0]]","9","[[1,2,0],[3,0],[0]]","6","0","","","","","","5","","","","",""
"","","","","","single-stim-button","258","1744216","0.0-3.0-28.9-0.9","5f88877885e51d02acd71b12","D2","batch4","tol_tohand","1594","","","","","","","","","tol_peg_2","1594","1594","0","[[1,0,0],[2,0],[0]]","10","[[1,2,0],[3,0],[0]]","6","0","","","","","","5","","","","",""
"","","","","","single-stim-button","259","1744703","0.0-3.0-28.9-1.9","5f88877885e51d02acd71b12","D2","batch4","tol_toboard","485","","","","","","","","","tol_peg_3","485","485","0","[[1,0,0],[2,0],[3]]","10","[[1,2,0],[3,0],[0]]","6","0","","","","","","5","","","","",""
"","","","","","single-stim-button","260","1745467","0.0-3.0-28.10-0.10","5f88877885e51d02acd71b12","D2","batch4","tol_tohand","761","","","","","","","","","tol_peg_2","761","761","0","[[1,0,0],[0,0],[3]]","11","[[1,2,0],[3,0],[0]]","6","0","","","","","","5","","","","",""
"","","","","","single-stim-button","261","1745937","0.0-3.0-28.10-1.10","5f88877885e51d02acd71b12","D2","batch4","tol_toboard","467","","","","","","","","","tol_peg_1","467","467","0","[[1,2,0],[0,0],[3]]","11","[[1,2,0],[3,0],[0]]","6","0","","","","","","5","","","","",""
"","","","","","single-stim-button","262","1748453","0.0-3.0-28.11-0.11","5f88877885e51d02acd71b12","D2","batch4","tol_tohand","2514","","","","","","","","","tol_peg_3","2514","2514","0","[[1,2,0],[0,0],[0]]","12","[[1,2,0],[3,0],[0]]","6","0","","","","","","5","","","","",""
"","","","","","single-stim-button","263","1748837","0.0-3.0-28.11-1.11","5f88877885e51d02acd71b12","D2","batch4","tol_toboard","381","","","","","","","","","tol_peg_2","381","381","0","[[1,2,0],[3,0],[0]]","12","[[1,2,0],[3,0],[0]]","6","0","","","","","","5","","","","",""
"","","","","","poldrack-single-stim","264","1749853","0.0-3.0-29.0","5f88877885e51d02acd71b12","D2","batch4","tol_feedback","-1","","","","","true","","","","","1000","1000","500","","","","","","-1","none","true","7962","43926","","","","","",""
"","","","","","html-button-response","265","1751200","0.0-3.0-30.0","5f88877885e51d02acd71b12","D2","batch4","tol_trial_num","1339.0999999642372","<div class = centerbox><p class = center-block-text>problem <strong>8</strong> out of 25 problems</p></div>","0","","","","","","","","","","","","","","","","","","","","","","","","","",""
"","","","","","single-stim-button","266","1763193","0.0-3.0-31.0-0.0","5f88877885e51d02acd71b12","D2","batch4","tol_tohand","11990","","","","","","","","","tol_peg_3","11990","11990","0","[[0,0,0],[2,3],[0]]","1","[[1,2,0],[3,0],[0]]","7","0","","","","","","4","","","","",""
"","","","","","single-stim-button","267","1763633","0.0-3.0-31.0-1.0","5f88877885e51d02acd71b12","D2","batch4","tol_toboard","436","","","","","","","","","tol_peg_1","436","436","0","[[1,0,0],[2,3],[0]]","1","[[1,2,0],[3,0],[0]]","7","0","","","","","","4","","","","",""
"","","","","","single-stim-button","268","1764356","0.0-3.0-31.1-0.1","5f88877885e51d02acd71b12","D2","batch4","tol_tohand","718","","","","","","","","","tol_peg_2","718","718","0","[[1,0,0],[2,0],[0]]","2","[[1,2,0],[3,0],[0]]","7","0","","","","","","4","","","","",""
"","","","","","single-stim-button","269","1765169","0.0-3.0-31.1-1.1","5f88877885e51d02acd71b12","D2","batch4","tol_toboard","809","","","","","","","","","tol_peg_3","809","809","0","[[1,0,0],[2,0],[3]]","2","[[1,2,0],[3,0],[0]]","7","0","","","","","","4","","","","",""
"","","","","","single-stim-button","270","1765909","0.0-3.0-31.2-0.2","5f88877885e51d02acd71b12","D2","batch4","tol_tohand","736","","","","","","","","","tol_peg_2","736","736","0","[[1,0,0],[0,0],[3]]","3","[[1,2,0],[3,0],[0]]","7","0","","","","","","4","","","","",""
"","","","","","single-stim-button","271","1766222","0.0-3.0-31.2-1.2","5f88877885e51d02acd71b12","D2","batch4","tol_toboard","311","","","","","","","","","tol_peg_1","311","311","0","[[1,2,0],[0,0],[3]]","3","[[1,2,0],[3,0],[0]]","7","0","","","","","","4","","","","",""
"","","","","","single-stim-button","272","1767105","0.0-3.0-31.3-0.3","5f88877885e51d02acd71b12","D2","batch4","tol_tohand","881","","","","","","","","","tol_peg_3","881","881","0","[[1,2,0],[0,0],[0]]","4","[[1,2,0],[3,0],[0]]","7","0","","","","","","4","","","","",""
"","","","","","single-stim-button","273","1767374","0.0-3.0-31.3-1.3","5f88877885e51d02acd71b12","D2","batch4","tol_toboard","265","","","","","","","","","tol_peg_2","265","265","0","[[1,2,0],[3,0],[0]]","4","[[1,2,0],[3,0],[0]]","7","0","","","","","","4","","","","",""
"","","","","","poldrack-single-stim","274","1768387","0.0-3.0-32.0","5f88877885e51d02acd71b12","D2","batch4","tol_feedback","-1","","","","","true","","","","","1000","1000","500","","","","","","-1","none","true","11990","14325","","","","","",""
"","","","","","html-button-response","275","1769139","0.0-3.0-33.0","5f88877885e51d02acd71b12","D2","batch4","tol_trial_num","730.3000000119209","<div class = centerbox><p class = center-block-text>problem <strong>9</strong> out of 25 problems</p></div>","0","","","","","","","","","","","","","","","","","","","","","","","","","",""
"","","","","","single-stim-button","276","1773795","0.0-3.0-34.0-0.0","5f88877885e51d02acd71b12","D2","batch4","tol_tohand","4653","","","","","","","","","tol_peg_1","4653","4653","0","[[3,0,0],[0,0],[1]]","1","[[2,1,0],[3,0],[0]]","8","0","","","","","","6","","","","",""
"","","","","","single-stim-button","277","1774704","0.0-3.0-34.0-1.0","5f88877885e51d02acd71b12","D2","batch4","tol_toboard","906","","","","","","","","","tol_peg_2","906","906","0","[[3,0,0],[2,0],[1]]","1","[[2,1,0],[3,0],[0]]","8","0","","","","","","6","","","","",""
"","","","","","single-stim-button","278","1792983","0.0-3.0-34.1-0.1","5f88877885e51d02acd71b12","D2","batch4","tol_tohand","18276","","","","","","","","","tol_peg_2","18276","18276","0","[[3,0,0],[0,0],[1]]","2","[[2,1,0],[3,0],[0]]","8","0","","","","","","6","","","","",""
"","","","","","single-stim-button","279","1793403","0.0-3.0-34.1-1.1","5f88877885e51d02acd71b12","D2","batch4","tol_toboard","416","","","","","","","","","tol_peg_1","416","416","0","[[3,2,0],[0,0],[1]]","2","[[2,1,0],[3,0],[0]]","8","0","","","","","","6","","","","",""
"","","","","","single-stim-button","280","1794297","0.0-3.0-34.2-0.2","5f88877885e51d02acd71b12","D2","batch4","tol_tohand","891","","","","","","","","","tol_peg_3","891","891","0","[[3,2,0],[0,0],[0]]","3","[[2,1,0],[3,0],[0]]","8","0","","","","","","6","","","","",""
"","","","","","single-stim-button","281","1795938","0.0-3.0-34.2-1.2","5f88877885e51d02acd71b12","D2","batch4","tol_toboard","1639","","","","","","","","","tol_peg_2","1639","1639","0","[[3,2,0],[1,0],[0]]","3","[[2,1,0],[3,0],[0]]","8","0","","","","","","6","","","","",""
"","","","","","single-stim-button","282","1797490","0.0-3.0-34.3-0.3","5f88877885e51d02acd71b12","D2","batch4","tol_tohand","1550","","","","","","","","","tol_peg_1","1550","1550","0","[[3,0,0],[1,0],[0]]","4","[[2,1,0],[3,0],[0]]","8","0","","","","","","6","","","","",""
"","","","","","single-stim-button","283","1798256","0.0-3.0-34.3-1.3","5f88877885e51d02acd71b12","D2","batch4","tol_toboard","762","","","","","","","","","tol_peg_3","762","762","0","[[3,0,0],[1,0],[2]]","4","[[2,1,0],[3,0],[0]]","8","0","","","","","","6","","","","",""
"","","","","","single-stim-button","284","1798973","0.0-3.0-34.4-0.4","5f88877885e51d02acd71b12","D2","batch4","tol_tohand","714","","","","","","","","","tol_peg_1","714","714","0","[[0,0,0],[1,0],[2]]","5","[[2,1,0],[3,0],[0]]","8","0","","","","","","6","","","","",""
"","","","","","single-stim-button","285","1799557","0.0-3.0-34.4-1.4","5f88877885e51d02acd71b12","D2","batch4","tol_toboard","581","","","","","","","","","tol_peg_2","581","581","0","[[0,0,0],[1,3],[2]]","5","[[2,1,0],[3,0],[0]]","8","0","","","","","","6","","","","",""
"","","","","","single-stim-button","286","1800172","0.0-3.0-34.5-0.5","5f88877885e51d02acd71b12","D2","batch4","tol_tohand","613","","","","","","","","","tol_peg_3","613","613","0","[[0,0,0],[1,3],[0]]","6","[[2,1,0],[3,0],[0]]","8","0","","","","","","6","","","","",""
"","","","","","single-stim-button","287","1800591","0.0-3.0-34.5-1.5","5f88877885e51d02acd71b12","D2","batch4","tol_toboard","416","","","","","","","","","tol_peg_1","416","416","0","[[2,0,0],[1,3],[0]]","6","[[2,1,0],[3,0],[0]]","8","0","","","","","","6","","","","",""
"","","","","","single-stim-button","288","1801183","0.0-3.0-34.6-0.6","5f88877885e51d02acd71b12","D2","batch4","tol_tohand","588","","","","","","","","","tol_peg_2","588","588","0","[[2,0,0],[1,0],[0]]","7","[[2,1,0],[3,0],[0]]","8","0","","","","","","6","","","","",""
"","","","","","single-stim-button","289","1801763","0.0-3.0-34.6-1.6","5f88877885e51d02acd71b12","D2","batch4","tol_toboard","577","","","","","","","","","tol_peg_3","577","577","0","[[2,0,0],[1,0],[3]]","7","[[2,1,0],[3,0],[0]]","8","0","","","","","","6","","","","",""
"","","","","","single-stim-button","290","1802406","0.0-3.0-34.7-0.7","5f88877885e51d02acd71b12","D2","batch4","tol_tohand","640","","","","","","","","","tol_peg_2","640","640","0","[[2,0,0],[0,0],[3]]","8","[[2,1,0],[3,0],[0]]","8","0","","","","","","6","","","","",""
"","","","","","single-stim-button","291","1802863","0.0-3.0-34.7-1.7","5f88877885e51d02acd71b12","D2","batch4","tol_toboard","453","","","","","","","","","tol_peg_1","453","453","0","[[2,1,0],[0,0],[3]]","8","[[2,1,0],[3,0],[0]]","8","0","","","","","","6","","","","",""
"","","","","","single-stim-button","292","1805036","0.0-3.0-34.8-0.8","5f88877885e51d02acd71b12","D2","batch4","tol_tohand","2168","","","","","","","","","tol_peg_3","2168","2168","0","[[2,1,0],[0,0],[0]]","9","[[2,1,0],[3,0],[0]]","8","0","","","","","","6","","","","",""
"","","","","","single-stim-button","293","1805509","0.0-3.0-34.8-1.8","5f88877885e51d02acd71b12","D2","batch4","tol_toboard","470","","","","","","","","","tol_peg_2","470","470","0","[[2,1,0],[3,0],[0]]","9","[[2,1,0],[3,0],[0]]","8","0","","","","","","6","","","","",""
"","","","","","poldrack-single-stim","294","1806526","0.0-3.0-35.0","5f88877885e51d02acd71b12","D2","batch4","tol_feedback","-1","","","","","true","","","","","1000","1000","500","","","","","","-1","none","true","4653","30093","","","","","",""
"","","","","","html-button-response","295","1807203","0.0-3.0-36.0","5f88877885e51d02acd71b12","D2","batch4","tol_trial_num","668.5999999642372","<div class = centerbox><p class = center-block-text>problem <strong>10</strong> out of 25 problems</p></div>","0","","","","","","","","","","","","","","","","","","","","","","","","","",""
"","","","","","single-stim-button","296","1814378","0.0-3.0-37.0-0.0","5f88877885e51d02acd71b12","D2","batch4","tol_tohand","7171","","","","","","","","","tol_peg_2","7171","7171","0","[[3,0,0],[0,0],[2]]","1","[[3,0,0],[2,1],[0]]","9","0","","","","","","3","","","","",""
"","","","","","single-stim-button","297","1814900","0.0-3.0-37.0-1.0","5f88877885e51d02acd71b12","D2","batch4","tol_toboard","520","","","","","","","","","tol_peg_1","520","520","0","[[3,1,0],[0,0],[2]]","1","[[3,0,0],[2,1],[0]]","9","0","","","","","","3","","","","",""
"","","","","","single-stim-button","298","1816861","0.0-3.0-37.1-0.1","5f88877885e51d02acd71b12","D2","batch4","tol_tohand","1960","","","","","","","","","tol_peg_3","1960","1960","0","[[3,1,0],[0,0],[0]]","2","[[3,0,0],[2,1],[0]]","9","0","","","","","","3","","","","",""
"","","","","","single-stim-button","299","1817417","0.0-3.0-37.1-1.1","5f88877885e51d02acd71b12","D2","batch4","tol_toboard","553","","","","","","","","","tol_peg_2","553","553","0","[[3,1,0],[2,0],[0]]","2","[[3,0,0],[2,1],[0]]","9","0","","","","","","3","","","","",""
"","","","","","single-stim-button","300","1818176","0.0-3.0-37.2-0.2","5f88877885e51d02acd71b12","D2","batch4","tol_tohand","757","","","","","","","","","tol_peg_1","757","757","0","[[3,0,0],[2,0],[0]]","3","[[3,0,0],[2,1],[0]]","9","0","","","","","","3","","","","",""
"","","","","","single-stim-button","301","1818699","0.0-3.0-37.2-1.2","5f88877885e51d02acd71b12","D2","batch4","tol_toboard","521","","","","","","","","","tol_peg_2","521","521","0","[[3,0,0],[2,1],[0]]","3","[[3,0,0],[2,1],[0]]","9","0","","","","","","3","","","","",""
"","","","","","poldrack-single-stim","302","1819708","0.0-3.0-38.0","5f88877885e51d02acd71b12","D2","batch4","tol_feedback","-1","","","","","true","","","","","1000","1000","500","","","","","","-1","none","true","7171","9888","","","","","",""
"","","","","","html-button-response","303","1821291","0.0-3.0-39.0","5f88877885e51d02acd71b12","D2","batch4","tol_trial_num","1576.1000000238419","<div class = centerbox><p class = center-block-text>problem <strong>11</strong> out of 25 problems</p></div>","0","","","","","","","","","","","","","","","","","","","","","","","","","",""
"","","","","","single-stim-button","304","1840199","0.0-3.0-40.0-0.0","5f88877885e51d02acd71b12","D2","batch4","tol_tohand","18905","","","","","","","","","tol_peg_1","18905","18905","0","[[1,0,0],[3,0],[0]]","1","[[2,0,0],[1,3],[0]]","10","0","","","","","","6","","","","",""
"","","","","","single-stim-button","305","1841044","0.0-3.0-40.0-1.0","5f88877885e51d02acd71b12","D2","batch4","tol_toboard","841","","","","","","","","","tol_peg_3","841","841","0","[[1,0,0],[3,0],[2]]","1","[[2,0,0],[1,3],[0]]","10","0","","","","","","6","","","","",""
"","","","","","single-stim-button","306","1841686","0.0-3.0-40.1-0.1","5f88877885e51d02acd71b12","D2","batch4","tol_tohand","637","","","","","","","","","tol_peg_1","637","637","0","[[0,0,0],[3,0],[2]]","2","[[2,0,0],[1,3],[0]]","10","0","","","","","","6","","","","",""
"","","","","","single-stim-button","307","1842464","0.0-3.0-40.1-1.1","5f88877885e51d02acd71b12","D2","batch4","tol_toboard","773","","","","","","","","","tol_peg_2","773","773","0","[[0,0,0],[3,1],[2]]","2","[[2,0,0],[1,3],[0]]","10","0","","","","","","6","","","","",""
"","","","","","single-stim-button","308","1843492","0.0-3.0-40.2-0.2","5f88877885e51d02acd71b12","D2","batch4","tol_tohand","1023","","","","","","","","","tol_peg_3","1023","1023","0","[[0,0,0],[3,1],[0]]","3","[[2,0,0],[1,3],[0]]","10","0","","","","","","6","","","","",""
"","","","","","single-stim-button","309","1843999","0.0-3.0-40.2-1.2","5f88877885e51d02acd71b12","D2","batch4","tol_toboard","502","","","","","","","","","tol_peg_1","502","502","0","[[2,0,0],[3,1],[0]]","3","[[2,0,0],[1,3],[0]]","10","0","","","","","","6","","","","",""
"","","","","","single-stim-button","310","1845917","0.0-3.0-40.3-0.3","5f88877885e51d02acd71b12","D2","batch4","tol_tohand","1916","","","","","","","","","tol_peg_2","1916","1916","0","[[2,0,0],[3,0],[0]]","4","[[2,0,0],[1,3],[0]]","10","0","","","","","","6","","","","",""
"","","","","","single-stim-button","311","1847782","0.0-3.0-40.3-1.3","5f88877885e51d02acd71b12","D2","batch4","tol_toboard","1862","","","","","","","","","tol_peg_3","1862","1862","0","[[2,0,0],[3,0],[1]]","4","[[2,0,0],[1,3],[0]]","10","0","","","","","","6","","","","",""
"","","","","","single-stim-button","312","1849245","0.0-3.0-40.4-0.4","5f88877885e51d02acd71b12","D2","batch4","tol_tohand","1460","","","","","","","","","tol_peg_2","1460","1460","0","[[2,0,0],[0,0],[1]]","5","[[2,0,0],[1,3],[0]]","10","0","","","","","","6","","","","",""
"","","","","","single-stim-button","313","1849730","0.0-3.0-40.4-1.4","5f88877885e51d02acd71b12","D2","batch4","tol_toboard","482","","","","","","","","","tol_peg_1","482","482","0","[[2,3,0],[0,0],[1]]","5","[[2,0,0],[1,3],[0]]","10","0","","","","","","6","","","","",""
"","","","","","single-stim-button","314","1850352","0.0-3.0-40.5-0.5","5f88877885e51d02acd71b12","D2","batch4","tol_tohand","617","","","","","","","","","tol_peg_3","617","617","0","[[2,3,0],[0,0],[0]]","6","[[2,0,0],[1,3],[0]]","10","0","","","","","","6","","","","",""
"","","","","","single-stim-button","315","1850848","0.0-3.0-40.5-1.5","5f88877885e51d02acd71b12","D2","batch4","tol_toboard","493","","","","","","","","","tol_peg_2","493","493","0","[[2,3,0],[1,0],[0]]","6","[[2,0,0],[1,3],[0]]","10","0","","","","","","6","","","","",""
"","","","","","single-stim-button","316","1851408","0.0-3.0-40.6-0.6","5f88877885e51d02acd71b12","D2","batch4","tol_tohand","557","","","","","","","","","tol_peg_1","557","557","0","[[2,0,0],[1,0],[0]]","7","[[2,0,0],[1,3],[0]]","10","0","","","","","","6","","","","",""
"","","","","","single-stim-button","317","1851959","0.0-3.0-40.6-1.6","5f88877885e51d02acd71b12","D2","batch4","tol_toboard","547","","","","","","","","","tol_peg_2","547","547","0","[[2,0,0],[1,3],[0]]","7","[[2,0,0],[1,3],[0]]","10","0","","","","","","6","","","","",""
"","","","","","poldrack-single-stim","318","1852972","0.0-3.0-41.0","5f88877885e51d02acd71b12","D2","batch4","tol_feedback","-1","","","","","true","","","","","1000","1000","500","","","","","","-1","none","true","18905","25115","","","","","",""
"","","","","","html-button-response","319","1853769","0.0-3.0-42.0","5f88877885e51d02acd71b12","D2","batch4","tol_trial_num","790.8000000119209","<div class = centerbox><p class = center-block-text>problem <strong>12</strong> out of 25 problems</p></div>","0","","","","","","","","","","","","","","","","","","","","","","","","","",""
"","","","","","single-stim-button","320","1857490","0.0-3.0-43.0-0.0","5f88877885e51d02acd71b12","D2","batch4","tol_tohand","3718","","","","","","","","","tol_peg_1","3718","3718","0","[[1,0,0],[3,0],[0]]","1","[[2,3,0],[0,0],[1]]","11","0","","","","","","4","","","","",""
"","","","","","single-stim-button","321","1858270","0.0-3.0-43.0-1.0","5f88877885e51d02acd71b12","D2","batch4","tol_toboard","776","","","","","","","","","tol_peg_3","776","776","0","[[1,0,0],[3,0],[2]]","1","[[2,3,0],[0,0],[1]]","11","0","","","","","","4","","","","",""
"","","","","","single-stim-button","322","1859478","0.0-3.0-43.1-0.1","5f88877885e51d02acd71b12","D2","batch4","tol_tohand","1204","","","","","","","","","tol_peg_1","1204","1204","0","[[0,0,0],[3,0],[2]]","2","[[2,3,0],[0,0],[1]]","11","0","","","","","","4","","","","",""
"","","","","","single-stim-button","323","1859959","0.0-3.0-43.1-1.1","5f88877885e51d02acd71b12","D2","batch4","tol_toboard","479","","","","","","","","","tol_peg_2","479","479","0","[[0,0,0],[3,1],[2]]","2","[[2,3,0],[0,0],[1]]","11","0","","","","","","4","","","","",""
"","","","","","single-stim-button","324","1862377","0.0-3.0-43.2-0.2","5f88877885e51d02acd71b12","D2","batch4","tol_tohand","2416","","","","","","","","","tol_peg_3","2416","2416","0","[[0,0,0],[3,1],[0]]","3","[[2,3,0],[0,0],[1]]","11","0","","","","","","4","","","","",""
"","","","","","single-stim-button","325","1863496","0.0-3.0-43.2-1.2","5f88877885e51d02acd71b12","D2","batch4","tol_toboard","1116","","","","","","","","","tol_peg_1","1116","1116","0","[[2,0,0],[3,1],[0]]","3","[[2,3,0],[0,0],[1]]","11","0","","","","","","4","","","","",""
"","","","","","single-stim-button","326","1864018","0.0-3.0-43.3-0.3","5f88877885e51d02acd71b12","D2","batch4","tol_tohand","518","","","","","","","","","tol_peg_2","518","518","0","[[2,0,0],[3,0],[0]]","4","[[2,3,0],[0,0],[1]]","11","0","","","","","","4","","","","",""
"","","","","","single-stim-button","327","1864506","0.0-3.0-43.3-1.3","5f88877885e51d02acd71b12","D2","batch4","tol_toboard","484","","","","","","","","","tol_peg_3","484","484","0","[[2,0,0],[3,0],[1]]","4","[[2,3,0],[0,0],[1]]","11","0","","","","","","4","","","","",""
"","","","","","single-stim-button","328","1865106","0.0-3.0-43.4-0.4","5f88877885e51d02acd71b12","D2","batch4","tol_tohand","596","","","","","","","","","tol_peg_2","596","596","0","[[2,0,0],[0,0],[1]]","5","[[2,3,0],[0,0],[1]]","11","0","","","","","","4","","","","",""
"","","","","","single-stim-button","329","1865579","0.0-3.0-43.4-1.4","5f88877885e51d02acd71b12","D2","batch4","tol_toboard","469","","","","","","","","","tol_peg_1","469","469","0","[[2,3,0],[0,0],[1]]","5","[[2,3,0],[0,0],[1]]","11","0","","","","","","4","","","","",""
"","","","","","poldrack-single-stim","330","1866587","0.0-3.0-44.0","5f88877885e51d02acd71b12","D2","batch4","tol_feedback","-1","","","","","true","","","","","1000","1000","500","","","","","","-1","none","true","3718","8452","","","","","",""
"","","","","","html-button-response","331","1867866","0.0-3.0-45.0","5f88877885e51d02acd71b12","D2","batch4","tol_trial_num","1269.5","<div class = centerbox><p class = center-block-text>problem <strong>13</strong> out of 25 problems</p></div>","0","","","","","","","","","","","","","","","","","","","","","","","","","",""
"","","","","","single-stim-button","332","1871178","0.0-3.0-46.0-0.0","5f88877885e51d02acd71b12","D2","batch4","tol_tohand","3307","","","","","","","","","tol_peg_1","3307","3307","0","[[1,0,0],[3,0],[0]]","1","[[0,0,0],[2,3],[1]]","12","0","","","","","","4","","","","",""
"","","","","","single-stim-button","333","1872043","0.0-3.0-46.0-1.0","5f88877885e51d02acd71b12","D2","batch4","tol_toboard","862","","","","","","","","","tol_peg_2","862","862","0","[[1,0,0],[3,2],[0]]","1","[[0,0,0],[2,3],[1]]","12","0","","","","","","4","","","","",""
"","","","","","single-stim-button","334","1872706","0.0-3.0-46.1-0.1","5f88877885e51d02acd71b12","D2","batch4","tol_tohand","659","","","","","","","","","tol_peg_1","659","659","0","[[0,0,0],[3,2],[0]]","2","[[0,0,0],[2,3],[1]]","12","0","","","","","","4","","","","",""
"","","","","","single-stim-button","335","1873263","0.0-3.0-46.1-1.1","5f88877885e51d02acd71b12","D2","batch4","tol_toboard","554","","","","","","","","","tol_peg_3","554","554","0","[[0,0,0],[3,2],[1]]","2","[[0,0,0],[2,3],[1]]","12","0","","","","","","4","","","","",""
"","","","","","single-stim-button","336","1874498","0.0-3.0-46.2-0.2","5f88877885e51d02acd71b12","D2","batch4","tol_tohand","1232","","","","","","","","","tol_peg_2","1232","1232","0","[[0,0,0],[3,0],[1]]","3","[[0,0,0],[2,3],[1]]","12","0","","","","","","4","","","","",""
"","","","","","single-stim-button","337","1874919","0.0-3.0-46.2-1.2","5f88877885e51d02acd71b12","D2","batch4","tol_toboard","419","","","","","","","","","tol_peg_1","419","419","0","[[2,0,0],[3,0],[1]]","3","[[0,0,0],[2,3],[1]]","12","0","","","","","","4","","","","",""
"","","","","","single-stim-button","338","1875452","0.0-3.0-46.3-0.3","5f88877885e51d02acd71b12","D2","batch4","tol_tohand","530","","","","","","","","","tol_peg_2","530","530","0","[[2,0,0],[0,0],[1]]","4","[[0,0,0],[2,3],[1]]","12","0","","","","","","4","","","","",""
"","","","","","single-stim-button","339","1875819","0.0-3.0-46.3-1.3","5f88877885e51d02acd71b12","D2","batch4","tol_toboard","362","","","","","","","","","tol_peg_1","362","362","0","[[2,3,0],[0,0],[1]]","4","[[0,0,0],[2,3],[1]]","12","0","","","","","","4","","","","",""
"","","","","","single-stim-button","340","1889297","0.0-3.0-46.4-0.4","5f88877885e51d02acd71b12","D2","batch4","tol_tohand","13476","","","","","","","","","tol_peg_1","13476","13476","0","[[2,0,0],[0,0],[1]]","5","[[0,0,0],[2,3],[1]]","12","0","","","","","","4","","","","",""
"","","","","","single-stim-button","341","1889797","0.0-3.0-46.4-1.4","5f88877885e51d02acd71b12","D2","batch4","tol_toboard","497","","","","","","","","","tol_peg_2","497","497","0","[[2,0,0],[3,0],[1]]","5","[[0,0,0],[2,3],[1]]","12","0","","","","","","4","","","","",""
"","","","","","single-stim-button","342","1890494","0.0-3.0-46.5-0.5","5f88877885e51d02acd71b12","D2","batch4","tol_tohand","693","","","","","","","","","tol_peg_1","693","693","0","[[0,0,0],[3,0],[1]]","6","[[0,0,0],[2,3],[1]]","12","0","","","","","","4","","","","",""
"","","","","","single-stim-button","343","1890989","0.0-3.0-46.5-1.5","5f88877885e51d02acd71b12","D2","batch4","tol_toboard","492","","","","","","","","","tol_peg_2","492","492","0","[[0,0,0],[3,2],[1]]","6","[[0,0,0],[2,3],[1]]","12","0","","","","","","4","","","","",""
"","","","","","single-stim-button","344","1892612","0.0-3.0-46.6-0.6","5f88877885e51d02acd71b12","D2","batch4","tol_tohand","1617","","","","","","","","","tol_peg_3","1617","1617","0","[[0,0,0],[3,2],[0]]","7","[[0,0,0],[2,3],[1]]","12","0","","","","","","4","","","","",""
"","","","","","single-stim-button","345","1892992","0.0-3.0-46.6-1.6","5f88877885e51d02acd71b12","D2","batch4","tol_toboard","374","","","","","","","","","tol_peg_1","374","374","0","[[1,0,0],[3,2],[0]]","7","[[0,0,0],[2,3],[1]]","12","0","","","","","","4","","","","",""
"","","","","","single-stim-button","346","1893644","0.0-3.0-46.7-0.7","5f88877885e51d02acd71b12","D2","batch4","tol_tohand","649","","","","","","","","","tol_peg_2","649","649","0","[[1,0,0],[3,0],[0]]","8","[[0,0,0],[2,3],[1]]","12","0","","","","","","4","","","","",""
"","","","","","single-stim-button","347","1894127","0.0-3.0-46.7-1.7","5f88877885e51d02acd71b12","D2","batch4","tol_toboard","479","","","","","","","","","tol_peg_3","479","479","0","[[1,0,0],[3,0],[2]]","8","[[0,0,0],[2,3],[1]]","12","0","","","","","","4","","","","",""
"","","","","","single-stim-button","348","1895659","0.0-3.0-46.8-0.8","5f88877885e51d02acd71b12","D2","batch4","tol_tohand","1527","","","","","","","","","tol_peg_2","1527","1527","0","[[1,0,0],[0,0],[2]]","9","[[0,0,0],[2,3],[1]]","12","0","","","","","","4","","","","",""
"","","","","","single-stim-button","349","1896352","0.0-3.0-46.8-1.8","5f88877885e51d02acd71b12","D2","batch4","tol_toboard","690","","","","","","","","","tol_peg_1","690","690","0","[[1,3,0],[0,0],[2]]","9","[[0,0,0],[2,3],[1]]","12","0","","","","","","4","","","","",""
"","","","","","single-stim-button","350","1897139","0.0-3.0-46.9-0.9","5f88877885e51d02acd71b12","D2","batch4","tol_tohand","785","","","","","","","","","tol_peg_3","785","785","0","[[1,3,0],[0,0],[0]]","10","[[0,0,0],[2,3],[1]]","12","0","","","","","","4","","","","",""
"","","","","","single-stim-button","351","1897462","0.0-3.0-46.9-1.9","5f88877885e51d02acd71b12","D2","batch4","tol_toboard","321","","","","","","","","","tol_peg_2","321","321","0","[[1,3,0],[2,0],[0]]","10","[[0,0,0],[2,3],[1]]","12","0","","","","","","4","","","","",""
"","","","","","single-stim-button","352","1898184","0.0-3.0-46.10-0.10","5f88877885e51d02acd71b12","D2","batch4","tol_tohand","718","","","","","","","","","tol_peg_1","718","718","0","[[1,0,0],[2,0],[0]]","11","[[0,0,0],[2,3],[1]]","12","0","","","","","","4","","","","",""
"","","","","","single-stim-button","353","1898573","0.0-3.0-46.10-1.10","5f88877885e51d02acd71b12","D2","batch4","tol_toboard","385","","","","","","","","","tol_peg_2","385","385","0","[[1,0,0],[2,3],[0]]","11","[[0,0,0],[2,3],[1]]","12","0","","","","","","4","","","","",""
"","","","","","single-stim-button","354","1899624","0.0-3.0-46.11-0.11","5f88877885e51d02acd71b12","D2","batch4","tol_tohand","1048","","","","","","","","","tol_peg_1","1048","1048","0","[[0,0,0],[2,3],[0]]","12","[[0,0,0],[2,3],[1]]","12","0","","","","","","4","","","","",""
