"success","timeout","failed_images","failed_audio","failed_video","trial_type","trial_index","time_elapsed","internal_node_id","subject_id","study_id","session_id","view_history","rt","task","stimulus","response","correct","mouse_click","stim_duration","block_duration","timing_post_trial","current_position","tol_num_moves_made","tol_target","tol_problem_id","tol_rt","key_press","possible_responses","tol_correct","preplanning","tol_rt_per_trial","tol_min_moves","answer","item","fiar_detect_rt","fiar_detect_correct","total_correct_fiar_detect","post_trial_gap","choices","spm_correct","spm_rt"
"true","false","[]","[]","[]","preload","0","4689","0.0-0.0","5f96301839be85178cb37e0a","D2","batch4","","","","","","","","","","","","","","","","","","","","","","","","","","","","","",""
"true","","","","","fullscreen","1","14285","0.0-1.0-0.0","5f96301839be85178cb37e0a","D2","batch4","","","","","","","","","","","","","","","","","","","","","","","","","","","","","",""
"true","","","","","fullscreen","2","19978","0.0-2.0-0.0","5f96301839be85178cb37e0a","D2","batch4","","","","","","","","","","","","","","","","","","","","","","","","","","","","","",""
"","","","","","instructions","3","107661","0.0-2.0-1.0-0.0-0.0","5f96301839be85178cb37e0a","D2","batch4","[{""page_index"":0,""viewing_time"":16141.899999976158},{""page_index"":1,""viewing_time"":2060.2999999523163},{""page_index"":2,""viewing_time"":7368.700000047684},{""page_index"":3,""viewing_time"":17036.799999952316},{""page_index"":4,""viewing_time"":9369.5},{""page_index"":5,""viewing_time"":30112.800000071526},{""page_index"":6,""viewing_time"":5590.600000023842}]","87681.19999992847","tol-instructions","","","","","","","","","","","","","","","","","","","","","","","","","","",""
"","","","","","html-button-response","4","109268","0.0-2.0-1.0-1.0-0.0","5f96301839be85178cb37e0a","D2","batch4","","1604.6999999284744","tol_enter_quiz","<p class=block-text> Let's answer a few questions <br>","0","","","","","","","","","","","","","","","","","","","","","","","","",""
"","","","","","html-button-response","5","117983","0.0-2.0-1.0-1.0-1.0","5f96301839be85178cb37e0a","D2","batch4","","8713","tol_quiz","<p class = block-text>True or False: You can only move the ball on top of a peg. <br></p>","0","true","","","","","","","","","","","","","","","","","","","","","","","",""
"","","","","","html-button-response","6","120112","0.0-2.0-1.0-1.0-2.0","5f96301839be85178cb37e0a","D2","batch4","","2127.100000023842","tol_quiz_feedback","<p class = block-text>Correct! You can only move the ball on top of a peg.</p>","0","","","","","","","","","","","","","","","","","","","","","","","","",""
"","","","","","html-button-response","7","123518","0.0-2.0-1.0-1.0-3.0","5f96301839be85178cb37e0a","D2","batch4","","3404.5999999046326","tol_quiz","<p class = block-text>True or False: You should try to match your board with the target board with fewest moves possible. <br></p>","0","true","","","","","","","","","","","","","","","","","","","","","","","",""
"","","","","","html-button-response","8","124951","0.0-2.0-1.0-1.0-4.0","5f96301839be85178cb37e0a","D2","batch4","","1431","tol_quiz_feedback","<p class = block-text>Correct! </p>","0","","","","","","","","","","","","","","","","","","","","","","","","",""
"","","","","","html-button-response","9","127504","0.0-2.0-2.0","5f96301839be85178cb37e0a","D2","batch4","","2549.4000000953674","","<p class=block-text> Now that you've understood the game, let's practice a few easier examples before we start!<br> <br>","0","","","","","","","","","","","","","","","","","","","","","","","","",""
"","","","","","single-stim-button","10","130334","0.0-2.0-3.0-0.0","5f96301839be85178cb37e0a","D2","batch4","","2827","tol_practice","","","","tol_peg_2","2827","2827","0","[[1,2,0],[0,0],[0]]","1","[[1,2,0],[0,0],[3]]","practice","2827","","","","","","","","","","","","","","",""
"","","","","","single-stim-button","11","135521","0.0-2.0-3.0-1.0","5f96301839be85178cb37e0a","D2","batch4","","5184","tol_practice","","","","tol_peg_3","5184","5184","0","[[1,2,0],[0,0],[3]]","1","[[1,2,0],[0,0],[3]]","practice","5184","","","","","","","","","","","","","","",""
"","","","","","poldrack-single-stim","12","136531","0.0-2.0-4.0","5f96301839be85178cb37e0a","D2","batch4","","-1","tol_feedback","","","true","","1000","1000","500","","","","","","-1","none","true","","0","","","","","","","","","",""
"","","","","","single-stim-button","13","147748","0.0-2.0-5.0-0.0","5f96301839be85178cb37e0a","D2","batch4","","11217","tol_practice","","","","tol_peg_1","11217","11217","0","[[1,0,0],[3,0],[0]]","2","[[0,0,0],[3,1],[2]]","practice","11217","","","","","","","","","","","","","","",""
"","","","","","single-stim-button","14","149987","0.0-2.0-5.0-1.0","5f96301839be85178cb37e0a","D2","batch4","","2238","tol_practice","","","","tol_peg_3","2238","2238","0","[[1,0,0],[3,0],[2]]","2","[[0,0,0],[3,1],[2]]","practice","2238","","","","","","","","","","","","","","",""
"","","","","","single-stim-button","15","152100","0.0-2.0-5.1-0.1","5f96301839be85178cb37e0a","D2","batch4","","2110","tol_practice","","","","tol_peg_1","2110","2110","0","[[0,0,0],[3,0],[2]]","3","[[0,0,0],[3,1],[2]]","practice","2110","","","","","","","","","","","","","","",""
"","","","","","single-stim-button","16","154698","0.0-2.0-5.1-1.1","5f96301839be85178cb37e0a","D2","batch4","","2597","tol_practice","","","","tol_peg_2","2597","2597","0","[[0,0,0],[3,1],[2]]","3","[[0,0,0],[3,1],[2]]","practice","2597","","","","","","","","","","","","","","",""
"","","","","","poldrack-single-stim","17","155714","0.0-2.0-6.0","5f96301839be85178cb37e0a","D2","batch4","","-1","tol_feedback","","","true","","1000","1000","500","","","","","","-1","none","true","","0","","","","","","","","","",""
"","","","","","single-stim-button","18","161281","0.0-2.0-7.0-0.0","5f96301839be85178cb37e0a","D2","batch4","","5566","tol_practice","","","","tol_peg_2","5566","5566","0","[[1,2,0],[0,0],[0]]","4","[[1,0,0],[2,0],[3]]","practice","5566","","","","","","","","","","","","","","",""
"","","","","","single-stim-button","19","164916","0.0-2.0-7.0-1.0","5f96301839be85178cb37e0a","D2","batch4","","3633","tol_practice","","","","tol_peg_3","3633","3633","0","[[1,2,0],[0,0],[3]]","4","[[1,0,0],[2,0],[3]]","practice","3633","","","","","","","","","","","","","","",""
"","","","","","single-stim-button","20","167406","0.0-2.0-7.1-0.1","5f96301839be85178cb37e0a","D2","batch4","","2489","tol_practice","","","","tol_peg_1","2489","2489","0","[[1,0,0],[0,0],[3]]","5","[[1,0,0],[2,0],[3]]","practice","2489","","","","","","","","","","","","","","",""
"","","","","","single-stim-button","21","168817","0.0-2.0-7.1-1.1","5f96301839be85178cb37e0a","D2","batch4","","1410","tol_practice","","","","tol_peg_2","1410","1410","0","[[1,0,0],[2,0],[3]]","5","[[1,0,0],[2,0],[3]]","practice","1410","","","","","","","","","","","","","","",""
"","","","","","poldrack-single-stim","22","169825","0.0-2.0-8.0","5f96301839be85178cb37e0a","D2","batch4","","-1","tol_feedback","","","true","","1000","1000","500","","","","","","-1","none","true","","0","","","","","","","","","",""
"","","","","","html-button-response","23","174672","0.0-2.0-9.0","5f96301839be85178cb37e0a","D2","batch4","","4845.600000023842","tol_instruction","<div class = centerbox><p class = center-block-text>Great job! You are done with practice trials<br>You are about to start official trials.<br> <br> Problem <strong>1</strong> out of 25 problems</p></div>","0","","","","","","","","","","","","","","","","","","","","","","","","",""
"","","","","","single-stim-button","24","181961","0.0-2.0-10.0-0.0","5f96301839be85178cb37e0a","D2","batch4","","6283","tol_tohand","","","","tol_peg_1","6283","6283","0","[[1,0,0],[3,0],[0]]","1","[[1,3,0],[2,0],[0]]","0","0","","","","","","3","","","","","","","","",""
"","","","","","single-stim-button","25","183708","0.0-2.0-10.0-1.0","5f96301839be85178cb37e0a","D2","batch4","","1746","tol_toboard","","","","tol_peg_3","1746","1746","0","[[1,0,0],[3,0],[2]]","1","[[1,3,0],[2,0],[0]]","0","0","","","","","","3","","","","","","","","",""
"","","","","","single-stim-button","26","186447","0.0-2.0-10.1-0.1","5f96301839be85178cb37e0a","D2","batch4","","2738","tol_tohand","","","","tol_peg_2","2738","2738","0","[[1,0,0],[0,0],[2]]","2","[[1,3,0],[2,0],[0]]","0","0","","","","","","3","","","","","","","","",""
"","","","","","single-stim-button","27","188231","0.0-2.0-10.1-1.1","5f96301839be85178cb37e0a","D2","batch4","","1783","tol_toboard","","","","tol_peg_1","1783","1783","0","[[1,3,0],[0,0],[2]]","2","[[1,3,0],[2,0],[0]]","0","0","","","","","","3","","","","","","","","",""
"","","","","","single-stim-button","28","190262","0.0-2.0-10.2-0.2","5f96301839be85178cb37e0a","D2","batch4","","2030","tol_tohand","","","","tol_peg_3","2030","2030","0","[[1,3,0],[0,0],[0]]","3","[[1,3,0],[2,0],[0]]","0","0","","","","","","3","","","","","","","","",""
"","","","","","single-stim-button","29","191851","0.0-2.0-10.2-1.2","5f96301839be85178cb37e0a","D2","batch4","","1588","tol_toboard","","","","tol_peg_2","1588","1588","0","[[1,3,0],[2,0],[0]]","3","[[1,3,0],[2,0],[0]]","0","0","","","","","","3","","","","","","","","",""
"","","","","","poldrack-single-stim","30","192853","0.0-2.0-11.0","5f96301839be85178cb37e0a","D2","batch4","","-1","tol_feedback","","","true","","1000","1000","500","","","","","","-1","none","true","6283","11051","","","","","","","","","",""
"","","","","","html-button-response","31","194978","0.0-2.0-12.0","5f96301839be85178cb37e0a","D2","batch4","","2123.8000000715256","tol_trial_num","<div class = centerbox><p class = center-block-text>problem <strong>2</strong> out of 25 problems</p></div>","0","","","","","","","","","","","","","","","","","","","","","","","","",""
"","","","","","single-stim-button","32","207951","0.0-2.0-13.0-0.0","5f96301839be85178cb37e0a","D2","batch4","","12972","tol_tohand","","","","tol_peg_1","12972","12972","0","[[1,0,0],[3,0],[0]]","1","[[2,1,3],[0,0],[0]]","1","0","","","","","","5","","","","","","","","",""
"","","","","","single-stim-button","33","210071","0.0-2.0-13.0-1.0","5f96301839be85178cb37e0a","D2","batch4","","2119","tol_toboard","","","","tol_peg_3","2119","2119","0","[[1,0,0],[3,0],[2]]","1","[[2,1,3],[0,0],[0]]","1","0","","","","","","5","","","","","","","","",""
"","","","","","single-stim-button","34","226757","0.0-2.0-13.1-0.1","5f96301839be85178cb37e0a","D2","batch4","","16685","tol_tohand","","","","tol_peg_1","16685","16685","0","[[0,0,0],[3,0],[2]]","2","[[2,1,3],[0,0],[0]]","1","0","","","","","","5","","","","","","","","",""
"","","","","","single-stim-button","35","228563","0.0-2.0-13.1-1.1","5f96301839be85178cb37e0a","D2","batch4","","1804","tol_toboard","","","","tol_peg_2","1804","1804","0","[[0,0,0],[3,1],[2]]","2","[[2,1,3],[0,0],[0]]","1","0","","","","","","5","","","","","","","","",""
"","","","","","single-stim-button","36","230078","0.0-2.0-13.2-0.2","5f96301839be85178cb37e0a","D2","batch4","","1514","tol_tohand","","","","tol_peg_3","1514","1514","0","[[0,0,0],[3,1],[0]]","3","[[2,1,3],[0,0],[0]]","1","0","","","","","","5","","","","","","","","",""
"","","","","","single-stim-button","37","232623","0.0-2.0-13.2-1.2","5f96301839be85178cb37e0a","D2","batch4","","2544","tol_toboard","","","","tol_peg_1","2544","2544","0","[[2,0,0],[3,1],[0]]","3","[[2,1,3],[0,0],[0]]","1","0","","","","","","5","","","","","","","","",""
"","","","","","single-stim-button","38","236064","0.0-2.0-13.3-0.3","5f96301839be85178cb37e0a","D2","batch4","","3439","tol_tohand","","","","tol_peg_2","3439","3439","0","[[2,0,0],[3,0],[0]]","4","[[2,1,3],[0,0],[0]]","1","0","","","","","","5","","","","","","","","",""
"","","","","","single-stim-button","39","237721","0.0-2.0-13.3-1.3","5f96301839be85178cb37e0a","D2","batch4","","1656","tol_toboard","","","","tol_peg_1","1656","1656","0","[[2,1,0],[3,0],[0]]","4","[[2,1,3],[0,0],[0]]","1","0","","","","","","5","","","","","","","","",""
"","","","","","single-stim-button","40","238937","0.0-2.0-13.4-0.4","5f96301839be85178cb37e0a","D2","batch4","","1215","tol_tohand","","","","tol_peg_2","1215","1215","0","[[2,1,0],[0,0],[0]]","5","[[2,1,3],[0,0],[0]]","1","0","","","","","","5","","","","","","","","",""
"","","","","","single-stim-button","41","241423","0.0-2.0-13.4-1.4","5f96301839be85178cb37e0a","D2","batch4","","2484","tol_toboard","","","","tol_peg_1","2484","2484","0","[[2,1,3],[0,0],[0]]","5","[[2,1,3],[0,0],[0]]","1","0","","","","","","5","","","","","","","","",""
"","","","","","poldrack-single-stim","42","242425","0.0-2.0-14.0","5f96301839be85178cb37e0a","D2","batch4","","-1","tol_feedback","","","true","","1000","1000","500","","","","","","-1","none","true","12972","35825","","","","","","","","","",""
"","","","","","html-button-response","43","243968","0.0-2.0-15.0","5f96301839be85178cb37e0a","D2","batch4","","1541.7999999523163","tol_trial_num","<div class = centerbox><p class = center-block-text>problem <strong>3</strong> out of 25 problems</p></div>","0","","","","","","","","","","","","","","","","","","","","","","","","",""
"","","","","","single-stim-button","44","251566","0.0-2.0-16.0-0.0","5f96301839be85178cb37e0a","D2","batch4","","7596","tol_tohand","","","","tol_peg_1","7596","7596","0","[[2,0,0],[0,0],[1]]","1","[[1,2,0],[3,0],[0]]","2","0","","","","","","4","","","","","","","","",""
"","","","","","single-stim-button","45","253349","0.0-2.0-16.0-1.0","5f96301839be85178cb37e0a","D2","batch4","","1782","tol_toboard","","","","tol_peg_2","1782","1782","0","[[2,0,0],[3,0],[1]]","1","[[1,2,0],[3,0],[0]]","2","0","","","","","","4","","","","","","","","",""
"","","","","","single-stim-button","46","256336","0.0-2.0-16.1-0.1","5f96301839be85178cb37e0a","D2","batch4","","2985","tol_tohand","","","","tol_peg_1","2985","2985","0","[[0,0,0],[3,0],[1]]","2","[[1,2,0],[3,0],[0]]","2","0","","","","","","4","","","","","","","","",""
"","","","","","single-stim-button","47","258657","0.0-2.0-16.1-1.1","5f96301839be85178cb37e0a","D2","batch4","","2320","tol_toboard","","","","tol_peg_2","2320","2320","0","[[0,0,0],[3,2],[1]]","2","[[1,2,0],[3,0],[0]]","2","0","","","","","","4","","","","","","","","",""
"","","","","","single-stim-button","48","260134","0.0-2.0-16.2-0.2","5f96301839be85178cb37e0a","D2","batch4","","1476","tol_tohand","","","","tol_peg_3","1476","1476","0","[[0,0,0],[3,2],[0]]","3","[[1,2,0],[3,0],[0]]","2","0","","","","","","4","","","","","","","","",""
"","","","","","single-stim-button","49","261740","0.0-2.0-16.2-1.2","5f96301839be85178cb37e0a","D2","batch4","","1605","tol_toboard","","","","tol_peg_1","1605","1605","0","[[1,0,0],[3,2],[0]]","3","[[1,2,0],[3,0],[0]]","2","0","","","","","","4","","","","","","","","",""
"","","","","","single-stim-button","50","263619","0.0-2.0-16.3-0.3","5f96301839be85178cb37e0a","D2","batch4","","1879","tol_tohand","","","","tol_peg_2","1879","1879","0","[[1,0,0],[3,0],[0]]","4","[[1,2,0],[3,0],[0]]","2","0","","","","","","4","","","","","","","","",""
"","","","","","single-stim-button","51","265068","0.0-2.0-16.3-1.3","5f96301839be85178cb37e0a","D2","batch4","","1447","tol_toboard","","","","tol_peg_1","1447","1447","0","[[1,2,0],[3,0],[0]]","4","[[1,2,0],[3,0],[0]]","2","0","","","","","","4","","","","","","","","",""
"","","","","","poldrack-single-stim","52","266082","0.0-2.0-17.0","5f96301839be85178cb37e0a","D2","batch4","","-1","tol_feedback","","","true","","1000","1000","500","","","","","","-1","none","true","7596","13936","","","","","","","","","",""
"","","","","","html-button-response","53","267732","0.0-2.0-18.0","5f96301839be85178cb37e0a","D2","batch4","","1649.1000000238419","tol_trial_num","<div class = centerbox><p class = center-block-text>problem <strong>4</strong> out of 25 problems</p></div>","0","","","","","","","","","","","","","","","","","","","","","","","","",""
"","","","","","single-stim-button","54","278756","0.0-2.0-19.0-0.0","5f96301839be85178cb37e0a","D2","batch4","","11023","tol_tohand","","","","tol_peg_2","11023","11023","0","[[3,0,0],[2,0],[0]]","1","[[3,0,0],[1,0],[2]]","3","0","","","","","","3","","","","","","","","",""
"","","","","","single-stim-button","55","281271","0.0-2.0-19.0-1.0","5f96301839be85178cb37e0a","D2","batch4","","2514","tol_toboard","","","","tol_peg_1","2514","2514","0","[[3,1,0],[2,0],[0]]","1","[[3,0,0],[1,0],[2]]","3","0","","","","","","3","","","","","","","","",""
"","","","","","single-stim-button","56","282487","0.0-2.0-19.1-0.1","5f96301839be85178cb37e0a","D2","batch4","","1214","tol_tohand","","","","tol_peg_2","1214","1214","0","[[3,1,0],[0,0],[0]]","2","[[3,0,0],[1,0],[2]]","3","0","","","","","","3","","","","","","","","",""
"","","","","","single-stim-button","57","284346","0.0-2.0-19.1-1.1","5f96301839be85178cb37e0a","D2","batch4","","1858","tol_toboard","","","","tol_peg_3","1858","1858","0","[[3,1,0],[0,0],[2]]","2","[[3,0,0],[1,0],[2]]","3","0","","","","","","3","","","","","","","","",""
"","","","","","single-stim-button","58","285398","0.0-2.0-19.2-0.2","5f96301839be85178cb37e0a","D2","batch4","","1050","tol_tohand","","","","tol_peg_1","1050","1050","0","[[3,0,0],[0,0],[2]]","3","[[3,0,0],[1,0],[2]]","3","0","","","","","","3","","","","","","","","",""
"","","","","","single-stim-button","59","286794","0.0-2.0-19.2-1.2","5f96301839be85178cb37e0a","D2","batch4","","1395","tol_toboard","","","","tol_peg_2","1395","1395","0","[[3,0,0],[1,0],[2]]","3","[[3,0,0],[1,0],[2]]","3","0","","","","","","3","","","","","","","","",""
"","","","","","poldrack-single-stim","60","287795","0.0-2.0-20.0","5f96301839be85178cb37e0a","D2","batch4","","-1","tol_feedback","","","true","","1000","1000","500","","","","","","-1","none","true","11023","13287","","","","","","","","","",""
"","","","","","html-button-response","61","289577","0.0-2.0-21.0","5f96301839be85178cb37e0a","D2","batch4","","1781.3999999761581","tol_trial_num","<div class = centerbox><p class = center-block-text>problem <strong>5</strong> out of 25 problems</p></div>","0","","","","","","","","","","","","","","","","","","","","","","","","",""
"","","","","","single-stim-button","62","315897","0.0-2.0-22.0-0.0","5f96301839be85178cb37e0a","D2","batch4","","26318","tol_tohand","","","","tol_peg_3","26318","26318","0","[[1,0,0],[2,0],[0]]","1","[[0,0,0],[1,2],[3]]","4","0","","","","","","7","","","","","","","","",""
"","","","","","single-stim-button","63","320547","0.0-2.0-22.0-1.0","5f96301839be85178cb37e0a","D2","batch4","","4649","tol_toboard","","","","tol_peg_1","4649","4649","0","[[1,3,0],[2,0],[0]]","1","[[0,0,0],[1,2],[3]]","4","0","","","","","","7","","","","","","","","",""
"","","","","","single-stim-button","64","321890","0.0-2.0-22.1-0.1","5f96301839be85178cb37e0a","D2","batch4","","1342","tol_tohand","","","","tol_peg_2","1342","1342","0","[[1,3,0],[0,0],[0]]","2","[[0,0,0],[1,2],[3]]","4","0","","","","","","7","","","","","","","","",""
"","","","","","single-stim-button","65","325121","0.0-2.0-22.1-1.1","5f96301839be85178cb37e0a","D2","batch4","","3230","tol_toboard","","","","tol_peg_3","3230","3230","0","[[1,3,0],[0,0],[2]]","2","[[0,0,0],[1,2],[3]]","4","0","","","","","","7","","","","","","","","",""
"","","","","","single-stim-button","66","327182","0.0-2.0-22.2-0.2","5f96301839be85178cb37e0a","D2","batch4","","2059","tol_tohand","","","","tol_peg_1","2059","2059","0","[[1,0,0],[0,0],[2]]","3","[[0,0,0],[1,2],[3]]","4","0","","","","","","7","","","","","","","","",""
"","","","","","single-stim-button","67","338212","0.0-2.0-22.2-1.2","5f96301839be85178cb37e0a","D2","batch4","","11030","tol_toboard","","","","tol_peg_2","11030","11030","0","[[1,0,0],[3,0],[2]]","3","[[0,0,0],[1,2],[3]]","4","0","","","","","","7","","","","","","","","",""
"","","","","","single-stim-button","68","341466","0.0-2.0-22.3-0.3","5f96301839be85178cb37e0a","D2","batch4","","3253","tol_tohand","","","","tol_peg_1","3253","3253","0","[[0,0,0],[3,0],[2]]","4","[[0,0,0],[1,2],[3]]","4","0","","","","","","7","","","","","","","","",""
"","","","","","single-stim-button","69","344421","0.0-2.0-22.3-1.3","5f96301839be85178cb37e0a","D2","batch4","","2953","tol_toboard","","","","tol_peg_2","2953","2953","0","[[0,0,0],[3,1],[2]]","4","[[0,0,0],[1,2],[3]]","4","0","","","","","","7","","","","","","","","",""
"","","","","","single-stim-button","70","345435","0.0-2.0-22.4-0.4","5f96301839be85178cb37e0a","D2","batch4","","1013","tol_tohand","","","","tol_peg_3","1013","1013","0","[[0,0,0],[3,1],[0]]","5","[[0,0,0],[1,2],[3]]","4","0","","","","","","7","","","","","","","","",""
"","","","","","single-stim-button","71","347562","0.0-2.0-22.4-1.4","5f96301839be85178cb37e0a","D2","batch4","","2125","tol_toboard","","","","tol_peg_1","2125","2125","0","[[2,0,0],[3,1],[0]]","5","[[0,0,0],[1,2],[3]]","4","0","","","","","","7","","","","","","","","",""
"","","","","","single-stim-button","72","353159","0.0-2.0-22.5-0.5","5f96301839be85178cb37e0a","D2","batch4","","5597","tol_tohand","","","","tol_peg_2","5597","5597","0","[[2,0,0],[3,0],[0]]","6","[[0,0,0],[1,2],[3]]","4","0","","","","","","7","","","","","","","","",""
"","","","","","single-stim-button","73","354719","0.0-2.0-22.5-1.5","5f96301839be85178cb37e0a","D2","batch4","","1558","tol_toboard","","","","tol_peg_1","1558","1558","0","[[2,1,0],[3,0],[0]]","6","[[0,0,0],[1,2],[3]]","4","0","","","","","","7","","","","","","","","",""
"","","","","","single-stim-button","74","356145","0.0-2.0-22.6-0.6","5f96301839be85178cb37e0a","D2","batch4","","1425","tol_tohand","","","","tol_peg_2","1425","1425","0","[[2,1,0],[0,0],[0]]","7","[[0,0,0],[1,2],[3]]","4","0","","","","","","7","","","","","","","","",""
"","","","","","single-stim-button","75","357905","0.0-2.0-22.6-1.6","5f96301839be85178cb37e0a","D2","batch4","","1760","tol_toboard","","","","tol_peg_3","1760","1760","0","[[2,1,0],[0,0],[3]]","7","[[0,0,0],[1,2],[3]]","4","0","","","","","","7","","","","","","","","",""
"","","","","","single-stim-button","76","359711","0.0-2.0-22.7-0.7","5f96301839be85178cb37e0a","D2","batch4","","1805","tol_tohand","","","","tol_peg_1","1805","1805","0","[[2,0,0],[0,0],[3]]","8","[[0,0,0],[1,2],[3]]","4","0","","","","","","7","","","","","","","","",""
"","","","","","single-stim-button","77","361286","0.0-2.0-22.7-1.7","5f96301839be85178cb37e0a","D2","batch4","","1573","tol_toboard","","","","tol_peg_2","1573","1573","0","[[2,0,0],[1,0],[3]]","8","[[0,0,0],[1,2],[3]]","4","0","","","","","","7","","","","","","","","",""
"","","","","","single-stim-button","78","362450","0.0-2.0-22.8-0.8","5f96301839be85178cb37e0a","D2","batch4","","1163","tol_tohand","","","","tol_peg_1","1163","1163","0","[[0,0,0],[1,0],[3]]","9","[[0,0,0],[1,2],[3]]","4","0","","","","","","7","","","","","","","","",""
"","","","","","single-stim-button","79","364346","0.0-2.0-22.8-1.8","5f96301839be85178cb37e0a","D2","batch4","","1894","tol_toboard","","","","tol_peg_2","1894","1894","0","[[0,0,0],[1,2],[3]]","9","[[0,0,0],[1,2],[3]]","4","0","","","","","","7","","","","","","","","",""
"","","","","","poldrack-single-stim","80","365348","0.0-2.0-23.0","5f96301839be85178cb37e0a","D2","batch4","","-1","tol_feedback","","","true","","1000","1000","500","","","","","","-1","none","true","26318","43975","","","","","","","","","",""
"","","","","","html-button-response","81","367591","0.0-2.0-24.0","5f96301839be85178cb37e0a","D2","batch4","","2241","tol_trial_num","<div class = centerbox><p class = center-block-text>problem <strong>6</strong> out of 25 problems</p></div>","0","","","","","","","","","","","","","","","","","","","","","","","","",""
"","","","","","single-stim-button","82","379769","0.0-2.0-25.0-0.0","5f96301839be85178cb37e0a","D2","batch4","","12177","tol_tohand","","","","tol_peg_2","12177","12177","0","[[0,0,0],[1,0],[3]]","1","[[1,0,0],[2,3],[0]]","5","0","","","","","","6","","","","","","","","",""
"","","","","","single-stim-button","83","385151","0.0-2.0-25.0-1.0","5f96301839be85178cb37e0a","D2","batch4","","5380","tol_toboard","","","","tol_peg_1","5380","5380","0","[[2,0,0],[1,0],[3]]","1","[[1,0,0],[2,3],[0]]","5","0","","","","","","6","","","","","","","","",""
"","","","","","single-stim-button","84","394807","0.0-2.0-25.1-0.1","5f96301839be85178cb37e0a","D2","batch4","","9656","tol_tohand","","","","tol_peg_2","9656","9656","0","[[2,0,0],[0,0],[3]]","2","[[1,0,0],[2,3],[0]]","5","0","","","","","","6","","","","","","","","",""
"","","","","","single-stim-button","85","396323","0.0-2.0-25.1-1.1","5f96301839be85178cb37e0a","D2","batch4","","1514","tol_toboard","","","","tol_peg_1","1514","1514","0","[[2,1,0],[0,0],[3]]","2","[[1,0,0],[2,3],[0]]","5","0","","","","","","6","","","","","","","","",""
"","","","","","single-stim-button","86","423125","0.0-2.0-25.2-0.2","5f96301839be85178cb37e0a","D2","batch4","","26801","tol_tohand","","","","tol_peg_3","26801","26801","0","[[2,1,0],[0,0],[0]]","3","[[1,0,0],[2,3],[0]]","5","0","","","","","","6","","","","","","","","",""
"","","","","","single-stim-button","87","427364","0.0-2.0-25.2-1.2","5f96301839be85178cb37e0a","D2","batch4","","4237","tol_toboard","","","","tol_peg_2","4237","4237","0","[[2,1,0],[3,0],[0]]","3","[[1,0,0],[2,3],[0]]","5","0","","","","","","6","","","","","","","","",""
"","","","","","single-stim-button","88","434700","0.0-2.0-25.3-0.3","5f96301839be85178cb37e0a","D2","batch4","","7335","tol_tohand","","","","tol_peg_1","7335","7335","0","[[2,0,0],[3,0],[0]]","4","[[1,0,0],[2,3],[0]]","5","0","","","","","","6","","","","","","","","",""
"","","","","","single-stim-button","89","447998","0.0-2.0-25.3-1.3","5f96301839be85178cb37e0a","D2","batch4","","13298","tol_toboard","","","","tol_peg_2","13298","13298","0","[[2,0,0],[3,1],[0]]","4","[[1,0,0],[2,3],[0]]","5","0","","","","","","6","","","","","","","","",""
"","","","","","single-stim-button","90","449266","0.0-2.0-25.4-0.4","5f96301839be85178cb37e0a","D2","batch4","","1266","tol_tohand","","","","tol_peg_1","1266","1266","0","[[0,0,0],[3,1],[0]]","5","[[1,0,0],[2,3],[0]]","5","0","","","","","","6","","","","","","","","",""
"","","","","","single-stim-button","91","450811","0.0-2.0-25.4-1.4","5f96301839be85178cb37e0a","D2","batch4","","1545","tol_toboard","","","","tol_peg_3","1545","1545","0","[[0,0,0],[3,1],[2]]","5","[[1,0,0],[2,3],[0]]","5","0","","","","","","6","","","","","","","","",""
"","","","","","single-stim-button","92","452961","0.0-2.0-25.5-0.5","5f96301839be85178cb37e0a","D2","batch4","","2149","tol_tohand","","","","tol_peg_2","2149","2149","0","[[0,0,0],[3,0],[2]]","6","[[1,0,0],[2,3],[0]]","5","0","","","","","","6","","","","","","","","",""
"","","","","","single-stim-button","93","454803","0.0-2.0-25.5-1.5","5f96301839be85178cb37e0a","D2","batch4","","1840","tol_toboard","","","","tol_peg_1","1840","1840","0","[[1,0,0],[3,0],[2]]","6","[[1,0,0],[2,3],[0]]","5","0","","","","","","6","","","","","","","","",""
"","","","","","single-stim-button","94","457341","0.0-2.0-25.6-0.6","5f96301839be85178cb37e0a","D2","batch4","","2538","tol_tohand","","","","tol_peg_2","2538","2538","0","[[1,0,0],[0,0],[2]]","7","[[1,0,0],[2,3],[0]]","5","0","","","","","","6","","","","","","","","",""
"","","","","","single-stim-button","95","459094","0.0-2.0-25.6-1.6","5f96301839be85178cb37e0a","D2","batch4","","1751","tol_toboard","","","","tol_peg_1","1751","1751","0","[[1,3,0],[0,0],[2]]","7","[[1,0,0],[2,3],[0]]","5","0","","","","","","6","","","","","","","","",""
"","","","","","single-stim-button","96","460429","0.0-2.0-25.7-0.7","5f96301839be85178cb37e0a","D2","batch4","","1333","tol_tohand","","","","tol_peg_3","1333","1333","0","[[1,3,0],[0,0],[0]]","8","[[1,0,0],[2,3],[0]]","5","0","","","","","","6","","","","","","","","",""
"","","","","","single-stim-button","97","462236","0.0-2.0-25.7-1.7","5f96301839be85178cb37e0a","D2","batch4","","1804","tol_toboard","","","","tol_peg_2","1804","1804","0","[[1,3,0],[2,0],[0]]","8","[[1,0,0],[2,3],[0]]","5","0","","","","","","6","","","","","","","","",""
"","","","","","single-stim-button","98","463341","0.0-2.0-25.8-0.8","5f96301839be85178cb37e0a","D2","batch4","","1104","tol_tohand","","","","tol_peg_1","1104","1104","0","[[1,0,0],[2,0],[0]]","9","[[1,0,0],[2,3],[0]]","5","0","","","","","","6","","","","","","","","",""
"","","","","","single-stim-button","99","465176","0.0-2.0-25.8-1.8","5f96301839be85178cb37e0a","D2","batch4","","1835","tol_toboard","","","","tol_peg_2","1835","1835","0","[[1,0,0],[2,3],[0]]","9","[[1,0,0],[2,3],[0]]","5","0","","","","","","6","","","","","","","","",""
"","","","","","poldrack-single-stim","100","466178","0.0-2.0-26.0","5f96301839be85178cb37e0a","D2","batch4","","-1","tol_feedback","","","true","","1000","1000","500","","","","","","-1","none","true","12177","64359","","","","","","","","","",""
"","","","","","html-button-response","101","468109","0.0-2.0-27.0","5f96301839be85178cb37e0a","D2","batch4","","1929.5","tol_trial_num","<div class = centerbox><p class = center-block-text>problem <strong>7</strong> out of 25 problems</p></div>","0","","","","","","","","","","","","","","","","","","","","","","","","",""
"","","","","","single-stim-button","102","484585","0.0-2.0-28.0-0.0","5f96301839be85178cb37e0a","D2","batch4","","16476","tol_tohand","","","","tol_peg_3","16476","16476","0","[[2,1,0],[0,0],[0]]","1","[[1,2,0],[3,0],[0]]","6","0","","","","","","5","","","","","","","","",""
"","","","","","single-stim-button","103","486510","0.0-2.0-28.0-1.0","5f96301839be85178cb37e0a","D2","batch4","","1923","tol_toboard","","","","tol_peg_2","1923","1923","0","[[2,1,0],[3,0],[0]]","1","[[1,2,0],[3,0],[0]]","6","0","","","","","","5","","","","","","","","",""
"","","","","","single-stim-button","104","493046","0.0-2.0-28.1-0.1","5f96301839be85178cb37e0a","D2","batch4","","6535","tol_tohand","","","","tol_peg_1","6535","6535","0","[[2,0,0],[3,0],[0]]","2","[[1,2,0],[3,0],[0]]","6","0","","","","","","5","","","","","","","","",""
"","","","","","single-stim-button","105","495725","0.0-2.0-28.1-1.1","5f96301839be85178cb37e0a","D2","batch4","","2678","tol_toboard","","","","tol_peg_2","2678","2678","0","[[2,0,0],[3,1],[0]]","2","[[1,2,0],[3,0],[0]]","6","0","","","","","","5","","","","","","","","",""
"","","","","","single-stim-button","106","497948","0.0-2.0-28.2-0.2","5f96301839be85178cb37e0a","D2","batch4","","2222","tol_tohand","","","","tol_peg_1","2222","2222","0","[[0,0,0],[3,1],[0]]","3","[[1,2,0],[3,0],[0]]","6","0","","","","","","5","","","","","","","","",""
"","","","","","single-stim-button","107","501432","0.0-2.0-28.2-1.2","5f96301839be85178cb37e0a","D2","batch4","","3483","tol_toboard","","","","tol_peg_3","3483","3483","0","[[0,0,0],[3,1],[2]]","3","[[1,2,0],[3,0],[0]]","6","0","","","","","","5","","","","","","","","",""
"","","","","","single-stim-button","108","502657","0.0-2.0-28.3-0.3","5f96301839be85178cb37e0a","D2","batch4","","1224","tol_tohand","","","","tol_peg_2","1224","1224","0","[[0,0,0],[3,0],[2]]","4","[[1,2,0],[3,0],[0]]","6","0","","","","","","5","","","","","","","","",""
"","","","","","single-stim-button","109","504433","0.0-2.0-28.3-1.3","5f96301839be85178cb37e0a","D2","batch4","","1775","tol_toboard","","","","tol_peg_1","1775","1775","0","[[1,0,0],[3,0],[2]]","4","[[1,2,0],[3,0],[0]]","6","0","","","","","","5","","","","","","","","",""
"","","","","","single-stim-button","110","505641","0.0-2.0-28.4-0.4","5f96301839be85178cb37e0a","D2","batch4","","1207","tol_tohand","","","","tol_peg_3","1207","1207","0","[[1,0,0],[3,0],[0]]","5","[[1,2,0],[3,0],[0]]","6","0","","","","","","5","","","","","","","","",""
"","","","","","single-stim-button","111","507179","0.0-2.0-28.4-1.4","5f96301839be85178cb37e0a","D2","batch4","","1537","tol_toboard","","","","tol_peg_1","1537","1537","0","[[1,2,0],[3,0],[0]]","5","[[1,2,0],[3,0],[0]]","6","0","","","","","","5","","","","","","","","",""
"","","","","","poldrack-single-stim","112","508192","0.0-2.0-29.0","5f96301839be85178cb37e0a","D2","batch4","","-1","tol_feedback","","","true","","1000","1000","500","","","","","","-1","none","true","16476","27664","","","","","","","","","",""
"","","","","","html-button-response","113","509768","0.0-2.0-30.0","5f96301839be85178cb37e0a","D2","batch4","","1574.8999999761581","tol_trial_num","<div class = centerbox><p class = center-block-text>problem <strong>8</strong> out of 25 problems</p></div>","0","","","","","","","","","","","","","","","","","","","","","","","","",""
"","","","","","single-stim-button","114","531505","0.0-2.0-31.0-0.0","5f96301839be85178cb37e0a","D2","batch4","","21736","tol_tohand","","","","tol_peg_3","21736","21736","0","[[0,0,0],[2,3],[0]]","1","[[1,2,0],[3,0],[0]]","7","0","","","","","","4","","","","","","","","",""
"","","","","","single-stim-button","115","533117","0.0-2.0-31.0-1.0","5f96301839be85178cb37e0a","D2","batch4","","1610","tol_toboard","","","","tol_peg_1","1610","1610","0","[[1,0,0],[2,3],[0]]","1","[[1,2,0],[3,0],[0]]","7","0","","","","","","4","","","","","","","","",""
"","","","","","single-stim-button","116","535536","0.0-2.0-31.1-0.1","5f96301839be85178cb37e0a","D2","batch4","","2417","tol_tohand","","","","tol_peg_2","2417","2417","0","[[1,0,0],[2,0],[0]]","2","[[1,2,0],[3,0],[0]]","7","0","","","","","","4","","","","","","","","",""
"","","","","","single-stim-button","117","537086","0.0-2.0-31.1-1.1","5f96301839be85178cb37e0a","D2","batch4","","1549","tol_toboard","","","","tol_peg_3","1549","1549","0","[[1,0,0],[2,0],[3]]","2","[[1,2,0],[3,0],[0]]","7","0","","","","","","4","","","","","","","","",""
"","","","","","single-stim-button","118","538145","0.0-2.0-31.2-0.2","5f96301839be85178cb37e0a","D2","batch4","","1059","tol_tohand","","","","tol_peg_2","1059","1059","0","[[1,0,0],[0,0],[3]]","3","[[1,2,0],[3,0],[0]]","7","0","","","","","","4","","","","","","","","",""
"","","","","","single-stim-button","119","539535","0.0-2.0-31.2-1.2","5f96301839be85178cb37e0a","D2","batch4","","1388","tol_toboard","","","","tol_peg_1","1388","1388","0","[[1,2,0],[0,0],[3]]","3","[[1,2,0],[3,0],[0]]","7","0","","","","","","4","","","","","","","","",""
"","","","","","single-stim-button","120","540736","0.0-2.0-31.3-0.3","5f96301839be85178cb37e0a","D2","batch4","","1199","tol_tohand","","","","tol_peg_3","1199","1199","0","[[1,2,0],[0,0],[0]]","4","[[1,2,0],[3,0],[0]]","7","0","","","","","","4","","","","","","","","",""
"","","","","","single-stim-button","121","542109","0.0-2.0-31.3-1.3","5f96301839be85178cb37e0a","D2","batch4","","1372","tol_toboard","","","","tol_peg_2","1372","1372","0","[[1,2,0],[3,0],[0]]","4","[[1,2,0],[3,0],[0]]","7","0","","","","","","4","","","","","","","","",""
"","","","","","poldrack-single-stim","122","543111","0.0-2.0-32.0","5f96301839be85178cb37e0a","D2","batch4","","-1","tol_feedback","","","true","","1000","1000","500","","","","","","-1","none","true","21736","26411","","","","","","","","","",""
"","","","","","html-button-response","123","544907","0.0-2.0-33.0","5f96301839be85178cb37e0a","D2","batch4","","1794.6999999284744","tol_trial_num","<div class = centerbox><p class = center-block-text>problem <strong>9</strong> out of 25 problems</p></div>","0","","","","","","","","","","","","","","","","","","","","","","","","",""
"","","","","","single-stim-button","124","582982","0.0-2.0-34.0-0.0","5f96301839be85178cb37e0a","D2","batch4","","38074","tol_tohand","","","","tol_peg_3","38074","38074","0","[[3,2,0],[0,0],[0]]","1","[[2,1,0],[3,0],[0]]","8","0","","","","","","6","","","","","","","","",""
"","","","","","single-stim-button","125","585415","0.0-2.0-34.0-1.0","5f96301839be85178cb37e0a","D2","batch4","","2431","tol_toboard","","","","tol_peg_2","2431","2431","0","[[3,2,0],[1,0],[0]]","1","[[2,1,0],[3,0],[0]]","8","0","","","","","","6","","","","","","","","",""
"","","","","","single-stim-button","126","594981","0.0-2.0-34.1-0.1","5f96301839be85178cb37e0a","D2","batch4","","9565","tol_tohand","","","","tol_peg_1","9565","9565","0","[[3,0,0],[1,0],[0]]","2","[[2,1,0],[3,0],[0]]","8","0","","","","","","6","","","","","","","","",""
"","","","","","single-stim-button","127","597412","0.0-2.0-34.1-1.1","5f96301839be85178cb37e0a","D2","batch4","","2430","tol_toboard","","","","tol_peg_2","2430","2430","0","[[3,0,0],[1,2],[0]]","2","[[2,1,0],[3,0],[0]]","8","0","","","","","","6","","","","","","","","",""
"","","","","","single-stim-button","128","600622","0.0-2.0-34.2-0.2","5f96301839be85178cb37e0a","D2","batch4","","3208","tol_tohand","","","","tol_peg_1","3208","3208","0","[[0,0,0],[1,2],[0]]","3","[[2,1,0],[3,0],[0]]","8","0","","","","","","6","","","","","","","","",""
"","","","","","single-stim-button","129","603002","0.0-2.0-34.2-1.2","5f96301839be85178cb37e0a","D2","batch4","","2380","tol_toboard","","","","tol_peg_3","2380","2380","0","[[0,0,0],[1,2],[3]]","3","[[2,1,0],[3,0],[0]]","8","0","","","","","","6","","","","","","","","",""
"","","","","","single-stim-button","130","604060","0.0-2.0-34.3-0.3","5f96301839be85178cb37e0a","D2","batch4","","1056","tol_tohand","","","","tol_peg_2","1056","1056","0","[[0,0,0],[1,0],[3]]","4","[[2,1,0],[3,0],[0]]","8","0","","","","","","6","","","","","","","","",""
"","","","","","single-stim-button","131","605391","0.0-2.0-34.3-1.3","5f96301839be85178cb37e0a","D2","batch4","","1331","tol_toboard","","","","tol_peg_1","1331","1331","0","[[2,0,0],[1,0],[3]]","4","[[2,1,0],[3,0],[0]]","8","0","","","","","","6","","","","","","","","",""
"","","","","","single-stim-button","132","606361","0.0-2.0-34.4-0.4","5f96301839be85178cb37e0a","D2","batch4","","968","tol_tohand","","","","tol_peg_2","968","968","0","[[2,0,0],[0,0],[3]]","5","[[2,1,0],[3,0],[0]]","8","0","","","","","","6","","","","","","","","",""
"","","","","","single-stim-button","133","607636","0.0-2.0-34.4-1.4","5f96301839be85178cb37e0a","D2","batch4","","1275","tol_toboard","","","","tol_peg_1","1275","1275","0","[[2,1,0],[0,0],[3]]","5","[[2,1,0],[3,0],[0]]","8","0","","","","","","6","","","","","","","","",""
"","","","","","single-stim-button","134","608643","0.0-2.0-34.5-0.5","5f96301839be85178cb37e0a","D2","batch4","","1006","tol_tohand","","","","tol_peg_3","1006","1006","0","[[2,1,0],[0,0],[0]]","6","[[2,1,0],[3,0],[0]]","8","0","","","","","","6","","","","","","","","",""
"","","","","","single-stim-button","135","610017","0.0-2.0-34.5-1.5","5f96301839be85178cb37e0a","D2","batch4","","1372","tol_toboard","","","","tol_peg_2","1372","1372","0","[[2,1,0],[3,0],[0]]","6","[[2,1,0],[3,0],[0]]","8","0","","","","","","6","","","","","","","","",""
"","","","","","poldrack-single-stim","136","611018","0.0-2.0-35.0","5f96301839be85178cb37e0a","D2","batch4","","-1","tol_feedback","","","true","","1000","1000","500","","","","","","-1","none","true","38074","53877","","","","","","","","","",""
"","","","","","html-button-response","137","612679","0.0-2.0-36.0","5f96301839be85178cb37e0a","D2","batch4","","1659.3999999761581","tol_trial_num","<div class = centerbox><p class = center-block-text>problem <strong>10</strong> out of 25 problems</p></div>","0","","","","","","","","","","","","","","","","","","","","","","","","",""
"","","","","","single-stim-button","138","625520","0.0-2.0-37.0-0.0","5f96301839be85178cb37e0a","D2","batch4","","12840","tol_tohand","","","","tol_peg_2","12840","12840","0","[[3,0,0],[0,0],[2]]","1","[[3,0,0],[2,1],[0]]","9","0","","","","","","3","","","","","","","","",""
"","","","","","single-stim-button","139","626818","0.0-2.0-37.0-1.0","5f96301839be85178cb37e0a","D2","batch4","","1297","tol_toboard","","","","tol_peg_1","1297","1297","0","[[3,1,0],[0,0],[2]]","1","[[3,0,0],[2,1],[0]]","9","0","","","","","","3","","","","","","","","",""
"","","","","","single-stim-button","140","627857","0.0-2.0-37.1-0.1","5f96301839be85178cb37e0a","D2","batch4","","1037","tol_tohand","","","","tol_peg_3","1037","1037","0","[[3,1,0],[0,0],[0]]","2","[[3,0,0],[2,1],[0]]","9","0","","","","","","3","","","","","","","","",""
"","","","","","single-stim-button","141","629222","0.0-2.0-37.1-1.1","5f96301839be85178cb37e0a","D2","batch4","","1365","tol_toboard","","","","tol_peg_2","1365","1365","0","[[3,1,0],[2,0],[0]]","2","[[3,0,0],[2,1],[0]]","9","0","","","","","","3","","","","","","","","",""
"","","","","","single-stim-button","142","630521","0.0-2.0-37.2-0.2","5f96301839be85178cb37e0a","D2","batch4","","1297","tol_tohand","","","","tol_peg_1","1297","1297","0","[[3,0,0],[2,0],[0]]","3","[[3,0,0],[2,1],[0]]","9","0","","","","","","3","","","","","","","","",""
"","","","","","single-stim-button","143","632105","0.0-2.0-37.2-1.2","5f96301839be85178cb37e0a","D2","batch4","","1584","tol_toboard","","","","tol_peg_2","1584","1584","0","[[3,0,0],[2,1],[0]]","3","[[3,0,0],[2,1],[0]]","9","0","","","","","","3","","","","","","","","",""
"","","","","","poldrack-single-stim","144","633107","0.0-2.0-38.0","5f96301839be85178cb37e0a","D2","batch4","","-1","tol_feedback","","","true","","1000","1000","500","","","","","","-1","none","true","12840","15174","","","","","","","","","",""
"","","","","","html-button-response","145","634489","0.0-2.0-39.0","5f96301839be85178cb37e0a","D2","batch4","","1380.5","tol_trial_num","<div class = centerbox><p class = center-block-text>problem <strong>11</strong> out of 25 problems</p></div>","0","","","","","","","","","","","","","","","","","","","","","","","","",""
"","","","","","single-stim-button","146","664787","0.0-2.0-40.0-0.0","5f96301839be85178cb37e0a","D2","batch4","","30297","tol_tohand","","","","tol_peg_2","30297","30297","0","[[1,2,0],[0,0],[0]]","1","[[2,0,0],[1,3],[0]]","10","0","","","","","","6","","","","","","","","",""
"","","","","","single-stim-button","147","666070","0.0-2.0-40.0-1.0","5f96301839be85178cb37e0a","D2","batch4","","1281","tol_toboard","","","","tol_peg_3","1281","1281","0","[[1,2,0],[0,0],[3]]","1","[[2,0,0],[1,3],[0]]","10","0","","","","","","6","","","","","","","","",""
"","","","","","single-stim-button","148","667608","0.0-2.0-40.1-0.1","5f96301839be85178cb37e0a","D2","batch4","","1536","tol_tohand","","","","tol_peg_1","1536","1536","0","[[1,0,0],[0,0],[3]]","2","[[2,0,0],[1,3],[0]]","10","0","","","","","","6","","","","","","","","",""
"","","","","","single-stim-button","149","672464","0.0-2.0-40.1-1.1","5f96301839be85178cb37e0a","D2","batch4","","4855","tol_toboard","","","","tol_peg_2","4855","4855","0","[[1,0,0],[2,0],[3]]","2","[[2,0,0],[1,3],[0]]","10","0","","","","","","6","","","","","","","","",""
"","","","","","single-stim-button","150","673582","0.0-2.0-40.2-0.2","5f96301839be85178cb37e0a","D2","batch4","","1116","tol_tohand","","","","tol_peg_1","1116","1116","0","[[0,0,0],[2,0],[3]]","3","[[2,0,0],[1,3],[0]]","10","0","","","","","","6","","","","","","","","",""
"","","","","","single-stim-button","151","694557","0.0-2.0-40.2-1.2","5f96301839be85178cb37e0a","D2","batch4","","20974","tol_toboard","","","","tol_peg_2","20974","20974","0","[[0,0,0],[2,1],[3]]","3","[[2,0,0],[1,3],[0]]","10","0","","","","","","6","","","","","","","","",""
"","","","","","single-stim-button","152","702928","0.0-2.0-40.3-0.3","5f96301839be85178cb37e0a","D2","batch4","","8371","tol_tohand","","","","tol_peg_3","8371","8371","0","[[0,0,0],[2,1],[0]]","4","[[2,0,0],[1,3],[0]]","10","0","","","","","","6","","","","","","","","",""
"","","","","","single-stim-button","153","704673","0.0-2.0-40.3-1.3","5f96301839be85178cb37e0a","D2","batch4","","1744","tol_toboard","","","","tol_peg_1","1744","1744","0","[[3,0,0],[2,1],[0]]","4","[[2,0,0],[1,3],[0]]","10","0","","","","","","6","","","","","","","","",""
"","","","","","single-stim-button","154","705644","0.0-2.0-40.4-0.4","5f96301839be85178cb37e0a","D2","batch4","","970","tol_tohand","","","","tol_peg_2","970","970","0","[[3,0,0],[2,0],[0]]","5","[[2,0,0],[1,3],[0]]","10","0","","","","","","6","","","","","","","","",""
"","","","","","single-stim-button","155","710448","0.0-2.0-40.4-1.4","5f96301839be85178cb37e0a","D2","batch4","","4803","tol_toboard","","","","tol_peg_1","4803","4803","0","[[3,1,0],[2,0],[0]]","5","[[2,0,0],[1,3],[0]]","10","0","","","","","","6","","","","","","","","",""
"","","","","","single-stim-button","156","712754","0.0-2.0-40.5-0.5","5f96301839be85178cb37e0a","D2","batch4","","2305","tol_tohand","","","","tol_peg_2","2305","2305","0","[[3,1,0],[0,0],[0]]","6","[[2,0,0],[1,3],[0]]","10","0","","","","","","6","","","","","","","","",""
"","","","","","single-stim-button","157","714246","0.0-2.0-40.5-1.5","5f96301839be85178cb37e0a","D2","batch4","","1491","tol_toboard","","","","tol_peg_3","1491","1491","0","[[3,1,0],[0,0],[2]]","6","[[2,0,0],[1,3],[0]]","10","0","","","","","","6","","","","","","","","",""
"","","","","","single-stim-button","158","715433","0.0-2.0-40.6-0.6","5f96301839be85178cb37e0a","D2","batch4","","1185","tol_tohand","","","","tol_peg_1","1185","1185","0","[[3,0,0],[0,0],[2]]","7","[[2,0,0],[1,3],[0]]","10","0","","","","","","6","","","","","","","","",""
"","","","","","single-stim-button","159","716700","0.0-2.0-40.6-1.6","5f96301839be85178cb37e0a","D2","batch4","","1265","tol_toboard","","","","tol_peg_2","1265","1265","0","[[3,0,0],[1,0],[2]]","7","[[2,0,0],[1,3],[0]]","10","0","","","","","","6","","","","","","","","",""
"","","","","","single-stim-button","160","717820","0.0-2.0-40.7-0.7","5f96301839be85178cb37e0a","D2","batch4","","1119","tol_tohand","","","","tol_peg_1","1119","1119","0","[[0,0,0],[1,0],[2]]","8","[[2,0,0],[1,3],[0]]","10","0","","","","","","6","","","","","","","","",""
"","","","","","single-stim-button","161","719208","0.0-2.0-40.7-1.7","5f96301839be85178cb37e0a","D2","batch4","","1386","tol_toboard","","","","tol_peg_2","1386","1386","0","[[0,0,0],[1,3],[2]]","8","[[2,0,0],[1,3],[0]]","10","0","","","","","","6","","","","","","","","",""
"","","","","","single-stim-button","162","720536","0.0-2.0-40.8-0.8","5f96301839be85178cb37e0a","D2","batch4","","1326","tol_tohand","","","","tol_peg_3","1326","1326","0","[[0,0,0],[1,3],[0]]","9","[[2,0,0],[1,3],[0]]","10","0","","","","","","6","","","","","","","","",""
"","","","","","single-stim-button","163","721819","0.0-2.0-40.8-1.8","5f96301839be85178cb37e0a","D2","batch4","","1282","tol_toboard","","","","tol_peg_1","1282","1282","0","[[2,0,0],[1,3],[0]]","9","[[2,0,0],[1,3],[0]]","10","0","","","","","","6","","","","","","","","",""
"","","","","","poldrack-single-stim","164","722822","0.0-2.0-41.0","5f96301839be85178cb37e0a","D2","batch4","","-1","tol_feedback","","","true","","1000","1000","500","","","","","","-1","none","true","30297","48225","","","","","","","","","",""
"","","","","","html-button-response","165","724751","0.0-2.0-42.0","5f96301839be85178cb37e0a","D2","batch4","","1927.3999999761581","tol_trial_num","<div class = centerbox><p class = center-block-text>problem <strong>12</strong> out of 25 problems</p></div>","0","","","","","","","","","","","","","","","","","","","","","","","","",""
"","","","","","single-stim-button","166","739427","0.0-2.0-43.0-0.0","5f96301839be85178cb37e0a","D2","batch4","","14675","tol_tohand","","","","tol_peg_1","14675","14675","0","[[1,0,0],[3,0],[0]]","1","[[2,3,0],[0,0],[1]]","11","0","","","","","","4","","","","","","","","",""
"","","","","","single-stim-button","167","741293","0.0-2.0-43.0-1.0","5f96301839be85178cb37e0a","D2","batch4","","1864","tol_toboard","","","","tol_peg_2","1864","1864","0","[[1,0,0],[3,2],[0]]","1","[[2,3,0],[0,0],[1]]","11","0","","","","","","4","","","","","","","","",""
"","","","","","single-stim-button","168","743240","0.0-2.0-43.1-0.1","5f96301839be85178cb37e0a","D2","batch4","","1947","tol_tohand","","","","tol_peg_1","1947","1947","0","[[0,0,0],[3,2],[0]]","2","[[2,3,0],[0,0],[1]]","11","0","","","","","","4","","","","","","","","",""
"","","","","","single-stim-button","169","745149","0.0-2.0-43.1-1.1","5f96301839be85178cb37e0a","D2","batch4","","1907","tol_toboard","","","","tol_peg_3","1907","1907","0","[[0,0,0],[3,2],[1]]","2","[[2,3,0],[0,0],[1]]","11","0","","","","","","4","","","","","","","","",""
"","","","","","single-stim-button","170","747008","0.0-2.0-43.2-0.2","5f96301839be85178cb37e0a","D2","batch4","","1858","tol_tohand","","","","tol_peg_2","1858","1858","0","[[0,0,0],[3,0],[1]]","3","[[2,3,0],[0,0],[1]]","11","0","","","","","","4","","","","","","","","",""
"","","","","","single-stim-button","171","748492","0.0-2.0-43.2-1.2","5f96301839be85178cb37e0a","D2","batch4","","1483","tol_toboard","","","","tol_peg_1","1483","1483","0","[[2,0,0],[3,0],[1]]","3","[[2,3,0],[0,0],[1]]","11","0","","","","","","4","","","","","","","","",""
"","","","","","single-stim-button","172","749611","0.0-2.0-43.3-0.3","5f96301839be85178cb37e0a","D2","batch4","","1117","tol_tohand","","","","tol_peg_2","1117","1117","0","[[2,0,0],[0,0],[1]]","4","[[2,3,0],[0,0],[1]]","11","0","","","","","","4","","","","","","","","",""
"","","","","","single-stim-button","173","751365","0.0-2.0-43.3-1.3","5f96301839be85178cb37e0a","D2","batch4","","1753","tol_toboard","","","","tol_peg_1","1753","1753","0","[[2,3,0],[0,0],[1]]","4","[[2,3,0],[0,0],[1]]","11","0","","","","","","4","","","","","","","","",""
"","","","","","poldrack-single-stim","174","752367","0.0-2.0-44.0","5f96301839be85178cb37e0a","D2","batch4","","-1","tol_feedback","","","true","","1000","1000","500","","","","","","-1","none","true","14675","19597","","","","","","","","","",""
"","","","","","html-button-response","175","754124","0.0-2.0-45.0","5f96301839be85178cb37e0a","D2","batch4","","1755.7000000476837","tol_trial_num","<div class = centerbox><p class = center-block-text>problem <strong>13</strong> out of 25 problems</p></div>","0","","","","","","","","","","","","","","","","","","","","","","","","",""
"","","","","","single-stim-button","176","766578","0.0-2.0-46.0-0.0","5f96301839be85178cb37e0a","D2","batch4","","12452","tol_tohand","","","","tol_peg_1","12452","12452","0","[[1,0,0],[3,0],[0]]","1","[[0,0,0],[2,3],[1]]","12","0","","","","","","4","","","","","","","","",""
"","","","","","single-stim-button","177","768405","0.0-2.0-46.0-1.0","5f96301839be85178cb37e0a","D2","batch4","","1825","tol_toboard","","","","tol_peg_2","1825","1825","0","[[1,0,0],[3,2],[0]]","1","[[0,0,0],[2,3],[1]]","12","0","","","","","","4","","","","","","","","",""
"","","","","","single-stim-button","178","769405","0.0-2.0-46.1-0.1","5f96301839be85178cb37e0a","D2","batch4","","999","tol_tohand","","","","tol_peg_1","999","999","0","[[0,0,0],[3,2],[0]]","2","[[0,0,0],[2,3],[1]]","12","0","","","","","","4","","","","","","","","",""
"","","","","","single-stim-button","179","771270","0.0-2.0-46.1-1.1","5f96301839be85178cb37e0a","D2","batch4","","1864","tol_toboard","","","","tol_peg_3","1864","1864","0","[[0,0,0],[3,2],[1]]","2","[[0,0,0],[2,3],[1]]","12","0","","","","","","4","","","","","","","","",""
"","","","","","single-stim-button","180","800850","0.0-2.0-46.2-0.2","5f96301839be85178cb37e0a","D2","batch4","","29578","tol_tohand","","","","tol_peg_3","29578","29578","0","[[0,0,0],[3,2],[0]]","3","[[0,0,0],[2,3],[1]]","12","0","","","","","","4","","","","","","","","",""
"","","","","","single-stim-button","181","803036","0.0-2.0-46.2-1.2","5f96301839be85178cb37e0a","D2","batch4","","2184","tol_toboard","","","","tol_peg_1","2184","2184","0","[[1,0,0],[3,2],[0]]","3","[[0,0,0],[2,3],[1]]","12","0","","","","","","4","","","","","","","","",""
"","","","","","single-stim-button","182","804938","0.0-2.0-46.3-0.3","5f96301839be85178cb37e0a","D2","batch4","","1901","tol_tohand","","","","tol_peg_2","1901","1901","0","[[1,0,0],[3,0],[0]]","4","[[0,0,0],[2,3],[1]]","12","0","","","","","","4","","","","","","","","",""
"","","","","","single-stim-button","183","806527","0.0-2.0-46.3-1.3","5f96301839be85178cb37e0a","D2","batch4","","1587","tol_toboard","","","","tol_peg_3","1587","1587","0","[[1,0,0],[3,0],[2]]","4","[[0,0,0],[2,3],[1]]","12","0","","","","","","4","","","","","","","","",""
"","","","","","single-stim-button","184","807772","0.0-2.0-46.4-0.4","5f96301839be85178cb37e0a","D2","batch4","","1244","tol_tohand","","","","tol_peg_2","1244","1244","0","[[1,0,0],[0,0],[2]]","5","[[0,0,0],[2,3],[1]]","12","0","","","","","","4","","","","","","","","",""
"","","","","","single-stim-button","185","811830","0.0-2.0-46.4-1.4","5f96301839be85178cb37e0a","D2","batch4","","4057","tol_toboard","","","","tol_peg_1","4057","4057","0","[[1,3,0],[0,0],[2]]","5","[[0,0,0],[2,3],[1]]","12","0","","","","","","4","","","","","","","","",""
"","","","","","single-stim-button","186","813338","0.0-2.0-46.5-0.5","5f96301839be85178cb37e0a","D2","batch4","","1506","tol_tohand","","","","tol_peg_3","1506","1506","0","[[1,3,0],[0,0],[0]]","6","[[0,0,0],[2,3],[1]]","12","0","","","","","","4","","","","","","","","",""
"","","","","","single-stim-button","187","814621","0.0-2.0-46.5-1.5","5f96301839be85178cb37e0a","D2","batch4","","1282","tol_toboard","","","","tol_peg_2","1282","1282","0","[[1,3,0],[2,0],[0]]","6","[[0,0,0],[2,3],[1]]","12","0","","","","","","4","","","","","","","","",""
"","","","","","single-stim-button","188","815613","0.0-2.0-46.6-0.6","5f96301839be85178cb37e0a","D2","batch4","","991","tol_tohand","","","","tol_peg_1","991","991","0","[[1,0,0],[2,0],[0]]","7","[[0,0,0],[2,3],[1]]","12","0","","","","","","4","","","","","","","","",""
"","","","","","single-stim-button","189","816968","0.0-2.0-46.6-1.6","5f96301839be85178cb37e0a","D2","batch4","","1354","tol_toboard","","","","tol_peg_2","1354","1354","0","[[1,0,0],[2,3],[0]]","7","[[0,0,0],[2,3],[1]]","12","0","","","","","","4","","","","","","","","",""
"","","","","","single-stim-button","190","818127","0.0-2.0-46.7-0.7","5f96301839be85178cb37e0a","D2","batch4","","1158","tol_tohand","","","","tol_peg_1","1158","1158","0","[[0,0,0],[2,3],[0]]","8","[[0,0,0],[2,3],[1]]","12","0","","","","","","4","","","","","","","","",""
"","","","","","single-stim-button","191","819492","0.0-2.0-46.7-1.7","5f96301839be85178cb37e0a","D2","batch4","","1364","tol_toboard","","","","tol_peg_3","1364","1364","0","[[0,0,0],[2,3],[1]]","8","[[0,0,0],[2,3],[1]]","12","0","","","","","","4","","","","","","","","",""
"","","","","","poldrack-single-stim","192","820508","0.0-2.0-47.0","5f96301839be85178cb37e0a","D2","batch4","","-1","tol_feedback","","","true","","1000","1000","500","","","","","","-1","none","true","12452","49829","","","","","","","","","",""
"","","","","","html-button-response","193","824759","0.0-2.0-48.0","5f96301839be85178cb37e0a","D2","batch4","","4250.100000023842","attention_check","<p class = block-text>How many balls are in your board<br></p>","1","true","","","","","","","","","","","","","","","","","","","","","","","",""
"","","","","","html-button-response","194","827615","0.0-2.0-49.0","5f96301839be85178cb37e0a","D2","batch4","","2854.2999999523163","tol_trial_num","<div class = centerbox><p class = center-block-text>problem <strong>14</strong> out of 25 problems</p></div>","0","","","","","","","","","","","","","","","","","","","","","","","","",""
"","","","","","single-stim-button","195","836495","0.0-2.0-50.0-0.0","5f96301839be85178cb37e0a","D2","batch4","","8878","tol_tohand","","","","tol_peg_1","8878","8878","0","[[2,0,0],[3,0],[0]]","1","[[1,2,0],[3,0],[0]]","13","0","","","","","","4","","","","","","","","",""
"","","","","","single-stim-button","196","838643","0.0-2.0-50.0-1.0","5f96301839be85178cb37e0a","D2","batch4","","2147","tol_toboard","","","","tol_peg_3","2147","2147","0","[[2,0,0],[3,0],[1]]","1","[[1,2,0],[3,0],[0]]","13","0","","","","","","4","","","","","","","","",""
"","","","","","single-stim-button","197","842768","0.0-2.0-50.1-0.1","5f96301839be85178cb37e0a","D2","batch4","","4123","tol_tohand","","","","tol_peg_1","4123","4123","0","[[0,0,0],[3,0],[1]]","2","[[1,2,0],[3,0],[0]]","13","0","","","","","","4","","","","","","","","",""
"","","","","","single-stim-button","198","844543","0.0-2.0-50.1-1.1","5f96301839be85178cb37e0a","D2","batch4","","1774","tol_toboard","","","","tol_peg_2","1774","1774","0","[[0,0,0],[3,2],[1]]","2","[[1,2,0],[3,0],[0]]","13","0","","","","","","4","","","","","","","","",""
"","","","","","single-stim-button","199","845625","0.0-2.0-50.2-0.2","5f96301839be85178cb37e0a","D2","batch4","","1081","tol_tohand","","","","tol_peg_3","1081","1081","0","[[0,0,0],[3,2],[0]]","3","[[1,2,0],[3,0],[0]]","13","0","","","","","","4","","","","","","","","",""
"","","","","","single-stim-button","200","847027","0.0-2.0-50.2-1.2","5f96301839be85178cb37e0a","D2","batch4","","1400","tol_toboard","","","","tol_peg_1","1400","1400","0","[[1,0,0],[3,2],[0]]","3","[[1,2,0],[3,0],[0]]","13","0","","","","","","4","","","","","","","","",""
"","","","","","single-stim-button","201","848168","0.0-2.0-50.3-0.3","5f96301839be85178cb37e0a","D2","batch4","","1140","tol_tohand","","","","tol_peg_2","1140","1140","0","[[1,0,0],[3,0],[0]]","4","[[1,2,0],[3,0],[0]]","13","0","","","","","","4","","","","","","","","",""
"","","","","","single-stim-button","202","849602","0.0-2.0-50.3-1.3","5f96301839be85178cb37e0a","D2","batch4","","1432","tol_toboard","","","","tol_peg_1","1432","1432","0","[[1,2,0],[3,0],[0]]","4","[[1,2,0],[3,0],[0]]","13","0","","","","","","4","","","","","","","","",""
"","","","","","poldrack-single-stim","203","850620","0.0-2.0-51.0","5f96301839be85178cb37e0a","D2","batch4","","-1","tol_feedback","","","true","","1000","1000","500","","","","","","-1","none","true","8878","15222","","","","","","","","","",""
"","","","","","html-button-response","204","852309","0.0-2.0-52.0","5f96301839be85178cb37e0a","D2","batch4","","1688.2000000476837","tol_trial_num","<div class = centerbox><p class = center-block-text>problem <strong>15</strong> out of 25 problems</p></div>","0","","","","","","","","","","","","","","","","","","","","","","","","",""
"","","","","","single-stim-button","205","859037","0.0-2.0-53.0-0.0","5f96301839be85178cb37e0a","D2","batch4","","6727","tol_tohand","","","","tol_peg_1","6727","6727","0","[[1,0,0],[3,0],[0]]","1","[[2,0,0],[3,0],[1]]","14","0","","","","","","3","","","","","","","","",""
"","","","","","single-stim-button","206","860440","0.0-2.0-53.0-1.0","5f96301839be85178cb37e0a","D2","batch4","","1402","tol_toboard","","","","tol_peg_2","1402","1402","0","[[1,0,0],[3,2],[0]]","1","[[2,0,0],[3,0],[1]]","14","0","","","","","","3","","","","","","","","",""
"","","","","","single-stim-button","207","861432","0.0-2.0-53.1-0.1","5f96301839be85178cb37e0a","D2","batch4","","991","tol_tohand","","","","tol_peg_1","991","991","0","[[0,0,0],[3,2],[0]]","2","[[2,0,0],[3,0],[1]]","14","0","","","","","","3","","","","","","","","",""
"","","","","","single-stim-button","208","863029","0.0-2.0-53.1-1.1","5f96301839be85178cb37e0a","D2","batch4","","1595","tol_toboard","","","","tol_peg_3","1595","1595","0","[[0,0,0],[3,2],[1]]","2","[[2,0,0],[3,0],[1]]","14","0","","","","","","3","","","","","","","","",""
"","","","","","single-stim-button","209","864126","0.0-2.0-53.2-0.2","5f96301839be85178cb37e0a","D2","batch4","","1095","tol_tohand","","","","tol_peg_2","1095","1095","0","[[0,0,0],[3,0],[1]]","3","[[2,0,0],[3,0],[1]]","14","0","","","","","","3","","","","","","","","",""
"","","","","","single-stim-button","210","865535","0.0-2.0-53.2-1.2","5f96301839be85178cb37e0a","D2","batch4","","1407","tol_toboard","","","","tol_peg_1","1407","1407","0","[[2,0,0],[3,0],[1]]","3","[[2,0,0],[3,0],[1]]","14","0","","","","","","3","","","","","","","","",""
"","","","","","poldrack-single-stim","211","866537","0.0-2.0-54.0","5f96301839be85178cb37e0a","D2","batch4","","-1","tol_feedback","","","true","","1000","1000","500","","","","","","-1","none","true","6727","8813","","","","","","","","","",""
"","","","","","html-button-response","212","867848","0.0-2.0-55.0","5f96301839be85178cb37e0a","D2","batch4","","1309.6000000238419","tol_trial_num","<div class = centerbox><p class = center-block-text>problem <strong>16</strong> out of 25 problems</p></div>","0","","","","","","","","","","","","","","","","","","","","","","","","",""
"","","","","","single-stim-button","213","892606","0.0-2.0-56.0-0.0","5f96301839be85178cb37e0a","D2","batch4","","24757","tol_tohand","","","","tol_peg_2","24757","24757","0","[[0,0,0],[2,0],[1]]","1","[[2,3,0],[1,0],[0]]","15","0","","","","","","7","","","","","","","","",""
"","","","","","single-stim-button","214","894370","0.0-2.0-56.0-1.0","5f96301839be85178cb37e0a","D2","batch4","","1761","tol_toboard","","","","tol_peg_1","1761","1761","0","[[3,0,0],[2,0],[1]]","1","[[2,3,0],[1,0],[0]]","15","0","","","","","","7","","","","","","","","",""
"","","","","","single-stim-button","215","899321","0.0-2.0-56.1-0.1","5f96301839be85178cb37e0a","D2","batch4","","4950","tol_tohand","","","","tol_peg_2","4950","4950","0","[[3,0,0],[0,0],[1]]","2","[[2,3,0],[1,0],[0]]","15","0","","","","","","7","","","","","","","","",""
"","","","","","single-stim-button","216","900769","0.0-2.0-56.1-1.1","5f96301839be85178cb37e0a","D2","batch4","","1447","tol_toboard","","","","tol_peg_1","1447","1447","0","[[3,2,0],[0,0],[1]]","2","[[2,3,0],[1,0],[0]]","15","0","","","","","","7","","","","","","","","",""
"","","","","","single-stim-button","217","905514","0.0-2.0-56.2-0.2","5f96301839be85178cb37e0a","D2","batch4","","4744","tol_tohand","","","","tol_peg_3","4744","4744","0","[[3,2,0],[0,0],[0]]","3","[[2,3,0],[1,0],[0]]","15","0","","","","","","7","","","","","","","","",""
"","","","","","single-stim-button","218","906939","0.0-2.0-56.2-1.2","5f96301839be85178cb37e0a","D2","batch4","","1423","tol_toboard","","","","tol_peg_2","1423","1423","0","[[3,2,0],[1,0],[0]]","3","[[2,3,0],[1,0],[0]]","15","0","","","","","","7","","","","","","","","",""
"","","","","","single-stim-button","219","908633","0.0-2.0-56.3-0.3","5f96301839be85178cb37e0a","D2","batch4","","1693","tol_tohand","","","","tol_peg_1","1693","1693","0","[[3,0,0],[1,0],[0]]","4","[[2,3,0],[1,0],[0]]","15","0","","","","","","7","","","","","","","","",""
"","","","","","single-stim-button","220","910101","0.0-2.0-56.3-1.3","5f96301839be85178cb37e0a","D2","batch4","","1468","tol_toboard","","","","tol_peg_3","1468","1468","0","[[3,0,0],[1,0],[2]]","4","[[2,3,0],[1,0],[0]]","15","0","","","","","","7","","","","","","","","",""
"","","","","","single-stim-button","221","911460","0.0-2.0-56.4-0.4","5f96301839be85178cb37e0a","D2","batch4","","1358","tol_tohand","","","","tol_peg_1","1358","1358","0","[[0,0,0],[1,0],[2]]","5","[[2,3,0],[1,0],[0]]","15","0","","","","","","7","","","","","","","","",""
"","","","","","single-stim-button","222","912716","0.0-2.0-56.4-1.4","5f96301839be85178cb37e0a","D2","batch4","","1255","tol_toboard","","","","tol_peg_2","1255","1255","0","[[0,0,0],[1,3],[2]]","5","[[2,3,0],[1,0],[0]]","15","0","","","","","","7","","","","","","","","",""
"","","","","","single-stim-button","223","913608","0.0-2.0-56.5-0.5","5f96301839be85178cb37e0a","D2","batch4","","891","tol_tohand","","","","tol_peg_2","891","891","0","[[0,0,0],[1,0],[2]]","6","[[2,3,0],[1,0],[0]]","15","0","","","","","","7","","","","","","","","",""
"","","","","","single-stim-button","224","914975","0.0-2.0-56.5-1.5","5f96301839be85178cb37e0a","D2","batch4","","1365","tol_toboard","","","","tol_peg_2","1365","1365","0","[[0,0,0],[1,3],[2]]","6","[[2,3,0],[1,0],[0]]","15","0","","","","","","7","","","","","","","","",""
"","","","","","single-stim-button","225","916332","0.0-2.0-56.6-0.6","5f96301839be85178cb37e0a","D2","batch4","","1356","tol_tohand","","","","tol_peg_3","1356","1356","0","[[0,0,0],[1,3],[0]]","7","[[2,3,0],[1,0],[0]]","15","0","","","","","","7","","","","","","","","",""
"","","","","","single-stim-button","226","917824","0.0-2.0-56.6-1.6","5f96301839be85178cb37e0a","D2","batch4","","1492","tol_toboard","","","","tol_peg_1","1492","1492","0","[[2,0,0],[1,3],[0]]","7","[[2,3,0],[1,0],[0]]","15","0","","","","","","7","","","","","","","","",""
"","","","","","single-stim-button","227","919092","0.0-2.0-56.7-0.7","5f96301839be85178cb37e0a","D2","batch4","","1267","tol_tohand","","","","tol_peg_2","1267","1267","0","[[2,0,0],[1,0],[0]]","8","[[2,3,0],[1,0],[0]]","15","0","","","","","","7","","","","","","","","",""
"","","","","","single-stim-button","228","920816","0.0-2.0-56.7-1.7","5f96301839be85178cb37e0a","D2","batch4","","1722","tol_toboard","","","","tol_peg_1","1722","1722","0","[[2,3,0],[1,0],[0]]","8","[[2,3,0],[1,0],[0]]","15","0","","","","","","7","","","","","","","","",""
"","","","","","poldrack-single-stim","229","921819","0.0-2.0-57.0","5f96301839be85178cb37e0a","D2","batch4","","-1","tol_feedback","","","true","","1000","1000","500","","","","","","-1","none","true","24757","41016","","","","","","","","","",""
"","","","","","html-button-response","230","923606","0.0-2.0-58.0","5f96301839be85178cb37e0a","D2","batch4","","1785","tol_trial_num","<div class = centerbox><p class = center-block-text>problem <strong>17</strong> out of 25 problems</p></div>","0","","","","","","","","","","","","","","","","","","","","","","","","",""
"","","","","","single-stim-button","231","930954","0.0-2.0-59.0-0.0","5f96301839be85178cb37e0a","D2","batch4","","7347","tol_tohand","","","","tol_peg_2","7347","7347","0","[[1,2,0],[0,0],[0]]","1","[[3,1,0],[2,0],[0]]","16","0","","","","","","5","","","","","","","","",""
"","","","","","single-stim-button","232","932171","0.0-2.0-59.0-1.0","5f96301839be85178cb37e0a","D2","batch4","","1215","tol_toboard","","","","tol_peg_3","1215","1215","0","[[1,2,0],[0,0],[3]]","1","[[3,1,0],[2,0],[0]]","16","0","","","","","","5","","","","","","","","",""
"","","","","","single-stim-button","233","933162","0.0-2.0-59.1-0.1","5f96301839be85178cb37e0a","D2","batch4","","989","tol_tohand","","","","tol_peg_1","989","989","0","[[1,0,0],[0,0],[3]]","2","[[3,1,0],[2,0],[0]]","16","0","","","","","","5","","","","","","","","",""
"","","","","","single-stim-button","234","934617","0.0-2.0-59.1-1.1","5f96301839be85178cb37e0a","D2","batch4","","1455","tol_toboard","","","","tol_peg_2","1455","1455","0","[[1,0,0],[2,0],[3]]","2","[[3,1,0],[2,0],[0]]","16","0","","","","","","5","","","","","","","","",""
"","","","","","single-stim-button","235","935504","0.0-2.0-59.2-0.2","5f96301839be85178cb37e0a","D2","batch4","","886","tol_tohand","","","","tol_peg_1","886","886","0","[[0,0,0],[2,0],[3]]","3","[[3,1,0],[2,0],[0]]","16","0","","","","","","5","","","","","","","","",""
"","","","","","single-stim-button","236","937053","0.0-2.0-59.2-1.2","5f96301839be85178cb37e0a","D2","batch4","","1548","tol_toboard","","","","tol_peg_2","1548","1548","0","[[0,0,0],[2,1],[3]]","3","[[3,1,0],[2,0],[0]]","16","0","","","","","","5","","","","","","","","",""
"","","","","","single-stim-button","237","938048","0.0-2.0-59.3-0.3","5f96301839be85178cb37e0a","D2","batch4","","995","tol_tohand","","","","tol_peg_3","995","995","0","[[0,0,0],[2,1],[0]]","4","[[3,1,0],[2,0],[0]]","16","0","","","","","","5","","","","","","","","",""
"","","","","","single-stim-button","238","939324","0.0-2.0-59.3-1.3","5f96301839be85178cb37e0a","D2","batch4","","1275","tol_toboard","","","","tol_peg_1","1275","1275","0","[[3,0,0],[2,1],[0]]","4","[[3,1,0],[2,0],[0]]","16","0","","","","","","5","","","","","","","","",""
"","","","","","single-stim-button","239","940428","0.0-2.0-59.4-0.4","5f96301839be85178cb37e0a","D2","batch4","","1102","tol_tohand","","","","tol_peg_2","1102","1102","0","[[3,0,0],[2,0],[0]]","5","[[3,1,0],[2,0],[0]]","16","0","","","","","","5","","","","","","","","",""
"","","","","","single-stim-button","240","941585","0.0-2.0-59.4-1.4","5f96301839be85178cb37e0a","D2","batch4","","1155","tol_toboard","","","","tol_peg_1","1155","1155","0","[[3,1,0],[2,0],[0]]","5","[[3,1,0],[2,0],[0]]","16","0","","","","","","5","","","","","","","","",""
"","","","","","poldrack-single-stim","241","942596","0.0-2.0-60.0","5f96301839be85178cb37e0a","D2","batch4","","-1","tol_feedback","","","true","","1000","1000","500","","","","","","-1","none","true","7347","11319","","","","","","","","","",""
"","","","","","html-button-response","242","944262","0.0-2.0-61.0","5f96301839be85178cb37e0a","D2","batch4","","1665.1999999284744","tol_trial_num","<div class = centerbox><p class = center-block-text>problem <strong>18</strong> out of 25 problems</p></div>","0","","","","","","","","","","","","","","","","","","","","","","","","",""
"","","","","","single-stim-button","243","961376","0.0-2.0-62.0-0.0","5f96301839be85178cb37e0a","D2","batch4","","17113","tol_tohand","","","","tol_peg_1","17113","17113","0","[[1,0,0],[3,0],[0]]","1","[[3,0,0],[2,0],[1]]","17","0","","","","","","5","","","","","","","","",""
"","","","","","single-stim-button","244","969554","0.0-2.0-62.0-1.0","5f96301839be85178cb37e0a","D2","batch4","","8177","tol_toboard","","","","tol_peg_1","8177","8177","0","[[1,2,0],[3,0],[0]]","1","[[3,0,0],[2,0],[1]]","17","0","","","","","","5","","","","","","","","",""
"","","","","","single-stim-button","245","975537","0.0-2.0-62.1-0.1","5f96301839be85178cb37e0a","D2","batch4","","5982","tol_tohand","","","","tol_peg_2","5982","5982","0","[[1,2,0],[0,0],[0]]","2","[[3,0,0],[2,0],[1]]","17","0","","","","","","5","","","","","","","","",""
"","","","","","single-stim-button","246","977477","0.0-2.0-62.1-1.1","5f96301839be85178cb37e0a","D2","batch4","","1938","tol_toboard","","","","tol_peg_3","1938","1938","0","[[1,2,0],[0,0],[3]]","2","[[3,0,0],[2,0],[1]]","17","0","","","","","","5","","","","","","","","",""
"","","","","","single-stim-button","247","979491","0.0-2.0-62.2-0.2","5f96301839be85178cb37e0a","D2","batch4","","2013","tol_tohand","","","","tol_peg_1","2013","2013","0","[[1,0,0],[0,0],[3]]","3","[[3,0,0],[2,0],[1]]","17","0","","","","","","5","","","","","","","","",""
"","","","","","single-stim-button","248","980921","0.0-2.0-62.2-1.2","5f96301839be85178cb37e0a","D2","batch4","","1428","tol_toboard","","","","tol_peg_2","1428","1428","0","[[1,0,0],[2,0],[3]]","3","[[3,0,0],[2,0],[1]]","17","0","","","","","","5","","","","","","","","",""
"","","","","","single-stim-button","249","982923","0.0-2.0-62.3-0.3","5f96301839be85178cb37e0a","D2","batch4","","2001","tol_tohand","","","","tol_peg_1","2001","2001","0","[[0,0,0],[2,0],[3]]","4","[[3,0,0],[2,0],[1]]","17","0","","","","","","5","","","","","","","","",""
"","","","","","single-stim-button","250","984004","0.0-2.0-62.3-1.3","5f96301839be85178cb37e0a","D2","batch4","","1081","tol_toboard","","","","tol_peg_2","1081","1081","0","[[0,0,0],[2,1],[3]]","4","[[3,0,0],[2,0],[1]]","17","0","","","","","","5","","","","","","","","",""
"","","","","","single-stim-button","251","984959","0.0-2.0-62.4-0.4","5f96301839be85178cb37e0a","D2","batch4","","953","tol_tohand","","","","tol_peg_3","953","953","0","[[0,0,0],[2,1],[0]]","5","[[3,0,0],[2,0],[1]]","17","0","","","","","","5","","","","","","","","",""
"","","","","","single-stim-button","252","986630","0.0-2.0-62.4-1.4","5f96301839be85178cb37e0a","D2","batch4","","1670","tol_toboard","","","","tol_peg_1","1670","1670","0","[[3,0,0],[2,1],[0]]","5","[[3,0,0],[2,0],[1]]","17","0","","","","","","5","","","","","","","","",""
"","","","","","single-stim-button","253","987779","0.0-2.0-62.5-0.5","5f96301839be85178cb37e0a","D2","batch4","","1147","tol_tohand","","","","tol_peg_2","1147","1147","0","[[3,0,0],[2,0],[0]]","6","[[3,0,0],[2,0],[1]]","17","0","","","","","","5","","","","","","","","",""
"","","","","","single-stim-button","254","989234","0.0-2.0-62.5-1.5","5f96301839be85178cb37e0a","D2","batch4","","1453","tol_toboard","","","","tol_peg_3","1453","1453","0","[[3,0,0],[2,0],[1]]","6","[[3,0,0],[2,0],[1]]","17","0","","","","","","5","","","","","","","","",""
"","","","","","poldrack-single-stim","255","990236","0.0-2.0-63.0","5f96301839be85178cb37e0a","D2","batch4","","-1","tol_feedback","","","true","","1000","1000","500","","","","","","-1","none","true","17113","29209","","","","","","","","","",""
"","","","","","html-button-response","256","991613","0.0-2.0-64.0","5f96301839be85178cb37e0a","D2","batch4","","1376","tol_trial_num","<div class = centerbox><p class = center-block-text>problem <strong>19</strong> out of 25 problems</p></div>","0","","","","","","","","","","","","","","","","","","","","","","","","",""
"","","","","","single-stim-button","257","996105","0.0-2.0-65.0-0.0","5f96301839be85178cb37e0a","D2","batch4","","4490","tol_tohand","","","","tol_peg_2","4490","4490","0","[[1,2,0],[0,0],[0]]","1","[[0,0,0],[1,2],[3]]","18","0","","","","","","7","","","","","","","","",""
"","","","","","single-stim-button","258","997522","0.0-2.0-65.0-1.0","5f96301839be85178cb37e0a","D2","batch4","","1416","tol_toboard","","","","tol_peg_3","1416","1416","0","[[1,2,0],[0,0],[3]]","1","[[0,0,0],[1,2],[3]]","18","0","","","","","","7","","","","","","","","",""
"","","","","","single-stim-button","259","1005959","0.0-2.0-65.1-0.1","5f96301839be85178cb37e0a","D2","batch4","","8437","tol_tohand","","","","tol_peg_3","8437","8437","0","[[1,2,0],[0,0],[0]]","2","[[0,0,0],[1,2],[3]]","18","0","","","","","","7","","","","","","","","",""
"","","","","","single-stim-button","260","1007392","0.0-2.0-65.1-1.1","5f96301839be85178cb37e0a","D2","batch4","","1431","tol_toboard","","","","tol_peg_2","1431","1431","0","[[1,2,0],[3,0],[0]]","2","[[0,0,0],[1,2],[3]]","18","0","","","","","","7","","","","","","","","",""
"","","","","","single-stim-button","261","1008913","0.0-2.0-65.2-0.2","5f96301839be85178cb37e0a","D2","batch4","","1520","tol_tohand","","","","tol_peg_1","1520","1520","0","[[1,0,0],[3,0],[0]]","3","[[0,0,0],[1,2],[3]]","18","0","","","","","","7","","","","","","","","",""
"","","","","","single-stim-button","262","1013755","0.0-2.0-65.2-1.2","5f96301839be85178cb37e0a","D2","batch4","","4841","tol_toboard","","","","tol_peg_3","4841","4841","0","[[1,0,0],[3,0],[2]]","3","[[0,0,0],[1,2],[3]]","18","0","","","","","","7","","","","","","","","",""
"","","","","","single-stim-button","263","1025997","0.0-2.0-65.3-0.3","5f96301839be85178cb37e0a","D2","batch4","","12240","tol_tohand","","","","tol_peg_3","12240","12240","0","[[1,0,0],[3,0],[0]]","4","[[0,0,0],[1,2],[3]]","18","0","","","","","","7","","","","","","","","",""
"","","","","","single-stim-button","264","1029592","0.0-2.0-65.3-1.3","5f96301839be85178cb37e0a","D2","batch4","","3594","tol_toboard","","","","tol_peg_1","3594","3594","0","[[1,2,0],[3,0],[0]]","4","[[0,0,0],[1,2],[3]]","18","0","","","","","","7","","","","","","","","",""
"","","","","","single-stim-button","265","1030607","0.0-2.0-65.4-0.4","5f96301839be85178cb37e0a","D2","batch4","","1013","tol_tohand","","","","tol_peg_2","1013","1013","0","[[1,2,0],[0,0],[0]]","5","[[0,0,0],[1,2],[3]]","18","0","","","","","","7","","","","","","","","",""
"","","","","","single-stim-button","266","1031957","0.0-2.0-65.4-1.4","5f96301839be85178cb37e0a","D2","batch4","","1350","tol_toboard","","","","tol_peg_3","1350","1350","0","[[1,2,0],[0,0],[3]]","5","[[0,0,0],[1,2],[3]]","18","0","","","","","","7","","","","","","","","",""
"","","","","","single-stim-button","267","1036680","0.0-2.0-65.5-0.5","5f96301839be85178cb37e0a","D2","batch4","","4721","tol_tohand","","","","tol_peg_1","4721","4721","0","[[1,0,0],[0,0],[3]]","6","[[0,0,0],[1,2],[3]]","18","0","","","","","","7","","","","","","","","",""
"","","","","","single-stim-button","268","1038761","0.0-2.0-65.5-1.5","5f96301839be85178cb37e0a","D2","batch4","","2080","tol_toboard","","","","tol_peg_2","2080","2080","0","[[1,0,0],[2,0],[3]]","6","[[0,0,0],[1,2],[3]]","18","0","","","","","","7","","","","","","","","",""
"","","","","","single-stim-button","269","1042118","0.0-2.0-65.6-0.6","5f96301839be85178cb37e0a","D2","batch4","","3356","tol_tohand","","","","tol_peg_3","3356","3356","0","[[1,0,0],[2,0],[0]]","7","[[0,0,0],[1,2],[3]]","18","0","","","","","","7","","","","","","","","",""
"","","","","","single-stim-button","270","1043170","0.0-2.0-65.6-1.6","5f96301839be85178cb37e0a","D2","batch4","","1050","tol_toboard","","","","tol_peg_2","1050","1050","0","[[1,0,0],[2,3],[0]]","7","[[0,0,0],[1,2],[3]]","18","0","","","","","","7","","","","","","","","",""
"","","","","","single-stim-button","271","1044386","0.0-2.0-65.7-0.7","5f96301839be85178cb37e0a","D2","batch4","","1214","tol_tohand","","","","tol_peg_1","1214","1214","0","[[0,0,0],[2,3],[0]]","8","[[0,0,0],[1,2],[3]]","18","0","","","","","","7","","","","","","","","",""
"","","","","","single-stim-button","272","1046445","0.0-2.0-65.7-1.7","5f96301839be85178cb37e0a","D2","batch4","","2058","tol_toboard","","","","tol_peg_3","2058","2058","0","[[0,0,0],[2,3],[1]]","8","[[0,0,0],[1,2],[3]]","18","0","","","","","","7","","","","","","","","",""
"","","","","","single-stim-button","273","1047600","0.0-2.0-65.8-0.8","5f96301839be85178cb37e0a","D2","batch4","","1153","tol_tohand","","","","tol_peg_2","1153","1153","0","[[0,0,0],[2,0],[1]]","9","[[0,0,0],[1,2],[3]]","18","0","","","","","","7","","","","","","","","",""
"","","","","","single-stim-button","274","1049728","0.0-2.0-65.8-1.8","5f96301839be85178cb37e0a","D2","batch4","","2126","tol_toboard","","","","tol_peg_1","2126","2126","0","[[3,0,0],[2,0],[1]]","9","[[0,0,0],[1,2],[3]]","18","0","","","","","","7","","","","","","","","",""
"","","","","","single-stim-button","275","1050727","0.0-2.0-65.9-0.9","5f96301839be85178cb37e0a","D2","batch4","","998","tol_tohand","","","","tol_peg_2","998","998","0","[[3,0,0],[0,0],[1]]","10","[[0,0,0],[1,2],[3]]","18","0","","","","","","7","","","","","","","","",""
"","","","","","single-stim-button","276","1052644","0.0-2.0-65.9-1.9","5f96301839be85178cb37e0a","D2","batch4","","1916","tol_toboard","","","","tol_peg_1","1916","1916","0","[[3,2,0],[0,0],[1]]","10","[[0,0,0],[1,2],[3]]","18","0","","","","","","7","","","","","","","","",""
"","","","","","single-stim-button","277","1053673","0.0-2.0-65.10-0.10","5f96301839be85178cb37e0a","D2","batch4","","1029","tol_tohand","","","","tol_peg_3","1029","1029","0","[[3,2,0],[0,0],[0]]","11","[[0,0,0],[1,2],[3]]","18","0","","","","","","7","","","","","","","","",""
"","","","","","single-stim-button","278","1054857","0.0-2.0-65.10-1.10","5f96301839be85178cb37e0a","D2","batch4","","1182","tol_toboard","","","","tol_peg_2","1182","1182","0","[[3,2,0],[1,0],[0]]","11","[[0,0,0],[1,2],[3]]","18","0","","","","","","7","","","","","","","","",""
"","","","","","single-stim-button","279","1055948","0.0-2.0-65.11-0.11","5f96301839be85178cb37e0a","D2","batch4","","1090","tol_tohand","","","","tol_peg_1","1090","1090","0","[[3,0,0],[1,0],[0]]","12","[[0,0,0],[1,2],[3]]","18","0","","","","","","7","","","","","","","","",""
"","","","","","single-stim-button","280","1057425","0.0-2.0-65.11-1.11","5f96301839be85178cb37e0a","D2","batch4","","1476","tol_toboard","","","","tol_peg_2","1476","1476","0","[[3,0,0],[1,2],[0]]","12","[[0,0,0],[1,2],[3]]","18","0","","","","","","7","","","","","","","","",""
"","","","","","single-stim-button","281","1058380","0.0-2.0-65.12-0.12","5f96301839be85178cb37e0a","D2","batch4","","953","tol_tohand","","","","tol_peg_1","953","953","0","[[0,0,0],[1,2],[0]]","13","[[0,0,0],[1,2],[3]]","18","0","","","","","","7","","","","","","","","",""
"","","","","","single-stim-button","282","1059722","0.0-2.0-65.12-1.12","5f96301839be85178cb37e0a","D2","batch4","","1340","tol_toboard","","","","tol_peg_3","1340","1340","0","[[0,0,0],[1,2],[3]]","13","[[0,0,0],[1,2],[3]]","18","0","","","","","","7","","","","","","","","",""
"","","","","","poldrack-single-stim","283","1060735","0.0-2.0-66.0","5f96301839be85178cb37e0a","D2","batch4","","-1","tol_feedback","","","true","","1000","1000","500","","","","","","-1","none","true","4490","42214","","","","","","","","","",""
"","","","","","html-button-response","284","1062236","0.0-2.0-67.0","5f96301839be85178cb37e0a","D2","batch4","","1500","tol_trial_num","<div class = centerbox><p class = center-block-text>problem <strong>20</strong> out of 25 problems</p></div>","0","","","","","","","","","","","","","","","","","","","","","","","","",""
"","","","","","single-stim-button","285","1090163","0.0-2.0-68.0-0.0","5f96301839be85178cb37e0a","D2","batch4","","27925","tol_tohand","","","","tol_peg_1","27925","27925","0","[[1,0,0],[3,0],[0]]","1","[[2,1,0],[0,0],[3]]","19","0","","","","","","5","","","","","","","","",""
"","","","","","single-stim-button","286","1091439","0.0-2.0-68.0-1.0","5f96301839be85178cb37e0a","D2","batch4","","1274","tol_toboard","","","","tol_peg_2","1274","1274","0","[[1,0,0],[3,2],[0]]","1","[[2,1,0],[0,0],[3]]","19","0","","","","","","5","","","","","","","","",""
"","","","","","single-stim-button","287","1092528","0.0-2.0-68.1-0.1","5f96301839be85178cb37e0a","D2","batch4","","1087","tol_tohand","","","","tol_peg_1","1087","1087","0","[[0,0,0],[3,2],[0]]","2","[[2,1,0],[0,0],[3]]","19","0","","","","","","5","","","","","","","","",""
"","","","","","single-stim-button","288","1093930","0.0-2.0-68.1-1.1","5f96301839be85178cb37e0a","D2","batch4","","1401","tol_toboard","","","","tol_peg_3","1401","1401","0","[[0,0,0],[3,2],[1]]","2","[[2,1,0],[0,0],[3]]","19","0","","","","","","5","","","","","","","","",""
"","","","","","single-stim-button","289","1095057","0.0-2.0-68.2-0.2","5f96301839be85178cb37e0a","D2","batch4","","1125","tol_tohand","","","","tol_peg_2","1125","1125","0","[[0,0,0],[3,0],[1]]","3","[[2,1,0],[0,0],[3]]","19","0","","","","","","5","","","","","","","","",""
"","","","","","single-stim-button","290","1097951","0.0-2.0-68.2-1.2","5f96301839be85178cb37e0a","D2","batch4","","2893","tol_toboard","","","","tol_peg_1","2893","2893","0","[[2,0,0],[3,0],[1]]","3","[[2,1,0],[0,0],[3]]","19","0","","","","","","5","","","","","","","","",""
"","","","","","single-stim-button","291","1098847","0.0-2.0-68.3-0.3","5f96301839be85178cb37e0a","D2","batch4","","894","tol_tohand","","","","tol_peg_3","894","894","0","[[2,0,0],[3,0],[0]]","4","[[2,1,0],[0,0],[3]]","19","0","","","","","","5","","","","","","","","",""
"","","","","","single-stim-button","292","1100279","0.0-2.0-68.3-1.3","5f96301839be85178cb37e0a","D2","batch4","","1432","tol_toboard","","","","tol_peg_1","1432","1432","0","[[2,1,0],[3,0],[0]]","4","[[2,1,0],[0,0],[3]]","19","0","","","","","","5","","","","","","","","",""
"","","","","","single-stim-button","293","1101292","0.0-2.0-68.4-0.4","5f96301839be85178cb37e0a","D2","batch4","","1012","tol_tohand","","","","tol_peg_2","1012","1012","0","[[2,1,0],[0,0],[0]]","5","[[2,1,0],[0,0],[3]]","19","0","","","","","","5","","","","","","","","",""
"","","","","","single-stim-button","294","1102480","0.0-2.0-68.4-1.4","5f96301839be85178cb37e0a","D2","batch4","","1186","tol_toboard","","","","tol_peg_3","1186","1186","0","[[2,1,0],[0,0],[3]]","5","[[2,1,0],[0,0],[3]]","19","0","","","","","","5","","","","","","","","",""
"","","","","","poldrack-single-stim","295","1103497","0.0-2.0-69.0","5f96301839be85178cb37e0a","D2","batch4","","-1","tol_feedback","","","true","","1000","1000","500","","","","","","-1","none","true","27925","32043","","","","","","","","","",""
"","","","","","html-button-response","296","1104821","0.0-2.0-70.0","5f96301839be85178cb37e0a","D2","batch4","","1322.6000000238419","tol_trial_num","<div class = centerbox><p class = center-block-text>problem <strong>21</strong> out of 25 problems</p></div>","0","","","","","","","","","","","","","","","","","","","","","","","","",""
"","","","","","single-stim-button","297","1123529","0.0-2.0-71.0-0.0","5f96301839be85178cb37e0a","D2","batch4","","18707","tol_tohand","","","","tol_peg_2","18707","18707","0","[[1,2,0],[0,0],[0]]","1","[[3,2,0],[0,0],[1]]","20","0","","","","","","6","","","","","","","","",""
"","","","","","single-stim-button","298","1132375","0.0-2.0-71.0-1.0","5f96301839be85178cb37e0a","D2","batch4","","8845","tol_toboard","","","","tol_peg_3","8845","8845","0","[[1,2,0],[0,0],[3]]","1","[[3,2,0],[0,0],[1]]","20","0","","","","","","6","","","","","","","","",""
"","","","","","single-stim-button","299","1142620","0.0-2.0-71.1-0.1","5f96301839be85178cb37e0a","D2","batch4","","10243","tol_tohand","","","","tol_peg_3","10243","10243","0","[[1,2,0],[0,0],[0]]","2","[[3,2,0],[0,0],[1]]","20","0","","","","","","6","","","","","","","","",""
"","","","","","single-stim-button","300","1143947","0.0-2.0-71.1-1.1","5f96301839be85178cb37e0a","D2","batch4","","1326","tol_toboard","","","","tol_peg_2","1326","1326","0","[[1,2,0],[3,0],[0]]","2","[[3,2,0],[0,0],[1]]","20","0","","","","","","6","","","","","","","","",""
"","","","","","single-stim-button","301","1145812","0.0-2.0-71.2-0.2","5f96301839be85178cb37e0a","D2","batch4","","1863","tol_tohand","","","","tol_peg_1","1863","1863","0","[[1,0,0],[3,0],[0]]","3","[[3,2,0],[0,0],[1]]","20","0","","","","","","6","","","","","","","","",""
"","","","","","single-stim-button","302","1148944","0.0-2.0-71.2-1.2","5f96301839be85178cb37e0a","D2","batch4","","3131","tol_toboard","","","","tol_peg_2","3131","3131","0","[[1,0,0],[3,2],[0]]","3","[[3,2,0],[0,0],[1]]","20","0","","","","","","6","","","","","","","","",""
"","","","","","single-stim-button","303","1149952","0.0-2.0-71.3-0.3","5f96301839be85178cb37e0a","D2","batch4","","1007","tol_tohand","","","","tol_peg_1","1007","1007","0","[[0,0,0],[3,2],[0]]","4","[[3,2,0],[0,0],[1]]","20","0","","","","","","6","","","","","","","","",""
"","","","","","single-stim-button","304","1165623","0.0-2.0-71.3-1.3","5f96301839be85178cb37e0a","D2","batch4","","15671","tol_toboard","","","","tol_peg_1","15671","15671","0","[[1,0,0],[3,2],[0]]","4","[[3,2,0],[0,0],[1]]","20","0","","","","","","6","","","","","","","","",""
"","","","","","single-stim-button","305","1177804","0.0-2.0-71.4-0.4","5f96301839be85178cb37e0a","D2","batch4","","12180","tol_tohand","","","","tol_peg_2","12180","12180","0","[[1,0,0],[3,0],[0]]","5","[[3,2,0],[0,0],[1]]","20","0","","","","","","6","","","","","","","","",""
"","","","","","single-stim-button","306","1184398","0.0-2.0-71.4-1.4","5f96301839be85178cb37e0a","D2","batch4","","6592","tol_toboard","","","","tol_peg_2","6592","6592","0","[[1,0,0],[3,2],[0]]","5","[[3,2,0],[0,0],[1]]","20","0","","","","","","6","","","","","","","","",""
"","","","","","single-stim-button","307","1188366","0.0-2.0-71.5-0.5","5f96301839be85178cb37e0a","D2","batch4","","3967","tol_tohand","","","","tol_peg_1","3967","3967","0","[[0,0,0],[3,2],[0]]","6","[[3,2,0],[0,0],[1]]","20","0","","","","","","6","","","","","","","","",""
"","","","","","single-stim-button","308","1189873","0.0-2.0-71.5-1.5","5f96301839be85178cb37e0a","D2","batch4","","1506","tol_toboard","","","","tol_peg_3","1506","1506","0","[[0,0,0],[3,2],[1]]","6","[[3,2,0],[0,0],[1]]","20","0","","","","","","6","","","","","","","","",""
"","","","","","single-stim-button","309","1199183","0.0-2.0-71.6-0.6","5f96301839be85178cb37e0a","D2","batch4","","9309","tol_tohand","","","","tol_peg_2","9309","9309","0","[[0,0,0],[3,0],[1]]","7","[[3,2,0],[0,0],[1]]","20","0","","","","","","6","","","","","","","","",""
"","","","","","single-stim-button","310","1203345","0.0-2.0-71.6-1.6","5f96301839be85178cb37e0a","D2","batch4","","4160","tol_toboard","","","","tol_peg_1","4160","4160","0","[[2,0,0],[3,0],[1]]","7","[[3,2,0],[0,0],[1]]","20","0","","","","","","6","","","","","","","","",""
"","","","","","single-stim-button","311","1208186","0.0-2.0-71.7-0.7","5f96301839be85178cb37e0a","D2","batch4","","4839","tol_tohand","","","","tol_peg_3","4839","4839","0","[[2,0,0],[3,0],[0]]","8","[[3,2,0],[0,0],[1]]","20","0","","","","","","6","","","","","","","","",""
"","","","","","single-stim-button","312","1209895","0.0-2.0-71.7-1.7","5f96301839be85178cb37e0a","D2","batch4","","1707","tol_toboard","","","","tol_peg_1","1707","1707","0","[[2,1,0],[3,0],[0]]","8","[[3,2,0],[0,0],[1]]","20","0","","","","","","6","","","","","","","","",""
"","","","","","single-stim-button","313","1210872","0.0-2.0-71.8-0.8","5f96301839be85178cb37e0a","D2","batch4","","976","tol_tohand","","","","tol_peg_2","976","976","0","[[2,1,0],[0,0],[0]]","9","[[3,2,0],[0,0],[1]]","20","0","","","","","","6","","","","","","","","",""
"","","","","","single-stim-button","314","1212789","0.0-2.0-71.8-1.8","5f96301839be85178cb37e0a","D2","batch4","","1916","tol_toboard","","","","tol_peg_3","1916","1916","0","[[2,1,0],[0,0],[3]]","9","[[3,2,0],[0,0],[1]]","20","0","","","","","","6","","","","","","","","",""
"","","","","","single-stim-button","315","1215757","0.0-2.0-71.9-0.9","5f96301839be85178cb37e0a","D2","batch4","","2966","tol_tohand","","","","tol_peg_1","2966","2966","0","[[2,0,0],[0,0],[3]]","10","[[3,2,0],[0,0],[1]]","20","0","","","","","","6","","","","","","","","",""
"","","","","","single-stim-button","316","1216824","0.0-2.0-71.9-1.9","5f96301839be85178cb37e0a","D2","batch4","","1066","tol_toboard","","","","tol_peg_2","1066","1066","0","[[2,0,0],[1,0],[3]]","10","[[3,2,0],[0,0],[1]]","20","0","","","","","","6","","","","","","","","",""
"","","","","","single-stim-button","317","1217832","0.0-2.0-71.10-0.10","5f96301839be85178cb37e0a","D2","batch4","","1007","tol_tohand","","","","tol_peg_1","1007","1007","0","[[0,0,0],[1,0],[3]]","11","[[3,2,0],[0,0],[1]]","20","0","","","","","","6","","","","","","","","",""
"","","","","","single-stim-button","318","1219100","0.0-2.0-71.10-1.10","5f96301839be85178cb37e0a","D2","batch4","","1267","tol_toboard","","","","tol_peg_2","1267","1267","0","[[0,0,0],[1,2],[3]]","11","[[3,2,0],[0,0],[1]]","20","0","","","","","","6","","","","","","","","",""
"","","","","","single-stim-button","319","1220182","0.0-2.0-71.11-0.11","5f96301839be85178cb37e0a","D2","batch4","","1080","tol_tohand","","","","tol_peg_3","1080","1080","0","[[0,0,0],[1,2],[0]]","12","[[3,2,0],[0,0],[1]]","20","0","","","","","","6","","","","","","","","",""
"","","","","","single-stim-button","320","1221666","0.0-2.0-71.11-1.11","5f96301839be85178cb37e0a","D2","batch4","","1482","tol_toboard","","","","tol_peg_1","1482","1482","0","[[3,0,0],[1,2],[0]]","12","[[3,2,0],[0,0],[1]]","20","0","","","","","","6","","","","","","","","",""
"","","","","","single-stim-button","321","1222695","0.0-2.0-71.12-0.12","5f96301839be85178cb37e0a","D2","batch4","","1028","tol_tohand","","","","tol_peg_2","1028","1028","0","[[3,0,0],[1,0],[0]]","13","[[3,2,0],[0,0],[1]]","20","0","","","","","","6","","","","","","","","",""
"","","","","","single-stim-button","322","1223740","0.0-2.0-71.12-1.12","5f96301839be85178cb37e0a","D2","batch4","","1043","tol_toboard","","","","tol_peg_1","1043","1043","0","[[3,2,0],[1,0],[0]]","13","[[3,2,0],[0,0],[1]]","20","0","","","","","","6","","","","","","","","",""
"","","","","","single-stim-button","323","1224754","0.0-2.0-71.13-0.13","5f96301839be85178cb37e0a","D2","batch4","","1013","tol_tohand","","","","tol_peg_2","1013","1013","0","[[3,2,0],[0,0],[0]]","14","[[3,2,0],[0,0],[1]]","20","0","","","","","","6","","","","","","","","",""
"","","","","","single-stim-button","324","1226082","0.0-2.0-71.13-1.13","5f96301839be85178cb37e0a","D2","batch4","","1326","tol_toboard","","","","tol_peg_3","1326","1326","0","[[3,2,0],[0,0],[1]]","14","[[3,2,0],[0,0],[1]]","20","0","","","","","","6","","","","","","","","",""
"","","","","","poldrack-single-stim","325","1227085","0.0-2.0-72.0","5f96301839be85178cb37e0a","D2","batch4","","-1","tol_feedback","","","true","","1000","1000","500","","","","","","-1","none","true","18707","70185","","","","","","","","","",""
"","","","","","html-button-response","326","1228409","0.0-2.0-73.0","5f96301839be85178cb37e0a","D2","batch4","","1322.5","tol_trial_num","<div class = centerbox><p class = center-block-text>problem <strong>22</strong> out of 25 problems</p></div>","0","","","","","","","","","","","","","","","","","","","","","","","","",""
"","","","","","single-stim-button","327","1237478","0.0-2.0-74.0-0.0","5f96301839be85178cb37e0a","D2","batch4","","9067","tol_tohand","","","","tol_peg_2","9067","9067","0","[[1,0,0],[2,0],[0]]","1","[[0,0,0],[1,2],[3]]","21","0","","","","","","6","","","","","","","","",""
"","","","","","single-stim-button","328","1238441","0.0-2.0-74.0-1.0","5f96301839be85178cb37e0a","D2","batch4","","962","tol_toboard","","","","tol_peg_1","962","962","0","[[1,3,0],[2,0],[0]]","1","[[0,0,0],[1,2],[3]]","21","0","","","","","","6","","","","","","","","",""
"","","","","","single-stim-button","329","1239374","0.0-2.0-74.1-0.1","5f96301839be85178cb37e0a","D2","batch4","","931","tol_tohand","","","","tol_peg_2","931","931","0","[[1,3,0],[0,0],[0]]","2","[[0,0,0],[1,2],[3]]","21","0","","","","","","6","","","","","","","","",""
"","","","","","single-stim-button","330","1241574","0.0-2.0-74.1-1.1","5f96301839be85178cb37e0a","D2","batch4","","2198","tol_toboard","","","","tol_peg_3","2198","2198","0","[[1,3,0],[0,0],[2]]","2","[[0,0,0],[1,2],[3]]","21","0","","","","","","6","","","","","","","","",""
"","","","","","single-stim-button","331","1242819","0.0-2.0-74.2-0.2","5f96301839be85178cb37e0a","D2","batch4","","1244","tol_tohand","","","","tol_peg_1","1244","1244","0","[[1,0,0],[0,0],[2]]","3","[[0,0,0],[1,2],[3]]","21","0","","","","","","6","","","","","","","","",""
"","","","","","single-stim-button","332","1248083","0.0-2.0-74.2-1.2","5f96301839be85178cb37e0a","D2","batch4","","5263","tol_toboard","","","","tol_peg_2","5263","5263","0","[[1,0,0],[3,0],[2]]","3","[[0,0,0],[1,2],[3]]","21","0","","","","","","6","","","","","","","","",""
"","","","","","single-stim-button","333","1250496","0.0-2.0-74.3-0.3","5f96301839be85178cb37e0a","D2","batch4","","2409","tol_tohand","","","","tol_peg_1","2409","2409","0","[[0,0,0],[3,0],[2]]","4","[[0,0,0],[1,2],[3]]","21","0","","","","","","6","","","","","","","","",""
"","","","","","single-stim-button","334","1251807","0.0-2.0-74.3-1.3","5f96301839be85178cb37e0a","D2","batch4","","1310","tol_toboard","","","","tol_peg_2","1310","1310","0","[[0,0,0],[3,1],[2]]","4","[[0,0,0],[1,2],[3]]","21","0","","","","","","6","","","","","","","","",""
"","","","","","single-stim-button","335","1252664","0.0-2.0-74.4-0.4","5f96301839be85178cb37e0a","D2","batch4","","855","tol_tohand","","","","tol_peg_3","855","855","0","[[0,0,0],[3,1],[0]]","5","[[0,0,0],[1,2],[3]]","21","0","","","","","","6","","","","","","","","",""
"","","","","","single-stim-button","336","1254454","0.0-2.0-74.4-1.4","5f96301839be85178cb37e0a","D2","batch4","","1789","tol_toboard","","","","tol_peg_1","1789","1789","0","[[2,0,0],[3,1],[0]]","5","[[0,0,0],[1,2],[3]]","21","0","","","","","","6","","","","","","","","",""
"","","","","","single-stim-button","337","1263593","0.0-2.0-74.5-0.5","5f96301839be85178cb37e0a","D2","batch4","","9137","tol_tohand","","","","tol_peg_2","9137","9137","0","[[2,0,0],[3,0],[0]]","6","[[0,0,0],[1,2],[3]]","21","0","","","","","","6","","","","","","","","",""
"","","","","","single-stim-button","338","1264996","0.0-2.0-74.5-1.5","5f96301839be85178cb37e0a","D2","batch4","","1401","tol_toboard","","","","tol_peg_3","1401","1401","0","[[2,0,0],[3,0],[1]]","6","[[0,0,0],[1,2],[3]]","21","0","","","","","","6","","","","","","","","",""
"","","","","","single-stim-button","339","1267419","0.0-2.0-74.6-0.6","5f96301839be85178cb37e0a","D2","batch4","","2423","tol_tohand","","","","tol_peg_2","2423","2423","0","[[2,0,0],[0,0],[1]]","7","[[0,0,0],[1,2],[3]]","21","0","","","","","","6","","","","","","","","",""
"","","","","","single-stim-button","340","1268621","0.0-2.0-74.6-1.6","5f96301839be85178cb37e0a","D2","batch4","","1200","tol_toboard","","","","tol_peg_1","1200","1200","0","[[2,3,0],[0,0],[1]]","7","[[0,0,0],[1,2],[3]]","21","0","","","","","","6","","","","","","","","",""
"","","","","","single-stim-button","341","1269694","0.0-2.0-74.7-0.7","5f96301839be85178cb37e0a","D2","batch4","","1072","tol_tohand","","","","tol_peg_3","1072","1072","0","[[2,3,0],[0,0],[0]]","8","[[0,0,0],[1,2],[3]]","21","0","","","","","","6","","","","","","","","",""
"","","","","","single-stim-button","342","1271089","0.0-2.0-74.7-1.7","5f96301839be85178cb37e0a","D2","batch4","","1393","tol_toboard","","","","tol_peg_2","1393","1393","0","[[2,3,0],[1,0],[0]]","8","[[0,0,0],[1,2],[3]]","21","0","","","","","","6","","","","","","","","",""
"","","","","","single-stim-button","343","1272260","0.0-2.0-74.8-0.8","5f96301839be85178cb37e0a","D2","batch4","","1170","tol_tohand","","","","tol_peg_1","1170","1170","0","[[2,0,0],[1,0],[0]]","9","[[0,0,0],[1,2],[3]]","21","0","","","","","","6","","","","","","","","",""
"","","","","","single-stim-button","344","1273878","0.0-2.0-74.8-1.8","5f96301839be85178cb37e0a","D2","batch4","","1617","tol_toboard","","","","tol_peg_3","1617","1617","0","[[2,0,0],[1,0],[3]]","9","[[0,0,0],[1,2],[3]]","21","0","","","","","","6","","","","","","","","",""
"","","","","","single-stim-button","345","1274930","0.0-2.0-74.9-0.9","5f96301839be85178cb37e0a","D2","batch4","","1050","tol_tohand","","","","tol_peg_1","1050","1050","0","[[0,0,0],[1,0],[3]]","10","[[0,0,0],[1,2],[3]]","21","0","","","","","","6","","","","","","","","",""
"","","","","","single-stim-button","346","1276293","0.0-2.0-74.9-1.9","5f96301839be85178cb37e0a","D2","batch4","","1362","tol_toboard","","","","tol_peg_2","1362","1362","0","[[0,0,0],[1,2],[3]]","10","[[0,0,0],[1,2],[3]]","21","0","","","","","","6","","","","","","","","",""
"","","","","","poldrack-single-stim","347","1277299","0.0-2.0-75.0","5f96301839be85178cb37e0a","D2","batch4","","-1","tol_feedback","","","true","","1000","1000","500","","","","","","-1","none","true","9067","29358","","","","","","","","","",""
"","","","","","html-button-response","348","1279052","0.0-2.0-76.0","5f96301839be85178cb37e0a","D2","batch4","","1751","tol_trial_num","<div class = centerbox><p class = center-block-text>problem <strong>23</strong> out of 25 problems</p></div>","0","","","","","","","","","","","","","","","","","","","","","","","","",""
"","","","","","single-stim-button","349","1284653","0.0-2.0-77.0-0.0","5f96301839be85178cb37e0a","D2","batch4","","5601","tol_tohand","","","","tol_peg_1","5601","5601","0","[[1,0,0],[3,0],[0]]","1","[[1,3,2],[0,0],[0]]","22","0","","","","","","3","","","","","","","","",""
"","","","","","single-stim-button","350","1285752","0.0-2.0-77.0-1.0","5f96301839be85178cb37e0a","D2","batch4","","1099","tol_toboard","","","","tol_peg_3","1099","1099","0","[[1,0,0],[3,0],[2]]","1","[[1,3,2],[0,0],[0]]","22","0","","","","","","3","","","","","","","","",""
"","","","","","single-stim-button","351","1286871","0.0-2.0-77.1-0.1","5f96301839be85178cb37e0a","D2","batch4","","1118","tol_tohand","","","","tol_peg_2","1118","1118","0","[[1,0,0],[0,0],[2]]","2","[[1,3,2],[0,0],[0]]","22","0","","","","","","3","","","","","","","","",""
"","","","","","single-stim-button","352","1288191","0.0-2.0-77.1-1.1","5f96301839be85178cb37e0a","D2","batch4","","1318","tol_toboard","","","","tol_peg_1","1318","1318","0","[[1,3,0],[0,0],[2]]","2","[[1,3,2],[0,0],[0]]","22","0","","","","","","3","","","","","","","","",""
"","","","","","single-stim-button","353","1289340","0.0-2.0-77.2-0.2","5f96301839be85178cb37e0a","D2","batch4","","1148","tol_tohand","","","","tol_peg_3","1148","1148","0","[[1,3,0],[0,0],[0]]","3","[[1,3,2],[0,0],[0]]","22","0","","","","","","3","","","","","","","","",""
