"success","timeout","failed_images","failed_audio","failed_video","trial_type","trial_index","time_elapsed","internal_node_id","subject_id","study_id","session_id","task","rt","stimulus","response","item","answer","correct","spm_correct","spm_rt","view_history","fiar_detect_rt","fiar_detect_correct","total_correct_fiar_detect","post_trial_gap","choices","mouse_click","stim_duration","block_duration","timing_post_trial","current_position","tol_num_moves_made","tol_target","tol_problem_id","tol_rt","key_press","possible_responses","tol_correct","preplanning","tol_rt_per_trial","tol_min_moves"
"true","false","[]","[]","[]","preload","0","2772","0.0-0.0","5fadd628cd4e9e1c42dab969","B2","batch2","","","","","","","","","","","","","","","","","","","","","","","","","","","","","",""
"true","","","","","fullscreen","1","20277","0.0-1.0-0.0","5fadd628cd4e9e1c42dab969","B2","batch2","","","","","","","","","","","","","","","","","","","","","","","","","","","","","",""
"true","","","","","fullscreen","2","24218","0.0-2.0-0.0","5fadd628cd4e9e1c42dab969","B2","batch2","spm_fullscreen","","","","","","","","","","","","","","","","","","","","","","","","","","","","",""
"","","","","","html-button-response","3","41019","0.0-2.0-1.0","5fadd628cd4e9e1c42dab969","B2","batch2","","16798","<p class = block-text><b>Instructions</b> <br>This is a widely used intelligence test in research. <br>In this test, a figure with a missing piece will be presented.<br>Below the figure are alternative pieces to complete the figure, only one of which is correct.<br> Different figures might involve different principles for obtaining the missing piece<br>Your job is to select the most logical piece to complete the figure.</p>","0","","","","","","","","","","","","","","","","","","","","","","","","","",""
"","","","","","html-keyboard-response","4","41821","0.0-2.0-2.0-0.0","5fadd628cd4e9e1c42dab969","B2","batch2","spm_show_trial_num","null","<p class=block-text>Trial 1 out of 60</p>","null","","","","","","","","","","","","","","","","","","","","","","","","","",""
"","","","","","image-button-response","5","52055","0.0-2.0-2.0-1.0","5fadd628cd4e9e1c42dab969","B2","batch2","spm_respsonse","10225.299999952316","img/question_1_1.jpeg","3","mat_01","4","1","1","10225.299999952316","","","","","","","","","","","","","","","","","","","","",""
"","","","","","html-keyboard-response","6","53117","0.0-2.0-2.0-0.1","5fadd628cd4e9e1c42dab969","B2","batch2","spm_show_trial_num","null","<p class=block-text>Trial 2 out of 60</p>","null","","","","","","","","","","","","","","","","","","","","","","","","","",""
"","","","","","image-button-response","7","56409","0.0-2.0-2.0-1.1","5fadd628cd4e9e1c42dab969","B2","batch2","spm_respsonse","3289.7999999523163","img/question_1_2.jpeg","4","mat_02","5","1","1","3289.7999999523163","","","","","","","","","","","","","","","","","","","","",""
"","","","","","html-keyboard-response","8","57472","0.0-2.0-2.0-0.2","5fadd628cd4e9e1c42dab969","B2","batch2","spm_show_trial_num","null","<p class=block-text>Trial 3 out of 60</p>","null","","","","","","","","","","","","","","","","","","","","","","","","","",""
"","","","","","image-button-response","9","62340","0.0-2.0-2.0-1.2","5fadd628cd4e9e1c42dab969","B2","batch2","spm_respsonse","4864.5","img/question_1_3.jpeg","0","mat_03","1","1","1","4864.5","","","","","","","","","","","","","","","","","","","","",""
"","","","","","html-keyboard-response","10","63408","0.0-2.0-2.0-0.3","5fadd628cd4e9e1c42dab969","B2","batch2","spm_show_trial_num","null","<p class=block-text>Trial 4 out of 60</p>","null","","","","","","","","","","","","","","","","","","","","","","","","","",""
"","","","","","image-button-response","11","66740","0.0-2.0-2.0-1.3","5fadd628cd4e9e1c42dab969","B2","batch2","spm_respsonse","3328.0999999046326","img/question_1_4.jpeg","1","mat_04","2","1","1","3328.0999999046326","","","","","","","","","","","","","","","","","","","","",""
"","","","","","html-keyboard-response","12","67805","0.0-2.0-2.0-0.4","5fadd628cd4e9e1c42dab969","B2","batch2","spm_show_trial_num","null","<p class=block-text>Trial 5 out of 60</p>","null","","","","","","","","","","","","","","","","","","","","","","","","","",""
"","","","","","image-button-response","13","73614","0.0-2.0-2.0-1.4","5fadd628cd4e9e1c42dab969","B2","batch2","spm_respsonse","5804.400000095367","img/question_1_5.jpeg","5","mat_05","6","1","1","5804.400000095367","","","","","","","","","","","","","","","","","","","","",""
"","","","","","html-keyboard-response","14","74677","0.0-2.0-2.0-0.5","5fadd628cd4e9e1c42dab969","B2","batch2","spm_show_trial_num","null","<p class=block-text>Trial 6 out of 60</p>","null","","","","","","","","","","","","","","","","","","","","","","","","","",""
"","","","","","image-button-response","15","80228","0.0-2.0-2.0-1.5","5fadd628cd4e9e1c42dab969","B2","batch2","spm_respsonse","5547","img/question_1_6.jpeg","2","mat_06","3","1","1","5547","","","","","","","","","","","","","","","","","","","","",""
"","","","","","html-keyboard-response","16","81293","0.0-2.0-2.0-0.6","5fadd628cd4e9e1c42dab969","B2","batch2","spm_show_trial_num","null","<p class=block-text>Trial 7 out of 60</p>","null","","","","","","","","","","","","","","","","","","","","","","","","","",""
"","","","","","image-button-response","17","86952","0.0-2.0-2.0-1.6","5fadd628cd4e9e1c42dab969","B2","batch2","spm_respsonse","5654.100000143051","img/question_1_7.jpeg","5","mat_07","6","1","1","5654.100000143051","","","","","","","","","","","","","","","","","","","","",""
"","","","","","html-keyboard-response","18","88015","0.0-2.0-2.0-0.7","5fadd628cd4e9e1c42dab969","B2","batch2","spm_show_trial_num","null","<p class=block-text>Trial 8 out of 60</p>","null","","","","","","","","","","","","","","","","","","","","","","","","","",""
"","","","","","image-button-response","19","95932","0.0-2.0-2.0-1.7","5fadd628cd4e9e1c42dab969","B2","batch2","spm_respsonse","7913.099999904633","img/question_1_8.jpeg","1","mat_08","2","1","1","7913.099999904633","","","","","","","","","","","","","","","","","","","","",""
"","","","","","html-keyboard-response","20","97000","0.0-2.0-2.0-0.8","5fadd628cd4e9e1c42dab969","B2","batch2","spm_show_trial_num","null","<p class=block-text>Trial 9 out of 60</p>","null","","","","","","","","","","","","","","","","","","","","","","","","","",""
"","","","","","image-button-response","21","105902","0.0-2.0-2.0-1.8","5fadd628cd4e9e1c42dab969","B2","batch2","spm_respsonse","8897.200000047684","img/question_1_9.jpeg","0","mat_09","1","1","1","8897.200000047684","","","","","","","","","","","","","","","","","","","","",""
"","","","","","html-keyboard-response","22","106969","0.0-2.0-2.0-0.9","5fadd628cd4e9e1c42dab969","B2","batch2","spm_show_trial_num","null","<p class=block-text>Trial 10 out of 60</p>","null","","","","","","","","","","","","","","","","","","","","","","","","","",""
"","","","","","image-button-response","23","115344","0.0-2.0-2.0-1.9","5fadd628cd4e9e1c42dab969","B2","batch2","spm_respsonse","8370.700000047684","img/question_1_10.jpeg","2","mat_10","3","1","1","8370.700000047684","","","","","","","","","","","","","","","","","","","","",""
"","","","","","html-keyboard-response","24","116419","0.0-2.0-2.0-0.10","5fadd628cd4e9e1c42dab969","B2","batch2","spm_show_trial_num","null","<p class=block-text>Trial 11 out of 60</p>","null","","","","","","","","","","","","","","","","","","","","","","","","","",""
"","","","","","image-button-response","25","127426","0.0-2.0-2.0-1.10","5fadd628cd4e9e1c42dab969","B2","batch2","spm_respsonse","11002.800000190735","img/question_1_11.jpeg","3","mat_11","4","1","1","11002.800000190735","","","","","","","","","","","","","","","","","","","","",""
"","","","","","html-keyboard-response","26","128483","0.0-2.0-2.0-0.11","5fadd628cd4e9e1c42dab969","B2","batch2","spm_show_trial_num","null","<p class=block-text>Trial 12 out of 60</p>","null","","","","","","","","","","","","","","","","","","","","","","","","","",""
"","","","","","image-button-response","27","145330","0.0-2.0-2.0-1.11","5fadd628cd4e9e1c42dab969","B2","batch2","spm_respsonse","16842.299999952316","img/question_1_12.jpeg","4","mat_12","5","1","1","16842.299999952316","","","","","","","","","","","","","","","","","","","","",""
"","","","","","html-keyboard-response","28","146388","0.0-2.0-2.0-0.12","5fadd628cd4e9e1c42dab969","B2","batch2","spm_show_trial_num","null","<p class=block-text>Trial 13 out of 60</p>","null","","","","","","","","","","","","","","","","","","","","","","","","","",""
"","","","","","image-button-response","29","151511","0.0-2.0-2.0-1.12","5fadd628cd4e9e1c42dab969","B2","batch2","spm_respsonse","5119.899999856949","img/question_2_1.jpeg","1","mat_13","2","1","1","5119.899999856949","","","","","","","","","","","","","","","","","","","","",""
"","","","","","html-keyboard-response","30","152577","0.0-2.0-2.0-0.13","5fadd628cd4e9e1c42dab969","B2","batch2","spm_show_trial_num","null","<p class=block-text>Trial 14 out of 60</p>","null","","","","","","","","","","","","","","","","","","","","","","","","","",""
"","","","","","image-button-response","31","158276","0.0-2.0-2.0-1.13","5fadd628cd4e9e1c42dab969","B2","batch2","spm_respsonse","5695.5","img/question_2_2.jpeg","5","mat_14","6","1","1","5695.5","","","","","","","","","","","","","","","","","","","","",""
"","","","","","html-keyboard-response","32","159332","0.0-2.0-2.0-0.14","5fadd628cd4e9e1c42dab969","B2","batch2","spm_show_trial_num","null","<p class=block-text>Trial 15 out of 60</p>","null","","","","","","","","","","","","","","","","","","","","","","","","","",""
"","","","","","image-button-response","33","163459","0.0-2.0-2.0-1.14","5fadd628cd4e9e1c42dab969","B2","batch2","spm_respsonse","4123.300000190735","img/question_2_3.jpeg","0","mat_15","1","1","1","4123.300000190735","","","","","","","","","","","","","","","","","","","","",""
"","","","","","html-keyboard-response","34","164534","0.0-2.0-2.0-0.15","5fadd628cd4e9e1c42dab969","B2","batch2","spm_show_trial_num","null","<p class=block-text>Trial 16 out of 60</p>","null","","","","","","","","","","","","","","","","","","","","","","","","","",""
"","","","","","image-button-response","35","170004","0.0-2.0-2.0-1.15","5fadd628cd4e9e1c42dab969","B2","batch2","spm_respsonse","5466","img/question_2_4.jpeg","1","mat_16","2","1","1","5466","","","","","","","","","","","","","","","","","","","","",""
"","","","","","html-keyboard-response","36","171061","0.0-2.0-2.0-0.16","5fadd628cd4e9e1c42dab969","B2","batch2","spm_show_trial_num","null","<p class=block-text>Trial 17 out of 60</p>","null","","","","","","","","","","","","","","","","","","","","","","","","","",""
"","","","","","image-button-response","37","177868","0.0-2.0-2.0-1.16","5fadd628cd4e9e1c42dab969","B2","batch2","spm_respsonse","6802.900000095367","img/question_2_5.jpeg","0","mat_17","1","1","1","6802.900000095367","","","","","","","","","","","","","","","","","","","","",""
"","","","","","html-keyboard-response","38","178933","0.0-2.0-2.0-0.17","5fadd628cd4e9e1c42dab969","B2","batch2","spm_show_trial_num","null","<p class=block-text>Trial 18 out of 60</p>","null","","","","","","","","","","","","","","","","","","","","","","","","","",""
"","","","","","image-button-response","39","188606","0.0-2.0-2.0-1.17","5fadd628cd4e9e1c42dab969","B2","batch2","spm_respsonse","9669.299999952316","img/question_2_6.jpeg","2","mat_18","3","1","1","9669.299999952316","","","","","","","","","","","","","","","","","","","","",""
"","","","","","html-keyboard-response","40","189678","0.0-2.0-2.0-0.18","5fadd628cd4e9e1c42dab969","B2","batch2","spm_show_trial_num","null","<p class=block-text>Trial 19 out of 60</p>","null","","","","","","","","","","","","","","","","","","","","","","","","","",""
"","","","","","image-button-response","41","195510","0.0-2.0-2.0-1.18","5fadd628cd4e9e1c42dab969","B2","batch2","spm_respsonse","5827","img/question_2_7.jpeg","4","mat_19","5","1","1","5827","","","","","","","","","","","","","","","","","","","","",""
"","","","","","html-keyboard-response","42","196580","0.0-2.0-2.0-0.19","5fadd628cd4e9e1c42dab969","B2","batch2","spm_show_trial_num","null","<p class=block-text>Trial 20 out of 60</p>","null","","","","","","","","","","","","","","","","","","","","","","","","","",""
"","","","","","image-button-response","43","203380","0.0-2.0-2.0-1.19","5fadd628cd4e9e1c42dab969","B2","batch2","spm_respsonse","6796.599999904633","img/question_2_8.jpeg","5","mat_20","6","1","1","6796.599999904633","","","","","","","","","","","","","","","","","","","","",""
"","","","","","html-keyboard-response","44","204454","0.0-2.0-2.0-0.20","5fadd628cd4e9e1c42dab969","B2","batch2","spm_show_trial_num","null","<p class=block-text>Trial 21 out of 60</p>","null","","","","","","","","","","","","","","","","","","","","","","","","","",""
"","","","","","image-button-response","45","210324","0.0-2.0-2.0-1.20","5fadd628cd4e9e1c42dab969","B2","batch2","spm_respsonse","5865.699999809265","img/question_2_9.jpeg","3","mat_21","4","1","1","5865.699999809265","","","","","","","","","","","","","","","","","","","","",""
"","","","","","html-keyboard-response","46","211378","0.0-2.0-2.0-0.21","5fadd628cd4e9e1c42dab969","B2","batch2","spm_show_trial_num","null","<p class=block-text>Trial 22 out of 60</p>","null","","","","","","","","","","","","","","","","","","","","","","","","","",""
"","","","","","image-button-response","47","217984","0.0-2.0-2.0-1.21","5fadd628cd4e9e1c42dab969","B2","batch2","spm_respsonse","6601.799999952316","img/question_2_10.jpeg","2","mat_22","3","1","1","6601.799999952316","","","","","","","","","","","","","","","","","","","","",""
"","","","","","html-keyboard-response","48","219047","0.0-2.0-2.0-0.22","5fadd628cd4e9e1c42dab969","B2","batch2","spm_show_trial_num","null","<p class=block-text>Trial 23 out of 60</p>","null","","","","","","","","","","","","","","","","","","","","","","","","","",""
"","","","","","image-button-response","49","227784","0.0-2.0-2.0-1.22","5fadd628cd4e9e1c42dab969","B2","batch2","spm_respsonse","8732.399999856949","img/question_2_11.jpeg","3","mat_23","4","1","1","8732.399999856949","","","","","","","","","","","","","","","","","","","","",""
"","","","","","html-keyboard-response","50","228848","0.0-2.0-2.0-0.23","5fadd628cd4e9e1c42dab969","B2","batch2","spm_show_trial_num","null","<p class=block-text>Trial 24 out of 60</p>","null","","","","","","","","","","","","","","","","","","","","","","","","","",""
"","","","","","image-button-response","51","244656","0.0-2.0-2.0-1.23","5fadd628cd4e9e1c42dab969","B2","batch2","spm_respsonse","15804.299999952316","img/question_2_12.jpeg","4","mat_24","5","1","1","15804.299999952316","","","","","","","","","","","","","","","","","","","","",""
"","","","","","html-button-response","52","246926","0.0-2.0-3.0","5fadd628cd4e9e1c42dab969","B2","batch2","attention_check","2007.9000000953674","<p class = block-text>Attention check: Please choose 1<br></p>","0","","","true","","","","","","","","","","","","","","","","","","","","","","",""
"","","","","","html-keyboard-response","53","247727","0.0-2.0-4.0-0.0","5fadd628cd4e9e1c42dab969","B2","batch2","spm_show_trial_num","null","<p class=block-text>Trial 25 out of 60</p>","null","","","","","","","","","","","","","","","","","","","","","","","","","",""
"","","","","","image-button-response","54","256030","0.0-2.0-4.0-1.0","5fadd628cd4e9e1c42dab969","B2","batch2","spm_respsonse","8300.700000047684","img/question_3_1.jpeg","7","mat_25","8","1","1","8300.700000047684","","","","","","","","","","","","","","","","","","","","",""
"","","","","","html-keyboard-response","55","257083","0.0-2.0-4.0-0.1","5fadd628cd4e9e1c42dab969","B2","batch2","spm_show_trial_num","null","<p class=block-text>Trial 26 out of 60</p>","null","","","","","","","","","","","","","","","","","","","","","","","","","",""
"","","","","","image-button-response","56","272884","0.0-2.0-4.0-1.1","5fadd628cd4e9e1c42dab969","B2","batch2","spm_respsonse","15797.100000143051","img/question_3_2.jpeg","1","mat_26","2","1","1","15797.100000143051","","","","","","","","","","","","","","","","","","","","",""
"","","","","","html-keyboard-response","57","273937","0.0-2.0-4.0-0.2","5fadd628cd4e9e1c42dab969","B2","batch2","spm_show_trial_num","null","<p class=block-text>Trial 27 out of 60</p>","null","","","","","","","","","","","","","","","","","","","","","","","","","",""
"","","","","","image-button-response","58","287578","0.0-2.0-4.0-1.2","5fadd628cd4e9e1c42dab969","B2","batch2","spm_respsonse","13636.399999856949","img/question_3_3.jpeg","2","mat_27","3","1","1","13636.399999856949","","","","","","","","","","","","","","","","","","","","",""
"","","","","","html-keyboard-response","59","288656","0.0-2.0-4.0-0.3","5fadd628cd4e9e1c42dab969","B2","batch2","spm_show_trial_num","null","<p class=block-text>Trial 28 out of 60</p>","null","","","","","","","","","","","","","","","","","","","","","","","","","",""
"","","","","","image-button-response","60","310996","0.0-2.0-4.0-1.3","5fadd628cd4e9e1c42dab969","B2","batch2","spm_respsonse","22336","img/question_3_4.jpeg","7","mat_28","8","1","1","22336","","","","","","","","","","","","","","","","","","","","",""
"","","","","","html-keyboard-response","61","312058","0.0-2.0-4.0-0.4","5fadd628cd4e9e1c42dab969","B2","batch2","spm_show_trial_num","null","<p class=block-text>Trial 29 out of 60</p>","null","","","","","","","","","","","","","","","","","","","","","","","","","",""
"","","","","","image-button-response","62","341112","0.0-2.0-4.0-1.4","5fadd628cd4e9e1c42dab969","B2","batch2","spm_respsonse","29049.900000095367","img/question_3_5.jpeg","6","mat_29","7","1","1","29049.900000095367","","","","","","","","","","","","","","","","","","","","",""
"","","","","","html-keyboard-response","63","342170","0.0-2.0-4.0-0.5","5fadd628cd4e9e1c42dab969","B2","batch2","spm_show_trial_num","null","<p class=block-text>Trial 30 out of 60</p>","null","","","","","","","","","","","","","","","","","","","","","","","","","",""
"","","","","","image-button-response","64","356492","0.0-2.0-4.0-1.5","5fadd628cd4e9e1c42dab969","B2","batch2","spm_respsonse","14316.900000095367","img/question_3_6.jpeg","3","mat_30","4","1","1","14316.900000095367","","","","","","","","","","","","","","","","","","","","",""
"","","","","","html-keyboard-response","65","357554","0.0-2.0-4.0-0.6","5fadd628cd4e9e1c42dab969","B2","batch2","spm_show_trial_num","null","<p class=block-text>Trial 31 out of 60</p>","null","","","","","","","","","","","","","","","","","","","","","","","","","",""
"","","","","","image-button-response","66","373634","0.0-2.0-4.0-1.6","5fadd628cd4e9e1c42dab969","B2","batch2","spm_respsonse","16075.299999952316","img/question_3_7.jpeg","4","mat_31","5","1","1","16075.299999952316","","","","","","","","","","","","","","","","","","","","",""
"","","","","","html-keyboard-response","67","374709","0.0-2.0-4.0-0.7","5fadd628cd4e9e1c42dab969","B2","batch2","spm_show_trial_num","null","<p class=block-text>Trial 32 out of 60</p>","null","","","","","","","","","","","","","","","","","","","","","","","","","",""
"","","","","","image-button-response","68","404896","0.0-2.0-4.0-1.7","5fadd628cd4e9e1c42dab969","B2","batch2","spm_respsonse","30183","img/question_3_8.jpeg","0","mat_32","1","1","1","30183","","","","","","","","","","","","","","","","","","","","",""
"","","","","","html-keyboard-response","69","405962","0.0-2.0-4.0-0.8","5fadd628cd4e9e1c42dab969","B2","batch2","spm_show_trial_num","null","<p class=block-text>Trial 33 out of 60</p>","null","","","","","","","","","","","","","","","","","","","","","","","","","",""
"","","","","","image-button-response","70","419410","0.0-2.0-4.0-1.8","5fadd628cd4e9e1c42dab969","B2","batch2","spm_respsonse","13443.5","img/question_3_9.jpeg","6","mat_33","7","1","1","13443.5","","","","","","","","","","","","","","","","","","","","",""
"","","","","","html-keyboard-response","71","420470","0.0-2.0-4.0-0.9","5fadd628cd4e9e1c42dab969","B2","batch2","spm_show_trial_num","null","<p class=block-text>Trial 34 out of 60</p>","null","","","","","","","","","","","","","","","","","","","","","","","","","",""
"","","","","","image-button-response","72","443352","0.0-2.0-4.0-1.9","5fadd628cd4e9e1c42dab969","B2","batch2","spm_respsonse","22877.5","img/question_3_10.jpeg","5","mat_34","6","1","1","22877.5","","","","","","","","","","","","","","","","","","","","",""
"","","","","","html-keyboard-response","73","444419","0.0-2.0-4.0-0.10","5fadd628cd4e9e1c42dab969","B2","batch2","spm_show_trial_num","null","<p class=block-text>Trial 35 out of 60</p>","null","","","","","","","","","","","","","","","","","","","","","","","","","",""
"","","","","","image-button-response","74","493228","0.0-2.0-4.0-1.10","5fadd628cd4e9e1c42dab969","B2","batch2","spm_respsonse","48804.800000190735","img/question_3_11.jpeg","0","mat_35","1","1","1","48804.800000190735","","","","","","","","","","","","","","","","","","","","",""
"","","","","","html-keyboard-response","75","494283","0.0-2.0-4.0-0.11","5fadd628cd4e9e1c42dab969","B2","batch2","spm_show_trial_num","null","<p class=block-text>Trial 36 out of 60</p>","null","","","","","","","","","","","","","","","","","","","","","","","","","",""
"","","","","","image-button-response","76","516870","0.0-2.0-4.0-1.11","5fadd628cd4e9e1c42dab969","B2","batch2","spm_respsonse","22583.099999904633","img/question_3_12.jpeg","1","mat_36","2","1","1","22583.099999904633","","","","","","","","","","","","","","","","","","","","",""
"","","","","","html-keyboard-response","77","517937","0.0-2.0-4.0-0.12","5fadd628cd4e9e1c42dab969","B2","batch2","spm_show_trial_num","null","<p class=block-text>Trial 37 out of 60</p>","null","","","","","","","","","","","","","","","","","","","","","","","","","",""
"","","","","","image-button-response","78","520924","0.0-2.0-4.0-1.12","5fadd628cd4e9e1c42dab969","B2","batch2","spm_respsonse","2983","img/question_4_1.jpeg","2","mat_37","3","1","1","2983","","","","","","","","","","","","","","","","","","","","",""
"","","","","","html-keyboard-response","79","521991","0.0-2.0-4.0-0.13","5fadd628cd4e9e1c42dab969","B2","batch2","spm_show_trial_num","null","<p class=block-text>Trial 38 out of 60</p>","null","","","","","","","","","","","","","","","","","","","","","","","","","",""
"","","","","","image-button-response","80","530562","0.0-2.0-4.0-1.13","5fadd628cd4e9e1c42dab969","B2","batch2","spm_respsonse","8566.900000095367","img/question_4_2.jpeg","3","mat_38","4","1","1","8566.900000095367","","","","","","","","","","","","","","","","","","","","",""
"","","","","","html-keyboard-response","81","531616","0.0-2.0-4.0-0.14","5fadd628cd4e9e1c42dab969","B2","batch2","spm_show_trial_num","null","<p class=block-text>Trial 39 out of 60</p>","null","","","","","","","","","","","","","","","","","","","","","","","","","",""
"","","","","","image-button-response","82","539790","0.0-2.0-4.0-1.14","5fadd628cd4e9e1c42dab969","B2","batch2","spm_respsonse","8172.200000047684","img/question_4_3.jpeg","2","mat_39","3","1","1","8172.200000047684","","","","","","","","","","","","","","","","","","","","",""
"","","","","","html-keyboard-response","83","540848","0.0-2.0-4.0-0.15","5fadd628cd4e9e1c42dab969","B2","batch2","spm_show_trial_num","null","<p class=block-text>Trial 40 out of 60</p>","null","","","","","","","","","","","","","","","","","","","","","","","","","",""
"","","","","","image-button-response","84","554650","0.0-2.0-4.0-1.15","5fadd628cd4e9e1c42dab969","B2","batch2","spm_respsonse","13798","img/question_4_4.jpeg","6","mat_40","7","1","1","13798","","","","","","","","","","","","","","","","","","","","",""
"","","","","","html-keyboard-response","85","555706","0.0-2.0-4.0-0.16","5fadd628cd4e9e1c42dab969","B2","batch2","spm_show_trial_num","null","<p class=block-text>Trial 41 out of 60</p>","null","","","","","","","","","","","","","","","","","","","","","","","","","",""
"","","","","","image-button-response","86","564758","0.0-2.0-4.0-1.16","5fadd628cd4e9e1c42dab969","B2","batch2","spm_respsonse","9047.400000095367","img/question_4_5.jpeg","7","mat_41","8","1","1","9047.400000095367","","","","","","","","","","","","","","","","","","","","",""
"","","","","","html-keyboard-response","87","565826","0.0-2.0-4.0-0.17","5fadd628cd4e9e1c42dab969","B2","batch2","spm_show_trial_num","null","<p class=block-text>Trial 42 out of 60</p>","null","","","","","","","","","","","","","","","","","","","","","","","","","",""
"","","","","","image-button-response","88","578308","0.0-2.0-4.0-1.17","5fadd628cd4e9e1c42dab969","B2","batch2","spm_respsonse","12477.599999904633","img/question_4_6.jpeg","5","mat_42","6","1","1","12477.599999904633","","","","","","","","","","","","","","","","","","","","",""
"","","","","","html-keyboard-response","89","579372","0.0-2.0-4.0-0.18","5fadd628cd4e9e1c42dab969","B2","batch2","spm_show_trial_num","null","<p class=block-text>Trial 43 out of 60</p>","null","","","","","","","","","","","","","","","","","","","","","","","","","",""
"","","","","","image-button-response","90","593938","0.0-2.0-4.0-1.18","5fadd628cd4e9e1c42dab969","B2","batch2","spm_respsonse","14560.899999856949","img/question_4_7.jpeg","4","mat_43","5","1","1","14560.899999856949","","","","","","","","","","","","","","","","","","","","",""
"","","","","","html-keyboard-response","91","595006","0.0-2.0-4.0-0.19","5fadd628cd4e9e1c42dab969","B2","batch2","spm_show_trial_num","null","<p class=block-text>Trial 44 out of 60</p>","null","","","","","","","","","","","","","","","","","","","","","","","","","",""
"","","","","","image-button-response","92","606546","0.0-2.0-4.0-1.19","5fadd628cd4e9e1c42dab969","B2","batch2","spm_respsonse","11535.400000095367","img/question_4_8.jpeg","3","mat_44","4","1","1","11535.400000095367","","","","","","","","","","","","","","","","","","","","",""
"","","","","","html-keyboard-response","93","607603","0.0-2.0-4.0-0.20","5fadd628cd4e9e1c42dab969","B2","batch2","spm_show_trial_num","null","<p class=block-text>Trial 45 out of 60</p>","null","","","","","","","","","","","","","","","","","","","","","","","","","",""
"","","","","","image-button-response","94","628106","0.0-2.0-4.0-1.20","5fadd628cd4e9e1c42dab969","B2","batch2","spm_respsonse","20498.299999952316","img/question_4_9.jpeg","0","mat_45","1","1","1","20498.299999952316","","","","","","","","","","","","","","","","","","","","",""
"","","","","","html-keyboard-response","95","629172","0.0-2.0-4.0-0.21","5fadd628cd4e9e1c42dab969","B2","batch2","spm_show_trial_num","null","<p class=block-text>Trial 46 out of 60</p>","null","","","","","","","","","","","","","","","","","","","","","","","","","",""
"","","","","","image-button-response","96","646751","0.0-2.0-4.0-1.21","5fadd628cd4e9e1c42dab969","B2","batch2","spm_respsonse","17574","img/question_4_10.jpeg","1","mat_46","2","1","1","17574","","","","","","","","","","","","","","","","","","","","",""
"","","","","","html-keyboard-response","97","647804","0.0-2.0-4.0-0.22","5fadd628cd4e9e1c42dab969","B2","batch2","spm_show_trial_num","null","<p class=block-text>Trial 47 out of 60</p>","null","","","","","","","","","","","","","","","","","","","","","","","","","",""
"","","","","","image-button-response","98","737410","0.0-2.0-4.0-1.22","5fadd628cd4e9e1c42dab969","B2","batch2","spm_respsonse","89601.79999995232","img/question_4_11.jpeg","4","mat_47","5","1","1","89601.79999995232","","","","","","","","","","","","","","","","","","","","",""
"","","","","","html-keyboard-response","99","738478","0.0-2.0-4.0-0.23","5fadd628cd4e9e1c42dab969","B2","batch2","spm_show_trial_num","null","<p class=block-text>Trial 48 out of 60</p>","null","","","","","","","","","","","","","","","","","","","","","","","","","",""
"","","","","","image-button-response","100","773141","0.0-2.0-4.0-1.23","5fadd628cd4e9e1c42dab969","B2","batch2","spm_respsonse","34659.60000014305","img/question_4_12.jpeg","5","mat_48","6","1","1","34659.60000014305","","","","","","","","","","","","","","","","","","","","",""
"","","","","","html-keyboard-response","101","774201","0.0-2.0-4.0-0.24","5fadd628cd4e9e1c42dab969","B2","batch2","spm_show_trial_num","null","<p class=block-text>Trial 49 out of 60</p>","null","","","","","","","","","","","","","","","","","","","","","","","","","",""
"","","","","","image-button-response","102","781105","0.0-2.0-4.0-1.24","5fadd628cd4e9e1c42dab969","B2","batch2","spm_respsonse","6898.899999856949","img/question_5_1.jpeg","6","mat_49","7","1","1","6898.899999856949","","","","","","","","","","","","","","","","","","","","",""
"","","","","","html-keyboard-response","103","782171","0.0-2.0-4.0-0.25","5fadd628cd4e9e1c42dab969","B2","batch2","spm_show_trial_num","null","<p class=block-text>Trial 50 out of 60</p>","null","","","","","","","","","","","","","","","","","","","","","","","","","",""
"","","","","","image-button-response","104","793641","0.0-2.0-4.0-1.25","5fadd628cd4e9e1c42dab969","B2","batch2","spm_respsonse","11465.399999856949","img/question_5_2.jpeg","5","mat_50","6","1","1","11465.399999856949","","","","","","","","","","","","","","","","","","","","",""
"","","","","","html-keyboard-response","105","794701","0.0-2.0-4.0-0.26","5fadd628cd4e9e1c42dab969","B2","batch2","spm_show_trial_num","null","<p class=block-text>Trial 51 out of 60</p>","null","","","","","","","","","","","","","","","","","","","","","","","","","",""
"","","","","","image-button-response","106","805075","0.0-2.0-4.0-1.26","5fadd628cd4e9e1c42dab969","B2","batch2","spm_respsonse","10369.299999952316","img/question_5_3.jpeg","7","mat_51","8","1","1","10369.299999952316","","","","","","","","","","","","","","","","","","","","",""
"","","","","","html-keyboard-response","107","806151","0.0-2.0-4.0-0.27","5fadd628cd4e9e1c42dab969","B2","batch2","spm_show_trial_num","null","<p class=block-text>Trial 52 out of 60</p>","null","","","","","","","","","","","","","","","","","","","","","","","","","",""
"","","","","","image-button-response","108","828291","0.0-2.0-4.0-1.27","5fadd628cd4e9e1c42dab969","B2","batch2","spm_respsonse","22135.10000014305","img/question_5_4.jpeg","1","mat_52","2","1","1","22135.10000014305","","","","","","","","","","","","","","","","","","","","",""
"","","","","","html-keyboard-response","109","829349","0.0-2.0-4.0-0.28","5fadd628cd4e9e1c42dab969","B2","batch2","spm_show_trial_num","null","<p class=block-text>Trial 53 out of 60</p>","null","","","","","","","","","","","","","","","","","","","","","","","","","",""
"","","","","","image-button-response","110","839569","0.0-2.0-4.0-1.28","5fadd628cd4e9e1c42dab969","B2","batch2","spm_respsonse","10215.299999952316","img/question_5_5.jpeg","0","mat_53","1","1","1","10215.299999952316","","","","","","","","","","","","","","","","","","","","",""
"","","","","","html-keyboard-response","111","840625","0.0-2.0-4.0-0.29","5fadd628cd4e9e1c42dab969","B2","batch2","spm_show_trial_num","null","<p class=block-text>Trial 54 out of 60</p>","null","","","","","","","","","","","","","","","","","","","","","","","","","",""
"","","","","","image-button-response","112","861266","0.0-2.0-4.0-1.29","5fadd628cd4e9e1c42dab969","B2","batch2","spm_respsonse","20637.200000047684","img/question_5_6.jpeg","4","mat_54","5","1","1","20637.200000047684","","","","","","","","","","","","","","","","","","","","",""
"","","","","","html-keyboard-response","113","862333","0.0-2.0-4.0-0.30","5fadd628cd4e9e1c42dab969","B2","batch2","spm_show_trial_num","null","<p class=block-text>Trial 55 out of 60</p>","null","","","","","","","","","","","","","","","","","","","","","","","","","",""
"","","","","","image-button-response","114","890826","0.0-2.0-4.0-1.30","5fadd628cd4e9e1c42dab969","B2","batch2","spm_respsonse","28488.700000047684","img/question_5_7.jpeg","0","mat_55","1","1","1","28488.700000047684","","","","","","","","","","","","","","","","","","","","",""
"","","","","","html-keyboard-response","115","891881","0.0-2.0-4.0-0.31","5fadd628cd4e9e1c42dab969","B2","batch2","spm_show_trial_num","null","<p class=block-text>Trial 56 out of 60</p>","null","","","","","","","","","","","","","","","","","","","","","","","","","",""
"","","","","","image-button-response","116","916894","0.0-2.0-4.0-1.31","5fadd628cd4e9e1c42dab969","B2","batch2","spm_respsonse","25009.39999985695","img/question_5_8.jpeg","5","mat_56","6","1","1","25009.39999985695","","","","","","","","","","","","","","","","","","","","",""
"","","","","","html-keyboard-response","117","917960","0.0-2.0-4.0-0.32","5fadd628cd4e9e1c42dab969","B2","batch2","spm_show_trial_num","null","<p class=block-text>Trial 57 out of 60</p>","null","","","","","","","","","","","","","","","","","","","","","","","","","",""
"","","","","","image-button-response","118","948747","0.0-2.0-4.0-1.32","5fadd628cd4e9e1c42dab969","B2","batch2","spm_respsonse","30781.39999985695","img/question_5_9.jpeg","2","mat_57","3","1","1","30781.39999985695","","","","","","","","","","","","","","","","","","","","",""
"","","","","","html-keyboard-response","119","949801","0.0-2.0-4.0-0.33","5fadd628cd4e9e1c42dab969","B2","batch2","spm_show_trial_num","null","<p class=block-text>Trial 58 out of 60</p>","null","","","","","","","","","","","","","","","","","","","","","","","","","",""
"","","","","","image-button-response","120","991970","0.0-2.0-4.0-1.33","5fadd628cd4e9e1c42dab969","B2","batch2","spm_respsonse","42165.40000009537","img/question_5_10.jpeg","1","mat_58","2","1","1","42165.40000009537","","","","","","","","","","","","","","","","","","","","",""
"","","","","","html-keyboard-response","121","993032","0.0-2.0-4.0-0.34","5fadd628cd4e9e1c42dab969","B2","batch2","spm_show_trial_num","null","<p class=block-text>Trial 59 out of 60</p>","null","","","","","","","","","","","","","","","","","","","","","","","","","",""
"","","","","","image-button-response","122","1046153","0.0-2.0-4.0-1.34","5fadd628cd4e9e1c42dab969","B2","batch2","spm_respsonse","53115.40000009537","img/question_5_11.jpeg","3","mat_59","4","1","1","53115.40000009537","","","","","","","","","","","","","","","","","","","","",""
"","","","","","html-keyboard-response","123","1047225","0.0-2.0-4.0-0.35","5fadd628cd4e9e1c42dab969","B2","batch2","spm_show_trial_num","null","<p class=block-text>Trial 60 out of 60</p>","null","","","","","","","","","","","","","","","","","","","","","","","","","",""
"","","","","","image-button-response","124","1143255","0.0-2.0-4.0-1.35","5fadd628cd4e9e1c42dab969","B2","batch2","spm_respsonse","96025.29999995232","img/question_5_12.jpeg","0","mat_60","5","0","0","96025.29999995232","","","","","","","","","","","","","","","","","","","","",""
"","","","","","html-button-response","125","1146003","0.0-2.0-5.0","5fadd628cd4e9e1c42dab969","B2","batch2","spm_goodbye","2494.2000000476837","<p class= block-text>This concludes the Standard Progressive Matrix game. Thank you for your responses!<br> When you are ready, click the button continue</p>","0","","","","","","","","","","","","","","","","","","","","","","","","","",""
"true","","","","","fullscreen","126","1150246","0.0-3.0-0.0","5fadd628cd4e9e1c42dab969","B2","batch2","","","","","","","","","","","","","","","","","","","","","","","","","","","","","",""
"","","","","","instructions","127","1195299","0.0-3.0-1.0-0.0","5fadd628cd4e9e1c42dab969","B2","batch2","","45049.90000009537","","","","","","","","[{""page_index"":0,""viewing_time"":25005.799999952316},{""page_index"":1,""viewing_time"":20043.799999952316}]","","","","","","","","","","","","","","","","","","","",""
"","","","","","html-button-response","128","1197303","0.0-3.0-1.0-1.0-0.0","5fadd628cd4e9e1c42dab969","B2","batch2","pattern_enter_quiz","2003.0999999046326","<p class=block-text> Let's answer a few questions <br>","0","","","","","","","","","","","","","","","","","","","","","","","","","",""
"","","","","","html-button-response","129","1201071","0.0-3.0-1.0-1.0-1.0","5fadd628cd4e9e1c42dab969","B2","batch2","pattern_quiz","3767.100000143051","<p class = block-text>True or False: You will have as much time as you want to make each choice. <br></p>","1","","","true","","","","","","","","","","","","","","","","","","","","","","",""
"","","","","","html-button-response","130","1202571","0.0-3.0-1.0-1.0-2.0","5fadd628cd4e9e1c42dab969","B2","batch2","pattern_quiz_feedback","1497.8999998569489","<p class = block-text>Correct! You should make your choice <strong> as fast as you can</strong>.</p>","0","","","","","","","","","","","","","","","","","","","","","","","","","",""
"","","","","","html-button-response","131","1209333","0.0-3.0-1.0-1.0-3.0","5fadd628cd4e9e1c42dab969","B2","batch2","pattern_quiz","6761.199999809265","<p class = block-text>True or False: You will look for 4 pieces in black or white color connected in a row either horizontally, vertically or diagonally. <br></p>","0","","","true","","","","","","","","","","","","","","","","","","","","","","",""
"","","","","","html-button-response","132","1210290","0.0-3.0-1.0-1.0-4.0","5fadd628cd4e9e1c42dab969","B2","batch2","pattern_quiz_feedback","956.9000000953674","<p class = block-text>Correct! </p>","0","","","","","","","","","","","","","","","","","","","","","","","","","",""
"","","","","","html-button-response","133","1213173","0.0-3.0-2.0","5fadd628cd4e9e1c42dab969","B2","batch2","pattern_enter_practice","2880.0999999046326","<p class=block-text> Now that you've understood the game, let's do a few practice trials before we start!<br> <br>","0","","","","","","","","","","","","","","","","","","","","","","","","","",""
"","","","","","image-keyboard-response","134","1215896","0.0-3.0-3.0-0.0","5fadd628cd4e9e1c42dab969","B2","batch2","pattern_practice","2721","stim/prac_no_16_1.png","j","","j","true","","","","","","","","","","","","","","","","","","","","","","",""
"","","","","","html-keyboard-response","135","1216912","0.0-3.0-3.0-1.0","5fadd628cd4e9e1c42dab969","B2","batch2","pattern_feedback","null","<p style=""font-size:30px;color:green;"">Correct!</p>","null","","","","","","","","","","","","","","","","","","","","","","","","","",""
"","","","","","image-keyboard-response","136","1219101","0.0-3.0-3.0-0.1","5fadd628cd4e9e1c42dab969","B2","batch2","pattern_practice","2186.4000000953674","stim/prac_no_18_1.png","j","","j","true","","","","","","","","","","","","","","","","","","","","","","",""
"","","","","","html-keyboard-response","137","1220120","0.0-3.0-3.0-1.1","5fadd628cd4e9e1c42dab969","B2","batch2","pattern_feedback","null","<p style=""font-size:30px;color:green;"">Correct!</p>","null","","","","","","","","","","","","","","","","","","","","","","","","","",""
"","","","","","image-keyboard-response","138","1220919","0.0-3.0-3.0-0.2","5fadd628cd4e9e1c42dab969","B2","batch2","pattern_practice","795.3999998569489","stim/prac_yes_20_dia_b1.png","f","","f","true","","","","","","","","","","","","","","","","","","","","","","",""
"","","","","","html-keyboard-response","139","1221950","0.0-3.0-3.0-1.2","5fadd628cd4e9e1c42dab969","B2","batch2","pattern_feedback","null","<p style=""font-size:30px;color:green;"">Correct!</p>","null","","","","","","","","","","","","","","","","","","","","","","","","","",""
"","","","","","image-keyboard-response","140","1222589","0.0-3.0-3.0-0.3","5fadd628cd4e9e1c42dab969","B2","batch2","pattern_practice","636.0999999046326","stim/prac_yes_16_ver_w1.png","f","","f","true","","","","","","","","","","","","","","","","","","","","","","",""
"","","","","","html-keyboard-response","141","1223614","0.0-3.0-3.0-1.3","5fadd628cd4e9e1c42dab969","B2","batch2","pattern_feedback","null","<p style=""font-size:30px;color:green;"">Correct!</p>","null","","","","","","","","","","","","","","","","","","","","","","","","","",""
"","","","","","image-keyboard-response","142","1224212","0.0-3.0-3.0-0.4","5fadd628cd4e9e1c42dab969","B2","batch2","pattern_practice","595.1000001430511","stim/prac_yes_18_hor_w1.png","f","","f","true","","","","","","","","","","","","","","","","","","","","","","",""
"","","","","","html-keyboard-response","143","1225221","0.0-3.0-3.0-1.4","5fadd628cd4e9e1c42dab969","B2","batch2","pattern_feedback","null","<p style=""font-size:30px;color:green;"">Correct!</p>","null","","","","","","","","","","","","","","","","","","","","","","","","","",""
"","","","","","html-button-response","144","1236997","0.0-3.0-4.0","5fadd628cd4e9e1c42dab969","B2","batch2","pattern_enter_official_trials","11772.899999856949","<p class=block-text> Good job! You are done with practice trials!<br>
        You responded correctly on 100% of the trials.<br>
        Press the button below to start official trials. Now you won't see any feedback about your response</p>","0","","","","","","","","","","","","","","","","","","","","","","","","","",""
"","","","","","html-keyboard-response","145","1237802","0.0-3.0-5.0-0.0","5fadd628cd4e9e1c42dab969","B2","batch2","pattern_show_trial_num","null","<p class=block-text>Trial 1 out of 78</p>","null","","","","","","","","","","","","","","","","","","","","","","","","","",""
"","","","","","image-keyboard-response","146","1239357","0.0-3.0-5.0-1.0","5fadd628cd4e9e1c42dab969","B2","batch2","pattern_response","1550.6000001430511","stim/yes_33_dia_w1_w.png","f","pattern_56","f","true","","","","1550.6000001430511","true","1","","","","","","","","","","","","","","","","",""
"","","","","","html-keyboard-response","147","1240683","0.0-3.0-5.0-0.1","5fadd628cd4e9e1c42dab969","B2","batch2","pattern_show_trial_num","null","<p class=block-text>Trial 2 out of 78</p>","null","","","","","","","","","","","","","","","","","","","","","","","","","",""
"","","","","","image-keyboard-response","148","1241569","0.0-3.0-5.0-1.1","5fadd628cd4e9e1c42dab969","B2","batch2","pattern_response","883.5","stim/yes_49_hor_w1_b.png","f","pattern_70","f","true","","","","883.5","true","2","","","","","","","","","","","","","","","","",""
"","","","","","html-keyboard-response","149","1242895","0.0-3.0-5.0-0.2","5fadd628cd4e9e1c42dab969","B2","batch2","pattern_show_trial_num","null","<p class=block-text>Trial 3 out of 78</p>","null","","","","","","","","","","","","","","","","","","","","","","","","","",""
"","","","","","image-keyboard-response","150","1243741","0.0-3.0-5.0-1.2","5fadd628cd4e9e1c42dab969","B2","batch2","pattern_response","843.0999999046326","stim/yes_30_ver_b1_b.png","f","pattern_54","f","true","","","","843.0999999046326","true","3","","","","","","","","","","","","","","","","",""
"","","","","","html-keyboard-response","151","1245058","0.0-3.0-5.0-0.3","5fadd628cd4e9e1c42dab969","B2","batch2","pattern_show_trial_num","null","<p class=block-text>Trial 4 out of 78</p>","null","","","","","","","","","","","","","","","","","","","","","","","","","",""
"","","","","","image-keyboard-response","152","1247956","0.0-3.0-5.0-1.3","5fadd628cd4e9e1c42dab969","B2","batch2","pattern_response","2894.5","stim/no_58_1_w.png","j","pattern_35","j","true","","","","2894.5","true","4","","","","","","","","","","","","","","","","",""
"","","","","","html-keyboard-response","153","1249284","0.0-3.0-5.0-0.4","5fadd628cd4e9e1c42dab969","B2","batch2","pattern_show_trial_num","null","<p class=block-text>Trial 5 out of 78</p>","null","","","","","","","","","","","","","","","","","","","","","","","","","",""
"","","","","","image-keyboard-response","154","1252077","0.0-3.0-5.0-1.4","5fadd628cd4e9e1c42dab969","B2","batch2","pattern_response","2789.300000190735","stim/no_37_2_w.png","j","pattern_19","j","true","","","","2789.300000190735","true","5","","","","","","","","","","","","","","","","",""
"","","","","","html-keyboard-response","155","1253394","0.0-3.0-5.0-0.5","5fadd628cd4e9e1c42dab969","B2","batch2","pattern_show_trial_num","null","<p class=block-text>Trial 6 out of 78</p>","null","","","","","","","","","","","","","","","","","","","","","","","","","",""
"","","","","","image-keyboard-response","156","1254170","0.0-3.0-5.0-1.5","5fadd628cd4e9e1c42dab969","B2","batch2","pattern_response","772.5999999046326","stim/yes_23_ver_b1.png","f","pattern_48","f","true","","","","772.5999999046326","true","6","","","","","","","","","","","","","","","","",""
"","","","","","html-keyboard-response","157","1255481","0.0-3.0-5.0-0.6","5fadd628cd4e9e1c42dab969","B2","batch2","pattern_show_trial_num","null","<p class=block-text>Trial 7 out of 78</p>","null","","","","","","","","","","","","","","","","","","","","","","","","","",""
"","","","","","image-keyboard-response","158","1257599","0.0-3.0-5.0-1.6","5fadd628cd4e9e1c42dab969","B2","batch2","pattern_response","2115.5","stim/no_39_1_w.png","j","pattern_21","j","true","","","","2115.5","true","7","","","","","","","","","","","","","","","","",""
"","","","","","html-keyboard-response","159","1258918","0.0-3.0-5.0-0.7","5fadd628cd4e9e1c42dab969","B2","batch2","pattern_show_trial_num","null","<p class=block-text>Trial 8 out of 78</p>","null","","","","","","","","","","","","","","","","","","","","","","","","","",""
"","","","","","image-keyboard-response","160","1262048","0.0-3.0-5.0-1.7","5fadd628cd4e9e1c42dab969","B2","batch2","pattern_response","3127.5999999046326","stim/yes_51_dia_b1.png","f","pattern_72","f","true","","","","3127.5999999046326","true","8","","","","","","","","","","","","","","","","",""
"","","","","","html-keyboard-response","161","1263377","0.0-3.0-5.0-0.8","5fadd628cd4e9e1c42dab969","B2","batch2","pattern_show_trial_num","null","<p class=block-text>Trial 9 out of 78</p>","null","","","","","","","","","","","","","","","","","","","","","","","","","",""
"","","","","","image-keyboard-response","162","1265516","0.0-3.0-5.0-1.8","5fadd628cd4e9e1c42dab969","B2","batch2","pattern_response","2134.800000190735","stim/no_33_1_b.png","j","pattern_15","j","true","","","","2134.800000190735","true","9","","","","","","","","","","","","","","","","",""
"","","","","","html-keyboard-response","163","1266838","0.0-3.0-5.0-0.9","5fadd628cd4e9e1c42dab969","B2","batch2","pattern_show_trial_num","null","<p class=block-text>Trial 10 out of 78</p>","null","","","","","","","","","","","","","","","","","","","","","","","","","",""
"","","","","","image-keyboard-response","164","1267770","0.0-3.0-5.0-1.9","5fadd628cd4e9e1c42dab969","B2","batch2","pattern_response","929.5","stim/no_12_1.png","j","pattern_01","j","true","","","","929.5","true","10","","","","","","","","","","","","","","","","",""
"","","","","","html-keyboard-response","165","1269084","0.0-3.0-5.0-0.10","5fadd628cd4e9e1c42dab969","B2","batch2","pattern_show_trial_num","null","<p class=block-text>Trial 11 out of 78</p>","null","","","","","","","","","","","","","","","","","","","","","","","","","",""
"","","","","","image-keyboard-response","166","1272149","0.0-3.0-5.0-1.10","5fadd628cd4e9e1c42dab969","B2","batch2","pattern_response","3062.5","stim/no_43_2_b.png","j","pattern_23","j","true","","","","3062.5","true","11","","","","","","","","","","","","","","","","",""
"","","","","","html-keyboard-response","167","1273477","0.0-3.0-5.0-0.11","5fadd628cd4e9e1c42dab969","B2","batch2","pattern_show_trial_num","null","<p class=block-text>Trial 12 out of 78</p>","null","","","","","","","","","","","","","","","","","","","","","","","","","",""
"","","","","","image-keyboard-response","168","1274436","0.0-3.0-5.0-1.11","5fadd628cd4e9e1c42dab969","B2","batch2","pattern_response","955.3999998569489","stim/yes_39_hor_w1_w.png","f","pattern_62","f","true","","","","955.3999998569489","true","12","","","","","","","","","","","","","","","","",""
"","","","","","html-keyboard-response","169","1275757","0.0-3.0-5.0-0.12","5fadd628cd4e9e1c42dab969","B2","batch2","pattern_show_trial_num","null","<p class=block-text>Trial 13 out of 78</p>","null","","","","","","","","","","","","","","","","","","","","","","","","","",""
"","","","","","image-keyboard-response","170","1276723","0.0-3.0-5.0-1.12","5fadd628cd4e9e1c42dab969","B2","batch2","pattern_response","963.1000001430511","stim/no_18_1_b.png","j","pattern_05","j","true","","","","963.1000001430511","true","13","","","","","","","","","","","","","","","","",""
"","","","","","html-keyboard-response","171","1278036","0.0-3.0-5.0-0.13","5fadd628cd4e9e1c42dab969","B2","batch2","pattern_show_trial_num","null","<p class=block-text>Trial 14 out of 78</p>","null","","","","","","","","","","","","","","","","","","","","","","","","","",""
"","","","","","image-keyboard-response","172","1280321","0.0-3.0-5.0-1.13","5fadd628cd4e9e1c42dab969","B2","batch2","pattern_response","2283","stim/yes_63_dia_b1.png","f","pattern_78","f","true","","","","2283","true","14","","","","","","","","","","","","","","","","",""
"","","","","","html-keyboard-response","173","1281646","0.0-3.0-5.0-0.14","5fadd628cd4e9e1c42dab969","B2","batch2","pattern_show_trial_num","null","<p class=block-text>Trial 15 out of 78</p>","null","","","","","","","","","","","","","","","","","","","","","","","","","",""
"","","","","","image-keyboard-response","174","1284778","0.0-3.0-5.0-1.14","5fadd628cd4e9e1c42dab969","B2","batch2","pattern_response","3128.5","stim/no_45_1_w.png","j","pattern_25","j","true","","","","3128.5","true","15","","","","","","","","","","","","","","","","",""
"","","","","","html-keyboard-response","175","1286106","0.0-3.0-5.0-0.15","5fadd628cd4e9e1c42dab969","B2","batch2","pattern_show_trial_num","null","<p class=block-text>Trial 16 out of 78</p>","null","","","","","","","","","","","","","","","","","","","","","","","","","",""
"","","","","","image-keyboard-response","176","1288037","0.0-3.0-5.0-1.15","5fadd628cd4e9e1c42dab969","B2","batch2","pattern_response","1927.0999999046326","stim/no_28_2.png","j","pattern_11","j","true","","","","1927.0999999046326","true","16","","","","","","","","","","","","","","","","",""
"","","","","","html-keyboard-response","177","1289350","0.0-3.0-5.0-0.16","5fadd628cd4e9e1c42dab969","B2","batch2","pattern_show_trial_num","null","<p class=block-text>Trial 17 out of 78</p>","null","","","","","","","","","","","","","","","","","","","","","","","","","",""
"","","","","","image-keyboard-response","178","1291615","0.0-3.0-5.0-1.16","5fadd628cd4e9e1c42dab969","B2","batch2","pattern_response","2261.9000000953674","stim/no_25_1_b.png","j","pattern_09","j","true","","","","2261.9000000953674","true","17","","","","","","","","","","","","","","","","",""
"","","","","","html-keyboard-response","179","1292943","0.0-3.0-5.0-0.17","5fadd628cd4e9e1c42dab969","B2","batch2","pattern_show_trial_num","null","<p class=block-text>Trial 18 out of 78</p>","null","","","","","","","","","","","","","","","","","","","","","","","","","",""
"","","","","","image-keyboard-response","180","1295748","0.0-3.0-5.0-1.17","5fadd628cd4e9e1c42dab969","B2","batch2","pattern_response","2802.4000000953674","stim/no_51_1.png","j","pattern_31","j","true","","","","2802.4000000953674","true","18","","","","","","","","","","","","","","","","",""
"","","","","","html-keyboard-response","181","1297070","0.0-3.0-5.0-0.18","5fadd628cd4e9e1c42dab969","B2","batch2","pattern_show_trial_num","null","<p class=block-text>Trial 19 out of 78</p>","null","","","","","","","","","","","","","","","","","","","","","","","","","",""
"","","","","","image-keyboard-response","182","1297716","0.0-3.0-5.0-1.18","5fadd628cd4e9e1c42dab969","B2","batch2","pattern_response","642","stim/yes_12_hor_w1_w.png","f","pattern_42","f","true","","","","642","true","19","","","","","","","","","","","","","","","","",""
"","","","","","html-keyboard-response","183","1299033","0.0-3.0-5.0-0.19","5fadd628cd4e9e1c42dab969","B2","batch2","pattern_show_trial_num","null","<p class=block-text>Trial 20 out of 78</p>","null","","","","","","","","","","","","","","","","","","","","","","","","","",""
"","","","","","image-keyboard-response","184","1303463","0.0-3.0-5.0-1.19","5fadd628cd4e9e1c42dab969","B2","batch2","pattern_response","4427.299999952316","stim/no_67_1.png","j","pattern_39","j","true","","","","4427.299999952316","true","20","","","","","","","","","","","","","","","","",""
"","","","","","html-keyboard-response","185","1304790","0.0-3.0-5.0-0.20","5fadd628cd4e9e1c42dab969","B2","batch2","pattern_show_trial_num","null","<p class=block-text>Trial 21 out of 78</p>","null","","","","","","","","","","","","","","","","","","","","","","","","","",""
"","","","","","image-keyboard-response","186","1306195","0.0-3.0-5.0-1.20","5fadd628cd4e9e1c42dab969","B2","batch2","pattern_response","1399.7999999523163","stim/no_15_1_w.png","j","pattern_03","j","true","","","","1399.7999999523163","true","21","","","","","","","","","","","","","","","","",""
"","","","","","html-keyboard-response","187","1307536","0.0-3.0-5.0-0.21","5fadd628cd4e9e1c42dab969","B2","batch2","pattern_show_trial_num","null","<p class=block-text>Trial 22 out of 78</p>","null","","","","","","","","","","","","","","","","","","","","","","","","","",""
"","","","","","image-keyboard-response","188","1308516","0.0-3.0-5.0-1.21","5fadd628cd4e9e1c42dab969","B2","batch2","pattern_response","976.4000000953674","stim/yes_26_dia_w2_w.png","f","pattern_50","f","true","","","","976.4000000953674","true","22","","","","","","","","","","","","","","","","",""
"","","","","","html-keyboard-response","189","1309833","0.0-3.0-5.0-0.22","5fadd628cd4e9e1c42dab969","B2","batch2","pattern_show_trial_num","null","<p class=block-text>Trial 23 out of 78</p>","null","","","","","","","","","","","","","","","","","","","","","","","","","",""
"","","","","","image-keyboard-response","190","1314282","0.0-3.0-5.0-1.22","5fadd628cd4e9e1c42dab969","B2","batch2","pattern_response","4446.299999952316","stim/yes_58_dia_w1_w.png","j","pattern_76","f","false","","","","4446.299999952316","false","22","","","","","","","","","","","","","","","","",""
"","","","","","html-keyboard-response","191","1315599","0.0-3.0-5.0-0.23","5fadd628cd4e9e1c42dab969","B2","batch2","pattern_show_trial_num","null","<p class=block-text>Trial 24 out of 78</p>","null","","","","","","","","","","","","","","","","","","","","","","","","","",""
"","","","","","image-keyboard-response","192","1316353","0.0-3.0-5.0-1.23","5fadd628cd4e9e1c42dab969","B2","batch2","pattern_response","750.4000000953674","stim/yes_36_ver_w1_w.png","f","pattern_58","f","true","","","","750.4000000953674","true","23","","","","","","","","","","","","","","","","",""
"","","","","","html-keyboard-response","193","1317669","0.0-3.0-5.0-0.24","5fadd628cd4e9e1c42dab969","B2","batch2","pattern_show_trial_num","null","<p class=block-text>Trial 25 out of 78</p>","null","","","","","","","","","","","","","","","","","","","","","","","","","",""
"","","","","","image-keyboard-response","194","1318380","0.0-3.0-5.0-1.24","5fadd628cd4e9e1c42dab969","B2","batch2","pattern_response","709","stim/yes_15_dia_b1u_b.png","f","pattern_44","f","true","","","","709","true","24","","","","","","","","","","","","","","","","",""
"","","","","","html-keyboard-response","195","1319698","0.0-3.0-5.0-0.25","5fadd628cd4e9e1c42dab969","B2","batch2","pattern_show_trial_num","null","<p class=block-text>Trial 26 out of 78</p>","null","","","","","","","","","","","","","","","","","","","","","","","","","",""
"","","","","","image-keyboard-response","196","1320874","0.0-3.0-5.0-1.25","5fadd628cd4e9e1c42dab969","B2","batch2","pattern_response","1173.2999999523163","stim/yes_42_dia_w1_w.png","f","pattern_64","f","true","","","","1173.2999999523163","true","25","","","","","","","","","","","","","","","","",""
"","","","","","html-keyboard-response","197","1322193","0.0-3.0-5.0-0.26","5fadd628cd4e9e1c42dab969","B2","batch2","pattern_show_trial_num","null","<p class=block-text>Trial 27 out of 78</p>","null","","","","","","","","","","","","","","","","","","","","","","","","","",""
"","","","","","image-keyboard-response","198","1325228","0.0-3.0-5.0-1.26","5fadd628cd4e9e1c42dab969","B2","batch2","pattern_response","3031.7000000476837","stim/no_49_2_b.png","j","pattern_29","j","true","","","","3031.7000000476837","true","26","","","","","","","","","","","","","","","","",""
"","","","","","html-keyboard-response","199","1326553","0.0-3.0-5.0-0.27","5fadd628cd4e9e1c42dab969","B2","batch2","pattern_show_trial_num","null","<p class=block-text>Trial 28 out of 78</p>","null","","","","","","","","","","","","","","","","","","","","","","","","","",""
"","","","","","image-keyboard-response","200","1327332","0.0-3.0-5.0-1.27","5fadd628cd4e9e1c42dab969","B2","batch2","pattern_response","775.5999999046326","stim/yes_29_hor_b1_b.png","f","pattern_52","f","true","","","","775.5999999046326","true","27","","","","","","","","","","","","","","","","",""
"","","","","","html-keyboard-response","201","1328649","0.0-3.0-5.0-0.28","5fadd628cd4e9e1c42dab969","B2","batch2","pattern_show_trial_num","null","<p class=block-text>Trial 29 out of 78</p>","null","","","","","","","","","","","","","","","","","","","","","","","","","",""
"","","","","","image-keyboard-response","202","1332365","0.0-3.0-5.0-1.28","5fadd628cd4e9e1c42dab969","B2","batch2","pattern_response","3712.9000000953674","stim/no_53_1_b.png","j","pattern_33","j","true","","","","3712.9000000953674","true","28","","","","","","","","","","","","","","","","",""
"","","","","","html-keyboard-response","203","1333691","0.0-3.0-5.0-0.29","5fadd628cd4e9e1c42dab969","B2","batch2","pattern_show_trial_num","null","<p class=block-text>Trial 30 out of 78</p>","null","","","","","","","","","","","","","","","","","","","","","","","","","",""
"","","","","","image-keyboard-response","204","1335060","0.0-3.0-5.0-1.29","5fadd628cd4e9e1c42dab969","B2","batch2","pattern_response","1367.2000000476837","stim/yes_53_ver_b1_b.png","f","pattern_74","f","true","","","","1367.2000000476837","true","29","","","","","","","","","","","","","","","","",""
"","","","","","html-keyboard-response","205","1336386","0.0-3.0-5.0-0.30","5fadd628cd4e9e1c42dab969","B2","batch2","pattern_show_trial_num","null","<p class=block-text>Trial 31 out of 78</p>","null","","","","","","","","","","","","","","","","","","","","","","","","","",""
"","","","","","image-keyboard-response","206","1337115","0.0-3.0-5.0-1.30","5fadd628cd4e9e1c42dab969","B2","batch2","pattern_response","726.5","stim/yes_17_ver_b1_b.png","f","pattern_46","f","true","","","","726.5","true","30","","","","","","","","","","","","","","","","",""
"","","","","","html-keyboard-response","207","1338432","0.0-3.0-5.0-0.31","5fadd628cd4e9e1c42dab969","B2","batch2","pattern_show_trial_num","null","<p class=block-text>Trial 32 out of 78</p>","null","","","","","","","","","","","","","","","","","","","","","","","","","",""
"","","","","","image-keyboard-response","208","1341955","0.0-3.0-5.0-1.31","5fadd628cd4e9e1c42dab969","B2","batch2","pattern_response","3519.2999999523163","stim/no_47_1_b.png","j","pattern_27","j","true","","","","3519.2999999523163","true","31","","","","","","","","","","","","","","","","",""
"","","","","","html-keyboard-response","209","1343274","0.0-3.0-5.0-0.32","5fadd628cd4e9e1c42dab969","B2","batch2","pattern_show_trial_num","null","<p class=block-text>Trial 33 out of 78</p>","null","","","","","","","","","","","","","","","","","","","","","","","","","",""
"","","","","","image-keyboard-response","210","1344607","0.0-3.0-5.0-1.32","5fadd628cd4e9e1c42dab969","B2","batch2","pattern_response","1328.7000000476837","stim/yes_70_ver_b1.png","f","pattern_80","f","true","","","","1328.7000000476837","true","32","","","","","","","","","","","","","","","","",""
"","","","","","html-keyboard-response","211","1345910","0.0-3.0-5.0-0.33","5fadd628cd4e9e1c42dab969","B2","batch2","pattern_show_trial_num","null","<p class=block-text>Trial 34 out of 78</p>","null","","","","","","","","","","","","","","","","","","","","","","","","","",""
"","","","","","image-keyboard-response","212","1346700","0.0-3.0-5.0-1.33","5fadd628cd4e9e1c42dab969","B2","batch2","pattern_response","785.8999998569489","stim/yes_37_hor_w1_w.png","f","pattern_60","f","true","","","","785.8999998569489","true","33","","","","","","","","","","","","","","","","",""
"","","","","","html-keyboard-response","213","1348016","0.0-3.0-5.0-0.34","5fadd628cd4e9e1c42dab969","B2","batch2","pattern_show_trial_num","null","<p class=block-text>Trial 35 out of 78</p>","null","","","","","","","","","","","","","","","","","","","","","","","","","",""
"","","","","","image-keyboard-response","214","1350323","0.0-3.0-5.0-1.34","5fadd628cd4e9e1c42dab969","B2","batch2","pattern_response","2304.2000000476837","stim/no_36_1_b.png","j","pattern_17","j","true","","","","2304.2000000476837","true","34","","","","","","","","","","","","","","","","",""
"","","","","","html-keyboard-response","215","1351643","0.0-3.0-5.0-0.35","5fadd628cd4e9e1c42dab969","B2","batch2","pattern_show_trial_num","null","<p class=block-text>Trial 36 out of 78</p>","null","","","","","","","","","","","","","","","","","","","","","","","","","",""
"","","","","","image-keyboard-response","216","1352546","0.0-3.0-5.0-1.35","5fadd628cd4e9e1c42dab969","B2","batch2","pattern_response","900","stim/yes_44_ver_w1_w.png","f","pattern_66","f","true","","","","900","true","35","","","","","","","","","","","","","","","","",""
"","","","","","html-keyboard-response","217","1353874","0.0-3.0-5.0-0.36","5fadd628cd4e9e1c42dab969","B2","batch2","pattern_show_trial_num","null","<p class=block-text>Trial 37 out of 78</p>","null","","","","","","","","","","","","","","","","","","","","","","","","","",""
"","","","","","image-keyboard-response","218","1354922","0.0-3.0-5.0-1.36","5fadd628cd4e9e1c42dab969","B2","batch2","pattern_response","1045.7999999523163","stim/yes_46_ver_b1_b.png","f","pattern_68","f","true","","","","1045.7999999523163","true","36","","","","","","","","","","","","","","","","",""
"","","","","","html-keyboard-response","219","1356236","0.0-3.0-5.0-0.37","5fadd628cd4e9e1c42dab969","B2","batch2","pattern_show_trial_num","null","<p class=block-text>Trial 38 out of 78</p>","null","","","","","","","","","","","","","","","","","","","","","","","","","",""
"","","","","","image-keyboard-response","220","1358084","0.0-3.0-5.0-1.37","5fadd628cd4e9e1c42dab969","B2","batch2","pattern_response","1845.5","stim/no_30_1_b.png","j","pattern_13","j","true","","","","1845.5","true","37","","","","","","","","","","","","","","","","",""
"","","","","","html-keyboard-response","221","1359397","0.0-3.0-5.0-0.38","5fadd628cd4e9e1c42dab969","B2","batch2","pattern_show_trial_num","null","<p class=block-text>Trial 39 out of 78</p>","null","","","","","","","","","","","","","","","","","","","","","","","","","",""
"","","","","","image-keyboard-response","222","1360849","0.0-3.0-5.0-1.38","5fadd628cd4e9e1c42dab969","B2","batch2","pattern_response","1448.7000000476837","stim/no_22_1_b.png","j","pattern_07","j","true","","","","1448.7000000476837","true","38","","","","","","","","","","","","","","","","",""
"","","","","","image-keyboard-response","223","1363431","0.0-3.0-6.0","5fadd628cd4e9e1c42dab969","B2","batch2","attention_check","2067.5","stim/empty_board.png","j","","j","true","","","","","","","500","[""f"",""j""]","","","","","","","","","","","","","","",""
"","","","","","html-keyboard-response","224","1364240","0.0-3.0-7.0-0.0","5fadd628cd4e9e1c42dab969","B2","batch2","pattern_show_trial_num","null","<p class=block-text>Trial 40 out of 78</p>","null","","","","","","","","","","","","","","","","","","","","","","","","","",""
"","","","","","image-keyboard-response","225","1367357","0.0-3.0-7.0-1.0","5fadd628cd4e9e1c42dab969","B2","batch2","pattern_response","3113.2000000476837","stim/no_55_1_w.png","j","pattern_34","j","true","","","","3113.2000000476837","true","39","","","","","","","","","","","","","","","","",""
"","","","","","html-keyboard-response","226","1368682","0.0-3.0-7.0-0.1","5fadd628cd4e9e1c42dab969","B2","batch2","pattern_show_trial_num","null","<p class=block-text>Trial 41 out of 78</p>","null","","","","","","","","","","","","","","","","","","","","","","","","","",""
"","","","","","image-keyboard-response","227","1370394","0.0-3.0-7.0-1.1","5fadd628cd4e9e1c42dab969","B2","batch2","pattern_response","1708.7999999523163","stim/no_23_1.png","j","pattern_08","j","true","","","","1708.7999999523163","true","40","","","","","","","","","","","","","","","","",""
"","","","","","html-keyboard-response","228","1371710","0.0-3.0-7.0-0.2","5fadd628cd4e9e1c42dab969","B2","batch2","pattern_show_trial_num","null","<p class=block-text>Trial 42 out of 78</p>","null","","","","","","","","","","","","","","","","","","","","","","","","","",""
"","","","","","image-keyboard-response","229","1374891","0.0-3.0-7.0-1.2","5fadd628cd4e9e1c42dab969","B2","batch2","pattern_response","3177.0999999046326","stim/no_38_1_b.png","j","pattern_20","j","true","","","","3177.0999999046326","true","41","","","","","","","","","","","","","","","","",""
"","","","","","html-keyboard-response","230","1376218","0.0-3.0-7.0-0.3","5fadd628cd4e9e1c42dab969","B2","batch2","pattern_show_trial_num","null","<p class=block-text>Trial 43 out of 78</p>","null","","","","","","","","","","","","","","","","","","","","","","","","","",""
"","","","","","image-keyboard-response","231","1379237","0.0-3.0-7.0-1.3","5fadd628cd4e9e1c42dab969","B2","batch2","pattern_response","3015.199999809265","stim/no_32_1_w.png","j","pattern_14","j","true","","","","3015.199999809265","true","42","","","","","","","","","","","","","","","","",""
"","","","","","html-keyboard-response","232","1380561","0.0-3.0-7.0-0.4","5fadd628cd4e9e1c42dab969","B2","batch2","pattern_show_trial_num","null","<p class=block-text>Trial 44 out of 78</p>","null","","","","","","","","","","","","","","","","","","","","","","","","","",""
"","","","","","image-keyboard-response","233","1384079","0.0-3.0-7.0-1.4","5fadd628cd4e9e1c42dab969","B2","batch2","pattern_response","3512.600000143051","stim/yes_50_dia_w1.png","j","pattern_71","f","false","","","","3512.600000143051","false","42","","","","","","","","","","","","","","","","",""
"","","","","","html-keyboard-response","234","1385402","0.0-3.0-7.0-0.5","5fadd628cd4e9e1c42dab969","B2","batch2","pattern_show_trial_num","null","<p class=block-text>Trial 45 out of 78</p>","null","","","","","","","","","","","","","","","","","","","","","","","","","",""
"","","","","","image-keyboard-response","235","1388968","0.0-3.0-7.0-1.5","5fadd628cd4e9e1c42dab969","B2","batch2","pattern_response","3561.5999999046326","stim/yes_55_hor_w1_w.png","j","pattern_75","f","false","","","","3561.5999999046326","false","42","","","","","","","","","","","","","","","","",""
"","","","","","html-keyboard-response","236","1390294","0.0-3.0-7.0-0.6","5fadd628cd4e9e1c42dab969","B2","batch2","pattern_show_trial_num","null","<p class=block-text>Trial 46 out of 78</p>","null","","","","","","","","","","","","","","","","","","","","","","","","","",""
"","","","","","image-keyboard-response","237","1391309","0.0-3.0-7.0-1.6","5fadd628cd4e9e1c42dab969","B2","batch2","pattern_response","1010.3999998569489","stim/yes_60_ver_b1_b.png","f","pattern_77","f","true","","","","1010.3999998569489","true","43","","","","","","","","","","","","","","","","",""
"","","","","","html-keyboard-response","238","1392624","0.0-3.0-7.0-0.7","5fadd628cd4e9e1c42dab969","B2","batch2","pattern_show_trial_num","null","<p class=block-text>Trial 47 out of 78</p>","null","","","","","","","","","","","","","","","","","","","","","","","","","",""
"","","","","","image-keyboard-response","239","1394664","0.0-3.0-7.0-1.7","5fadd628cd4e9e1c42dab969","B2","batch2","pattern_response","2036.9000000953674","stim/no_29_1_b.png","j","pattern_12","j","true","","","","2036.9000000953674","true","44","","","","","","","","","","","","","","","","",""
"","","","","","html-keyboard-response","240","1395986","0.0-3.0-7.0-0.8","5fadd628cd4e9e1c42dab969","B2","batch2","pattern_show_trial_num","null","<p class=block-text>Trial 48 out of 78</p>","null","","","","","","","","","","","","","","","","","","","","","","","","","",""
"","","","","","image-keyboard-response","241","1396777","0.0-3.0-7.0-1.8","5fadd628cd4e9e1c42dab969","B2","batch2","pattern_response","787.4000000953674","stim/yes_28_ver_b1.png","f","pattern_51","f","true","","","","787.4000000953674","true","45","","","","","","","","","","","","","","","","",""
"","","","","","html-keyboard-response","242","1398099","0.0-3.0-7.0-0.9","5fadd628cd4e9e1c42dab969","B2","batch2","pattern_show_trial_num","null","<p class=block-text>Trial 49 out of 78</p>","null","","","","","","","","","","","","","","","","","","","","","","","","","",""
"","","","","","image-keyboard-response","243","1399836","0.0-3.0-7.0-1.9","5fadd628cd4e9e1c42dab969","B2","batch2","pattern_response","1734.5","stim/no_26_1_w.png","j","pattern_10","j","true","","","","1734.5","true","46","","","","","","","","","","","","","","","","",""
"","","","","","html-keyboard-response","244","1401159","0.0-3.0-7.0-0.10","5fadd628cd4e9e1c42dab969","B2","batch2","pattern_show_trial_num","null","<p class=block-text>Trial 50 out of 78</p>","null","","","","","","","","","","","","","","","","","","","","","","","","","",""
"","","","","","image-keyboard-response","245","1404342","0.0-3.0-7.0-1.10","5fadd628cd4e9e1c42dab969","B2","batch2","pattern_response","3180","stim/yes_67_hor_b1.png","f","pattern_79","f","true","","","","3180","true","47","","","","","","","","","","","","","","","","",""
"","","","","","html-keyboard-response","246","1405665","0.0-3.0-7.0-0.11","5fadd628cd4e9e1c42dab969","B2","batch2","pattern_show_trial_num","null","<p class=block-text>Trial 51 out of 78</p>","null","","","","","","","","","","","","","","","","","","","","","","","","","",""
"","","","","","image-keyboard-response","247","1406586","0.0-3.0-7.0-1.11","5fadd628cd4e9e1c42dab969","B2","batch2","pattern_response","917.6999998092651","stim/no_13_2_b.png","j","pattern_02","j","true","","","","917.6999998092651","true","48","","","","","","","","","","","","","","","","",""
"","","","","","html-keyboard-response","248","1407914","0.0-3.0-7.0-0.12","5fadd628cd4e9e1c42dab969","B2","batch2","pattern_show_trial_num","null","<p class=block-text>Trial 52 out of 78</p>","null","","","","","","","","","","","","","","","","","","","","","","","","","",""
"","","","","","image-keyboard-response","249","1411977","0.0-3.0-7.0-1.12","5fadd628cd4e9e1c42dab969","B2","batch2","pattern_response","4060.600000143051","stim/no_50_1.png","j","pattern_30","j","true","","","","4060.600000143051","true","49","","","","","","","","","","","","","","","","",""
"","","","","","html-keyboard-response","250","1413305","0.0-3.0-7.0-0.13","5fadd628cd4e9e1c42dab969","B2","batch2","pattern_show_trial_num","null","<p class=block-text>Trial 53 out of 78</p>","null","","","","","","","","","","","","","","","","","","","","","","","","","",""
"","","","","","image-keyboard-response","251","1415249","0.0-3.0-7.0-1.13","5fadd628cd4e9e1c42dab969","B2","batch2","pattern_response","1940.2999999523163","stim/yes_31_hor_b1.png","f","pattern_55","f","true","","","","1940.2999999523163","true","50","","","","","","","","","","","","","","","","",""
"","","","","","html-keyboard-response","252","1416567","0.0-3.0-7.0-0.14","5fadd628cd4e9e1c42dab969","B2","batch2","pattern_show_trial_num","null","<p class=block-text>Trial 54 out of 78</p>","null","","","","","","","","","","","","","","","","","","","","","","","","","",""
"","","","","","image-keyboard-response","253","1417226","0.0-3.0-7.0-1.14","5fadd628cd4e9e1c42dab969","B2","batch2","pattern_response","654.5","stim/yes_25_hor_b1_b.png","f","pattern_49","f","true","","","","654.5","true","51","","","","","","","","","","","","","","","","",""
"","","","","","html-keyboard-response","254","1418546","0.0-3.0-7.0-0.15","5fadd628cd4e9e1c42dab969","B2","batch2","pattern_show_trial_num","null","<p class=block-text>Trial 55 out of 78</p>","null","","","","","","","","","","","","","","","","","","","","","","","","","",""
"","","","","","image-keyboard-response","255","1420323","0.0-3.0-7.0-1.15","5fadd628cd4e9e1c42dab969","B2","batch2","pattern_response","1773.7000000476837","stim/yes_38_hor_b1_b.png","f","pattern_61","f","true","","","","1773.7000000476837","true","52","","","","","","","","","","","","","","","","",""
"","","","","","html-keyboard-response","256","1421641","0.0-3.0-7.0-0.16","5fadd628cd4e9e1c42dab969","B2","batch2","pattern_show_trial_num","null","<p class=block-text>Trial 56 out of 78</p>","null","","","","","","","","","","","","","","","","","","","","","","","","","",""
"","","","","","image-keyboard-response","257","1424904","0.0-3.0-7.0-1.16","5fadd628cd4e9e1c42dab969","B2","batch2","pattern_response","3259.600000143051","stim/no_48_1_w.png","j","pattern_28","j","true","","","","3259.600000143051","true","53","","","","","","","","","","","","","","","","",""
"","","","","","html-keyboard-response","258","1426218","0.0-3.0-7.0-0.17","5fadd628cd4e9e1c42dab969","B2","batch2","pattern_show_trial_num","null","<p class=block-text>Trial 57 out of 78</p>","null","","","","","","","","","","","","","","","","","","","","","","","","","",""
"","","","","","image-keyboard-response","259","1431202","0.0-3.0-7.0-1.17","5fadd628cd4e9e1c42dab969","B2","batch2","pattern_response","4980.399999856949","stim/no_62_1_w.png","j","pattern_36","j","true","","","","4980.399999856949","true","54","","","","","","","","","","","","","","","","",""
"","","","","","html-keyboard-response","260","1432522","0.0-3.0-7.0-0.18","5fadd628cd4e9e1c42dab969","B2","batch2","pattern_show_trial_num","null","<p class=block-text>Trial 58 out of 78</p>","null","","","","","","","","","","","","","","","","","","","","","","","","","",""
"","","","","","image-keyboard-response","261","1433685","0.0-3.0-7.0-1.18","5fadd628cd4e9e1c42dab969","B2","batch2","pattern_response","1159.5","stim/no_17_1_w.png","j","pattern_04","j","true","","","","1159.5","true","55","","","","","","","","","","","","","","","","",""
"","","","","","html-keyboard-response","262","1435002","0.0-3.0-7.0-0.19","5fadd628cd4e9e1c42dab969","B2","batch2","pattern_show_trial_num","null","<p class=block-text>Trial 59 out of 78</p>","null","","","","","","","","","","","","","","","","","","","","","","","","","",""
"","","","","","image-keyboard-response","263","1435654","0.0-3.0-7.0-1.19","5fadd628cd4e9e1c42dab969","B2","batch2","pattern_response","649.1000001430511","stim/yes_22_ver_w1.png","f","pattern_47","f","true","","","","649.1000001430511","true","56","","","","","","","","","","","","","","","","",""
"","","","","","html-keyboard-response","264","1436979","0.0-3.0-7.0-0.20","5fadd628cd4e9e1c42dab969","B2","batch2","pattern_show_trial_num","null","<p class=block-text>Trial 60 out of 78</p>","null","","","","","","","","","","","","","","","","","","","","","","","","","",""
"","","","","","image-keyboard-response","265","1438665","0.0-3.0-7.0-1.20","5fadd628cd4e9e1c42dab969","B2","batch2","pattern_response","1683.2000000476837","stim/yes_48_dia_w1_w.png","f","pattern_69","f","true","","","","1683.2000000476837","true","57","","","","","","","","","","","","","","","","",""
"","","","","","html-keyboard-response","266","1439993","0.0-3.0-7.0-0.21","5fadd628cd4e9e1c42dab969","B2","batch2","pattern_show_trial_num","null","<p class=block-text>Trial 61 out of 78</p>","null","","","","","","","","","","","","","","","","","","","","","","","","","",""
"","","","","","image-keyboard-response","267","1441518","0.0-3.0-7.0-1.21","5fadd628cd4e9e1c42dab969","B2","batch2","pattern_response","1521.6000001430511","stim/yes_52_ver_w1.png","f","pattern_73","f","true","","","","1521.6000001430511","true","58","","","","","","","","","","","","","","","","",""
"","","","","","html-keyboard-response","268","1442839","0.0-3.0-7.0-0.22","5fadd628cd4e9e1c42dab969","B2","batch2","pattern_show_trial_num","null","<p class=block-text>Trial 62 out of 78</p>","null","","","","","","","","","","","","","","","","","","","","","","","","","",""
"","","","","","image-keyboard-response","269","1447164","0.0-3.0-7.0-1.22","5fadd628cd4e9e1c42dab969","B2","batch2","pattern_response","4321.800000190735","stim/no_46_1_b.png","j","pattern_26","j","true","","","","4321.800000190735","true","59","","","","","","","","","","","","","","","","",""
"","","","","","html-keyboard-response","270","1448479","0.0-3.0-7.0-0.23","5fadd628cd4e9e1c42dab969","B2","batch2","pattern_show_trial_num","null","<p class=block-text>Trial 63 out of 78</p>","null","","","","","","","","","","","","","","","","","","","","","","","","","",""
"","","","","","image-keyboard-response","271","1449746","0.0-3.0-7.0-1.23","5fadd628cd4e9e1c42dab969","B2","batch2","pattern_response","1262.8999998569489","stim/no_20_1_w.png","j","pattern_06","j","true","","","","1262.8999998569489","true","60","","","","","","","","","","","","","","","","",""
"","","","","","html-keyboard-response","272","1451057","0.0-3.0-7.0-0.24","5fadd628cd4e9e1c42dab969","B2","batch2","pattern_show_trial_num","null","<p class=block-text>Trial 64 out of 78</p>","null","","","","","","","","","","","","","","","","","","","","","","","","","",""
"","","","","","image-keyboard-response","273","1455272","0.0-3.0-7.0-1.24","5fadd628cd4e9e1c42dab969","B2","batch2","pattern_response","4211.400000095367","stim/no_44_1.png","j","pattern_24","j","true","","","","4211.400000095367","true","61","","","","","","","","","","","","","","","","",""
"","","","","","html-keyboard-response","274","1456598","0.0-3.0-7.0-0.25","5fadd628cd4e9e1c42dab969","B2","batch2","pattern_show_trial_num","null","<p class=block-text>Trial 65 out of 78</p>","null","","","","","","","","","","","","","","","","","","","","","","","","","",""
"","","","","","image-keyboard-response","275","1460212","0.0-3.0-7.0-1.25","5fadd628cd4e9e1c42dab969","B2","batch2","pattern_response","3609.7000000476837","stim/yes_37_dia_w1.png","j","pattern_59","f","false","","","","3609.7000000476837","false","61","","","","","","","","","","","","","","","","",""
"","","","","","html-keyboard-response","276","1461541","0.0-3.0-7.0-0.26","5fadd628cd4e9e1c42dab969","B2","batch2","pattern_show_trial_num","null","<p class=block-text>Trial 66 out of 78</p>","null","","","","","","","","","","","","","","","","","","","","","","","","","",""
"","","","","","image-keyboard-response","277","1466684","0.0-3.0-7.0-1.26","5fadd628cd4e9e1c42dab969","B2","batch2","pattern_response","5139.099999904633","stim/no_70_2.png","j","pattern_40","j","true","","","","5139.099999904633","true","62","","","","","","","","","","","","","","","","",""
"","","","","","html-keyboard-response","278","1468013","0.0-3.0-7.0-0.27","5fadd628cd4e9e1c42dab969","B2","batch2","pattern_show_trial_num","null","<p class=block-text>Trial 67 out of 78</p>","null","","","","","","","","","","","","","","","","","","","","","","","","","",""
"","","","","","image-keyboard-response","279","1471461","0.0-3.0-7.0-1.27","5fadd628cd4e9e1c42dab969","B2","batch2","pattern_response","3444","stim/no_42_1_w.png","j","pattern_22","j","true","","","","3444","true","63","","","","","","","","","","","","","","","","",""
"","","","","","html-keyboard-response","280","1472787","0.0-3.0-7.0-0.28","5fadd628cd4e9e1c42dab969","B2","batch2","pattern_show_trial_num","null","<p class=block-text>Trial 68 out of 78</p>","null","","","","","","","","","","","","","","","","","","","","","","","","","",""
"","","","","","image-keyboard-response","281","1474097","0.0-3.0-7.0-1.28","5fadd628cd4e9e1c42dab969","B2","batch2","pattern_response","1306.7999999523163","stim/yes_45_hor_b2_b.png","f","pattern_67","f","true","","","","1306.7999999523163","true","64","","","","","","","","","","","","","","","","",""
"","","","","","html-keyboard-response","282","1475417","0.0-3.0-7.0-0.29","5fadd628cd4e9e1c42dab969","B2","batch2","pattern_show_trial_num","null","<p class=block-text>Trial 69 out of 78</p>","null","","","","","","","","","","","","","","","","","","","","","","","","","",""
"","","","","","image-keyboard-response","283","1476153","0.0-3.0-7.0-1.29","5fadd628cd4e9e1c42dab969","B2","batch2","pattern_response","733.7999999523163","stim/yes_17_dia_w1.png","f","pattern_45","f","true","","","","733.7999999523163","true","65","","","","","","","","","","","","","","","","",""
"","","","","","html-keyboard-response","284","1477479","0.0-3.0-7.0-0.30","5fadd628cd4e9e1c42dab969","B2","batch2","pattern_show_trial_num","null","<p class=block-text>Trial 70 out of 78</p>","null","","","","","","","","","","","","","","","","","","","","","","","","","",""
"","","","","","image-keyboard-response","285","1481902","0.0-3.0-7.0-1.30","5fadd628cd4e9e1c42dab969","B2","batch2","pattern_response","4420.799999952316","stim/no_52_1.png","j","pattern_32","j","true","","","","4420.799999952316","true","66","","","","","","","","","","","","","","","","",""
"","","","","","html-keyboard-response","286","1483220","0.0-3.0-7.0-0.31","5fadd628cd4e9e1c42dab969","B2","batch2","pattern_show_trial_num","null","<p class=block-text>Trial 71 out of 78</p>","null","","","","","","","","","","","","","","","","","","","","","","","","","",""
"","","","","","image-keyboard-response","287","1484954","0.0-3.0-7.0-1.31","5fadd628cd4e9e1c42dab969","B2","batch2","pattern_response","1729.7000000476837","stim/yes_40_dia_b1_b.png","f","pattern_63","f","true","","","","1729.7000000476837","true","67","","","","","","","","","","","","","","","","",""
"","","","","","html-keyboard-response","288","1486281","0.0-3.0-7.0-0.32","5fadd628cd4e9e1c42dab969","B2","batch2","pattern_show_trial_num","null","<p class=block-text>Trial 72 out of 78</p>","null","","","","","","","","","","","","","","","","","","","","","","","","","",""
"","","","","","image-keyboard-response","289","1489689","0.0-3.0-7.0-1.32","5fadd628cd4e9e1c42dab969","B2","batch2","pattern_response","3405.2999999523163","stim/no_36_2_w.png","j","pattern_18","j","true","","","","3405.2999999523163","true","68","","","","","","","","","","","","","","","","",""
"","","","","","html-keyboard-response","290","1491007","0.0-3.0-7.0-0.33","5fadd628cd4e9e1c42dab969","B2","batch2","pattern_show_trial_num","null","<p class=block-text>Trial 73 out of 78</p>","null","","","","","","","","","","","","","","","","","","","","","","","","","",""
"","","","","","image-keyboard-response","291","1492316","0.0-3.0-7.0-1.33","5fadd628cd4e9e1c42dab969","B2","batch2","pattern_response","1305.5","stim/yes_35_dia_b1.png","f","pattern_57","f","true","","","","1305.5","true","69","","","","","","","","","","","","","","","","",""
"","","","","","html-keyboard-response","292","1493635","0.0-3.0-7.0-0.34","5fadd628cd4e9e1c42dab969","B2","batch2","pattern_show_trial_num","null","<p class=block-text>Trial 74 out of 78</p>","null","","","","","","","","","","","","","","","","","","","","","","","","","",""
"","","","","","image-keyboard-response","293","1499391","0.0-3.0-7.0-1.34","5fadd628cd4e9e1c42dab969","B2","batch2","pattern_response","5760.400000095367","stim/no_65_1_b.png","j","pattern_38","j","true","","","","5760.400000095367","true","70","","","","","","","","","","","","","","","","",""
"","","","","","html-keyboard-response","294","1500733","0.0-3.0-7.0-0.35","5fadd628cd4e9e1c42dab969","B2","batch2","pattern_show_trial_num","null","<p class=block-text>Trial 75 out of 78</p>","null","","","","","","","","","","","","","","","","","","","","","","","","","",""
"","","","","","image-keyboard-response","295","1501739","0.0-3.0-7.0-1.35","5fadd628cd4e9e1c42dab969","B2","batch2","pattern_response","1002.3999998569489","stim/yes_29_ver_w1.png","f","pattern_53","f","true","","","","1002.3999998569489","true","71","","","","","","","","","","","","","","","","",""
"","","","","","html-keyboard-response","296","1503064","0.0-3.0-7.0-0.36","5fadd628cd4e9e1c42dab969","B2","batch2","pattern_show_trial_num","null","<p class=block-text>Trial 76 out of 78</p>","null","","","","","","","","","","","","","","","","","","","","","","","","","",""
"","","","","","image-keyboard-response","297","1503729","0.0-3.0-7.0-1.36","5fadd628cd4e9e1c42dab969","B2","batch2","pattern_response","663.2999999523163","stim/yes_14_hor_b1_w.png","f","pattern_43","f","true","","","","663.2999999523163","true","72","","","","","","","","","","","","","","","","",""
"","","","","","html-keyboard-response","298","1505042","0.0-3.0-7.0-0.37","5fadd628cd4e9e1c42dab969","B2","batch2","pattern_show_trial_num","null","<p class=block-text>Trial 77 out of 78</p>","null","","","","","","","","","","","","","","","","","","","","","","","","","",""
"","","","","","image-keyboard-response","299","1505838","0.0-3.0-7.0-1.37","5fadd628cd4e9e1c42dab969","B2","batch2","pattern_response","792.7000000476837","stim/yes_43_ver_w1_w.png","f","pattern_65","f","true","","","","792.7000000476837","true","73","","","","","","","","","","","","","","","","",""
"","","","","","html-keyboard-response","300","1507155","0.0-3.0-7.0-0.38","5fadd628cd4e9e1c42dab969","B2","batch2","pattern_show_trial_num","null","<p class=block-text>Trial 78 out of 78</p>","null","","","","","","","","","","","","","","","","","","","","","","","","","",""
"","","","","","image-keyboard-response","301","1511150","0.0-3.0-7.0-1.38","5fadd628cd4e9e1c42dab969","B2","batch2","pattern_response","3992.7000000476837","stim/no_34_1_b.png","j","pattern_16","j","true","","","","3992.7000000476837","true","74","","","","","","","","","","","","","","","","",""
"","","","","","html-button-response","302","1530725","0.0-3.0-8.0","5fadd628cd4e9e1c42dab969","B2","batch2","","19071.099999904633","<p class = block-text>This concludes the 4-in-a-row detection game.Thank you for your responses!<br>
            You responded correctly on 95% of the trials.<br>
            When you are ready, press ""Continue"" button to continue </p>","0","","","","","","","","","","","","","","","","","","","","","","","","","",""
"true","","","","","fullscreen","303","1534696","0.0-4.0-0.0","5fadd628cd4e9e1c42dab969","B2","batch2","","","","","","","","","","","","","","","","","","","","","","","","","","","","","",""
"","","","","","instructions","304","1625883","0.0-4.0-1.0-0.0-0.0","5fadd628cd4e9e1c42dab969","B2","batch2","tol-instructions","91179.5","","","","","","","","[{""page_index"":0,""viewing_time"":14145.299999952316},{""page_index"":1,""viewing_time"":10738},{""page_index"":2,""viewing_time"":9276.200000047684},{""page_index"":3,""viewing_time"":21809.89999985695},{""page_index"":4,""viewing_time"":14710},{""page_index"":5,""viewing_time"":16722},{""page_index"":6,""viewing_time"":3777.9000000953674}]","","","","","","","","","","","","","","","","","","","",""
"","","","","","html-button-response","305","1626935","0.0-4.0-1.0-1.0-0.0","5fadd628cd4e9e1c42dab969","B2","batch2","tol_enter_quiz","1051","<p class=block-text> Let's answer a few questions <br>","0","","","","","","","","","","","","","","","","","","","","","","","","","",""
"","","","","","html-button-response","306","1632967","0.0-4.0-1.0-1.0-1.0","5fadd628cd4e9e1c42dab969","B2","batch2","tol_quiz","6030.900000095367","<p class = block-text>True or False: You can only move the ball on top of a peg. <br></p>","0","","","true","","","","","","","","","","","","","","","","","","","","","","",""
"","","","","","html-button-response","307","1634781","0.0-4.0-1.0-1.0-2.0","5fadd628cd4e9e1c42dab969","B2","batch2","tol_quiz_feedback","1812.7000000476837","<p class = block-text>Correct! You can only move the ball on top of a peg.</p>","0","","","","","","","","","","","","","","","","","","","","","","","","","",""
"","","","","","html-button-response","308","1641693","0.0-4.0-1.0-1.0-3.0","5fadd628cd4e9e1c42dab969","B2","batch2","tol_quiz","6911.200000047684","<p class = block-text>True or False: You should try to match your board with the target board with fewest moves possible. <br></p>","0","","","true","","","","","","","","","","","","","","","","","","","","","","",""
"","","","","","html-button-response","309","1642549","0.0-4.0-1.0-1.0-4.0","5fadd628cd4e9e1c42dab969","B2","batch2","tol_quiz_feedback","855","<p class = block-text>Correct! </p>","0","","","","","","","","","","","","","","","","","","","","","","","","","",""
"","","","","","html-button-response","310","1644929","0.0-4.0-2.0","5fadd628cd4e9e1c42dab969","B2","batch2","","2379","<p class=block-text> Now that you've understood the game, let's practice a few easier examples before we start!<br> <br>","0","","","","","","","","","","","","","","","","","","","","","","","","","",""
"","","","","","single-stim-button","311","1647445","0.0-4.0-3.0-0.0","5fadd628cd4e9e1c42dab969","B2","batch2","tol_practice","2514","","","","","","","","","","","","","","tol_peg_2","2514","2514","0","[[1,2,0],[0,0],[0]]","1","[[1,2,0],[0,0],[3]]","practice","2514","","","","","",""
"","","","","","single-stim-button","312","1648920","0.0-4.0-3.0-1.0","5fadd628cd4e9e1c42dab969","B2","batch2","tol_practice","1473","","","","","","","","","","","","","","tol_peg_3","1473","1473","0","[[1,2,0],[0,0],[3]]","1","[[1,2,0],[0,0],[3]]","practice","1473","","","","","",""
"","","","","","poldrack-single-stim","313","1649923","0.0-4.0-4.0","5fadd628cd4e9e1c42dab969","B2","batch2","tol_feedback","-1","","","","","true","","","","","","","","","","1000","1000","500","","","","","","-1","none","true","","0",""
"","","","","","single-stim-button","314","1653837","0.0-4.0-5.0-0.0","5fadd628cd4e9e1c42dab969","B2","batch2","tol_practice","3912","","","","","","","","","","","","","","tol_peg_1","3912","3912","0","[[1,0,0],[3,0],[0]]","2","[[0,0,0],[3,1],[2]]","practice","3912","","","","","",""
"","","","","","single-stim-button","315","1654889","0.0-4.0-5.0-1.0","5fadd628cd4e9e1c42dab969","B2","batch2","tol_practice","1051","","","","","","","","","","","","","","tol_peg_3","1051","1051","0","[[1,0,0],[3,0],[2]]","2","[[0,0,0],[3,1],[2]]","practice","1051","","","","","",""
"","","","","","single-stim-button","316","1656459","0.0-4.0-5.1-0.1","5fadd628cd4e9e1c42dab969","B2","batch2","tol_practice","1569","","","","","","","","","","","","","","tol_peg_1","1569","1569","0","[[0,0,0],[3,0],[2]]","3","[[0,0,0],[3,1],[2]]","practice","1569","","","","","",""
"","","","","","single-stim-button","317","1657237","0.0-4.0-5.1-1.1","5fadd628cd4e9e1c42dab969","B2","batch2","tol_practice","777","","","","","","","","","","","","","","tol_peg_2","777","777","0","[[0,0,0],[3,1],[2]]","3","[[0,0,0],[3,1],[2]]","practice","777","","","","","",""
"","","","","","poldrack-single-stim","318","1658253","0.0-4.0-6.0","5fadd628cd4e9e1c42dab969","B2","batch2","tol_feedback","-1","","","","","true","","","","","","","","","","1000","1000","500","","","","","","-1","none","true","","0",""
"","","","","","single-stim-button","319","1661770","0.0-4.0-7.0-0.0","5fadd628cd4e9e1c42dab969","B2","batch2","tol_practice","3515","","","","","","","","","","","","","","tol_peg_2","3515","3515","0","[[1,2,0],[0,0],[0]]","4","[[1,0,0],[2,0],[3]]","practice","3515","","","","","",""
"","","","","","single-stim-button","320","1662507","0.0-4.0-7.0-1.0","5fadd628cd4e9e1c42dab969","B2","batch2","tol_practice","737","","","","","","","","","","","","","","tol_peg_3","737","737","0","[[1,2,0],[0,0],[3]]","4","[[1,0,0],[2,0],[3]]","practice","737","","","","","",""
"","","","","","single-stim-button","321","1663363","0.0-4.0-7.1-0.1","5fadd628cd4e9e1c42dab969","B2","batch2","tol_practice","855","","","","","","","","","","","","","","tol_peg_1","855","855","0","[[1,0,0],[0,0],[3]]","5","[[1,0,0],[2,0],[3]]","practice","855","","","","","",""
"","","","","","single-stim-button","322","1664063","0.0-4.0-7.1-1.1","5fadd628cd4e9e1c42dab969","B2","batch2","tol_practice","699","","","","","","","","","","","","","","tol_peg_2","699","699","0","[[1,0,0],[2,0],[3]]","5","[[1,0,0],[2,0],[3]]","practice","699","","","","","",""
"","","","","","poldrack-single-stim","323","1665072","0.0-4.0-8.0","5fadd628cd4e9e1c42dab969","B2","batch2","tol_feedback","-1","","","","","true","","","","","","","","","","1000","1000","500","","","","","","-1","none","true","","0",""
"","","","","","html-button-response","324","1670889","0.0-4.0-9.0","5fadd628cd4e9e1c42dab969","B2","batch2","tol_instruction","5816.399999856949","<div class = centerbox><p class = center-block-text>Great job! You are done with practice trials<br>You are about to start official trials.<br> <br> Problem <strong>1</strong> out of 25 problems</p></div>","0","","","","","","","","","","","","","","","","","","","","","","","","","",""
"","","","","","single-stim-button","325","1676913","0.0-4.0-10.0-0.0","5fadd628cd4e9e1c42dab969","B2","batch2","tol_tohand","5011","","","","","","","","","","","","","","tol_peg_2","5011","5011","0","[[1,2,0],[0,0],[0]]","1","[[1,3,0],[2,0],[0]]","0","0","","","","","","3"
"","","","","","single-stim-button","326","1680831","0.0-4.0-10.0-1.0","5fadd628cd4e9e1c42dab969","B2","batch2","tol_toboard","3917","","","","","","","","","","","","","","tol_peg_3","3917","3917","0","[[1,2,0],[0,0],[3]]","1","[[1,3,0],[2,0],[0]]","0","0","","","","","","3"
"","","","","","single-stim-button","327","1681617","0.0-4.0-10.1-0.1","5fadd628cd4e9e1c42dab969","B2","batch2","tol_tohand","785","","","","","","","","","","","","","","tol_peg_1","785","785","0","[[1,0,0],[0,0],[3]]","2","[[1,3,0],[2,0],[0]]","0","0","","","","","","3"
"","","","","","single-stim-button","328","1682803","0.0-4.0-10.1-1.1","5fadd628cd4e9e1c42dab969","B2","batch2","tol_toboard","1186","","","","","","","","","","","","","","tol_peg_2","1186","1186","0","[[1,0,0],[2,0],[3]]","2","[[1,3,0],[2,0],[0]]","0","0","","","","","","3"
"","","","","","single-stim-button","329","1683353","0.0-4.0-10.2-0.2","5fadd628cd4e9e1c42dab969","B2","batch2","tol_tohand","549","","","","","","","","","","","","","","tol_peg_3","549","549","0","[[1,0,0],[2,0],[0]]","3","[[1,3,0],[2,0],[0]]","0","0","","","","","","3"
"","","","","","single-stim-button","330","1684217","0.0-4.0-10.2-1.2","5fadd628cd4e9e1c42dab969","B2","batch2","tol_toboard","864","","","","","","","","","","","","","","tol_peg_1","864","864","0","[[1,3,0],[2,0],[0]]","3","[[1,3,0],[2,0],[0]]","0","0","","","","","","3"
"","","","","","poldrack-single-stim","331","1685234","0.0-4.0-11.0","5fadd628cd4e9e1c42dab969","B2","batch2","tol_feedback","-1","","","","","true","","","","","","","","","","1000","1000","500","","","","","","-1","none","true","5011","6345",""
"","","","","","html-button-response","332","1686179","0.0-4.0-12.0","5fadd628cd4e9e1c42dab969","B2","batch2","tol_trial_num","943.7999999523163","<div class = centerbox><p class = center-block-text>problem <strong>2</strong> out of 25 problems</p></div>","0","","","","","","","","","","","","","","","","","","","","","","","","","",""
"","","","","","single-stim-button","333","1697261","0.0-4.0-13.0-0.0","5fadd628cd4e9e1c42dab969","B2","batch2","tol_tohand","11081","","","","","","","","","","","","","","tol_peg_1","11081","11081","0","[[1,0,0],[3,0],[0]]","1","[[2,1,3],[0,0],[0]]","1","0","","","","","","5"
"","","","","","single-stim-button","334","1698259","0.0-4.0-13.0-1.0","5fadd628cd4e9e1c42dab969","B2","batch2","tol_toboard","997","","","","","","","","","","","","","","tol_peg_3","997","997","0","[[1,0,0],[3,0],[2]]","1","[[2,1,3],[0,0],[0]]","1","0","","","","","","5"
"","","","","","single-stim-button","335","1699037","0.0-4.0-13.1-0.1","5fadd628cd4e9e1c42dab969","B2","batch2","tol_tohand","777","","","","","","","","","","","","","","tol_peg_1","777","777","0","[[0,0,0],[3,0],[2]]","2","[[2,1,3],[0,0],[0]]","1","0","","","","","","5"
"","","","","","single-stim-button","336","1700223","0.0-4.0-13.1-1.1","5fadd628cd4e9e1c42dab969","B2","batch2","tol_toboard","1186","","","","","","","","","","","","","","tol_peg_2","1186","1186","0","[[0,0,0],[3,1],[2]]","2","[[2,1,3],[0,0],[0]]","1","0","","","","","","5"
"","","","","","single-stim-button","337","1700765","0.0-4.0-13.2-0.2","5fadd628cd4e9e1c42dab969","B2","batch2","tol_tohand","541","","","","","","","","","","","","","","tol_peg_3","541","541","0","[[0,0,0],[3,1],[0]]","3","[[2,1,3],[0,0],[0]]","1","0","","","","","","5"
"","","","","","single-stim-button","338","1702735","0.0-4.0-13.2-1.2","5fadd628cd4e9e1c42dab969","B2","batch2","tol_toboard","1969","","","","","","","","","","","","","","tol_peg_1","1969","1969","0","[[2,0,0],[3,1],[0]]","3","[[2,1,3],[0,0],[0]]","1","0","","","","","","5"
"","","","","","single-stim-button","339","1704353","0.0-4.0-13.3-0.3","5fadd628cd4e9e1c42dab969","B2","batch2","tol_tohand","1617","","","","","","","","","","","","","","tol_peg_2","1617","1617","0","[[2,0,0],[3,0],[0]]","4","[[2,1,3],[0,0],[0]]","1","0","","","","","","5"
"","","","","","single-stim-button","340","1705147","0.0-4.0-13.3-1.3","5fadd628cd4e9e1c42dab969","B2","batch2","tol_toboard","793","","","","","","","","","","","","","","tol_peg_1","793","793","0","[[2,1,0],[3,0],[0]]","4","[[2,1,3],[0,0],[0]]","1","0","","","","","","5"
"","","","","","single-stim-button","341","1705743","0.0-4.0-13.4-0.4","5fadd628cd4e9e1c42dab969","B2","batch2","tol_tohand","595","","","","","","","","","","","","","","tol_peg_2","595","595","0","[[2,1,0],[0,0],[0]]","5","[[2,1,3],[0,0],[0]]","1","0","","","","","","5"
"","","","","","single-stim-button","342","1706403","0.0-4.0-13.4-1.4","5fadd628cd4e9e1c42dab969","B2","batch2","tol_toboard","659","","","","","","","","","","","","","","tol_peg_1","659","659","0","[[2,1,3],[0,0],[0]]","5","[[2,1,3],[0,0],[0]]","1","0","","","","","","5"
"","","","","","poldrack-single-stim","343","1707408","0.0-4.0-14.0","5fadd628cd4e9e1c42dab969","B2","batch2","tol_feedback","-1","","","","","true","","","","","","","","","","1000","1000","500","","","","","","-1","none","true","11081","14611",""
"","","","","","html-button-response","344","1708365","0.0-4.0-15.0","5fadd628cd4e9e1c42dab969","B2","batch2","tol_trial_num","955.2999999523163","<div class = centerbox><p class = center-block-text>problem <strong>3</strong> out of 25 problems</p></div>","0","","","","","","","","","","","","","","","","","","","","","","","","","",""
"","","","","","single-stim-button","345","1710933","0.0-4.0-16.0-0.0","5fadd628cd4e9e1c42dab969","B2","batch2","tol_tohand","2568","","","","","","","","","","","","","","tol_peg_1","2568","2568","0","[[2,0,0],[0,0],[1]]","1","[[1,2,0],[3,0],[0]]","2","0","","","","","","4"
"","","","","","single-stim-button","346","1712105","0.0-4.0-16.0-1.0","5fadd628cd4e9e1c42dab969","B2","batch2","tol_toboard","1172","","","","","","","","","","","","","","tol_peg_2","1172","1172","0","[[2,0,0],[3,0],[1]]","1","[[1,2,0],[3,0],[0]]","2","0","","","","","","4"
"","","","","","single-stim-button","347","1716557","0.0-4.0-16.1-0.1","5fadd628cd4e9e1c42dab969","B2","batch2","tol_tohand","4451","","","","","","","","","","","","","","tol_peg_1","4451","4451","0","[[0,0,0],[3,0],[1]]","2","[[1,2,0],[3,0],[0]]","2","0","","","","","","4"
