"success","timeout","failed_images","failed_audio","failed_video","trial_type","trial_index","time_elapsed","internal_node_id","subject_id","study_id","session_id","view_history","rt","stimulus","response","task","correct","answer","item","fiar_detect_rt","fiar_detect_correct","total_correct_fiar_detect","post_trial_gap","choices","spm_correct","spm_rt","mouse_click","stim_duration","block_duration","timing_post_trial","current_position","tol_num_moves_made","tol_target","tol_problem_id","tol_rt","key_press","possible_responses","tol_correct","preplanning","tol_rt_per_trial","tol_min_moves"
"true","false","[]","[]","[]","preload","0","114","0.0-0.0","5fb1a1a3a8e4226b1354fd7f","E1","batch5","","","","","","","","","","","","","","","","","","","","","","","","","","","","","",""
"true","","","","","fullscreen","1","2904","0.0-1.0-0.0","5fb1a1a3a8e4226b1354fd7f","E1","batch5","","","","","","","","","","","","","","","","","","","","","","","","","","","","","",""
"true","","","","","fullscreen","2","5009","0.0-2.0-0.0","5fb1a1a3a8e4226b1354fd7f","E1","batch5","","","","","","","","","","","","","","","","","","","","","","","","","","","","","",""
"","","","","","instructions","3","10167","0.0-2.0-1.0-0.0","5fb1a1a3a8e4226b1354fd7f","E1","batch5","[{""page_index"":0,""viewing_time"":4195},{""page_index"":1,""viewing_time"":962}]","5157","","","","","","","","","","","","","","","","","","","","","","","","","","","",""
"","","","","","html-button-response","4","11144","0.0-2.0-1.0-1.0-0.0","5fb1a1a3a8e4226b1354fd7f","E1","batch5","","976.0000000000018","<p class=block-text> Let's answer a few questions <br>","0","pattern_enter_quiz","","","","","","","","","","","","","","","","","","","","","","","","",""
"","","","","","html-button-response","5","15133","0.0-2.0-1.0-1.0-1.0","5fb1a1a3a8e4226b1354fd7f","E1","batch5","","3988","<p class = block-text>True or False: You will have as much time as you want to make each choice. <br></p>","0","pattern_quiz","false","","","","","","","","","","","","","","","","","","","","","","","",""
"","","","","","html-button-response","6","16846","0.0-2.0-1.0-1.0-2.0","5fb1a1a3a8e4226b1354fd7f","E1","batch5","","1711.9999999999982","<p class = block-text>Incorrect. Remember, You should make your choice as fast as you can.</p>","0","pattern_quiz_feedback","","","","","","","","","","","","","","","","","","","","","","","","",""
"","","","","","html-button-response","7","24603","0.0-2.0-1.0-1.0-3.0","5fb1a1a3a8e4226b1354fd7f","E1","batch5","","7756","<p class = block-text>True or False: You will look for 4 pieces in black or white color connected in a row either horizontally, vertically or diagonally. <br></p>","0","pattern_quiz","true","","","","","","","","","","","","","","","","","","","","","","","",""
"","","","","","html-button-response","8","25733","0.0-2.0-1.0-1.0-4.0","5fb1a1a3a8e4226b1354fd7f","E1","batch5","","1127.0000000000036","<p class = block-text>Correct! </p>","0","pattern_quiz_feedback","","","","","","","","","","","","","","","","","","","","","","","","",""
"","","","","","html-button-response","9","26653","0.0-2.0-1.0-2.0-0.0","5fb1a1a3a8e4226b1354fd7f","E1","batch5","","919","<p class = block-text>You made too many incorrect choices.</p><p class = block-text>You will now repeat the instruction and quiz</p>","0","","","","","","","","","","","","","","","","","","","","","","","","","",""
"","","","","","instructions","10","28186","0.0-2.0-1.1-0.1","5fb1a1a3a8e4226b1354fd7f","E1","batch5","[{""page_index"":0,""viewing_time"":1243.0000000000036},{""page_index"":1,""viewing_time"":287.99999999999636}]","1531","","","","","","","","","","","","","","","","","","","","","","","","","","","",""
"","","","","","html-button-response","11","29637","0.0-2.0-1.1-1.1-0.1","5fb1a1a3a8e4226b1354fd7f","E1","batch5","","1450","<p class=block-text> Let's answer a few questions <br>","0","pattern_enter_quiz","","","","","","","","","","","","","","","","","","","","","","","","",""
"","","","","","html-button-response","12","32203","0.0-2.0-1.1-1.1-1.1","5fb1a1a3a8e4226b1354fd7f","E1","batch5","","2565","<p class = block-text>True or False: You will have as much time as you want to make each choice. <br></p>","1","pattern_quiz","true","","","","","","","","","","","","","","","","","","","","","","","",""
"","","","","","html-button-response","13","34289","0.0-2.0-1.1-1.1-2.1","5fb1a1a3a8e4226b1354fd7f","E1","batch5","","2085.0000000000036","<p class = block-text>Correct! You should make your choice <strong> as fast as you can</strong>.</p>","0","pattern_quiz_feedback","","","","","","","","","","","","","","","","","","","","","","","","",""
"","","","","","html-button-response","14","37639","0.0-2.0-1.1-1.1-3.1","5fb1a1a3a8e4226b1354fd7f","E1","batch5","","3349","<p class = block-text>True or False: You will look for 4 pieces in black or white color connected in a row either horizontally, vertically or diagonally. <br></p>","0","pattern_quiz","true","","","","","","","","","","","","","","","","","","","","","","","",""
"","","","","","html-button-response","15","38513","0.0-2.0-1.1-1.1-4.1","5fb1a1a3a8e4226b1354fd7f","E1","batch5","","872","<p class = block-text>Correct! </p>","0","pattern_quiz_feedback","","","","","","","","","","","","","","","","","","","","","","","","",""
"","","","","","html-button-response","16","41200","0.0-2.0-2.0","5fb1a1a3a8e4226b1354fd7f","E1","batch5","","2686","<p class=block-text> Now that you've understood the game, let's do a few practice trials before we start!<br> <br>","0","pattern_enter_practice","","","","","","","","","","","","","","","","","","","","","","","","",""
"","","","","","image-keyboard-response","17","48922","0.0-2.0-3.0-0.0","5fb1a1a3a8e4226b1354fd7f","E1","batch5","","7707","stim/prac_no_18_1.png","j","pattern_practice","true","j","","","","","","","","","","","","","","","","","","","","","","",""
"","","","","","html-keyboard-response","18","49926","0.0-2.0-3.0-1.0","5fb1a1a3a8e4226b1354fd7f","E1","batch5","","null","<p style=""font-size:30px;color:green;"">Correct!</p>","null","pattern_feedback","","","","","","","","","","","","","","","","","","","","","","","","",""
"","","","","","image-keyboard-response","19","53642","0.0-2.0-3.0-0.1","5fb1a1a3a8e4226b1354fd7f","E1","batch5","","3701","stim/prac_yes_18_hor_w1.png","f","pattern_practice","true","f","","","","","","","","","","","","","","","","","","","","","","",""
"","","","","","html-keyboard-response","20","54645","0.0-2.0-3.0-1.1","5fb1a1a3a8e4226b1354fd7f","E1","batch5","","null","<p style=""font-size:30px;color:green;"">Correct!</p>","null","pattern_feedback","","","","","","","","","","","","","","","","","","","","","","","","",""
"","","","","","image-keyboard-response","21","56110","0.0-2.0-3.0-0.2","5fb1a1a3a8e4226b1354fd7f","E1","batch5","","1448.9999999999927","stim/prac_yes_20_dia_b1.png","j","pattern_practice","false","f","","","","","","","","","","","","","","","","","","","","","","",""
"","","","","","html-keyboard-response","22","57113","0.0-2.0-3.0-1.2","5fb1a1a3a8e4226b1354fd7f","E1","batch5","","null","<p style=""font-size:30px;color:red;"">Wrong.</p>","null","pattern_feedback","","","","","","","","","","","","","","","","","","","","","","","","",""
"","","","","","image-keyboard-response","23","62383","0.0-2.0-3.0-0.3","5fb1a1a3a8e4226b1354fd7f","E1","batch5","","5254","stim/prac_no_16_1.png","j","pattern_practice","true","j","","","","","","","","","","","","","","","","","","","","","","",""
"","","","","","html-keyboard-response","24","63387","0.0-2.0-3.0-1.3","5fb1a1a3a8e4226b1354fd7f","E1","batch5","","null","<p style=""font-size:30px;color:green;"">Correct!</p>","null","pattern_feedback","","","","","","","","","","","","","","","","","","","","","","","","",""
"","","","","","image-keyboard-response","25","65078","0.0-2.0-3.0-0.4","5fb1a1a3a8e4226b1354fd7f","E1","batch5","","1676.0000000000073","stim/prac_yes_16_ver_w1.png","f","pattern_practice","true","f","","","","","","","","","","","","","","","","","","","","","","",""
"","","","","","html-keyboard-response","26","66082","0.0-2.0-3.0-1.4","5fb1a1a3a8e4226b1354fd7f","E1","batch5","","null","<p style=""font-size:30px;color:green;"">Correct!</p>","null","pattern_feedback","","","","","","","","","","","","","","","","","","","","","","","","",""
"","","","","","html-button-response","27","73276","0.0-2.0-4.0","5fb1a1a3a8e4226b1354fd7f","E1","batch5","","7192","<p class=block-text> Good job! You are done with practice trials!<br>
        You responded correctly on 80% of the trials.<br>
        Press the button below to start official trials. Now you won't see any feedback about your response</p>","0","pattern_enter_official_trials","","","","","","","","","","","","","","","","","","","","","","","","",""
"","","","","","html-keyboard-response","28","74077","0.0-2.0-5.0-0.0","5fb1a1a3a8e4226b1354fd7f","E1","batch5","","null","<p class=block-text>Trial 1 out of 78</p>","null","pattern_show_trial_num","","","","","","","","","","","","","","","","","","","","","","","","",""
"","","","","","image-keyboard-response","29","78642","0.0-2.0-5.0-1.0","5fb1a1a3a8e4226b1354fd7f","E1","batch5","","4550","stim/yes_26_dia_w2_w.png","f","pattern_response","true","f","pattern_50","4550","true","1","","","","","","","","","","","","","","","","","","",""
"","","","","","html-keyboard-response","30","79946","0.0-2.0-5.0-0.1","5fb1a1a3a8e4226b1354fd7f","E1","batch5","","null","<p class=block-text>Trial 2 out of 78</p>","null","pattern_show_trial_num","","","","","","","","","","","","","","","","","","","","","","","","",""
"","","","","","image-keyboard-response","31","83435","0.0-2.0-5.0-1.1","5fb1a1a3a8e4226b1354fd7f","E1","batch5","","3474","stim/no_22_1_b.png","j","pattern_response","true","j","pattern_07","3474","true","2","","","","","","","","","","","","","","","","","","",""
"","","","","","html-keyboard-response","32","84739","0.0-2.0-5.0-0.2","5fb1a1a3a8e4226b1354fd7f","E1","batch5","","null","<p class=block-text>Trial 3 out of 78</p>","null","pattern_show_trial_num","","","","","","","","","","","","","","","","","","","","","","","","",""
"","","","","","image-keyboard-response","33","86011","0.0-2.0-5.0-1.2","5fb1a1a3a8e4226b1354fd7f","E1","batch5","","1256.9999999999854","stim/yes_49_hor_w1_b.png","f","pattern_response","true","f","pattern_70","1256.9999999999854","true","3","","","","","","","","","","","","","","","","","","",""
"","","","","","html-keyboard-response","34","87314","0.0-2.0-5.0-0.3","5fb1a1a3a8e4226b1354fd7f","E1","batch5","","null","<p class=block-text>Trial 4 out of 78</p>","null","pattern_show_trial_num","","","","","","","","","","","","","","","","","","","","","","","","",""
"","","","","","image-keyboard-response","35","88642","0.0-2.0-5.0-1.3","5fb1a1a3a8e4226b1354fd7f","E1","batch5","","1312","stim/yes_23_ver_b1.png","f","pattern_response","true","f","pattern_48","1312","true","4","","","","","","","","","","","","","","","","","","",""
"","","","","","html-keyboard-response","36","89946","0.0-2.0-5.0-0.4","5fb1a1a3a8e4226b1354fd7f","E1","batch5","","null","<p class=block-text>Trial 5 out of 78</p>","null","pattern_show_trial_num","","","","","","","","","","","","","","","","","","","","","","","","",""
"","","","","","image-keyboard-response","37","91679","0.0-2.0-5.0-1.4","5fb1a1a3a8e4226b1354fd7f","E1","batch5","","1718","stim/no_43_2_b.png","f","pattern_response","false","j","pattern_23","1718","false","4","","","","","","","","","","","","","","","","","","",""
"","","","","","html-keyboard-response","38","92982","0.0-2.0-5.0-0.5","5fb1a1a3a8e4226b1354fd7f","E1","batch5","","null","<p class=block-text>Trial 6 out of 78</p>","null","pattern_show_trial_num","","","","","","","","","","","","","","","","","","","","","","","","",""
"","","","","","image-keyboard-response","39","96289","0.0-2.0-5.0-1.5","5fb1a1a3a8e4226b1354fd7f","E1","batch5","","3292","stim/no_51_1.png","f","pattern_response","false","j","pattern_31","3292","false","4","","","","","","","","","","","","","","","","","","",""
"","","","","","html-keyboard-response","40","97592","0.0-2.0-5.0-0.6","5fb1a1a3a8e4226b1354fd7f","E1","batch5","","null","<p class=block-text>Trial 7 out of 78</p>","null","pattern_show_trial_num","","","","","","","","","","","","","","","","","","","","","","","","",""
"","","","","","image-keyboard-response","41","99205","0.0-2.0-5.0-1.6","5fb1a1a3a8e4226b1354fd7f","E1","batch5","","1597","stim/yes_46_ver_b1_b.png","f","pattern_response","true","f","pattern_68","1597","true","5","","","","","","","","","","","","","","","","","","",""
"","","","","","html-keyboard-response","42","100508","0.0-2.0-5.0-0.7","5fb1a1a3a8e4226b1354fd7f","E1","batch5","","null","<p class=block-text>Trial 8 out of 78</p>","null","pattern_show_trial_num","","","","","","","","","","","","","","","","","","","","","","","","",""
"","","","","","image-keyboard-response","43","101897","0.0-2.0-5.0-1.7","5fb1a1a3a8e4226b1354fd7f","E1","batch5","","1373","stim/yes_70_ver_b1.png","f","pattern_response","true","f","pattern_80","1373","true","6","","","","","","","","","","","","","","","","","","",""
"","","","","","html-keyboard-response","44","103200","0.0-2.0-5.0-0.8","5fb1a1a3a8e4226b1354fd7f","E1","batch5","","null","<p class=block-text>Trial 9 out of 78</p>","null","pattern_show_trial_num","","","","","","","","","","","","","","","","","","","","","","","","",""
"","","","","","image-keyboard-response","45","106595","0.0-2.0-5.0-1.8","5fb1a1a3a8e4226b1354fd7f","E1","batch5","","3380","stim/no_28_2.png","f","pattern_response","false","j","pattern_11","3380","false","6","","","","","","","","","","","","","","","","","","",""
"","","","","","html-keyboard-response","46","107898","0.0-2.0-5.0-0.9","5fb1a1a3a8e4226b1354fd7f","E1","batch5","","null","<p class=block-text>Trial 10 out of 78</p>","null","pattern_show_trial_num","","","","","","","","","","","","","","","","","","","","","","","","",""
"","","","","","image-keyboard-response","47","108770","0.0-2.0-5.0-1.9","5fb1a1a3a8e4226b1354fd7f","E1","batch5","","856","stim/no_15_1_w.png","j","pattern_response","true","j","pattern_03","856","true","7","","","","","","","","","","","","","","","","","","",""
"","","","","","html-keyboard-response","48","110073","0.0-2.0-5.0-0.10","5fb1a1a3a8e4226b1354fd7f","E1","batch5","","null","<p class=block-text>Trial 11 out of 78</p>","null","pattern_show_trial_num","","","","","","","","","","","","","","","","","","","","","","","","",""
"","","","","","image-keyboard-response","49","110726","0.0-2.0-5.0-1.10","5fb1a1a3a8e4226b1354fd7f","E1","batch5","","638","stim/no_53_1_b.png","f","pattern_response","false","j","pattern_33","638","false","7","","","","","","","","","","","","","","","","","","",""
"","","","","","html-keyboard-response","50","112029","0.0-2.0-5.0-0.11","5fb1a1a3a8e4226b1354fd7f","E1","batch5","","null","<p class=block-text>Trial 12 out of 78</p>","null","pattern_show_trial_num","","","","","","","","","","","","","","","","","","","","","","","","",""
"","","","","","image-keyboard-response","51","112763","0.0-2.0-5.0-1.11","5fb1a1a3a8e4226b1354fd7f","E1","batch5","","719.0000000000146","stim/yes_39_hor_w1_w.png","f","pattern_response","true","f","pattern_62","719.0000000000146","true","8","","","","","","","","","","","","","","","","","","",""
"","","","","","html-keyboard-response","52","114065","0.0-2.0-5.0-0.12","5fb1a1a3a8e4226b1354fd7f","E1","batch5","","null","<p class=block-text>Trial 13 out of 78</p>","null","pattern_show_trial_num","","","","","","","","","","","","","","","","","","","","","","","","",""
"","","","","","image-keyboard-response","53","116284","0.0-2.0-5.0-1.12","5fb1a1a3a8e4226b1354fd7f","E1","batch5","","2203.0000000000146","stim/no_45_1_w.png","f","pattern_response","false","j","pattern_25","2203.0000000000146","false","8","","","","","","","","","","","","","","","","","","",""
"","","","","","html-keyboard-response","54","117587","0.0-2.0-5.0-0.13","5fb1a1a3a8e4226b1354fd7f","E1","batch5","","null","<p class=block-text>Trial 14 out of 78</p>","null","pattern_show_trial_num","","","","","","","","","","","","","","","","","","","","","","","","",""
"","","","","","image-keyboard-response","55","119001","0.0-2.0-5.0-1.13","5fb1a1a3a8e4226b1354fd7f","E1","batch5","","1399.0000000000146","stim/yes_36_ver_w1_w.png","f","pattern_response","true","f","pattern_58","1399.0000000000146","true","9","","","","","","","","","","","","","","","","","","",""
"","","","","","html-keyboard-response","56","120303","0.0-2.0-5.0-0.14","5fb1a1a3a8e4226b1354fd7f","E1","batch5","","null","<p class=block-text>Trial 15 out of 78</p>","null","pattern_show_trial_num","","","","","","","","","","","","","","","","","","","","","","","","",""
"","","","","","image-keyboard-response","57","122799","0.0-2.0-5.0-1.14","5fb1a1a3a8e4226b1354fd7f","E1","batch5","","2480.0000000000146","stim/no_18_1_b.png","f","pattern_response","false","j","pattern_05","2480.0000000000146","false","9","","","","","","","","","","","","","","","","","","",""
"","","","","","html-keyboard-response","58","124102","0.0-2.0-5.0-0.15","5fb1a1a3a8e4226b1354fd7f","E1","batch5","","null","<p class=block-text>Trial 16 out of 78</p>","null","pattern_show_trial_num","","","","","","","","","","","","","","","","","","","","","","","","",""
"","","","","","image-keyboard-response","59","125110","0.0-2.0-5.0-1.15","5fb1a1a3a8e4226b1354fd7f","E1","batch5","","992","stim/yes_29_hor_b1_b.png","f","pattern_response","true","f","pattern_52","992","true","10","","","","","","","","","","","","","","","","","","",""
"","","","","","html-keyboard-response","60","126413","0.0-2.0-5.0-0.16","5fb1a1a3a8e4226b1354fd7f","E1","batch5","","null","<p class=block-text>Trial 17 out of 78</p>","null","pattern_show_trial_num","","","","","","","","","","","","","","","","","","","","","","","","",""
"","","","","","image-keyboard-response","61","131295","0.0-2.0-5.0-1.16","5fb1a1a3a8e4226b1354fd7f","E1","batch5","","4867","stim/yes_33_dia_w1_w.png","f","pattern_response","true","f","pattern_56","4867","true","11","","","","","","","","","","","","","","","","","","",""
"","","","","","html-keyboard-response","62","132597","0.0-2.0-5.0-0.17","5fb1a1a3a8e4226b1354fd7f","E1","batch5","","null","<p class=block-text>Trial 18 out of 78</p>","null","pattern_show_trial_num","","","","","","","","","","","","","","","","","","","","","","","","",""
"","","","","","image-keyboard-response","63","134083","0.0-2.0-5.0-1.17","5fb1a1a3a8e4226b1354fd7f","E1","batch5","","1470","stim/yes_53_ver_b1_b.png","f","pattern_response","true","f","pattern_74","1470","true","12","","","","","","","","","","","","","","","","","","",""
"","","","","","html-keyboard-response","64","135386","0.0-2.0-5.0-0.18","5fb1a1a3a8e4226b1354fd7f","E1","batch5","","null","<p class=block-text>Trial 19 out of 78</p>","null","pattern_show_trial_num","","","","","","","","","","","","","","","","","","","","","","","","",""
"","","","","","image-keyboard-response","65","137356","0.0-2.0-5.0-1.18","5fb1a1a3a8e4226b1354fd7f","E1","batch5","","1955","stim/yes_37_hor_w1_w.png","f","pattern_response","true","f","pattern_60","1955","true","13","","","","","","","","","","","","","","","","","","",""
"","","","","","html-keyboard-response","66","138659","0.0-2.0-5.0-0.19","5fb1a1a3a8e4226b1354fd7f","E1","batch5","","null","<p class=block-text>Trial 20 out of 78</p>","null","pattern_show_trial_num","","","","","","","","","","","","","","","","","","","","","","","","",""
"","","","","","image-keyboard-response","67","139410","0.0-2.0-5.0-1.19","5fb1a1a3a8e4226b1354fd7f","E1","batch5","","736","stim/yes_15_dia_b1u_b.png","f","pattern_response","true","f","pattern_44","736","true","14","","","","","","","","","","","","","","","","","","",""
"","","","","","html-keyboard-response","68","140713","0.0-2.0-5.0-0.20","5fb1a1a3a8e4226b1354fd7f","E1","batch5","","null","<p class=block-text>Trial 21 out of 78</p>","null","pattern_show_trial_num","","","","","","","","","","","","","","","","","","","","","","","","",""
"","","","","","image-keyboard-response","69","141311","0.0-2.0-5.0-1.20","5fb1a1a3a8e4226b1354fd7f","E1","batch5","","582","stim/yes_12_hor_w1_w.png","f","pattern_response","true","f","pattern_42","582","true","15","","","","","","","","","","","","","","","","","","",""
"","","","","","html-keyboard-response","70","142615","0.0-2.0-5.0-0.21","5fb1a1a3a8e4226b1354fd7f","E1","batch5","","null","<p class=block-text>Trial 22 out of 78</p>","null","pattern_show_trial_num","","","","","","","","","","","","","","","","","","","","","","","","",""
"","","","","","image-keyboard-response","71","143763","0.0-2.0-5.0-1.21","5fb1a1a3a8e4226b1354fd7f","E1","batch5","","1133","stim/no_30_1_b.png","f","pattern_response","false","j","pattern_13","1133","false","15","","","","","","","","","","","","","","","","","","",""
"","","","","","html-keyboard-response","72","145066","0.0-2.0-5.0-0.22","5fb1a1a3a8e4226b1354fd7f","E1","batch5","","null","<p class=block-text>Trial 23 out of 78</p>","null","pattern_show_trial_num","","","","","","","","","","","","","","","","","","","","","","","","",""
"","","","","","image-keyboard-response","73","146158","0.0-2.0-5.0-1.22","5fb1a1a3a8e4226b1354fd7f","E1","batch5","","1076","stim/yes_42_dia_w1_w.png","f","pattern_response","true","f","pattern_64","1076","true","16","","","","","","","","","","","","","","","","","","",""
"","","","","","html-keyboard-response","74","147461","0.0-2.0-5.0-0.23","5fb1a1a3a8e4226b1354fd7f","E1","batch5","","null","<p class=block-text>Trial 24 out of 78</p>","null","pattern_show_trial_num","","","","","","","","","","","","","","","","","","","","","","","","",""
"","","","","","image-keyboard-response","75","150663","0.0-2.0-5.0-1.23","5fb1a1a3a8e4226b1354fd7f","E1","batch5","","3186.999999999971","stim/yes_63_dia_b1.png","f","pattern_response","true","f","pattern_78","3186.999999999971","true","17","","","","","","","","","","","","","","","","","","",""
"","","","","","html-keyboard-response","76","151965","0.0-2.0-5.0-0.24","5fb1a1a3a8e4226b1354fd7f","E1","batch5","","null","<p class=block-text>Trial 25 out of 78</p>","null","pattern_show_trial_num","","","","","","","","","","","","","","","","","","","","","","","","",""
"","","","","","image-keyboard-response","77","154781","0.0-2.0-5.0-1.24","5fb1a1a3a8e4226b1354fd7f","E1","batch5","","2800","stim/yes_44_ver_w1_w.png","j","pattern_response","false","f","pattern_66","2800","false","17","","","","","","","","","","","","","","","","","","",""
"","","","","","html-keyboard-response","78","156083","0.0-2.0-5.0-0.25","5fb1a1a3a8e4226b1354fd7f","E1","batch5","","null","<p class=block-text>Trial 26 out of 78</p>","null","pattern_show_trial_num","","","","","","","","","","","","","","","","","","","","","","","","",""
"","","","","","image-keyboard-response","79","158158","0.0-2.0-5.0-1.25","5fb1a1a3a8e4226b1354fd7f","E1","batch5","","2061","stim/no_33_1_b.png","j","pattern_response","true","j","pattern_15","2061","true","18","","","","","","","","","","","","","","","","","","",""
"","","","","","html-keyboard-response","80","159461","0.0-2.0-5.0-0.26","5fb1a1a3a8e4226b1354fd7f","E1","batch5","","null","<p class=block-text>Trial 27 out of 78</p>","null","pattern_show_trial_num","","","","","","","","","","","","","","","","","","","","","","","","",""
"","","","","","image-keyboard-response","81","160273","0.0-2.0-5.0-1.26","5fb1a1a3a8e4226b1354fd7f","E1","batch5","","796","stim/yes_30_ver_b1_b.png","f","pattern_response","true","f","pattern_54","796","true","19","","","","","","","","","","","","","","","","","","",""
"","","","","","html-keyboard-response","82","161575","0.0-2.0-5.0-0.27","5fb1a1a3a8e4226b1354fd7f","E1","batch5","","null","<p class=block-text>Trial 28 out of 78</p>","null","pattern_show_trial_num","","","","","","","","","","","","","","","","","","","","","","","","",""
"","","","","","image-keyboard-response","83","162512","0.0-2.0-5.0-1.27","5fb1a1a3a8e4226b1354fd7f","E1","batch5","","921.0000000000291","stim/no_25_1_b.png","f","pattern_response","false","j","pattern_09","921.0000000000291","false","19","","","","","","","","","","","","","","","","","","",""
"","","","","","html-keyboard-response","84","163815","0.0-2.0-5.0-0.28","5fb1a1a3a8e4226b1354fd7f","E1","batch5","","null","<p class=block-text>Trial 29 out of 78</p>","null","pattern_show_trial_num","","","","","","","","","","","","","","","","","","","","","","","","",""
"","","","","","image-keyboard-response","85","164950","0.0-2.0-5.0-1.28","5fb1a1a3a8e4226b1354fd7f","E1","batch5","","1120","stim/no_49_2_b.png","f","pattern_response","false","j","pattern_29","1120","false","19","","","","","","","","","","","","","","","","","","",""
"","","","","","html-keyboard-response","86","166252","0.0-2.0-5.0-0.29","5fb1a1a3a8e4226b1354fd7f","E1","batch5","","null","<p class=block-text>Trial 30 out of 78</p>","null","pattern_show_trial_num","","","","","","","","","","","","","","","","","","","","","","","","",""
"","","","","","image-keyboard-response","87","169111","0.0-2.0-5.0-1.29","5fb1a1a3a8e4226b1354fd7f","E1","batch5","","2842.999999999971","stim/no_36_1_b.png","j","pattern_response","true","j","pattern_17","2842.999999999971","true","20","","","","","","","","","","","","","","","","","","",""
"","","","","","html-keyboard-response","88","170413","0.0-2.0-5.0-0.30","5fb1a1a3a8e4226b1354fd7f","E1","batch5","","null","<p class=block-text>Trial 31 out of 78</p>","null","pattern_show_trial_num","","","","","","","","","","","","","","","","","","","","","","","","",""
"","","","","","image-keyboard-response","89","171727","0.0-2.0-5.0-1.30","5fb1a1a3a8e4226b1354fd7f","E1","batch5","","1298","stim/no_47_1_b.png","f","pattern_response","false","j","pattern_27","1298","false","20","","","","","","","","","","","","","","","","","","",""
"","","","","","html-keyboard-response","90","173030","0.0-2.0-5.0-0.31","5fb1a1a3a8e4226b1354fd7f","E1","batch5","","null","<p class=block-text>Trial 32 out of 78</p>","null","pattern_show_trial_num","","","","","","","","","","","","","","","","","","","","","","","","",""
"","","","","","image-keyboard-response","91","174728","0.0-2.0-5.0-1.31","5fb1a1a3a8e4226b1354fd7f","E1","batch5","","1682","stim/no_39_1_w.png","f","pattern_response","false","j","pattern_21","1682","false","20","","","","","","","","","","","","","","","","","","",""
"","","","","","html-keyboard-response","92","176031","0.0-2.0-5.0-0.32","5fb1a1a3a8e4226b1354fd7f","E1","batch5","","null","<p class=block-text>Trial 33 out of 78</p>","null","pattern_show_trial_num","","","","","","","","","","","","","","","","","","","","","","","","",""
"","","","","","image-keyboard-response","93","177328","0.0-2.0-5.0-1.32","5fb1a1a3a8e4226b1354fd7f","E1","batch5","","1281","stim/no_67_1.png","f","pattern_response","false","j","pattern_39","1281","false","20","","","","","","","","","","","","","","","","","","",""
"","","","","","html-keyboard-response","94","178631","0.0-2.0-5.0-0.33","5fb1a1a3a8e4226b1354fd7f","E1","batch5","","null","<p class=block-text>Trial 34 out of 78</p>","null","pattern_show_trial_num","","","","","","","","","","","","","","","","","","","","","","","","",""
"","","","","","image-keyboard-response","95","179643","0.0-2.0-5.0-1.33","5fb1a1a3a8e4226b1354fd7f","E1","batch5","","997.0000000000291","stim/no_12_1.png","j","pattern_response","true","j","pattern_01","997.0000000000291","true","21","","","","","","","","","","","","","","","","","","",""
"","","","","","html-keyboard-response","96","180946","0.0-2.0-5.0-0.34","5fb1a1a3a8e4226b1354fd7f","E1","batch5","","null","<p class=block-text>Trial 35 out of 78</p>","null","pattern_show_trial_num","","","","","","","","","","","","","","","","","","","","","","","","",""
"","","","","","image-keyboard-response","97","183997","0.0-2.0-5.0-1.34","5fb1a1a3a8e4226b1354fd7f","E1","batch5","","3036","stim/yes_51_dia_b1.png","f","pattern_response","true","f","pattern_72","3036","true","22","","","","","","","","","","","","","","","","","","",""
"","","","","","html-keyboard-response","98","185299","0.0-2.0-5.0-0.35","5fb1a1a3a8e4226b1354fd7f","E1","batch5","","null","<p class=block-text>Trial 36 out of 78</p>","null","pattern_show_trial_num","","","","","","","","","","","","","","","","","","","","","","","","",""
"","","","","","image-keyboard-response","99","186150","0.0-2.0-5.0-1.35","5fb1a1a3a8e4226b1354fd7f","E1","batch5","","835","stim/yes_17_ver_b1_b.png","f","pattern_response","true","f","pattern_46","835","true","23","","","","","","","","","","","","","","","","","","",""
"","","","","","html-keyboard-response","100","187453","0.0-2.0-5.0-0.36","5fb1a1a3a8e4226b1354fd7f","E1","batch5","","null","<p class=block-text>Trial 37 out of 78</p>","null","pattern_show_trial_num","","","","","","","","","","","","","","","","","","","","","","","","",""
"","","","","","image-keyboard-response","101","190935","0.0-2.0-5.0-1.36","5fb1a1a3a8e4226b1354fd7f","E1","batch5","","3467","stim/no_58_1_w.png","f","pattern_response","false","j","pattern_35","3467","false","23","","","","","","","","","","","","","","","","","","",""
"","","","","","html-keyboard-response","102","192239","0.0-2.0-5.0-0.37","5fb1a1a3a8e4226b1354fd7f","E1","batch5","","null","<p class=block-text>Trial 38 out of 78</p>","null","pattern_show_trial_num","","","","","","","","","","","","","","","","","","","","","","","","",""
"","","","","","image-keyboard-response","103","193393","0.0-2.0-5.0-1.37","5fb1a1a3a8e4226b1354fd7f","E1","batch5","","1140","stim/no_37_2_w.png","j","pattern_response","true","j","pattern_19","1140","true","24","","","","","","","","","","","","","","","","","","",""
"","","","","","html-keyboard-response","104","194696","0.0-2.0-5.0-0.38","5fb1a1a3a8e4226b1354fd7f","E1","batch5","","null","<p class=block-text>Trial 39 out of 78</p>","null","pattern_show_trial_num","","","","","","","","","","","","","","","","","","","","","","","","",""
"","","","","","image-keyboard-response","105","195667","0.0-2.0-5.0-1.38","5fb1a1a3a8e4226b1354fd7f","E1","batch5","","955","stim/yes_58_dia_w1_w.png","f","pattern_response","true","f","pattern_76","955","true","25","","","","","","","","","","","","","","","","","","",""
"","","","","","image-keyboard-response","106","198519","0.0-2.0-6.0","5fb1a1a3a8e4226b1354fd7f","E1","batch5","","2336","stim/empty_board.png","j","attention_check","true","j","","","","","500","[""f"",""j""]","","","","","","","","","","","","","","","","",""
"","","","","","html-keyboard-response","107","199321","0.0-2.0-7.0-0.0","5fb1a1a3a8e4226b1354fd7f","E1","batch5","","null","<p class=block-text>Trial 40 out of 78</p>","null","pattern_show_trial_num","","","","","","","","","","","","","","","","","","","","","","","","",""
"","","","","","image-keyboard-response","108","201115","0.0-2.0-7.0-1.0","5fb1a1a3a8e4226b1354fd7f","E1","batch5","","1778","stim/no_32_1_w.png","j","pattern_response","true","j","pattern_14","1778","true","26","","","","","","","","","","","","","","","","","","",""
"","","","","","html-keyboard-response","109","202418","0.0-2.0-7.0-0.1","5fb1a1a3a8e4226b1354fd7f","E1","batch5","","null","<p class=block-text>Trial 41 out of 78</p>","null","pattern_show_trial_num","","","","","","","","","","","","","","","","","","","","","","","","",""
"","","","","","image-keyboard-response","110","203698","0.0-2.0-7.0-1.1","5fb1a1a3a8e4226b1354fd7f","E1","batch5","","1265","stim/no_44_1.png","f","pattern_response","false","j","pattern_24","1265","false","26","","","","","","","","","","","","","","","","","","",""
"","","","","","html-keyboard-response","111","205001","0.0-2.0-7.0-0.2","5fb1a1a3a8e4226b1354fd7f","E1","batch5","","null","<p class=block-text>Trial 42 out of 78</p>","null","pattern_show_trial_num","","","","","","","","","","","","","","","","","","","","","","","","",""
"","","","","","image-keyboard-response","112","205843","0.0-2.0-7.0-1.2","5fb1a1a3a8e4226b1354fd7f","E1","batch5","","827","stim/no_52_1.png","f","pattern_response","false","j","pattern_32","827","false","26","","","","","","","","","","","","","","","","","","",""
"","","","","","html-keyboard-response","113","207146","0.0-2.0-7.0-0.3","5fb1a1a3a8e4226b1354fd7f","E1","batch5","","null","<p class=block-text>Trial 43 out of 78</p>","null","pattern_show_trial_num","","","","","","","","","","","","","","","","","","","","","","","","",""
"","","","","","image-keyboard-response","114","208161","0.0-2.0-7.0-1.3","5fb1a1a3a8e4226b1354fd7f","E1","batch5","","999.0000000000291","stim/yes_14_hor_b1_w.png","f","pattern_response","true","f","pattern_43","999.0000000000291","true","27","","","","","","","","","","","","","","","","","","",""
"","","","","","html-keyboard-response","115","209463","0.0-2.0-7.0-0.4","5fb1a1a3a8e4226b1354fd7f","E1","batch5","","null","<p class=block-text>Trial 44 out of 78</p>","null","pattern_show_trial_num","","","","","","","","","","","","","","","","","","","","","","","","",""
"","","","","","image-keyboard-response","116","211193","0.0-2.0-7.0-1.4","5fb1a1a3a8e4226b1354fd7f","E1","batch5","","1714","stim/no_50_1.png","f","pattern_response","false","j","pattern_30","1714","false","27","","","","","","","","","","","","","","","","","","",""
"","","","","","html-keyboard-response","117","212496","0.0-2.0-7.0-0.5","5fb1a1a3a8e4226b1354fd7f","E1","batch5","","null","<p class=block-text>Trial 45 out of 78</p>","null","pattern_show_trial_num","","","","","","","","","","","","","","","","","","","","","","","","",""
"","","","","","image-keyboard-response","118","213865","0.0-2.0-7.0-1.5","5fb1a1a3a8e4226b1354fd7f","E1","batch5","","1353.999999999971","stim/no_55_1_w.png","f","pattern_response","false","j","pattern_34","1353.999999999971","false","27","","","","","","","","","","","","","","","","","","",""
"","","","","","html-keyboard-response","119","215168","0.0-2.0-7.0-0.6","5fb1a1a3a8e4226b1354fd7f","E1","batch5","","null","<p class=block-text>Trial 46 out of 78</p>","null","pattern_show_trial_num","","","","","","","","","","","","","","","","","","","","","","","","",""
"","","","","","image-keyboard-response","120","216695","0.0-2.0-7.0-1.6","5fb1a1a3a8e4226b1354fd7f","E1","batch5","","1512.000000000029","stim/yes_22_ver_w1.png","f","pattern_response","true","f","pattern_47","1512.000000000029","true","28","","","","","","","","","","","","","","","","","","",""
"","","","","","html-keyboard-response","121","217998","0.0-2.0-7.0-0.7","5fb1a1a3a8e4226b1354fd7f","E1","batch5","","null","<p class=block-text>Trial 47 out of 78</p>","null","pattern_show_trial_num","","","","","","","","","","","","","","","","","","","","","","","","",""
"","","","","","image-keyboard-response","122","220329","0.0-2.0-7.0-1.7","5fb1a1a3a8e4226b1354fd7f","E1","batch5","","2315","stim/yes_52_ver_w1.png","f","pattern_response","true","f","pattern_73","2315","true","29","","","","","","","","","","","","","","","","","","",""
"","","","","","html-keyboard-response","123","221631","0.0-2.0-7.0-0.8","5fb1a1a3a8e4226b1354fd7f","E1","batch5","","null","<p class=block-text>Trial 48 out of 78</p>","null","pattern_show_trial_num","","","","","","","","","","","","","","","","","","","","","","","","",""
"","","","","","image-keyboard-response","124","223700","0.0-2.0-7.0-1.8","5fb1a1a3a8e4226b1354fd7f","E1","batch5","","2053","stim/no_23_1.png","j","pattern_response","true","j","pattern_08","2053","true","30","","","","","","","","","","","","","","","","","","",""
"","","","","","html-keyboard-response","125","225003","0.0-2.0-7.0-0.9","5fb1a1a3a8e4226b1354fd7f","E1","batch5","","null","<p class=block-text>Trial 49 out of 78</p>","null","pattern_show_trial_num","","","","","","","","","","","","","","","","","","","","","","","","",""
"","","","","","image-keyboard-response","126","226902","0.0-2.0-7.0-1.9","5fb1a1a3a8e4226b1354fd7f","E1","batch5","","1883","stim/yes_31_hor_b1.png","f","pattern_response","true","f","pattern_55","1883","true","31","","","","","","","","","","","","","","","","","","",""
"","","","","","html-keyboard-response","127","228205","0.0-2.0-7.0-0.10","5fb1a1a3a8e4226b1354fd7f","E1","batch5","","null","<p class=block-text>Trial 50 out of 78</p>","null","pattern_show_trial_num","","","","","","","","","","","","","","","","","","","","","","","","",""
"","","","","","image-keyboard-response","128","229103","0.0-2.0-7.0-1.10","5fb1a1a3a8e4226b1354fd7f","E1","batch5","","882.9999999999709","stim/yes_45_hor_b2_b.png","f","pattern_response","true","f","pattern_67","882.9999999999709","true","32","","","","","","","","","","","","","","","","","","",""
"","","","","","html-keyboard-response","129","230406","0.0-2.0-7.0-0.11","5fb1a1a3a8e4226b1354fd7f","E1","batch5","","null","<p class=block-text>Trial 51 out of 78</p>","null","pattern_show_trial_num","","","","","","","","","","","","","","","","","","","","","","","","",""
"","","","","","image-keyboard-response","130","231571","0.0-2.0-7.0-1.11","5fb1a1a3a8e4226b1354fd7f","E1","batch5","","1150","stim/no_17_1_w.png","j","pattern_response","true","j","pattern_04","1150","true","33","","","","","","","","","","","","","","","","","","",""
"","","","","","html-keyboard-response","131","232874","0.0-2.0-7.0-0.12","5fb1a1a3a8e4226b1354fd7f","E1","batch5","","null","<p class=block-text>Trial 52 out of 78</p>","null","pattern_show_trial_num","","","","","","","","","","","","","","","","","","","","","","","","",""
"","","","","","image-keyboard-response","132","234007","0.0-2.0-7.0-1.12","5fb1a1a3a8e4226b1354fd7f","E1","batch5","","1117","stim/no_20_1_w.png","f","pattern_response","false","j","pattern_06","1117","false","33","","","","","","","","","","","","","","","","","","",""
"","","","","","html-keyboard-response","133","235309","0.0-2.0-7.0-0.13","5fb1a1a3a8e4226b1354fd7f","E1","batch5","","null","<p class=block-text>Trial 53 out of 78</p>","null","pattern_show_trial_num","","","","","","","","","","","","","","","","","","","","","","","","",""
"","","","","","image-keyboard-response","134","236155","0.0-2.0-7.0-1.13","5fb1a1a3a8e4226b1354fd7f","E1","batch5","","830.0000000000291","stim/no_46_1_b.png","f","pattern_response","false","j","pattern_26","830.0000000000291","false","33","","","","","","","","","","","","","","","","","","",""
"","","","","","html-keyboard-response","135","237458","0.0-2.0-7.0-0.14","5fb1a1a3a8e4226b1354fd7f","E1","batch5","","null","<p class=block-text>Trial 54 out of 78</p>","null","pattern_show_trial_num","","","","","","","","","","","","","","","","","","","","","","","","",""
"","","","","","image-keyboard-response","136","238092","0.0-2.0-7.0-1.14","5fb1a1a3a8e4226b1354fd7f","E1","batch5","","619","stim/yes_48_dia_w1_w.png","f","pattern_response","true","f","pattern_69","619","true","34","","","","","","","","","","","","","","","","","","",""
"","","","","","html-keyboard-response","137","239394","0.0-2.0-7.0-0.15","5fb1a1a3a8e4226b1354fd7f","E1","batch5","","null","<p class=block-text>Trial 55 out of 78</p>","null","pattern_show_trial_num","","","","","","","","","","","","","","","","","","","","","","","","",""
"","","","","","image-keyboard-response","138","240288","0.0-2.0-7.0-1.15","5fb1a1a3a8e4226b1354fd7f","E1","batch5","","878","stim/yes_37_dia_w1.png","f","pattern_response","true","f","pattern_59","878","true","35","","","","","","","","","","","","","","","","","","",""
"","","","","","html-keyboard-response","139","241591","0.0-2.0-7.0-0.16","5fb1a1a3a8e4226b1354fd7f","E1","batch5","","null","<p class=block-text>Trial 56 out of 78</p>","null","pattern_show_trial_num","","","","","","","","","","","","","","","","","","","","","","","","",""
"","","","","","image-keyboard-response","140","242291","0.0-2.0-7.0-1.16","5fb1a1a3a8e4226b1354fd7f","E1","batch5","","683.9999999999709","stim/yes_28_ver_b1.png","f","pattern_response","true","f","pattern_51","683.9999999999709","true","36","","","","","","","","","","","","","","","","","","",""
"","","","","","html-keyboard-response","141","243594","0.0-2.0-7.0-0.17","5fb1a1a3a8e4226b1354fd7f","E1","batch5","","null","<p class=block-text>Trial 57 out of 78</p>","null","pattern_show_trial_num","","","","","","","","","","","","","","","","","","","","","","","","",""
"","","","","","image-keyboard-response","142","246244","0.0-2.0-7.0-1.17","5fb1a1a3a8e4226b1354fd7f","E1","batch5","","2635","stim/yes_43_ver_w1_w.png","j","pattern_response","false","f","pattern_65","2635","false","36","","","","","","","","","","","","","","","","","","",""
"","","","","","html-keyboard-response","143","247547","0.0-2.0-7.0-0.18","5fb1a1a3a8e4226b1354fd7f","E1","batch5","","null","<p class=block-text>Trial 58 out of 78</p>","null","pattern_show_trial_num","","","","","","","","","","","","","","","","","","","","","","","","",""
"","","","","","image-keyboard-response","144","249214","0.0-2.0-7.0-1.18","5fb1a1a3a8e4226b1354fd7f","E1","batch5","","1653","stim/no_34_1_b.png","f","pattern_response","false","j","pattern_16","1653","false","36","","","","","","","","","","","","","","","","","","",""
"","","","","","html-keyboard-response","145","250516","0.0-2.0-7.0-0.19","5fb1a1a3a8e4226b1354fd7f","E1","batch5","","null","<p class=block-text>Trial 59 out of 78</p>","null","pattern_show_trial_num","","","","","","","","","","","","","","","","","","","","","","","","",""
"","","","","","image-keyboard-response","146","251573","0.0-2.0-7.0-1.19","5fb1a1a3a8e4226b1354fd7f","E1","batch5","","1041","stim/no_48_1_w.png","f","pattern_response","false","j","pattern_28","1041","false","36","","","","","","","","","","","","","","","","","","",""
"","","","","","html-keyboard-response","147","252875","0.0-2.0-7.0-0.20","5fb1a1a3a8e4226b1354fd7f","E1","batch5","","null","<p class=block-text>Trial 60 out of 78</p>","null","pattern_show_trial_num","","","","","","","","","","","","","","","","","","","","","","","","",""
"","","","","","image-keyboard-response","148","253841","0.0-2.0-7.0-1.20","5fb1a1a3a8e4226b1354fd7f","E1","batch5","","950","stim/yes_60_ver_b1_b.png","f","pattern_response","true","f","pattern_77","950","true","37","","","","","","","","","","","","","","","","","","",""
"","","","","","html-keyboard-response","149","255144","0.0-2.0-7.0-0.21","5fb1a1a3a8e4226b1354fd7f","E1","batch5","","null","<p class=block-text>Trial 61 out of 78</p>","null","pattern_show_trial_num","","","","","","","","","","","","","","","","","","","","","","","","",""
"","","","","","image-keyboard-response","150","257184","0.0-2.0-7.0-1.21","5fb1a1a3a8e4226b1354fd7f","E1","batch5","","2024","stim/yes_25_hor_b1_b.png","j","pattern_response","false","f","pattern_49","2024","false","37","","","","","","","","","","","","","","","","","","",""
"","","","","","html-keyboard-response","151","258487","0.0-2.0-7.0-0.22","5fb1a1a3a8e4226b1354fd7f","E1","batch5","","null","<p class=block-text>Trial 62 out of 78</p>","null","pattern_show_trial_num","","","","","","","","","","","","","","","","","","","","","","","","",""
"","","","","","image-keyboard-response","152","259819","0.0-2.0-7.0-1.22","5fb1a1a3a8e4226b1354fd7f","E1","batch5","","1316.000000000029","stim/no_65_1_b.png","f","pattern_response","false","j","pattern_38","1316.000000000029","false","37","","","","","","","","","","","","","","","","","","",""
"","","","","","html-keyboard-response","153","261122","0.0-2.0-7.0-0.23","5fb1a1a3a8e4226b1354fd7f","E1","batch5","","null","<p class=block-text>Trial 63 out of 78</p>","null","pattern_show_trial_num","","","","","","","","","","","","","","","","","","","","","","","","",""
"","","","","","image-keyboard-response","154","265837","0.0-2.0-7.0-1.23","5fb1a1a3a8e4226b1354fd7f","E1","batch5","","4699","stim/yes_50_dia_w1.png","j","pattern_response","false","f","pattern_71","4699","false","37","","","","","","","","","","","","","","","","","","",""
"","","","","","html-keyboard-response","155","267140","0.0-2.0-7.0-0.24","5fb1a1a3a8e4226b1354fd7f","E1","batch5","","null","<p class=block-text>Trial 64 out of 78</p>","null","pattern_show_trial_num","","","","","","","","","","","","","","","","","","","","","","","","",""
"","","","","","image-keyboard-response","156","268470","0.0-2.0-7.0-1.24","5fb1a1a3a8e4226b1354fd7f","E1","batch5","","1314","stim/no_26_1_w.png","f","pattern_response","false","j","pattern_10","1314","false","37","","","","","","","","","","","","","","","","","","",""
"","","","","","html-keyboard-response","157","269773","0.0-2.0-7.0-0.25","5fb1a1a3a8e4226b1354fd7f","E1","batch5","","null","<p class=block-text>Trial 65 out of 78</p>","null","pattern_show_trial_num","","","","","","","","","","","","","","","","","","","","","","","","",""
"","","","","","image-keyboard-response","158","270821","0.0-2.0-7.0-1.25","5fb1a1a3a8e4226b1354fd7f","E1","batch5","","1033","stim/yes_38_hor_b1_b.png","f","pattern_response","true","f","pattern_61","1033","true","38","","","","","","","","","","","","","","","","","","",""
"","","","","","html-keyboard-response","159","272124","0.0-2.0-7.0-0.26","5fb1a1a3a8e4226b1354fd7f","E1","batch5","","null","<p class=block-text>Trial 66 out of 78</p>","null","pattern_show_trial_num","","","","","","","","","","","","","","","","","","","","","","","","",""
"","","","","","image-keyboard-response","160","274550","0.0-2.0-7.0-1.26","5fb1a1a3a8e4226b1354fd7f","E1","batch5","","2411","stim/yes_67_hor_b1.png","f","pattern_response","true","f","pattern_79","2411","true","39","","","","","","","","","","","","","","","","","","",""
"","","","","","html-keyboard-response","161","275853","0.0-2.0-7.0-0.27","5fb1a1a3a8e4226b1354fd7f","E1","batch5","","null","<p class=block-text>Trial 67 out of 78</p>","null","pattern_show_trial_num","","","","","","","","","","","","","","","","","","","","","","","","",""
"","","","","","image-keyboard-response","162","278597","0.0-2.0-7.0-1.27","5fb1a1a3a8e4226b1354fd7f","E1","batch5","","2728","stim/no_36_2_w.png","f","pattern_response","false","j","pattern_18","2728","false","39","","","","","","","","","","","","","","","","","","",""
"","","","","","html-keyboard-response","163","279899","0.0-2.0-7.0-0.28","5fb1a1a3a8e4226b1354fd7f","E1","batch5","","null","<p class=block-text>Trial 68 out of 78</p>","null","pattern_show_trial_num","","","","","","","","","","","","","","","","","","","","","","","","",""
"","","","","","image-keyboard-response","164","281116","0.0-2.0-7.0-1.28","5fb1a1a3a8e4226b1354fd7f","E1","batch5","","1202","stim/no_13_2_b.png","j","pattern_response","true","j","pattern_02","1202","true","40","","","","","","","","","","","","","","","","","","",""
"","","","","","html-keyboard-response","165","282419","0.0-2.0-7.0-0.29","5fb1a1a3a8e4226b1354fd7f","E1","batch5","","null","<p class=block-text>Trial 69 out of 78</p>","null","pattern_show_trial_num","","","","","","","","","","","","","","","","","","","","","","","","",""
"","","","","","image-keyboard-response","166","287211","0.0-2.0-7.0-1.29","5fb1a1a3a8e4226b1354fd7f","E1","batch5","","4773.000000000058","stim/no_38_1_b.png","j","pattern_response","true","j","pattern_20","4773.000000000058","true","41","","","","","","","","","","","","","","","","","","",""
"","","","","","html-keyboard-response","167","288513","0.0-2.0-7.0-0.30","5fb1a1a3a8e4226b1354fd7f","E1","batch5","","null","<p class=block-text>Trial 70 out of 78</p>","null","pattern_show_trial_num","","","","","","","","","","","","","","","","","","","","","","","","",""
"","","","","","image-keyboard-response","168","290388","0.0-2.0-7.0-1.30","5fb1a1a3a8e4226b1354fd7f","E1","batch5","","1859","stim/yes_35_dia_b1.png","f","pattern_response","true","f","pattern_57","1859","true","42","","","","","","","","","","","","","","","","","","",""
"","","","","","html-keyboard-response","169","291691","0.0-2.0-7.0-0.31","5fb1a1a3a8e4226b1354fd7f","E1","batch5","","null","<p class=block-text>Trial 71 out of 78</p>","null","pattern_show_trial_num","","","","","","","","","","","","","","","","","","","","","","","","",""
"","","","","","image-keyboard-response","170","293508","0.0-2.0-7.0-1.31","5fb1a1a3a8e4226b1354fd7f","E1","batch5","","1801","stim/no_29_1_b.png","j","pattern_response","true","j","pattern_12","1801","true","43","","","","","","","","","","","","","","","","","","",""
"","","","","","html-keyboard-response","171","294811","0.0-2.0-7.0-0.32","5fb1a1a3a8e4226b1354fd7f","E1","batch5","","null","<p class=block-text>Trial 72 out of 78</p>","null","pattern_show_trial_num","","","","","","","","","","","","","","","","","","","","","","","","",""
"","","","","","image-keyboard-response","172","297016","0.0-2.0-7.0-1.32","5fb1a1a3a8e4226b1354fd7f","E1","batch5","","2189","stim/yes_29_ver_w1.png","f","pattern_response","true","f","pattern_53","2189","true","44","","","","","","","","","","","","","","","","","","",""
"","","","","","html-keyboard-response","173","298319","0.0-2.0-7.0-0.33","5fb1a1a3a8e4226b1354fd7f","E1","batch5","","null","<p class=block-text>Trial 73 out of 78</p>","null","pattern_show_trial_num","","","","","","","","","","","","","","","","","","","","","","","","",""
"","","","","","image-keyboard-response","174","301096","0.0-2.0-7.0-1.33","5fb1a1a3a8e4226b1354fd7f","E1","batch5","","2761","stim/yes_55_hor_w1_w.png","f","pattern_response","true","f","pattern_75","2761","true","45","","","","","","","","","","","","","","","","","","",""
"","","","","","html-keyboard-response","175","302399","0.0-2.0-7.0-0.34","5fb1a1a3a8e4226b1354fd7f","E1","batch5","","null","<p class=block-text>Trial 74 out of 78</p>","null","pattern_show_trial_num","","","","","","","","","","","","","","","","","","","","","","","","",""
"","","","","","image-keyboard-response","176","303541","0.0-2.0-7.0-1.34","5fb1a1a3a8e4226b1354fd7f","E1","batch5","","1128","stim/no_42_1_w.png","f","pattern_response","false","j","pattern_22","1128","false","45","","","","","","","","","","","","","","","","","","",""
"","","","","","html-keyboard-response","177","304844","0.0-2.0-7.0-0.35","5fb1a1a3a8e4226b1354fd7f","E1","batch5","","null","<p class=block-text>Trial 75 out of 78</p>","null","pattern_show_trial_num","","","","","","","","","","","","","","","","","","","","","","","","",""
"","","","","","image-keyboard-response","178","308633","0.0-2.0-7.0-1.35","5fb1a1a3a8e4226b1354fd7f","E1","batch5","","3772.999999999942","stim/yes_40_dia_b1_b.png","j","pattern_response","false","f","pattern_63","3772.999999999942","false","45","","","","","","","","","","","","","","","","","","",""
"","","","","","html-keyboard-response","179","309936","0.0-2.0-7.0-0.36","5fb1a1a3a8e4226b1354fd7f","E1","batch5","","null","<p class=block-text>Trial 76 out of 78</p>","null","pattern_show_trial_num","","","","","","","","","","","","","","","","","","","","","","","","",""
"","","","","","image-keyboard-response","180","311224","0.0-2.0-7.0-1.36","5fb1a1a3a8e4226b1354fd7f","E1","batch5","","1273","stim/yes_17_dia_w1.png","f","pattern_response","true","f","pattern_45","1273","true","46","","","","","","","","","","","","","","","","","","",""
"","","","","","html-keyboard-response","181","312527","0.0-2.0-7.0-0.37","5fb1a1a3a8e4226b1354fd7f","E1","batch5","","null","<p class=block-text>Trial 77 out of 78</p>","null","pattern_show_trial_num","","","","","","","","","","","","","","","","","","","","","","","","",""
"","","","","","image-keyboard-response","182","314624","0.0-2.0-7.0-1.37","5fb1a1a3a8e4226b1354fd7f","E1","batch5","","2081","stim/no_62_1_w.png","f","pattern_response","false","j","pattern_36","2081","false","46","","","","","","","","","","","","","","","","","","",""
"","","","","","html-keyboard-response","183","315927","0.0-2.0-7.0-0.38","5fb1a1a3a8e4226b1354fd7f","E1","batch5","","null","<p class=block-text>Trial 78 out of 78</p>","null","pattern_show_trial_num","","","","","","","","","","","","","","","","","","","","","","","","",""
"","","","","","image-keyboard-response","184","318133","0.0-2.0-7.0-1.38","5fb1a1a3a8e4226b1354fd7f","E1","batch5","","2190","stim/no_70_2.png","j","pattern_response","true","j","pattern_40","2190","true","47","","","","","","","","","","","","","","","","","","",""
"","","","","","html-button-response","185","455915","0.0-2.0-8.0","5fb1a1a3a8e4226b1354fd7f","E1","batch5","","137248.00000000006","<p class = block-text>This concludes the 4-in-a-row detection game.Thank you for your responses!<br>
            You responded correctly on 60% of the trials.<br>
            When you are ready, press ""Continue"" button to continue </p>","0","","","","","","","","","","","","","","","","","","","","","","","","","",""
"true","","","","","fullscreen","186","459131","0.0-3.0-0.0","5fb1a1a3a8e4226b1354fd7f","E1","batch5","","","","","spm_fullscreen","","","","","","","","","","","","","","","","","","","","","","","","",""
"","","","","","html-button-response","187","462895","0.0-3.0-1.0","5fb1a1a3a8e4226b1354fd7f","E1","batch5","","3764","<p class = block-text><b>Instructions</b> <br>This is a widely used intelligence test in research. <br>In this test, a figure with a missing piece will be presented.<br>Below the figure are alternative pieces to complete the figure, only one of which is correct.<br> Different figures might involve different principles for obtaining the missing piece<br>Your job is to select the most logical piece to complete the figure.</p>","0","","","","","","","","","","","","","","","","","","","","","","","","","",""
"","","","","","html-keyboard-response","188","463698","0.0-3.0-2.0-0.0","5fb1a1a3a8e4226b1354fd7f","E1","batch5","","null","<p class=block-text>Trial 1 out of 60</p>","null","spm_show_trial_num","","","","","","","","","","","","","","","","","","","","","","","","",""
"","","","","","image-button-response","189","472042","0.0-3.0-2.0-1.0","5fb1a1a3a8e4226b1354fd7f","E1","batch5","","8334","img/question_1_1.jpeg","3","spm_respsonse","1","4","mat_01","","","","","","1","8334","","","","","","","","","","","","","","",""
"","","","","","html-keyboard-response","190","473095","0.0-3.0-2.0-0.1","5fb1a1a3a8e4226b1354fd7f","E1","batch5","","null","<p class=block-text>Trial 2 out of 60</p>","null","spm_show_trial_num","","","","","","","","","","","","","","","","","","","","","","","","",""
"","","","","","image-button-response","191","475332","0.0-3.0-2.0-1.1","5fb1a1a3a8e4226b1354fd7f","E1","batch5","","2228","img/question_1_2.jpeg","4","spm_respsonse","1","5","mat_02","","","","","","1","2228","","","","","","","","","","","","","","",""
"","","","","","html-keyboard-response","192","476384","0.0-3.0-2.0-0.2","5fb1a1a3a8e4226b1354fd7f","E1","batch5","","null","<p class=block-text>Trial 3 out of 60</p>","null","spm_show_trial_num","","","","","","","","","","","","","","","","","","","","","","","","",""
"","","","","","image-button-response","193","478618","0.0-3.0-2.0-1.2","5fb1a1a3a8e4226b1354fd7f","E1","batch5","","2226","img/question_1_3.jpeg","0","spm_respsonse","1","1","mat_03","","","","","","1","2226","","","","","","","","","","","","","","",""
"","","","","","html-keyboard-response","194","479671","0.0-3.0-2.0-0.3","5fb1a1a3a8e4226b1354fd7f","E1","batch5","","null","<p class=block-text>Trial 4 out of 60</p>","null","spm_show_trial_num","","","","","","","","","","","","","","","","","","","","","","","","",""
"","","","","","image-button-response","195","482161","0.0-3.0-2.0-1.3","5fb1a1a3a8e4226b1354fd7f","E1","batch5","","2480.000000000058","img/question_1_4.jpeg","1","spm_respsonse","1","2","mat_04","","","","","","1","2480.000000000058","","","","","","","","","","","","","","",""
"","","","","","html-keyboard-response","196","483213","0.0-3.0-2.0-0.4","5fb1a1a3a8e4226b1354fd7f","E1","batch5","","null","<p class=block-text>Trial 5 out of 60</p>","null","spm_show_trial_num","","","","","","","","","","","","","","","","","","","","","","","","",""
"","","","","","image-button-response","197","488276","0.0-3.0-2.0-1.4","5fb1a1a3a8e4226b1354fd7f","E1","batch5","","5053","img/question_1_5.jpeg","5","spm_respsonse","1","6","mat_05","","","","","","1","5053","","","","","","","","","","","","","","",""
"","","","","","html-keyboard-response","198","489329","0.0-3.0-2.0-0.5","5fb1a1a3a8e4226b1354fd7f","E1","batch5","","null","<p class=block-text>Trial 6 out of 60</p>","null","spm_show_trial_num","","","","","","","","","","","","","","","","","","","","","","","","",""
"","","","","","image-button-response","199","491575","0.0-3.0-2.0-1.5","5fb1a1a3a8e4226b1354fd7f","E1","batch5","","2235.999999999942","img/question_1_6.jpeg","2","spm_respsonse","1","3","mat_06","","","","","","1","2235.999999999942","","","","","","","","","","","","","","",""
"","","","","","html-keyboard-response","200","492627","0.0-3.0-2.0-0.6","5fb1a1a3a8e4226b1354fd7f","E1","batch5","","null","<p class=block-text>Trial 7 out of 60</p>","null","spm_show_trial_num","","","","","","","","","","","","","","","","","","","","","","","","",""
"","","","","","image-button-response","201","497120","0.0-3.0-2.0-1.6","5fb1a1a3a8e4226b1354fd7f","E1","batch5","","4483.999999999942","img/question_1_7.jpeg","5","spm_respsonse","1","6","mat_07","","","","","","1","4483.999999999942","","","","","","","","","","","","","","",""
"","","","","","html-keyboard-response","202","498173","0.0-3.0-2.0-0.7","5fb1a1a3a8e4226b1354fd7f","E1","batch5","","null","<p class=block-text>Trial 8 out of 60</p>","null","spm_show_trial_num","","","","","","","","","","","","","","","","","","","","","","","","",""
"","","","","","image-button-response","203","502620","0.0-3.0-2.0-1.7","5fb1a1a3a8e4226b1354fd7f","E1","batch5","","4437","img/question_1_8.jpeg","1","spm_respsonse","1","2","mat_08","","","","","","1","4437","","","","","","","","","","","","","","",""
"","","","","","html-keyboard-response","204","503673","0.0-3.0-2.0-0.8","5fb1a1a3a8e4226b1354fd7f","E1","batch5","","null","<p class=block-text>Trial 9 out of 60</p>","null","spm_show_trial_num","","","","","","","","","","","","","","","","","","","","","","","","",""
"","","","","","image-button-response","205","506071","0.0-3.0-2.0-1.8","5fb1a1a3a8e4226b1354fd7f","E1","batch5","","2389","img/question_1_9.jpeg","0","spm_respsonse","1","1","mat_09","","","","","","1","2389","","","","","","","","","","","","","","",""
"","","","","","html-keyboard-response","206","507123","0.0-3.0-2.0-0.9","5fb1a1a3a8e4226b1354fd7f","E1","batch5","","null","<p class=block-text>Trial 10 out of 60</p>","null","spm_show_trial_num","","","","","","","","","","","","","","","","","","","","","","","","",""
"","","","","","image-button-response","207","511219","0.0-3.0-2.0-1.9","5fb1a1a3a8e4226b1354fd7f","E1","batch5","","4088","img/question_1_10.jpeg","2","spm_respsonse","1","3","mat_10","","","","","","1","4088","","","","","","","","","","","","","","",""
"","","","","","html-keyboard-response","208","512272","0.0-3.0-2.0-0.10","5fb1a1a3a8e4226b1354fd7f","E1","batch5","","null","<p class=block-text>Trial 11 out of 60</p>","null","spm_show_trial_num","","","","","","","","","","","","","","","","","","","","","","","","",""
"","","","","","image-button-response","209","514283","0.0-3.0-2.0-1.10","5fb1a1a3a8e4226b1354fd7f","E1","batch5","","2002.0000000000582","img/question_1_11.jpeg","2","spm_respsonse","0","4","mat_11","","","","","","0","2002.0000000000582","","","","","","","","","","","","","","",""
"","","","","","html-keyboard-response","210","515336","0.0-3.0-2.0-0.11","5fb1a1a3a8e4226b1354fd7f","E1","batch5","","null","<p class=block-text>Trial 12 out of 60</p>","null","spm_show_trial_num","","","","","","","","","","","","","","","","","","","","","","","","",""
"","","","","","image-button-response","211","517784","0.0-3.0-2.0-1.11","5fb1a1a3a8e4226b1354fd7f","E1","batch5","","2438.999999999942","img/question_1_12.jpeg","0","spm_respsonse","0","5","mat_12","","","","","","0","2438.999999999942","","","","","","","","","","","","","","",""
"","","","","","html-keyboard-response","212","518837","0.0-3.0-2.0-0.12","5fb1a1a3a8e4226b1354fd7f","E1","batch5","","null","<p class=block-text>Trial 13 out of 60</p>","null","spm_show_trial_num","","","","","","","","","","","","","","","","","","","","","","","","",""
"","","","","","image-button-response","213","522061","0.0-3.0-2.0-1.12","5fb1a1a3a8e4226b1354fd7f","E1","batch5","","3215.000000000058","img/question_2_1.jpeg","1","spm_respsonse","1","2","mat_13","","","","","","1","3215.000000000058","","","","","","","","","","","","","","",""
"","","","","","html-keyboard-response","214","523114","0.0-3.0-2.0-0.13","5fb1a1a3a8e4226b1354fd7f","E1","batch5","","null","<p class=block-text>Trial 14 out of 60</p>","null","spm_show_trial_num","","","","","","","","","","","","","","","","","","","","","","","","",""
"","","","","","image-button-response","215","526496","0.0-3.0-2.0-1.13","5fb1a1a3a8e4226b1354fd7f","E1","batch5","","3372.999999999942","img/question_2_2.jpeg","5","spm_respsonse","1","6","mat_14","","","","","","1","3372.999999999942","","","","","","","","","","","","","","",""
"","","","","","html-keyboard-response","216","527549","0.0-3.0-2.0-0.14","5fb1a1a3a8e4226b1354fd7f","E1","batch5","","null","<p class=block-text>Trial 15 out of 60</p>","null","spm_show_trial_num","","","","","","","","","","","","","","","","","","","","","","","","",""
"","","","","","image-button-response","217","530111","0.0-3.0-2.0-1.14","5fb1a1a3a8e4226b1354fd7f","E1","batch5","","2554","img/question_2_3.jpeg","0","spm_respsonse","1","1","mat_15","","","","","","1","2554","","","","","","","","","","","","","","",""
"","","","","","html-keyboard-response","218","531164","0.0-3.0-2.0-0.15","5fb1a1a3a8e4226b1354fd7f","E1","batch5","","null","<p class=block-text>Trial 16 out of 60</p>","null","spm_show_trial_num","","","","","","","","","","","","","","","","","","","","","","","","",""
"","","","","","image-button-response","219","534181","0.0-3.0-2.0-1.15","5fb1a1a3a8e4226b1354fd7f","E1","batch5","","3008","img/question_2_4.jpeg","1","spm_respsonse","1","2","mat_16","","","","","","1","3008","","","","","","","","","","","","","","",""
"","","","","","html-keyboard-response","220","535234","0.0-3.0-2.0-0.16","5fb1a1a3a8e4226b1354fd7f","E1","batch5","","null","<p class=block-text>Trial 17 out of 60</p>","null","spm_show_trial_num","","","","","","","","","","","","","","","","","","","","","","","","",""
"","","","","","image-button-response","221","538881","0.0-3.0-2.0-1.16","5fb1a1a3a8e4226b1354fd7f","E1","batch5","","3635","img/question_2_5.jpeg","0","spm_respsonse","1","1","mat_17","","","","","","1","3635","","","","","","","","","","","","","","",""
"","","","","","html-keyboard-response","222","539934","0.0-3.0-2.0-0.17","5fb1a1a3a8e4226b1354fd7f","E1","batch5","","null","<p class=block-text>Trial 18 out of 60</p>","null","spm_show_trial_num","","","","","","","","","","","","","","","","","","","","","","","","",""
"","","","","","image-button-response","223","544386","0.0-3.0-2.0-1.17","5fb1a1a3a8e4226b1354fd7f","E1","batch5","","4443","img/question_2_6.jpeg","2","spm_respsonse","1","3","mat_18","","","","","","1","4443","","","","","","","","","","","","","","",""
"","","","","","html-keyboard-response","224","545439","0.0-3.0-2.0-0.18","5fb1a1a3a8e4226b1354fd7f","E1","batch5","","null","<p class=block-text>Trial 19 out of 60</p>","null","spm_show_trial_num","","","","","","","","","","","","","","","","","","","","","","","","",""
"","","","","","image-button-response","225","550756","0.0-3.0-2.0-1.18","5fb1a1a3a8e4226b1354fd7f","E1","batch5","","5309","img/question_2_7.jpeg","4","spm_respsonse","1","5","mat_19","","","","","","1","5309","","","","","","","","","","","","","","",""
"","","","","","html-keyboard-response","226","551810","0.0-3.0-2.0-0.19","5fb1a1a3a8e4226b1354fd7f","E1","batch5","","null","<p class=block-text>Trial 20 out of 60</p>","null","spm_show_trial_num","","","","","","","","","","","","","","","","","","","","","","","","",""
"","","","","","image-button-response","227","557016","0.0-3.0-2.0-1.19","5fb1a1a3a8e4226b1354fd7f","E1","batch5","","5198","img/question_2_8.jpeg","5","spm_respsonse","1","6","mat_20","","","","","","1","5198","","","","","","","","","","","","","","",""
"","","","","","html-keyboard-response","228","558069","0.0-3.0-2.0-0.20","5fb1a1a3a8e4226b1354fd7f","E1","batch5","","null","<p class=block-text>Trial 21 out of 60</p>","null","spm_show_trial_num","","","","","","","","","","","","","","","","","","","","","","","","",""
"","","","","","image-button-response","229","561637","0.0-3.0-2.0-1.20","5fb1a1a3a8e4226b1354fd7f","E1","batch5","","3559.0000000001164","img/question_2_9.jpeg","3","spm_respsonse","1","4","mat_21","","","","","","1","3559.0000000001164","","","","","","","","","","","","","","",""
"","","","","","html-keyboard-response","230","562690","0.0-3.0-2.0-0.21","5fb1a1a3a8e4226b1354fd7f","E1","batch5","","null","<p class=block-text>Trial 22 out of 60</p>","null","spm_show_trial_num","","","","","","","","","","","","","","","","","","","","","","","","",""
"","","","","","image-button-response","231","572290","0.0-3.0-2.0-1.21","5fb1a1a3a8e4226b1354fd7f","E1","batch5","","9589","img/question_2_10.jpeg","2","spm_respsonse","1","3","mat_22","","","","","","1","9589","","","","","","","","","","","","","","",""
"","","","","","html-keyboard-response","232","573342","0.0-3.0-2.0-0.22","5fb1a1a3a8e4226b1354fd7f","E1","batch5","","null","<p class=block-text>Trial 23 out of 60</p>","null","spm_show_trial_num","","","","","","","","","","","","","","","","","","","","","","","","",""
"","","","","","image-button-response","233","579222","0.0-3.0-2.0-1.22","5fb1a1a3a8e4226b1354fd7f","E1","batch5","","5875","img/question_2_11.jpeg","3","spm_respsonse","1","4","mat_23","","","","","","1","5875","","","","","","","","","","","","","","",""
"","","","","","html-keyboard-response","234","580275","0.0-3.0-2.0-0.23","5fb1a1a3a8e4226b1354fd7f","E1","batch5","","null","<p class=block-text>Trial 24 out of 60</p>","null","spm_show_trial_num","","","","","","","","","","","","","","","","","","","","","","","","",""
"","","","","","image-button-response","235","598944","0.0-3.0-2.0-1.23","5fb1a1a3a8e4226b1354fd7f","E1","batch5","","18661","img/question_2_12.jpeg","5","spm_respsonse","0","5","mat_24","","","","","","0","18661","","","","","","","","","","","","","","",""
"","","","","","html-button-response","236","600555","0.0-3.0-3.0","5fb1a1a3a8e4226b1354fd7f","E1","batch5","","1359","<p class = block-text>Attention check: Please choose 1<br></p>","0","attention_check","true","","","","","","","","","","","","","","","","","","","","","","","",""
"","","","","","html-keyboard-response","237","601358","0.0-3.0-4.0-0.0","5fb1a1a3a8e4226b1354fd7f","E1","batch5","","null","<p class=block-text>Trial 25 out of 60</p>","null","spm_show_trial_num","","","","","","","","","","","","","","","","","","","","","","","","",""
"","","","","","image-button-response","238","603977","0.0-3.0-4.0-1.0","5fb1a1a3a8e4226b1354fd7f","E1","batch5","","2610","img/question_3_1.jpeg","7","spm_respsonse","1","8","mat_25","","","","","","1","2610","","","","","","","","","","","","","","",""
"","","","","","html-keyboard-response","239","605029","0.0-3.0-4.0-0.1","5fb1a1a3a8e4226b1354fd7f","E1","batch5","","null","<p class=block-text>Trial 26 out of 60</p>","null","spm_show_trial_num","","","","","","","","","","","","","","","","","","","","","","","","",""
"","","","","","image-button-response","240","607570","0.0-3.0-4.0-1.1","5fb1a1a3a8e4226b1354fd7f","E1","batch5","","2530.0000000001164","img/question_3_2.jpeg","1","spm_respsonse","1","2","mat_26","","","","","","1","2530.0000000001164","","","","","","","","","","","","","","",""
"","","","","","html-keyboard-response","241","608623","0.0-3.0-4.0-0.2","5fb1a1a3a8e4226b1354fd7f","E1","batch5","","null","<p class=block-text>Trial 27 out of 60</p>","null","spm_show_trial_num","","","","","","","","","","","","","","","","","","","","","","","","",""
"","","","","","image-button-response","242","610460","0.0-3.0-4.0-1.2","5fb1a1a3a8e4226b1354fd7f","E1","batch5","","1826","img/question_3_3.jpeg","3","spm_respsonse","0","3","mat_27","","","","","","0","1826","","","","","","","","","","","","","","",""
"","","","","","html-keyboard-response","243","611513","0.0-3.0-4.0-0.3","5fb1a1a3a8e4226b1354fd7f","E1","batch5","","null","<p class=block-text>Trial 28 out of 60</p>","null","spm_show_trial_num","","","","","","","","","","","","","","","","","","","","","","","","",""
"","","","","","image-button-response","244","614092","0.0-3.0-4.0-1.3","5fb1a1a3a8e4226b1354fd7f","E1","batch5","","2569.9999999998836","img/question_3_4.jpeg","2","spm_respsonse","0","8","mat_28","","","","","","0","2569.9999999998836","","","","","","","","","","","","","","",""
"","","","","","html-keyboard-response","245","615144","0.0-3.0-4.0-0.4","5fb1a1a3a8e4226b1354fd7f","E1","batch5","","null","<p class=block-text>Trial 29 out of 60</p>","null","spm_show_trial_num","","","","","","","","","","","","","","","","","","","","","","","","",""
"","","","","","image-button-response","246","618853","0.0-3.0-4.0-1.4","5fb1a1a3a8e4226b1354fd7f","E1","batch5","","3700","img/question_3_5.jpeg","6","spm_respsonse","1","7","mat_29","","","","","","1","3700","","","","","","","","","","","","","","",""
"","","","","","html-keyboard-response","247","619906","0.0-3.0-4.0-0.5","5fb1a1a3a8e4226b1354fd7f","E1","batch5","","null","<p class=block-text>Trial 30 out of 60</p>","null","spm_show_trial_num","","","","","","","","","","","","","","","","","","","","","","","","",""
"","","","","","image-button-response","248","624968","0.0-3.0-4.0-1.5","5fb1a1a3a8e4226b1354fd7f","E1","batch5","","5053","img/question_3_6.jpeg","7","spm_respsonse","0","4","mat_30","","","","","","0","5053","","","","","","","","","","","","","","",""
"","","","","","html-keyboard-response","249","626024","0.0-3.0-4.0-0.6","5fb1a1a3a8e4226b1354fd7f","E1","batch5","","null","<p class=block-text>Trial 31 out of 60</p>","null","spm_show_trial_num","","","","","","","","","","","","","","","","","","","","","","","","",""
"","","","","","image-button-response","250","630422","0.0-3.0-4.0-1.6","5fb1a1a3a8e4226b1354fd7f","E1","batch5","","4387","img/question_3_7.jpeg","4","spm_respsonse","1","5","mat_31","","","","","","1","4387","","","","","","","","","","","","","","",""
"","","","","","html-keyboard-response","251","631475","0.0-3.0-4.0-0.7","5fb1a1a3a8e4226b1354fd7f","E1","batch5","","null","<p class=block-text>Trial 32 out of 60</p>","null","spm_show_trial_num","","","","","","","","","","","","","","","","","","","","","","","","",""
"","","","","","image-button-response","252","633457","0.0-3.0-4.0-1.7","5fb1a1a3a8e4226b1354fd7f","E1","batch5","","1973","img/question_3_8.jpeg","3","spm_respsonse","0","1","mat_32","","","","","","0","1973","","","","","","","","","","","","","","",""
"","","","","","html-keyboard-response","253","634509","0.0-3.0-4.0-0.8","5fb1a1a3a8e4226b1354fd7f","E1","batch5","","null","<p class=block-text>Trial 33 out of 60</p>","null","spm_show_trial_num","","","","","","","","","","","","","","","","","","","","","","","","",""
"","","","","","image-button-response","254","635574","0.0-3.0-4.0-1.8","5fb1a1a3a8e4226b1354fd7f","E1","batch5","","1056","img/question_3_9.jpeg","3","spm_respsonse","0","7","mat_33","","","","","","0","1056","","","","","","","","","","","","","","",""
"","","","","","html-keyboard-response","255","636626","0.0-3.0-4.0-0.9","5fb1a1a3a8e4226b1354fd7f","E1","batch5","","null","<p class=block-text>Trial 34 out of 60</p>","null","spm_show_trial_num","","","","","","","","","","","","","","","","","","","","","","","","",""
"","","","","","image-button-response","256","637942","0.0-3.0-4.0-1.9","5fb1a1a3a8e4226b1354fd7f","E1","batch5","","1307","img/question_3_10.jpeg","4","spm_respsonse","0","6","mat_34","","","","","","0","1307","","","","","","","","","","","","","","",""
"","","","","","html-keyboard-response","257","638993","0.0-3.0-4.0-0.10","5fb1a1a3a8e4226b1354fd7f","E1","batch5","","null","<p class=block-text>Trial 35 out of 60</p>","null","spm_show_trial_num","","","","","","","","","","","","","","","","","","","","","","","","",""
"","","","","","image-button-response","258","644343","0.0-3.0-4.0-1.10","5fb1a1a3a8e4226b1354fd7f","E1","batch5","","5341","img/question_3_11.jpeg","4","spm_respsonse","0","1","mat_35","","","","","","0","5341","","","","","","","","","","","","","","",""
"","","","","","html-keyboard-response","259","645396","0.0-3.0-4.0-0.11","5fb1a1a3a8e4226b1354fd7f","E1","batch5","","null","<p class=block-text>Trial 36 out of 60</p>","null","spm_show_trial_num","","","","","","","","","","","","","","","","","","","","","","","","",""
"","","","","","image-button-response","260","647164","0.0-3.0-4.0-1.11","5fb1a1a3a8e4226b1354fd7f","E1","batch5","","1759","img/question_3_12.jpeg","5","spm_respsonse","0","2","mat_36","","","","","","0","1759","","","","","","","","","","","","","","",""
"","","","","","html-keyboard-response","261","648217","0.0-3.0-4.0-0.12","5fb1a1a3a8e4226b1354fd7f","E1","batch5","","null","<p class=block-text>Trial 37 out of 60</p>","null","spm_show_trial_num","","","","","","","","","","","","","","","","","","","","","","","","",""
"","","","","","image-button-response","262","651881","0.0-3.0-4.0-1.12","5fb1a1a3a8e4226b1354fd7f","E1","batch5","","3655","img/question_4_1.jpeg","2","spm_respsonse","1","3","mat_37","","","","","","1","3655","","","","","","","","","","","","","","",""
"","","","","","html-keyboard-response","263","652934","0.0-3.0-4.0-0.13","5fb1a1a3a8e4226b1354fd7f","E1","batch5","","null","<p class=block-text>Trial 38 out of 60</p>","null","spm_show_trial_num","","","","","","","","","","","","","","","","","","","","","","","","",""
"","","","","","image-button-response","264","656126","0.0-3.0-4.0-1.13","5fb1a1a3a8e4226b1354fd7f","E1","batch5","","3180.9999999998836","img/question_4_2.jpeg","1","spm_respsonse","0","4","mat_38","","","","","","0","3180.9999999998836","","","","","","","","","","","","","","",""
"","","","","","html-keyboard-response","265","657179","0.0-3.0-4.0-0.14","5fb1a1a3a8e4226b1354fd7f","E1","batch5","","null","<p class=block-text>Trial 39 out of 60</p>","null","spm_show_trial_num","","","","","","","","","","","","","","","","","","","","","","","","",""
"","","","","","image-button-response","266","660583","0.0-3.0-4.0-1.14","5fb1a1a3a8e4226b1354fd7f","E1","batch5","","3396","img/question_4_3.jpeg","3","spm_respsonse","0","3","mat_39","","","","","","0","3396","","","","","","","","","","","","","","",""
"","","","","","html-keyboard-response","267","661636","0.0-3.0-4.0-0.15","5fb1a1a3a8e4226b1354fd7f","E1","batch5","","null","<p class=block-text>Trial 40 out of 60</p>","null","spm_show_trial_num","","","","","","","","","","","","","","","","","","","","","","","","",""
"","","","","","image-button-response","268","669853","0.0-3.0-4.0-1.15","5fb1a1a3a8e4226b1354fd7f","E1","batch5","","8208","img/question_4_4.jpeg","0","spm_respsonse","0","7","mat_40","","","","","","0","8208","","","","","","","","","","","","","","",""
"","","","","","html-keyboard-response","269","670905","0.0-3.0-4.0-0.16","5fb1a1a3a8e4226b1354fd7f","E1","batch5","","null","<p class=block-text>Trial 41 out of 60</p>","null","spm_show_trial_num","","","","","","","","","","","","","","","","","","","","","","","","",""
"","","","","","image-button-response","270","678268","0.0-3.0-4.0-1.16","5fb1a1a3a8e4226b1354fd7f","E1","batch5","","7347","img/question_4_5.jpeg","7","spm_respsonse","1","8","mat_41","","","","","","1","7347","","","","","","","","","","","","","","",""
"","","","","","html-keyboard-response","271","679322","0.0-3.0-4.0-0.17","5fb1a1a3a8e4226b1354fd7f","E1","batch5","","null","<p class=block-text>Trial 42 out of 60</p>","null","spm_show_trial_num","","","","","","","","","","","","","","","","","","","","","","","","",""
"","","","","","image-button-response","272","690132","0.0-3.0-4.0-1.17","5fb1a1a3a8e4226b1354fd7f","E1","batch5","","10800","img/question_4_6.jpeg","5","spm_respsonse","1","6","mat_42","","","","","","1","10800","","","","","","","","","","","","","","",""
"","","","","","html-keyboard-response","273","691184","0.0-3.0-4.0-0.18","5fb1a1a3a8e4226b1354fd7f","E1","batch5","","null","<p class=block-text>Trial 43 out of 60</p>","null","spm_show_trial_num","","","","","","","","","","","","","","","","","","","","","","","","",""
"","","","","","image-button-response","274","700441","0.0-3.0-4.0-1.18","5fb1a1a3a8e4226b1354fd7f","E1","batch5","","9247","img/question_4_7.jpeg","3","spm_respsonse","0","5","mat_43","","","","","","0","9247","","","","","","","","","","","","","","",""
"","","","","","html-keyboard-response","275","701493","0.0-3.0-4.0-0.19","5fb1a1a3a8e4226b1354fd7f","E1","batch5","","null","<p class=block-text>Trial 44 out of 60</p>","null","spm_show_trial_num","","","","","","","","","","","","","","","","","","","","","","","","",""
"","","","","","image-button-response","276","705869","0.0-3.0-4.0-1.19","5fb1a1a3a8e4226b1354fd7f","E1","batch5","","4366","img/question_4_8.jpeg","0","spm_respsonse","0","4","mat_44","","","","","","0","4366","","","","","","","","","","","","","","",""
"","","","","","html-keyboard-response","277","706922","0.0-3.0-4.0-0.20","5fb1a1a3a8e4226b1354fd7f","E1","batch5","","null","<p class=block-text>Trial 45 out of 60</p>","null","spm_show_trial_num","","","","","","","","","","","","","","","","","","","","","","","","",""
"","","","","","image-button-response","278","712174","0.0-3.0-4.0-1.20","5fb1a1a3a8e4226b1354fd7f","E1","batch5","","5244","img/question_4_9.jpeg","2","spm_respsonse","0","1","mat_45","","","","","","0","5244","","","","","","","","","","","","","","",""
"","","","","","html-keyboard-response","279","713228","0.0-3.0-4.0-0.21","5fb1a1a3a8e4226b1354fd7f","E1","batch5","","null","<p class=block-text>Trial 46 out of 60</p>","null","spm_show_trial_num","","","","","","","","","","","","","","","","","","","","","","","","",""
"","","","","","image-button-response","280","714115","0.0-3.0-4.0-1.21","5fb1a1a3a8e4226b1354fd7f","E1","batch5","","879","img/question_4_10.jpeg","3","spm_respsonse","0","2","mat_46","","","","","","0","879","","","","","","","","","","","","","","",""
"","","","","","html-keyboard-response","281","715167","0.0-3.0-4.0-0.22","5fb1a1a3a8e4226b1354fd7f","E1","batch5","","null","<p class=block-text>Trial 47 out of 60</p>","null","spm_show_trial_num","","","","","","","","","","","","","","","","","","","","","","","","",""
"","","","","","image-button-response","282","716913","0.0-3.0-4.0-1.22","5fb1a1a3a8e4226b1354fd7f","E1","batch5","","1737","img/question_4_11.jpeg","4","spm_respsonse","1","5","mat_47","","","","","","1","1737","","","","","","","","","","","","","","",""
"","","","","","html-keyboard-response","283","717966","0.0-3.0-4.0-0.23","5fb1a1a3a8e4226b1354fd7f","E1","batch5","","null","<p class=block-text>Trial 48 out of 60</p>","null","spm_show_trial_num","","","","","","","","","","","","","","","","","","","","","","","","",""
"","","","","","image-button-response","284","719090","0.0-3.0-4.0-1.23","5fb1a1a3a8e4226b1354fd7f","E1","batch5","","1116","img/question_4_12.jpeg","5","spm_respsonse","1","6","mat_48","","","","","","1","1116","","","","","","","","","","","","","","",""
"","","","","","html-keyboard-response","285","720143","0.0-3.0-4.0-0.24","5fb1a1a3a8e4226b1354fd7f","E1","batch5","","null","<p class=block-text>Trial 49 out of 60</p>","null","spm_show_trial_num","","","","","","","","","","","","","","","","","","","","","","","","",""
"","","","","","image-button-response","286","727950","0.0-3.0-4.0-1.24","5fb1a1a3a8e4226b1354fd7f","E1","batch5","","7798","img/question_5_1.jpeg","4","spm_respsonse","0","7","mat_49","","","","","","0","7798","","","","","","","","","","","","","","",""
"","","","","","html-keyboard-response","287","729004","0.0-3.0-4.0-0.25","5fb1a1a3a8e4226b1354fd7f","E1","batch5","","null","<p class=block-text>Trial 50 out of 60</p>","null","spm_show_trial_num","","","","","","","","","","","","","","","","","","","","","","","","",""
"","","","","","image-button-response","288","731538","0.0-3.0-4.0-1.25","5fb1a1a3a8e4226b1354fd7f","E1","batch5","","2526","img/question_5_2.jpeg","5","spm_respsonse","1","6","mat_50","","","","","","1","2526","","","","","","","","","","","","","","",""
"","","","","","html-keyboard-response","289","732591","0.0-3.0-4.0-0.26","5fb1a1a3a8e4226b1354fd7f","E1","batch5","","null","<p class=block-text>Trial 51 out of 60</p>","null","spm_show_trial_num","","","","","","","","","","","","","","","","","","","","","","","","",""
"","","","","","image-button-response","290","733400","0.0-3.0-4.0-1.26","5fb1a1a3a8e4226b1354fd7f","E1","batch5","","800","img/question_5_3.jpeg","5","spm_respsonse","0","8","mat_51","","","","","","0","800","","","","","","","","","","","","","","",""
"","","","","","html-keyboard-response","291","734452","0.0-3.0-4.0-0.27","5fb1a1a3a8e4226b1354fd7f","E1","batch5","","null","<p class=block-text>Trial 52 out of 60</p>","null","spm_show_trial_num","","","","","","","","","","","","","","","","","","","","","","","","",""
"","","","","","image-button-response","292","735376","0.0-3.0-4.0-1.27","5fb1a1a3a8e4226b1354fd7f","E1","batch5","","915","img/question_5_4.jpeg","3","spm_respsonse","0","2","mat_52","","","","","","0","915","","","","","","","","","","","","","","",""
"","","","","","html-keyboard-response","293","736428","0.0-3.0-4.0-0.28","5fb1a1a3a8e4226b1354fd7f","E1","batch5","","null","<p class=block-text>Trial 53 out of 60</p>","null","spm_show_trial_num","","","","","","","","","","","","","","","","","","","","","","","","",""
"","","","","","image-button-response","294","738385","0.0-3.0-4.0-1.28","5fb1a1a3a8e4226b1354fd7f","E1","batch5","","1948","img/question_5_5.jpeg","6","spm_respsonse","0","1","mat_53","","","","","","0","1948","","","","","","","","","","","","","","",""
"","","","","","html-keyboard-response","295","739437","0.0-3.0-4.0-0.29","5fb1a1a3a8e4226b1354fd7f","E1","batch5","","null","<p class=block-text>Trial 54 out of 60</p>","null","spm_show_trial_num","","","","","","","","","","","","","","","","","","","","","","","","",""
"","","","","","image-button-response","296","767625","0.0-3.0-4.0-1.29","5fb1a1a3a8e4226b1354fd7f","E1","batch5","","28180","img/question_5_6.jpeg","6","spm_respsonse","0","5","mat_54","","","","","","0","28180","","","","","","","","","","","","","","",""
"","","","","","html-keyboard-response","297","768677","0.0-3.0-4.0-0.30","5fb1a1a3a8e4226b1354fd7f","E1","batch5","","null","<p class=block-text>Trial 55 out of 60</p>","null","spm_show_trial_num","","","","","","","","","","","","","","","","","","","","","","","","",""
"","","","","","image-button-response","298","786034","0.0-3.0-4.0-1.30","5fb1a1a3a8e4226b1354fd7f","E1","batch5","","17349","img/question_5_7.jpeg","2","spm_respsonse","0","1","mat_55","","","","","","0","17349","","","","","","","","","","","","","","",""
"","","","","","html-keyboard-response","299","787086","0.0-3.0-4.0-0.31","5fb1a1a3a8e4226b1354fd7f","E1","batch5","","null","<p class=block-text>Trial 56 out of 60</p>","null","spm_show_trial_num","","","","","","","","","","","","","","","","","","","","","","","","",""
"","","","","","image-button-response","300","789369","0.0-3.0-4.0-1.31","5fb1a1a3a8e4226b1354fd7f","E1","batch5","","2274","img/question_5_8.jpeg","3","spm_respsonse","0","6","mat_56","","","","","","0","2274","","","","","","","","","","","","","","",""
"","","","","","html-keyboard-response","301","790422","0.0-3.0-4.0-0.32","5fb1a1a3a8e4226b1354fd7f","E1","batch5","","null","<p class=block-text>Trial 57 out of 60</p>","null","spm_show_trial_num","","","","","","","","","","","","","","","","","","","","","","","","",""
"","","","","","image-button-response","302","791644","0.0-3.0-4.0-1.32","5fb1a1a3a8e4226b1354fd7f","E1","batch5","","1213","img/question_5_9.jpeg","4","spm_respsonse","0","3","mat_57","","","","","","0","1213","","","","","","","","","","","","","","",""
"","","","","","html-keyboard-response","303","792696","0.0-3.0-4.0-0.33","5fb1a1a3a8e4226b1354fd7f","E1","batch5","","null","<p class=block-text>Trial 58 out of 60</p>","null","spm_show_trial_num","","","","","","","","","","","","","","","","","","","","","","","","",""
"","","","","","image-button-response","304","793420","0.0-3.0-4.0-1.33","5fb1a1a3a8e4226b1354fd7f","E1","batch5","","716.0000000001164","img/question_5_10.jpeg","3","spm_respsonse","0","2","mat_58","","","","","","0","716.0000000001164","","","","","","","","","","","","","","",""
"","","","","","html-keyboard-response","305","794473","0.0-3.0-4.0-0.34","5fb1a1a3a8e4226b1354fd7f","E1","batch5","","null","<p class=block-text>Trial 59 out of 60</p>","null","spm_show_trial_num","","","","","","","","","","","","","","","","","","","","","","","","",""
"","","","","","image-button-response","306","795047","0.0-3.0-4.0-1.34","5fb1a1a3a8e4226b1354fd7f","E1","batch5","","566","img/question_5_11.jpeg","5","spm_respsonse","0","4","mat_59","","","","","","0","566","","","","","","","","","","","","","","",""
"","","","","","html-keyboard-response","307","796100","0.0-3.0-4.0-0.35","5fb1a1a3a8e4226b1354fd7f","E1","batch5","","null","<p class=block-text>Trial 60 out of 60</p>","null","spm_show_trial_num","","","","","","","","","","","","","","","","","","","","","","","","",""
"","","","","","image-button-response","308","797466","0.0-3.0-4.0-1.35","5fb1a1a3a8e4226b1354fd7f","E1","batch5","","1357","img/question_5_12.jpeg","5","spm_respsonse","0","5","mat_60","","","","","","0","1357","","","","","","","","","","","","","","",""
"","","","","","html-button-response","309","799074","0.0-3.0-5.0","5fb1a1a3a8e4226b1354fd7f","E1","batch5","","1355.9999999998836","<p class= block-text>This concludes the Standard Progressive Matrix game. Thank you for your responses!<br> When you are ready, click the button continue</p>","0","spm_goodbye","","","","","","","","","","","","","","","","","","","","","","","","",""
"true","","","","","fullscreen","310","801159","0.0-4.0-0.0","5fb1a1a3a8e4226b1354fd7f","E1","batch5","","","","","","","","","","","","","","","","","","","","","","","","","","","","","",""
"","","","","","instructions","311","805691","0.0-4.0-1.0-0.0-0.0","5fb1a1a3a8e4226b1354fd7f","E1","batch5","[{""page_index"":0,""viewing_time"":1395.9999999998836},{""page_index"":1,""viewing_time"":758.0000000001164},{""page_index"":2,""viewing_time"":142.99999999988358},{""page_index"":3,""viewing_time"":769},{""page_index"":4,""viewing_time"":128},{""page_index"":5,""viewing_time"":270},{""page_index"":6,""viewing_time"":1067}]","4530.999999999884","","","tol-instructions","","","","","","","","","","","","","","","","","","","","","","","","",""
"","","","","","html-button-response","312","806538","0.0-4.0-1.0-1.0-0.0","5fb1a1a3a8e4226b1354fd7f","E1","batch5","","847","<p class=block-text> Let's answer a few questions <br>","0","tol_enter_quiz","","","","","","","","","","","","","","","","","","","","","","","","",""
"","","","","","html-button-response","313","808825","0.0-4.0-1.0-1.0-1.0","5fb1a1a3a8e4226b1354fd7f","E1","batch5","","2284.9999999998836","<p class = block-text>True or False: You can only move the ball on top of a peg. <br></p>","0","tol_quiz","true","","","","","","","","","","","","","","","","","","","","","","","",""
"","","","","","html-button-response","314","809557","0.0-4.0-1.0-1.0-2.0","5fb1a1a3a8e4226b1354fd7f","E1","batch5","","731","<p class = block-text>Correct! You can only move the ball on top of a peg.</p>","0","tol_quiz_feedback","","","","","","","","","","","","","","","","","","","","","","","","",""
"","","","","","html-button-response","315","810448","0.0-4.0-1.0-1.0-3.0","5fb1a1a3a8e4226b1354fd7f","E1","batch5","","890","<p class = block-text>True or False: You should try to match your board with the target board with fewest moves possible. <br></p>","0","tol_quiz","true","","","","","","","","","","","","","","","","","","","","","","","",""
"","","","","","html-button-response","316","811264","0.0-4.0-1.0-1.0-4.0","5fb1a1a3a8e4226b1354fd7f","E1","batch5","","815","<p class = block-text>Correct! </p>","0","tol_quiz_feedback","","","","","","","","","","","","","","","","","","","","","","","","",""
"","","","","","html-button-response","317","812284","0.0-4.0-2.0","5fb1a1a3a8e4226b1354fd7f","E1","batch5","","1017","<p class=block-text> Now that you've understood the game, let's practice a few easier examples before we start!<br> <br>","0","","","","","","","","","","","","","","","","","","","","","","","","","",""
"","","","","","single-stim-button","318","814008","0.0-4.0-3.0-0.0","5fb1a1a3a8e4226b1354fd7f","E1","batch5","","1721","","","tol_practice","","","","","","","","","","","tol_peg_2","1721","1721","0","[[1,2,0],[0,0],[0]]","1","[[1,2,0],[0,0],[3]]","practice","1721","","","","","",""
"","","","","","single-stim-button","319","814492","0.0-4.0-3.0-1.0","5fb1a1a3a8e4226b1354fd7f","E1","batch5","","483","","","tol_practice","","","","","","","","","","","tol_peg_3","483","483","0","[[1,2,0],[0,0],[3]]","1","[[1,2,0],[0,0],[3]]","practice","483","","","","","",""
"","","","","","poldrack-single-stim","320","815501","0.0-4.0-4.0","5fb1a1a3a8e4226b1354fd7f","E1","batch5","","-1","","","tol_feedback","true","","","","","","","","","","","1000","1000","500","","","","","","-1","none","true","","0",""
"","","","","","single-stim-button","321","817282","0.0-4.0-5.0-0.0","5fb1a1a3a8e4226b1354fd7f","E1","batch5","","1779","","","tol_practice","","","","","","","","","","","tol_peg_1","1779","1779","0","[[1,0,0],[3,0],[0]]","2","[[0,0,0],[3,1],[2]]","practice","1779","","","","","",""
"","","","","","single-stim-button","322","817986","0.0-4.0-5.0-1.0","5fb1a1a3a8e4226b1354fd7f","E1","batch5","","703","","","tol_practice","","","","","","","","","","","tol_peg_3","703","703","0","[[1,0,0],[3,0],[2]]","2","[[0,0,0],[3,1],[2]]","practice","703","","","","","",""
"","","","","","single-stim-button","323","818691","0.0-4.0-5.1-0.1","5fb1a1a3a8e4226b1354fd7f","E1","batch5","","703","","","tol_practice","","","","","","","","","","","tol_peg_1","703","703","0","[[0,0,0],[3,0],[2]]","3","[[0,0,0],[3,1],[2]]","practice","703","","","","","",""
"","","","","","single-stim-button","324","819279","0.0-4.0-5.1-1.1","5fb1a1a3a8e4226b1354fd7f","E1","batch5","","586","","","tol_practice","","","","","","","","","","","tol_peg_2","586","586","0","[[0,0,0],[3,1],[2]]","3","[[0,0,0],[3,1],[2]]","practice","586","","","","","",""
"","","","","","poldrack-single-stim","325","820283","0.0-4.0-6.0","5fb1a1a3a8e4226b1354fd7f","E1","batch5","","-1","","","tol_feedback","true","","","","","","","","","","","1000","1000","500","","","","","","-1","none","true","","0",""
"","","","","","single-stim-button","326","821353","0.0-4.0-7.0-0.0","5fb1a1a3a8e4226b1354fd7f","E1","batch5","","1069","","","tol_practice","","","","","","","","","","","tol_peg_2","1069","1069","0","[[1,2,0],[0,0],[0]]","4","[[1,0,0],[2,0],[3]]","practice","1069","","","","","",""
"","","","","","single-stim-button","327","822079","0.0-4.0-7.0-1.0","5fb1a1a3a8e4226b1354fd7f","E1","batch5","","723","","","tol_practice","","","","","","","","","","","tol_peg_3","723","723","0","[[1,2,0],[0,0],[3]]","4","[[1,0,0],[2,0],[3]]","practice","723","","","","","",""
"","","","","","single-stim-button","328","822703","0.0-4.0-7.1-0.1","5fb1a1a3a8e4226b1354fd7f","E1","batch5","","622","","","tol_practice","","","","","","","","","","","tol_peg_1","622","622","0","[[1,0,0],[0,0],[3]]","5","[[1,0,0],[2,0],[3]]","practice","622","","","","","",""
"","","","","","single-stim-button","329","823506","0.0-4.0-7.1-1.1","5fb1a1a3a8e4226b1354fd7f","E1","batch5","","801","","","tol_practice","","","","","","","","","","","tol_peg_2","801","801","0","[[1,0,0],[2,0],[3]]","5","[[1,0,0],[2,0],[3]]","practice","801","","","","","",""
"","","","","","poldrack-single-stim","330","824508","0.0-4.0-8.0","5fb1a1a3a8e4226b1354fd7f","E1","batch5","","-1","","","tol_feedback","true","","","","","","","","","","","1000","1000","500","","","","","","-1","none","true","","0",""
"","","","","","html-button-response","331","825659","0.0-4.0-9.0","5fb1a1a3a8e4226b1354fd7f","E1","batch5","","1150.0000000001164","<div class = centerbox><p class = center-block-text>Great job! You are done with practice trials<br>You are about to start official trials.<br> <br> Problem <strong>1</strong> out of 25 problems</p></div>","0","tol_instruction","","","","","","","","","","","","","","","","","","","","","","","","",""
"","","","","","single-stim-button","332","828850","0.0-4.0-10.0-0.0","5fb1a1a3a8e4226b1354fd7f","E1","batch5","","2189","","","tol_tohand","","","","","","","","","","","tol_peg_1","2189","2189","0","[[1,0,0],[3,0],[0]]","1","[[1,3,0],[2,0],[0]]","0","0","","","","","","3"
"","","","","","single-stim-button","333","829907","0.0-4.0-10.0-1.0","5fb1a1a3a8e4226b1354fd7f","E1","batch5","","1054","","","tol_toboard","","","","","","","","","","","tol_peg_3","1054","1054","0","[[1,0,0],[3,0],[2]]","1","[[1,3,0],[2,0],[0]]","0","0","","","","","","3"
"","","","","","single-stim-button","334","830527","0.0-4.0-10.1-0.1","5fb1a1a3a8e4226b1354fd7f","E1","batch5","","618","","","tol_tohand","","","","","","","","","","","tol_peg_2","618","618","0","[[1,0,0],[0,0],[2]]","2","[[1,3,0],[2,0],[0]]","0","0","","","","","","3"
"","","","","","single-stim-button","335","831115","0.0-4.0-10.1-1.1","5fb1a1a3a8e4226b1354fd7f","E1","batch5","","586","","","tol_toboard","","","","","","","","","","","tol_peg_1","586","586","0","[[1,3,0],[0,0],[2]]","2","[[1,3,0],[2,0],[0]]","0","0","","","","","","3"
"","","","","","single-stim-button","336","832436","0.0-4.0-10.2-0.2","5fb1a1a3a8e4226b1354fd7f","E1","batch5","","1319","","","tol_tohand","","","","","","","","","","","tol_peg_3","1319","1319","0","[[1,3,0],[0,0],[0]]","3","[[1,3,0],[2,0],[0]]","0","0","","","","","","3"
"","","","","","single-stim-button","337","833065","0.0-4.0-10.2-1.2","5fb1a1a3a8e4226b1354fd7f","E1","batch5","","627","","","tol_toboard","","","","","","","","","","","tol_peg_2","627","627","0","[[1,3,0],[2,0],[0]]","3","[[1,3,0],[2,0],[0]]","0","0","","","","","","3"
"","","","","","poldrack-single-stim","338","834068","0.0-4.0-11.0","5fb1a1a3a8e4226b1354fd7f","E1","batch5","","-1","","","tol_feedback","true","","","","","","","","","","","1000","1000","500","","","","","","-1","none","true","2189","4126",""
"","","","","","html-button-response","339","834889","0.0-4.0-12.0","5fb1a1a3a8e4226b1354fd7f","E1","batch5","","818","<div class = centerbox><p class = center-block-text>problem <strong>2</strong> out of 25 problems</p></div>","0","tol_trial_num","","","","","","","","","","","","","","","","","","","","","","","","",""
"","","","","","single-stim-button","340","836743","0.0-4.0-13.0-0.0","5fb1a1a3a8e4226b1354fd7f","E1","batch5","","1852","","","tol_tohand","","","","","","","","","","","tol_peg_1","1852","1852","0","[[1,0,0],[3,0],[0]]","1","[[2,1,3],[0,0],[0]]","1","0","","","","","","5"
"","","","","","single-stim-button","341","837524","0.0-4.0-13.0-1.0","5fb1a1a3a8e4226b1354fd7f","E1","batch5","","779","","","tol_toboard","","","","","","","","","","","tol_peg_3","779","779","0","[[1,0,0],[3,0],[2]]","1","[[2,1,3],[0,0],[0]]","1","0","","","","","","5"
"","","","","","single-stim-button","342","839640","0.0-4.0-13.1-0.1","5fb1a1a3a8e4226b1354fd7f","E1","batch5","","2115","","","tol_tohand","","","","","","","","","","","tol_peg_1","2115","2115","0","[[0,0,0],[3,0],[2]]","2","[[2,1,3],[0,0],[0]]","1","0","","","","","","5"
"","","","","","single-stim-button","343","841802","0.0-4.0-13.1-1.1","5fb1a1a3a8e4226b1354fd7f","E1","batch5","","2159","","","tol_toboard","","","","","","","","","","","tol_peg_2","2159","2159","0","[[0,0,0],[3,1],[2]]","2","[[2,1,3],[0,0],[0]]","1","0","","","","","","5"
"","","","","","single-stim-button","344","842553","0.0-4.0-13.2-0.2","5fb1a1a3a8e4226b1354fd7f","E1","batch5","","750","","","tol_tohand","","","","","","","","","","","tol_peg_3","750","750","0","[[0,0,0],[3,1],[0]]","3","[[2,1,3],[0,0],[0]]","1","0","","","","","","5"
"","","","","","single-stim-button","345","843206","0.0-4.0-13.2-1.2","5fb1a1a3a8e4226b1354fd7f","E1","batch5","","651","","","tol_toboard","","","","","","","","","","","tol_peg_1","651","651","0","[[2,0,0],[3,1],[0]]","3","[[2,1,3],[0,0],[0]]","1","0","","","","","","5"
"","","","","","single-stim-button","346","843727","0.0-4.0-13.3-0.3","5fb1a1a3a8e4226b1354fd7f","E1","batch5","","519","","","tol_tohand","","","","","","","","","","","tol_peg_2","519","519","0","[[2,0,0],[3,0],[0]]","4","[[2,1,3],[0,0],[0]]","1","0","","","","","","5"
"","","","","","single-stim-button","347","844251","0.0-4.0-13.3-1.3","5fb1a1a3a8e4226b1354fd7f","E1","batch5","","522","","","tol_toboard","","","","","","","","","","","tol_peg_1","522","522","0","[[2,1,0],[3,0],[0]]","4","[[2,1,3],[0,0],[0]]","1","0","","","","","","5"
"","","","","","single-stim-button","348","845237","0.0-4.0-13.4-0.4","5fb1a1a3a8e4226b1354fd7f","E1","batch5","","985","","","tol_tohand","","","","","","","","","","","tol_peg_2","985","985","0","[[2,1,0],[0,0],[0]]","5","[[2,1,3],[0,0],[0]]","1","0","","","","","","5"
"","","","","","single-stim-button","349","845711","0.0-4.0-13.4-1.4","5fb1a1a3a8e4226b1354fd7f","E1","batch5","","472","","","tol_toboard","","","","","","","","","","","tol_peg_1","472","472","0","[[2,1,3],[0,0],[0]]","5","[[2,1,3],[0,0],[0]]","1","0","","","","","","5"
"","","","","","poldrack-single-stim","350","846715","0.0-4.0-14.0","5fb1a1a3a8e4226b1354fd7f","E1","batch5","","-1","","","tol_feedback","true","","","","","","","","","","","1000","1000","500","","","","","","-1","none","true","1852","6221",""
"","","","","","html-button-response","351","847531","0.0-4.0-15.0","5fb1a1a3a8e4226b1354fd7f","E1","batch5","","816","<div class = centerbox><p class = center-block-text>problem <strong>3</strong> out of 25 problems</p></div>","0","tol_trial_num","","","","","","","","","","","","","","","","","","","","","","","","",""
"","","","","","single-stim-button","352","849503","0.0-4.0-16.0-0.0","5fb1a1a3a8e4226b1354fd7f","E1","batch5","","1971","","","tol_tohand","","","","","","","","","","","tol_peg_1","1971","1971","0","[[2,0,0],[0,0],[1]]","1","[[1,2,0],[3,0],[0]]","2","0","","","","","","4"
"","","","","","single-stim-button","353","850921","0.0-4.0-16.0-1.0","5fb1a1a3a8e4226b1354fd7f","E1","batch5","","1415","","","tol_toboard","","","","","","","","","","","tol_peg_2","1415","1415","0","[[2,0,0],[3,0],[1]]","1","[[1,2,0],[3,0],[0]]","2","0","","","","","","4"
"","","","","","single-stim-button","354","852174","0.0-4.0-16.1-0.1","5fb1a1a3a8e4226b1354fd7f","E1","batch5","","1251","","","tol_tohand","","","","","","","","","","","tol_peg_1","1251","1251","0","[[0,0,0],[3,0],[1]]","2","[[1,2,0],[3,0],[0]]","2","0","","","","","","4"
"","","","","","single-stim-button","355","853932","0.0-4.0-16.1-1.1","5fb1a1a3a8e4226b1354fd7f","E1","batch5","","1756","","","tol_toboard","","","","","","","","","","","tol_peg_2","1756","1756","0","[[0,0,0],[3,2],[1]]","2","[[1,2,0],[3,0],[0]]","2","0","","","","","","4"
