"success","timeout","failed_images","failed_audio","failed_video","trial_type","trial_index","time_elapsed","internal_node_id","subject_id","study_id","session_id","view_history","rt","stimulus","response","task","correct","answer","item","fiar_detect_rt","fiar_detect_correct","total_correct_fiar_detect","post_trial_gap","choices","spm_correct","spm_rt","mouse_click","stim_duration","block_duration","timing_post_trial","current_position","tol_num_moves_made","tol_target","tol_problem_id","tol_rt","key_press","possible_responses","tol_correct","preplanning","tol_rt_per_trial","tol_min_moves"
"true","false","[]","[]","[]","preload","0","6283","0.0-0.0","5fb69cacddba6408f81a9564","E1","batch5","","","","","","","","","","","","","","","","","","","","","","","","","","","","","",""
"true","","","","","fullscreen","1","112373","0.0-1.0-0.0","5fb69cacddba6408f81a9564","E1","batch5","","","","","","","","","","","","","","","","","","","","","","","","","","","","","",""
"true","","","","","fullscreen","2","116103","0.0-2.0-0.0","5fb69cacddba6408f81a9564","E1","batch5","","","","","","","","","","","","","","","","","","","","","","","","","","","","","",""
"","","","","","instructions","3","141079","0.0-2.0-1.0-0.0","5fb69cacddba6408f81a9564","E1","batch5","[{""page_index"":0,""viewing_time"":9937.90000000596},{""page_index"":1,""viewing_time"":15037.79999999702}]","24975.90000000596","","","","","","","","","","","","","","","","","","","","","","","","","","","",""
"","","","","","html-button-response","4","143019","0.0-2.0-1.0-1.0-0.0","5fb69cacddba6408f81a9564","E1","batch5","","1939.6000000089407","<p class=block-text> Let's answer a few questions <br>","0","pattern_enter_quiz","","","","","","","","","","","","","","","","","","","","","","","","",""
"","","","","","html-button-response","5","149194","0.0-2.0-1.0-1.0-1.0","5fb69cacddba6408f81a9564","E1","batch5","","6174.4000000059605","<p class = block-text>True or False: You will have as much time as you want to make each choice. <br></p>","0","pattern_quiz","false","","","","","","","","","","","","","","","","","","","","","","","",""
"","","","","","html-button-response","6","151782","0.0-2.0-1.0-1.0-2.0","5fb69cacddba6408f81a9564","E1","batch5","","2585.5","<p class = block-text>Incorrect. Remember, You should make your choice as fast as you can.</p>","0","pattern_quiz_feedback","","","","","","","","","","","","","","","","","","","","","","","","",""
"","","","","","html-button-response","7","157314","0.0-2.0-1.0-1.0-3.0","5fb69cacddba6408f81a9564","E1","batch5","","5531.4000000059605","<p class = block-text>True or False: You will look for 4 pieces in black or white color connected in a row either horizontally, vertically or diagonally. <br></p>","0","pattern_quiz","true","","","","","","","","","","","","","","","","","","","","","","","",""
"","","","","","html-button-response","8","158432","0.0-2.0-1.0-1.0-4.0","5fb69cacddba6408f81a9564","E1","batch5","","1117.1000000089407","<p class = block-text>Correct! </p>","0","pattern_quiz_feedback","","","","","","","","","","","","","","","","","","","","","","","","",""
"","","","","","html-button-response","9","160872","0.0-2.0-1.0-2.0-0.0","5fb69cacddba6408f81a9564","E1","batch5","","2438.300000011921","<p class = block-text>You made too many incorrect choices.</p><p class = block-text>You will now repeat the instruction and quiz</p>","0","","","","","","","","","","","","","","","","","","","","","","","","","",""
"","","","","","instructions","10","163706","0.0-2.0-1.1-0.1","5fb69cacddba6408f81a9564","E1","batch5","[{""page_index"":0,""viewing_time"":1916.300000011921},{""page_index"":1,""viewing_time"":916.8999999910593}]","2833.5","","","","","","","","","","","","","","","","","","","","","","","","","","","",""
"","","","","","html-button-response","11","164979","0.0-2.0-1.1-1.1-0.1","5fb69cacddba6408f81a9564","E1","batch5","","1272.2999999970198","<p class=block-text> Let's answer a few questions <br>","0","pattern_enter_quiz","","","","","","","","","","","","","","","","","","","","","","","","",""
"","","","","","html-button-response","12","167259","0.0-2.0-1.1-1.1-1.1","5fb69cacddba6408f81a9564","E1","batch5","","2279.0999999940395","<p class = block-text>True or False: You will have as much time as you want to make each choice. <br></p>","1","pattern_quiz","true","","","","","","","","","","","","","","","","","","","","","","","",""
"","","","","","html-button-response","13","168200","0.0-2.0-1.1-1.1-2.1","5fb69cacddba6408f81a9564","E1","batch5","","939.6000000089407","<p class = block-text>Correct! You should make your choice <strong> as fast as you can</strong>.</p>","0","pattern_quiz_feedback","","","","","","","","","","","","","","","","","","","","","","","","",""
"","","","","","html-button-response","14","168867","0.0-2.0-1.1-1.1-3.1","5fb69cacddba6408f81a9564","E1","batch5","","666.7999999970198","<p class = block-text>True or False: You will look for 4 pieces in black or white color connected in a row either horizontally, vertically or diagonally. <br></p>","0","pattern_quiz","true","","","","","","","","","","","","","","","","","","","","","","","",""
"","","","","","html-button-response","15","169463","0.0-2.0-1.1-1.1-4.1","5fb69cacddba6408f81a9564","E1","batch5","","595.6000000089407","<p class = block-text>Correct! </p>","0","pattern_quiz_feedback","","","","","","","","","","","","","","","","","","","","","","","","",""
"","","","","","html-button-response","16","171542","0.0-2.0-2.0","5fb69cacddba6408f81a9564","E1","batch5","","2078","<p class=block-text> Now that you've understood the game, let's do a few practice trials before we start!<br> <br>","0","pattern_enter_practice","","","","","","","","","","","","","","","","","","","","","","","","",""
"","","","","","image-keyboard-response","17","175500","0.0-2.0-3.0-0.0","5fb69cacddba6408f81a9564","E1","batch5","","3944","stim/prac_no_18_1.png","j","pattern_practice","true","j","","","","","","","","","","","","","","","","","","","","","","",""
"","","","","","html-keyboard-response","18","176510","0.0-2.0-3.0-1.0","5fb69cacddba6408f81a9564","E1","batch5","","null","<p style=""font-size:30px;color:green;"">Correct!</p>","null","pattern_feedback","","","","","","","","","","","","","","","","","","","","","","","","",""
"","","","","","image-keyboard-response","19","177663","0.0-2.0-3.0-0.1","5fb69cacddba6408f81a9564","E1","batch5","","1152.2999999970198","stim/prac_yes_18_hor_w1.png","f","pattern_practice","true","f","","","","","","","","","","","","","","","","","","","","","","",""
"","","","","","html-keyboard-response","20","178673","0.0-2.0-3.0-1.1","5fb69cacddba6408f81a9564","E1","batch5","","null","<p style=""font-size:30px;color:green;"">Correct!</p>","null","pattern_feedback","","","","","","","","","","","","","","","","","","","","","","","","",""
"","","","","","image-keyboard-response","21","179524","0.0-2.0-3.0-0.2","5fb69cacddba6408f81a9564","E1","batch5","","849.3999999910593","stim/prac_yes_16_ver_w1.png","f","pattern_practice","true","f","","","","","","","","","","","","","","","","","","","","","","",""
"","","","","","html-keyboard-response","22","180532","0.0-2.0-3.0-1.2","5fb69cacddba6408f81a9564","E1","batch5","","null","<p style=""font-size:30px;color:green;"">Correct!</p>","null","pattern_feedback","","","","","","","","","","","","","","","","","","","","","","","","",""
"","","","","","image-keyboard-response","23","181605","0.0-2.0-3.0-0.3","5fb69cacddba6408f81a9564","E1","batch5","","1072.2000000029802","stim/prac_yes_20_dia_b1.png","j","pattern_practice","false","f","","","","","","","","","","","","","","","","","","","","","","",""
"","","","","","html-keyboard-response","24","182618","0.0-2.0-3.0-1.3","5fb69cacddba6408f81a9564","E1","batch5","","null","<p style=""font-size:30px;color:red;"">Wrong.</p>","null","pattern_feedback","","","","","","","","","","","","","","","","","","","","","","","","",""
"","","","","","image-keyboard-response","25","185520","0.0-2.0-3.0-0.4","5fb69cacddba6408f81a9564","E1","batch5","","2899.699999988079","stim/prac_no_16_1.png","j","pattern_practice","true","j","","","","","","","","","","","","","","","","","","","","","","",""
"","","","","","html-keyboard-response","26","186540","0.0-2.0-3.0-1.4","5fb69cacddba6408f81a9564","E1","batch5","","null","<p style=""font-size:30px;color:green;"">Correct!</p>","null","pattern_feedback","","","","","","","","","","","","","","","","","","","","","","","","",""
"","","","","","html-button-response","27","193771","0.0-2.0-4.0","5fb69cacddba6408f81a9564","E1","batch5","","7228.5","<p class=block-text> Good job! You are done with practice trials!<br>
        You responded correctly on 80% of the trials.<br>
        Press the button below to start official trials. Now you won't see any feedback about your response</p>","0","pattern_enter_official_trials","","","","","","","","","","","","","","","","","","","","","","","","",""
"","","","","","html-keyboard-response","28","194582","0.0-2.0-5.0-0.0","5fb69cacddba6408f81a9564","E1","batch5","","null","<p class=block-text>Trial 1 out of 78</p>","null","pattern_show_trial_num","","","","","","","","","","","","","","","","","","","","","","","","",""
"","","","","","image-keyboard-response","29","196552","0.0-2.0-5.0-1.0","5fb69cacddba6408f81a9564","E1","batch5","","1968.7000000029802","stim/yes_53_ver_b1_b.png","f","pattern_response","true","f","pattern_74","1968.7000000029802","true","1","","","","","","","","","","","","","","","","","","",""
"","","","","","html-keyboard-response","30","197867","0.0-2.0-5.0-0.1","5fb69cacddba6408f81a9564","E1","batch5","","null","<p class=block-text>Trial 2 out of 78</p>","null","pattern_show_trial_num","","","","","","","","","","","","","","","","","","","","","","","","",""
"","","","","","image-keyboard-response","31","199902","0.0-2.0-5.0-1.1","5fb69cacddba6408f81a9564","E1","batch5","","2033.3999999910593","stim/no_47_1_b.png","j","pattern_response","true","j","pattern_27","2033.3999999910593","true","2","","","","","","","","","","","","","","","","","","",""
"","","","","","html-keyboard-response","32","201221","0.0-2.0-5.0-0.2","5fb69cacddba6408f81a9564","E1","batch5","","null","<p class=block-text>Trial 3 out of 78</p>","null","pattern_show_trial_num","","","","","","","","","","","","","","","","","","","","","","","","",""
"","","","","","image-keyboard-response","33","203931","0.0-2.0-5.0-1.2","5fb69cacddba6408f81a9564","E1","batch5","","2707.8999999910593","stim/no_30_1_b.png","j","pattern_response","true","j","pattern_13","2707.8999999910593","true","3","","","","","","","","","","","","","","","","","","",""
"","","","","","html-keyboard-response","34","205240","0.0-2.0-5.0-0.3","5fb69cacddba6408f81a9564","E1","batch5","","null","<p class=block-text>Trial 4 out of 78</p>","null","pattern_show_trial_num","","","","","","","","","","","","","","","","","","","","","","","","",""
"","","","","","image-keyboard-response","35","205930","0.0-2.0-5.0-1.3","5fb69cacddba6408f81a9564","E1","batch5","","689.0999999940395","stim/yes_36_ver_w1_w.png","f","pattern_response","true","f","pattern_58","689.0999999940395","true","4","","","","","","","","","","","","","","","","","","",""
"","","","","","html-keyboard-response","36","207244","0.0-2.0-5.0-0.4","5fb69cacddba6408f81a9564","E1","batch5","","null","<p class=block-text>Trial 5 out of 78</p>","null","pattern_show_trial_num","","","","","","","","","","","","","","","","","","","","","","","","",""
"","","","","","image-keyboard-response","37","209454","0.0-2.0-5.0-1.4","5fb69cacddba6408f81a9564","E1","batch5","","2208.5999999940395","stim/no_25_1_b.png","j","pattern_response","true","j","pattern_09","2208.5999999940395","true","5","","","","","","","","","","","","","","","","","","",""
"","","","","","html-keyboard-response","38","210771","0.0-2.0-5.0-0.5","5fb69cacddba6408f81a9564","E1","batch5","","null","<p class=block-text>Trial 6 out of 78</p>","null","pattern_show_trial_num","","","","","","","","","","","","","","","","","","","","","","","","",""
"","","","","","image-keyboard-response","39","211495","0.0-2.0-5.0-1.5","5fb69cacddba6408f81a9564","E1","batch5","","722.2000000029802","stim/yes_12_hor_w1_w.png","f","pattern_response","true","f","pattern_42","722.2000000029802","true","6","","","","","","","","","","","","","","","","","","",""
"","","","","","html-keyboard-response","40","212809","0.0-2.0-5.0-0.6","5fb69cacddba6408f81a9564","E1","batch5","","null","<p class=block-text>Trial 7 out of 78</p>","null","pattern_show_trial_num","","","","","","","","","","","","","","","","","","","","","","","","",""
"","","","","","image-keyboard-response","41","214936","0.0-2.0-5.0-1.6","5fb69cacddba6408f81a9564","E1","batch5","","2125.7000000029802","stim/yes_42_dia_w1_w.png","f","pattern_response","true","f","pattern_64","2125.7000000029802","true","7","","","","","","","","","","","","","","","","","","",""
"","","","","","html-keyboard-response","42","216248","0.0-2.0-5.0-0.7","5fb69cacddba6408f81a9564","E1","batch5","","null","<p class=block-text>Trial 8 out of 78</p>","null","pattern_show_trial_num","","","","","","","","","","","","","","","","","","","","","","","","",""
"","","","","","image-keyboard-response","43","216957","0.0-2.0-5.0-1.7","5fb69cacddba6408f81a9564","E1","batch5","","708.5","stim/yes_30_ver_b1_b.png","j","pattern_response","false","f","pattern_54","708.5","false","7","","","","","","","","","","","","","","","","","","",""
"","","","","","html-keyboard-response","44","218265","0.0-2.0-5.0-0.8","5fb69cacddba6408f81a9564","E1","batch5","","null","<p class=block-text>Trial 9 out of 78</p>","null","pattern_show_trial_num","","","","","","","","","","","","","","","","","","","","","","","","",""
"","","","","","image-keyboard-response","45","222021","0.0-2.0-5.0-1.8","5fb69cacddba6408f81a9564","E1","batch5","","3754.9000000059605","stim/no_53_1_b.png","j","pattern_response","true","j","pattern_33","3754.9000000059605","true","8","","","","","","","","","","","","","","","","","","",""
"","","","","","html-keyboard-response","46","223340","0.0-2.0-5.0-0.9","5fb69cacddba6408f81a9564","E1","batch5","","null","<p class=block-text>Trial 10 out of 78</p>","null","pattern_show_trial_num","","","","","","","","","","","","","","","","","","","","","","","","",""
"","","","","","image-keyboard-response","47","229316","0.0-2.0-5.0-1.9","5fb69cacddba6408f81a9564","E1","batch5","","5974.29999999702","stim/no_67_1.png","j","pattern_response","true","j","pattern_39","5974.29999999702","true","9","","","","","","","","","","","","","","","","","","",""
"","","","","","html-keyboard-response","48","230636","0.0-2.0-5.0-0.10","5fb69cacddba6408f81a9564","E1","batch5","","null","<p class=block-text>Trial 11 out of 78</p>","null","pattern_show_trial_num","","","","","","","","","","","","","","","","","","","","","","","","",""
"","","","","","image-keyboard-response","49","231767","0.0-2.0-5.0-1.10","5fb69cacddba6408f81a9564","E1","batch5","","1127.1000000089407","stim/no_15_1_w.png","j","pattern_response","true","j","pattern_03","1127.1000000089407","true","10","","","","","","","","","","","","","","","","","","",""
"","","","","","html-keyboard-response","50","233081","0.0-2.0-5.0-0.11","5fb69cacddba6408f81a9564","E1","batch5","","null","<p class=block-text>Trial 12 out of 78</p>","null","pattern_show_trial_num","","","","","","","","","","","","","","","","","","","","","","","","",""
"","","","","","image-keyboard-response","51","237204","0.0-2.0-5.0-1.11","5fb69cacddba6408f81a9564","E1","batch5","","4121.79999999702","stim/no_45_1_w.png","j","pattern_response","true","j","pattern_25","4121.79999999702","true","11","","","","","","","","","","","","","","","","","","",""
"","","","","","html-keyboard-response","52","238522","0.0-2.0-5.0-0.12","5fb69cacddba6408f81a9564","E1","batch5","","null","<p class=block-text>Trial 13 out of 78</p>","null","pattern_show_trial_num","","","","","","","","","","","","","","","","","","","","","","","","",""
"","","","","","image-keyboard-response","53","239661","0.0-2.0-5.0-1.12","5fb69cacddba6408f81a9564","E1","batch5","","1136.2999999970198","stim/yes_17_ver_b1_b.png","f","pattern_response","true","f","pattern_46","1136.2999999970198","true","12","","","","","","","","","","","","","","","","","","",""
"","","","","","html-keyboard-response","54","240975","0.0-2.0-5.0-0.13","5fb69cacddba6408f81a9564","E1","batch5","","null","<p class=block-text>Trial 14 out of 78</p>","null","pattern_show_trial_num","","","","","","","","","","","","","","","","","","","","","","","","",""
"","","","","","image-keyboard-response","55","244017","0.0-2.0-5.0-1.13","5fb69cacddba6408f81a9564","E1","batch5","","3041.5999999940395","stim/no_33_1_b.png","j","pattern_response","true","j","pattern_15","3041.5999999940395","true","13","","","","","","","","","","","","","","","","","","",""
"","","","","","html-keyboard-response","56","245328","0.0-2.0-5.0-0.14","5fb69cacddba6408f81a9564","E1","batch5","","null","<p class=block-text>Trial 15 out of 78</p>","null","pattern_show_trial_num","","","","","","","","","","","","","","","","","","","","","","","","",""
"","","","","","image-keyboard-response","57","249723","0.0-2.0-5.0-1.14","5fb69cacddba6408f81a9564","E1","batch5","","4393.29999999702","stim/no_49_2_b.png","j","pattern_response","true","j","pattern_29","4393.29999999702","true","14","","","","","","","","","","","","","","","","","","",""
"","","","","","html-keyboard-response","58","251039","0.0-2.0-5.0-0.15","5fb69cacddba6408f81a9564","E1","batch5","","null","<p class=block-text>Trial 16 out of 78</p>","null","pattern_show_trial_num","","","","","","","","","","","","","","","","","","","","","","","","",""
"","","","","","image-keyboard-response","59","252079","0.0-2.0-5.0-1.15","5fb69cacddba6408f81a9564","E1","batch5","","1037.8999999910593","stim/yes_46_ver_b1_b.png","f","pattern_response","true","f","pattern_68","1037.8999999910593","true","15","","","","","","","","","","","","","","","","","","",""
"","","","","","html-keyboard-response","60","253390","0.0-2.0-5.0-0.16","5fb69cacddba6408f81a9564","E1","batch5","","null","<p class=block-text>Trial 17 out of 78</p>","null","pattern_show_trial_num","","","","","","","","","","","","","","","","","","","","","","","","",""
"","","","","","image-keyboard-response","61","257656","0.0-2.0-5.0-1.16","5fb69cacddba6408f81a9564","E1","batch5","","4264.899999991059","stim/yes_58_dia_w1_w.png","f","pattern_response","true","f","pattern_76","4264.899999991059","true","16","","","","","","","","","","","","","","","","","","",""
"","","","","","html-keyboard-response","62","258970","0.0-2.0-5.0-0.17","5fb69cacddba6408f81a9564","E1","batch5","","null","<p class=block-text>Trial 18 out of 78</p>","null","pattern_show_trial_num","","","","","","","","","","","","","","","","","","","","","","","","",""
"","","","","","image-keyboard-response","63","262467","0.0-2.0-5.0-1.17","5fb69cacddba6408f81a9564","E1","batch5","","3495.2000000029802","stim/no_36_1_b.png","j","pattern_response","true","j","pattern_17","3495.2000000029802","true","17","","","","","","","","","","","","","","","","","","",""
"","","","","","html-keyboard-response","64","263785","0.0-2.0-5.0-0.18","5fb69cacddba6408f81a9564","E1","batch5","","null","<p class=block-text>Trial 19 out of 78</p>","null","pattern_show_trial_num","","","","","","","","","","","","","","","","","","","","","","","","",""
"","","","","","image-keyboard-response","65","264716","0.0-2.0-5.0-1.18","5fb69cacddba6408f81a9564","E1","batch5","","929.5999999940395","stim/yes_70_ver_b1.png","f","pattern_response","true","f","pattern_80","929.5999999940395","true","18","","","","","","","","","","","","","","","","","","",""
"","","","","","html-keyboard-response","66","266030","0.0-2.0-5.0-0.19","5fb69cacddba6408f81a9564","E1","batch5","","null","<p class=block-text>Trial 20 out of 78</p>","null","pattern_show_trial_num","","","","","","","","","","","","","","","","","","","","","","","","",""
"","","","","","image-keyboard-response","67","270892","0.0-2.0-5.0-1.19","5fb69cacddba6408f81a9564","E1","batch5","","4860.5999999940395","stim/no_58_1_w.png","j","pattern_response","true","j","pattern_35","4860.5999999940395","true","19","","","","","","","","","","","","","","","","","","",""
"","","","","","html-keyboard-response","68","272210","0.0-2.0-5.0-0.20","5fb69cacddba6408f81a9564","E1","batch5","","null","<p class=block-text>Trial 21 out of 78</p>","null","pattern_show_trial_num","","","","","","","","","","","","","","","","","","","","","","","","",""
"","","","","","image-keyboard-response","69","274511","0.0-2.0-5.0-1.20","5fb69cacddba6408f81a9564","E1","batch5","","2289.4000000059605","stim/yes_44_ver_w1_w.png","f","pattern_response","true","f","pattern_66","2289.4000000059605","true","20","","","","","","","","","","","","","","","","","","",""
"","","","","","html-keyboard-response","70","275823","0.0-2.0-5.0-0.21","5fb69cacddba6408f81a9564","E1","batch5","","null","<p class=block-text>Trial 22 out of 78</p>","null","pattern_show_trial_num","","","","","","","","","","","","","","","","","","","","","","","","",""
"","","","","","image-keyboard-response","71","277196","0.0-2.0-5.0-1.21","5fb69cacddba6408f81a9564","E1","batch5","","1372.0999999940395","stim/yes_33_dia_w1_w.png","j","pattern_response","false","f","pattern_56","1372.0999999940395","false","20","","","","","","","","","","","","","","","","","","",""
"","","","","","html-keyboard-response","72","278511","0.0-2.0-5.0-0.22","5fb69cacddba6408f81a9564","E1","batch5","","null","<p class=block-text>Trial 23 out of 78</p>","null","pattern_show_trial_num","","","","","","","","","","","","","","","","","","","","","","","","",""
"","","","","","image-keyboard-response","73","282703","0.0-2.0-5.0-1.22","5fb69cacddba6408f81a9564","E1","batch5","","4190.29999999702","stim/no_43_2_b.png","j","pattern_response","true","j","pattern_23","4190.29999999702","true","21","","","","","","","","","","","","","","","","","","",""
"","","","","","html-keyboard-response","74","284014","0.0-2.0-5.0-0.23","5fb69cacddba6408f81a9564","E1","batch5","","null","<p class=block-text>Trial 24 out of 78</p>","null","pattern_show_trial_num","","","","","","","","","","","","","","","","","","","","","","","","",""
"","","","","","image-keyboard-response","75","288109","0.0-2.0-5.0-1.23","5fb69cacddba6408f81a9564","E1","batch5","","4092.0999999940395","stim/yes_49_hor_w1_b.png","f","pattern_response","true","f","pattern_70","4092.0999999940395","true","22","","","","","","","","","","","","","","","","","","",""
"","","","","","html-keyboard-response","76","289421","0.0-2.0-5.0-0.24","5fb69cacddba6408f81a9564","E1","batch5","","null","<p class=block-text>Trial 25 out of 78</p>","null","pattern_show_trial_num","","","","","","","","","","","","","","","","","","","","","","","","",""
"","","","","","image-keyboard-response","77","290694","0.0-2.0-5.0-1.24","5fb69cacddba6408f81a9564","E1","batch5","","1270.5","stim/no_12_1.png","j","pattern_response","true","j","pattern_01","1270.5","true","23","","","","","","","","","","","","","","","","","","",""
"","","","","","html-keyboard-response","78","292008","0.0-2.0-5.0-0.25","5fb69cacddba6408f81a9564","E1","batch5","","null","<p class=block-text>Trial 26 out of 78</p>","null","pattern_show_trial_num","","","","","","","","","","","","","","","","","","","","","","","","",""
"","","","","","image-keyboard-response","79","293109","0.0-2.0-5.0-1.25","5fb69cacddba6408f81a9564","E1","batch5","","1100","stim/yes_15_dia_b1u_b.png","f","pattern_response","true","f","pattern_44","1100","true","24","","","","","","","","","","","","","","","","","","",""
"","","","","","html-keyboard-response","80","294425","0.0-2.0-5.0-0.26","5fb69cacddba6408f81a9564","E1","batch5","","null","<p class=block-text>Trial 27 out of 78</p>","null","pattern_show_trial_num","","","","","","","","","","","","","","","","","","","","","","","","",""
"","","","","","image-keyboard-response","81","296907","0.0-2.0-5.0-1.26","5fb69cacddba6408f81a9564","E1","batch5","","2480.5","stim/yes_51_dia_b1.png","f","pattern_response","true","f","pattern_72","2480.5","true","25","","","","","","","","","","","","","","","","","","",""
"","","","","","html-keyboard-response","82","298222","0.0-2.0-5.0-0.27","5fb69cacddba6408f81a9564","E1","batch5","","null","<p class=block-text>Trial 28 out of 78</p>","null","pattern_show_trial_num","","","","","","","","","","","","","","","","","","","","","","","","",""
"","","","","","image-keyboard-response","83","299428","0.0-2.0-5.0-1.27","5fb69cacddba6408f81a9564","E1","batch5","","1203.0999999940395","stim/yes_37_hor_w1_w.png","f","pattern_response","true","f","pattern_60","1203.0999999940395","true","26","","","","","","","","","","","","","","","","","","",""
"","","","","","html-keyboard-response","84","300746","0.0-2.0-5.0-0.28","5fb69cacddba6408f81a9564","E1","batch5","","null","<p class=block-text>Trial 29 out of 78</p>","null","pattern_show_trial_num","","","","","","","","","","","","","","","","","","","","","","","","",""
"","","","","","image-keyboard-response","85","304047","0.0-2.0-5.0-1.28","5fb69cacddba6408f81a9564","E1","batch5","","3299.2000000029802","stim/yes_63_dia_b1.png","f","pattern_response","true","f","pattern_78","3299.2000000029802","true","27","","","","","","","","","","","","","","","","","","",""
"","","","","","html-keyboard-response","86","305357","0.0-2.0-5.0-0.29","5fb69cacddba6408f81a9564","E1","batch5","","null","<p class=block-text>Trial 30 out of 78</p>","null","pattern_show_trial_num","","","","","","","","","","","","","","","","","","","","","","","","",""
"","","","","","image-keyboard-response","87","308074","0.0-2.0-5.0-1.29","5fb69cacddba6408f81a9564","E1","batch5","","2714.5","stim/no_28_2.png","j","pattern_response","true","j","pattern_11","2714.5","true","28","","","","","","","","","","","","","","","","","","",""
"","","","","","html-keyboard-response","88","309389","0.0-2.0-5.0-0.30","5fb69cacddba6408f81a9564","E1","batch5","","null","<p class=block-text>Trial 31 out of 78</p>","null","pattern_show_trial_num","","","","","","","","","","","","","","","","","","","","","","","","",""
"","","","","","image-keyboard-response","89","310318","0.0-2.0-5.0-1.30","5fb69cacddba6408f81a9564","E1","batch5","","927.4000000059605","stim/yes_23_ver_b1.png","f","pattern_response","true","f","pattern_48","927.4000000059605","true","29","","","","","","","","","","","","","","","","","","",""
"","","","","","html-keyboard-response","90","311632","0.0-2.0-5.0-0.31","5fb69cacddba6408f81a9564","E1","batch5","","null","<p class=block-text>Trial 32 out of 78</p>","null","pattern_show_trial_num","","","","","","","","","","","","","","","","","","","","","","","","",""
"","","","","","image-keyboard-response","91","317537","0.0-2.0-5.0-1.31","5fb69cacddba6408f81a9564","E1","batch5","","5903.9000000059605","stim/no_51_1.png","j","pattern_response","true","j","pattern_31","5903.9000000059605","true","30","","","","","","","","","","","","","","","","","","",""
"","","","","","html-keyboard-response","92","318852","0.0-2.0-5.0-0.32","5fb69cacddba6408f81a9564","E1","batch5","","null","<p class=block-text>Trial 33 out of 78</p>","null","pattern_show_trial_num","","","","","","","","","","","","","","","","","","","","","","","","",""
"","","","","","image-keyboard-response","93","319686","0.0-2.0-5.0-1.32","5fb69cacddba6408f81a9564","E1","batch5","","832.3999999910593","stim/yes_39_hor_w1_w.png","f","pattern_response","true","f","pattern_62","832.3999999910593","true","31","","","","","","","","","","","","","","","","","","",""
"","","","","","html-keyboard-response","94","320999","0.0-2.0-5.0-0.33","5fb69cacddba6408f81a9564","E1","batch5","","null","<p class=block-text>Trial 34 out of 78</p>","null","pattern_show_trial_num","","","","","","","","","","","","","","","","","","","","","","","","",""
"","","","","","image-keyboard-response","95","322668","0.0-2.0-5.0-1.33","5fb69cacddba6408f81a9564","E1","batch5","","1667.7999999970198","stim/no_18_1_b.png","j","pattern_response","true","j","pattern_05","1667.7999999970198","true","32","","","","","","","","","","","","","","","","","","",""
"","","","","","html-keyboard-response","96","323981","0.0-2.0-5.0-0.34","5fb69cacddba6408f81a9564","E1","batch5","","null","<p class=block-text>Trial 35 out of 78</p>","null","pattern_show_trial_num","","","","","","","","","","","","","","","","","","","","","","","","",""
"","","","","","image-keyboard-response","97","329380","0.0-2.0-5.0-1.34","5fb69cacddba6408f81a9564","E1","batch5","","5398.20000000298","stim/no_39_1_w.png","j","pattern_response","true","j","pattern_21","5398.20000000298","true","33","","","","","","","","","","","","","","","","","","",""
"","","","","","html-keyboard-response","98","330697","0.0-2.0-5.0-0.35","5fb69cacddba6408f81a9564","E1","batch5","","null","<p class=block-text>Trial 36 out of 78</p>","null","pattern_show_trial_num","","","","","","","","","","","","","","","","","","","","","","","","",""
"","","","","","image-keyboard-response","99","334646","0.0-2.0-5.0-1.35","5fb69cacddba6408f81a9564","E1","batch5","","3947.5999999940395","stim/no_37_2_w.png","j","pattern_response","true","j","pattern_19","3947.5999999940395","true","34","","","","","","","","","","","","","","","","","","",""
"","","","","","html-keyboard-response","100","335957","0.0-2.0-5.0-0.36","5fb69cacddba6408f81a9564","E1","batch5","","null","<p class=block-text>Trial 37 out of 78</p>","null","pattern_show_trial_num","","","","","","","","","","","","","","","","","","","","","","","","",""
"","","","","","image-keyboard-response","101","337018","0.0-2.0-5.0-1.36","5fb69cacddba6408f81a9564","E1","batch5","","1060.1000000089407","stim/yes_29_hor_b1_b.png","f","pattern_response","true","f","pattern_52","1060.1000000089407","true","35","","","","","","","","","","","","","","","","","","",""
"","","","","","html-keyboard-response","102","338335","0.0-2.0-5.0-0.37","5fb69cacddba6408f81a9564","E1","batch5","","null","<p class=block-text>Trial 38 out of 78</p>","null","pattern_show_trial_num","","","","","","","","","","","","","","","","","","","","","","","","",""
"","","","","","image-keyboard-response","103","341126","0.0-2.0-5.0-1.37","5fb69cacddba6408f81a9564","E1","batch5","","2789.5","stim/no_22_1_b.png","j","pattern_response","true","j","pattern_07","2789.5","true","36","","","","","","","","","","","","","","","","","","",""
"","","","","","html-keyboard-response","104","342436","0.0-2.0-5.0-0.38","5fb69cacddba6408f81a9564","E1","batch5","","null","<p class=block-text>Trial 39 out of 78</p>","null","pattern_show_trial_num","","","","","","","","","","","","","","","","","","","","","","","","",""
"","","","","","image-keyboard-response","105","343410","0.0-2.0-5.0-1.38","5fb69cacddba6408f81a9564","E1","batch5","","970.8000000119209","stim/yes_26_dia_w2_w.png","f","pattern_response","true","f","pattern_50","970.8000000119209","true","37","","","","","","","","","","","","","","","","","","",""
"","","","","","image-keyboard-response","106","346875","0.0-2.0-6.0","5fb69cacddba6408f81a9564","E1","batch5","","2958.8999999910593","stim/empty_board.png","j","attention_check","true","j","","","","","500","[""f"",""j""]","","","","","","","","","","","","","","","","",""
"","","","","","html-keyboard-response","107","347687","0.0-2.0-7.0-0.0","5fb69cacddba6408f81a9564","E1","batch5","","null","<p class=block-text>Trial 40 out of 78</p>","null","pattern_show_trial_num","","","","","","","","","","","","","","","","","","","","","","","","",""
"","","","","","image-keyboard-response","108","351784","0.0-2.0-7.0-1.0","5fb69cacddba6408f81a9564","E1","batch5","","4095.1000000089407","stim/no_48_1_w.png","j","pattern_response","true","j","pattern_28","4095.1000000089407","true","38","","","","","","","","","","","","","","","","","","",""
"","","","","","html-keyboard-response","109","353100","0.0-2.0-7.0-0.1","5fb69cacddba6408f81a9564","E1","batch5","","null","<p class=block-text>Trial 41 out of 78</p>","null","pattern_show_trial_num","","","","","","","","","","","","","","","","","","","","","","","","",""
"","","","","","image-keyboard-response","110","355189","0.0-2.0-7.0-1.1","5fb69cacddba6408f81a9564","E1","batch5","","2088","stim/yes_48_dia_w1_w.png","f","pattern_response","true","f","pattern_69","2088","true","39","","","","","","","","","","","","","","","","","","",""
"","","","","","html-keyboard-response","111","356500","0.0-2.0-7.0-0.2","5fb69cacddba6408f81a9564","E1","batch5","","null","<p class=block-text>Trial 42 out of 78</p>","null","pattern_show_trial_num","","","","","","","","","","","","","","","","","","","","","","","","",""
"","","","","","image-keyboard-response","112","357857","0.0-2.0-7.0-1.2","5fb69cacddba6408f81a9564","E1","batch5","","1355.4000000059605","stim/yes_60_ver_b1_b.png","f","pattern_response","true","f","pattern_77","1355.4000000059605","true","40","","","","","","","","","","","","","","","","","","",""
"","","","","","html-keyboard-response","113","359173","0.0-2.0-7.0-0.3","5fb69cacddba6408f81a9564","E1","batch5","","null","<p class=block-text>Trial 43 out of 78</p>","null","pattern_show_trial_num","","","","","","","","","","","","","","","","","","","","","","","","",""
"","","","","","image-keyboard-response","114","360093","0.0-2.0-7.0-1.3","5fb69cacddba6408f81a9564","E1","batch5","","918.8000000119209","stim/yes_22_ver_w1.png","f","pattern_response","true","f","pattern_47","918.8000000119209","true","41","","","","","","","","","","","","","","","","","","",""
"","","","","","html-keyboard-response","115","361403","0.0-2.0-7.0-0.4","5fb69cacddba6408f81a9564","E1","batch5","","null","<p class=block-text>Trial 44 out of 78</p>","null","pattern_show_trial_num","","","","","","","","","","","","","","","","","","","","","","","","",""
"","","","","","image-keyboard-response","116","362180","0.0-2.0-7.0-1.4","5fb69cacddba6408f81a9564","E1","batch5","","776.1000000089407","stim/yes_38_hor_b1_b.png","f","pattern_response","true","f","pattern_61","776.1000000089407","true","42","","","","","","","","","","","","","","","","","","",""
"","","","","","html-keyboard-response","117","363493","0.0-2.0-7.0-0.5","5fb69cacddba6408f81a9564","E1","batch5","","null","<p class=block-text>Trial 45 out of 78</p>","null","pattern_show_trial_num","","","","","","","","","","","","","","","","","","","","","","","","",""
"","","","","","image-keyboard-response","118","364481","0.0-2.0-7.0-1.5","5fb69cacddba6408f81a9564","E1","batch5","","985.1000000089407","stim/yes_14_hor_b1_w.png","f","pattern_response","true","f","pattern_43","985.1000000089407","true","43","","","","","","","","","","","","","","","","","","",""
"","","","","","html-keyboard-response","119","365796","0.0-2.0-7.0-0.6","5fb69cacddba6408f81a9564","E1","batch5","","null","<p class=block-text>Trial 46 out of 78</p>","null","pattern_show_trial_num","","","","","","","","","","","","","","","","","","","","","","","","",""
"","","","","","image-keyboard-response","120","367286","0.0-2.0-7.0-1.6","5fb69cacddba6408f81a9564","E1","batch5","","1488","stim/no_17_1_w.png","j","pattern_response","true","j","pattern_04","1488","true","44","","","","","","","","","","","","","","","","","","",""
"","","","","","html-keyboard-response","121","368595","0.0-2.0-7.0-0.7","5fb69cacddba6408f81a9564","E1","batch5","","null","<p class=block-text>Trial 47 out of 78</p>","null","pattern_show_trial_num","","","","","","","","","","","","","","","","","","","","","","","","",""
"","","","","","image-keyboard-response","122","370983","0.0-2.0-7.0-1.7","5fb69cacddba6408f81a9564","E1","batch5","","2386.2999999970198","stim/no_20_1_w.png","j","pattern_response","true","j","pattern_06","2386.2999999970198","true","45","","","","","","","","","","","","","","","","","","",""
"","","","","","html-keyboard-response","123","372299","0.0-2.0-7.0-0.8","5fb69cacddba6408f81a9564","E1","batch5","","null","<p class=block-text>Trial 48 out of 78</p>","null","pattern_show_trial_num","","","","","","","","","","","","","","","","","","","","","","","","",""
"","","","","","image-keyboard-response","124","373252","0.0-2.0-7.0-1.8","5fb69cacddba6408f81a9564","E1","batch5","","952.5","stim/yes_29_ver_w1.png","f","pattern_response","true","f","pattern_53","952.5","true","46","","","","","","","","","","","","","","","","","","",""
"","","","","","html-keyboard-response","125","374563","0.0-2.0-7.0-0.9","5fb69cacddba6408f81a9564","E1","batch5","","null","<p class=block-text>Trial 49 out of 78</p>","null","pattern_show_trial_num","","","","","","","","","","","","","","","","","","","","","","","","",""
"","","","","","image-keyboard-response","126","379420","0.0-2.0-7.0-1.9","5fb69cacddba6408f81a9564","E1","batch5","","4855.399999991059","stim/no_42_1_w.png","j","pattern_response","true","j","pattern_22","4855.399999991059","true","47","","","","","","","","","","","","","","","","","","",""
"","","","","","html-keyboard-response","127","380732","0.0-2.0-7.0-0.10","5fb69cacddba6408f81a9564","E1","batch5","","null","<p class=block-text>Trial 50 out of 78</p>","null","pattern_show_trial_num","","","","","","","","","","","","","","","","","","","","","","","","",""
"","","","","","image-keyboard-response","128","385964","0.0-2.0-7.0-1.10","5fb69cacddba6408f81a9564","E1","batch5","","5231","stim/no_52_1.png","j","pattern_response","true","j","pattern_32","5231","true","48","","","","","","","","","","","","","","","","","","",""
"","","","","","html-keyboard-response","129","387278","0.0-2.0-7.0-0.11","5fb69cacddba6408f81a9564","E1","batch5","","null","<p class=block-text>Trial 51 out of 78</p>","null","pattern_show_trial_num","","","","","","","","","","","","","","","","","","","","","","","","",""
"","","","","","image-keyboard-response","130","388132","0.0-2.0-7.0-1.11","5fb69cacddba6408f81a9564","E1","batch5","","851.5","stim/yes_25_hor_b1_b.png","f","pattern_response","true","f","pattern_49","851.5","true","49","","","","","","","","","","","","","","","","","","",""
"","","","","","html-keyboard-response","131","389445","0.0-2.0-7.0-0.12","5fb69cacddba6408f81a9564","E1","batch5","","null","<p class=block-text>Trial 52 out of 78</p>","null","pattern_show_trial_num","","","","","","","","","","","","","","","","","","","","","","","","",""
"","","","","","image-keyboard-response","132","391238","0.0-2.0-7.0-1.12","5fb69cacddba6408f81a9564","E1","batch5","","1791.5","stim/no_23_1.png","j","pattern_response","true","j","pattern_08","1791.5","true","50","","","","","","","","","","","","","","","","","","",""
"","","","","","html-keyboard-response","133","392549","0.0-2.0-7.0-0.13","5fb69cacddba6408f81a9564","E1","batch5","","null","<p class=block-text>Trial 53 out of 78</p>","null","pattern_show_trial_num","","","","","","","","","","","","","","","","","","","","","","","","",""
"","","","","","image-keyboard-response","134","396703","0.0-2.0-7.0-1.13","5fb69cacddba6408f81a9564","E1","batch5","","4151.70000000298","stim/no_36_2_w.png","j","pattern_response","true","j","pattern_18","4151.70000000298","true","51","","","","","","","","","","","","","","","","","","",""
"","","","","","html-keyboard-response","135","398019","0.0-2.0-7.0-0.14","5fb69cacddba6408f81a9564","E1","batch5","","null","<p class=block-text>Trial 54 out of 78</p>","null","pattern_show_trial_num","","","","","","","","","","","","","","","","","","","","","","","","",""
"","","","","","image-keyboard-response","136","402693","0.0-2.0-7.0-1.14","5fb69cacddba6408f81a9564","E1","batch5","","4673.399999991059","stim/no_62_1_w.png","j","pattern_response","true","j","pattern_36","4673.399999991059","true","52","","","","","","","","","","","","","","","","","","",""
"","","","","","html-keyboard-response","137","404014","0.0-2.0-7.0-0.15","5fb69cacddba6408f81a9564","E1","batch5","","null","<p class=block-text>Trial 55 out of 78</p>","null","pattern_show_trial_num","","","","","","","","","","","","","","","","","","","","","","","","",""
"","","","","","image-keyboard-response","138","405039","0.0-2.0-7.0-1.15","5fb69cacddba6408f81a9564","E1","batch5","","1023.3999999910593","stim/yes_55_hor_w1_w.png","f","pattern_response","true","f","pattern_75","1023.3999999910593","true","53","","","","","","","","","","","","","","","","","","",""
"","","","","","html-keyboard-response","139","406353","0.0-2.0-7.0-0.16","5fb69cacddba6408f81a9564","E1","batch5","","null","<p class=block-text>Trial 56 out of 78</p>","null","pattern_show_trial_num","","","","","","","","","","","","","","","","","","","","","","","","",""
"","","","","","image-keyboard-response","140","407844","0.0-2.0-7.0-1.16","5fb69cacddba6408f81a9564","E1","batch5","","1488.7000000029802","stim/yes_45_hor_b2_b.png","f","pattern_response","true","f","pattern_67","1488.7000000029802","true","54","","","","","","","","","","","","","","","","","","",""
"","","","","","html-keyboard-response","141","409153","0.0-2.0-7.0-0.17","5fb69cacddba6408f81a9564","E1","batch5","","null","<p class=block-text>Trial 57 out of 78</p>","null","pattern_show_trial_num","","","","","","","","","","","","","","","","","","","","","","","","",""
"","","","","","image-keyboard-response","142","413085","0.0-2.0-7.0-1.17","5fb69cacddba6408f81a9564","E1","batch5","","3930.2000000029802","stim/no_50_1.png","j","pattern_response","true","j","pattern_30","3930.2000000029802","true","55","","","","","","","","","","","","","","","","","","",""
"","","","","","html-keyboard-response","143","414402","0.0-2.0-7.0-0.18","5fb69cacddba6408f81a9564","E1","batch5","","null","<p class=block-text>Trial 58 out of 78</p>","null","pattern_show_trial_num","","","","","","","","","","","","","","","","","","","","","","","","",""
"","","","","","image-keyboard-response","144","415445","0.0-2.0-7.0-1.18","5fb69cacddba6408f81a9564","E1","batch5","","1042.2000000029802","stim/yes_28_ver_b1.png","f","pattern_response","true","f","pattern_51","1042.2000000029802","true","56","","","","","","","","","","","","","","","","","","",""
"","","","","","html-keyboard-response","145","416764","0.0-2.0-7.0-0.19","5fb69cacddba6408f81a9564","E1","batch5","","null","<p class=block-text>Trial 59 out of 78</p>","null","pattern_show_trial_num","","","","","","","","","","","","","","","","","","","","","","","","",""
"","","","","","image-keyboard-response","146","417547","0.0-2.0-7.0-1.19","5fb69cacddba6408f81a9564","E1","batch5","","782.5","stim/yes_67_hor_b1.png","f","pattern_response","true","f","pattern_79","782.5","true","57","","","","","","","","","","","","","","","","","","",""
"","","","","","html-keyboard-response","147","418862","0.0-2.0-7.0-0.20","5fb69cacddba6408f81a9564","E1","batch5","","null","<p class=block-text>Trial 60 out of 78</p>","null","pattern_show_trial_num","","","","","","","","","","","","","","","","","","","","","","","","",""
"","","","","","image-keyboard-response","148","419713","0.0-2.0-7.0-1.20","5fb69cacddba6408f81a9564","E1","batch5","","850.0999999940395","stim/no_13_2_b.png","j","pattern_response","true","j","pattern_02","850.0999999940395","true","58","","","","","","","","","","","","","","","","","","",""
"","","","","","html-keyboard-response","149","421026","0.0-2.0-7.0-0.21","5fb69cacddba6408f81a9564","E1","batch5","","null","<p class=block-text>Trial 61 out of 78</p>","null","pattern_show_trial_num","","","","","","","","","","","","","","","","","","","","","","","","",""
"","","","","","image-keyboard-response","150","424150","0.0-2.0-7.0-1.21","5fb69cacddba6408f81a9564","E1","batch5","","3123","stim/no_34_1_b.png","j","pattern_response","true","j","pattern_16","3123","true","59","","","","","","","","","","","","","","","","","","",""
"","","","","","html-keyboard-response","151","425469","0.0-2.0-7.0-0.22","5fb69cacddba6408f81a9564","E1","batch5","","null","<p class=block-text>Trial 62 out of 78</p>","null","pattern_show_trial_num","","","","","","","","","","","","","","","","","","","","","","","","",""
"","","","","","image-keyboard-response","152","429180","0.0-2.0-7.0-1.22","5fb69cacddba6408f81a9564","E1","batch5","","3710","stim/yes_37_dia_w1.png","j","pattern_response","false","f","pattern_59","3710","false","59","","","","","","","","","","","","","","","","","","",""
"","","","","","html-keyboard-response","153","430496","0.0-2.0-7.0-0.23","5fb69cacddba6408f81a9564","E1","batch5","","null","<p class=block-text>Trial 63 out of 78</p>","null","pattern_show_trial_num","","","","","","","","","","","","","","","","","","","","","","","","",""
"","","","","","image-keyboard-response","154","433216","0.0-2.0-7.0-1.23","5fb69cacddba6408f81a9564","E1","batch5","","2717.7000000029802","stim/no_29_1_b.png","j","pattern_response","true","j","pattern_12","2717.7000000029802","true","60","","","","","","","","","","","","","","","","","","",""
"","","","","","html-keyboard-response","155","434532","0.0-2.0-7.0-0.24","5fb69cacddba6408f81a9564","E1","batch5","","null","<p class=block-text>Trial 64 out of 78</p>","null","pattern_show_trial_num","","","","","","","","","","","","","","","","","","","","","","","","",""
"","","","","","image-keyboard-response","156","436052","0.0-2.0-7.0-1.24","5fb69cacddba6408f81a9564","E1","batch5","","1517.5","stim/yes_52_ver_w1.png","f","pattern_response","true","f","pattern_73","1517.5","true","61","","","","","","","","","","","","","","","","","","",""
"","","","","","html-keyboard-response","157","437369","0.0-2.0-7.0-0.25","5fb69cacddba6408f81a9564","E1","batch5","","null","<p class=block-text>Trial 65 out of 78</p>","null","pattern_show_trial_num","","","","","","","","","","","","","","","","","","","","","","","","",""
"","","","","","image-keyboard-response","158","443393","0.0-2.0-7.0-1.25","5fb69cacddba6408f81a9564","E1","batch5","","6020.79999999702","stim/no_44_1.png","j","pattern_response","true","j","pattern_24","6020.79999999702","true","62","","","","","","","","","","","","","","","","","","",""
"","","","","","html-keyboard-response","159","444704","0.0-2.0-7.0-0.26","5fb69cacddba6408f81a9564","E1","batch5","","null","<p class=block-text>Trial 66 out of 78</p>","null","pattern_show_trial_num","","","","","","","","","","","","","","","","","","","","","","","","",""
"","","","","","image-keyboard-response","160","449342","0.0-2.0-7.0-1.26","5fb69cacddba6408f81a9564","E1","batch5","","4636.29999999702","stim/no_70_2.png","j","pattern_response","true","j","pattern_40","4636.29999999702","true","63","","","","","","","","","","","","","","","","","","",""
"","","","","","html-keyboard-response","161","450658","0.0-2.0-7.0-0.27","5fb69cacddba6408f81a9564","E1","batch5","","null","<p class=block-text>Trial 67 out of 78</p>","null","pattern_show_trial_num","","","","","","","","","","","","","","","","","","","","","","","","",""
"","","","","","image-keyboard-response","162","454371","0.0-2.0-7.0-1.27","5fb69cacddba6408f81a9564","E1","batch5","","3710.1000000089407","stim/no_38_1_b.png","j","pattern_response","true","j","pattern_20","3710.1000000089407","true","64","","","","","","","","","","","","","","","","","","",""
"","","","","","html-keyboard-response","163","455681","0.0-2.0-7.0-0.28","5fb69cacddba6408f81a9564","E1","batch5","","null","<p class=block-text>Trial 68 out of 78</p>","null","pattern_show_trial_num","","","","","","","","","","","","","","","","","","","","","","","","",""
"","","","","","image-keyboard-response","164","457147","0.0-2.0-7.0-1.28","5fb69cacddba6408f81a9564","E1","batch5","","1464.2999999970198","stim/yes_40_dia_b1_b.png","f","pattern_response","true","f","pattern_63","1464.2999999970198","true","65","","","","","","","","","","","","","","","","","","",""
"","","","","","html-keyboard-response","165","458457","0.0-2.0-7.0-0.29","5fb69cacddba6408f81a9564","E1","batch5","","null","<p class=block-text>Trial 69 out of 78</p>","null","pattern_show_trial_num","","","","","","","","","","","","","","","","","","","","","","","","",""
"","","","","","image-keyboard-response","166","459154","0.0-2.0-7.0-1.29","5fb69cacddba6408f81a9564","E1","batch5","","689.8999999910593","stim/yes_17_dia_w1.png","f","pattern_response","true","f","pattern_45","689.8999999910593","true","66","","","","","","","","","","","","","","","","","","",""
"","","","","","html-keyboard-response","167","460465","0.0-2.0-7.0-0.30","5fb69cacddba6408f81a9564","E1","batch5","","null","<p class=block-text>Trial 70 out of 78</p>","null","pattern_show_trial_num","","","","","","","","","","","","","","","","","","","","","","","","",""
"","","","","","image-keyboard-response","168","465050","0.0-2.0-7.0-1.30","5fb69cacddba6408f81a9564","E1","batch5","","4584.100000008941","stim/yes_50_dia_w1.png","j","pattern_response","false","f","pattern_71","4584.100000008941","false","66","","","","","","","","","","","","","","","","","","",""
"","","","","","html-keyboard-response","169","466364","0.0-2.0-7.0-0.31","5fb69cacddba6408f81a9564","E1","batch5","","null","<p class=block-text>Trial 71 out of 78</p>","null","pattern_show_trial_num","","","","","","","","","","","","","","","","","","","","","","","","",""
"","","","","","image-keyboard-response","170","467318","0.0-2.0-7.0-1.31","5fb69cacddba6408f81a9564","E1","batch5","","953.4000000059605","stim/yes_43_ver_w1_w.png","f","pattern_response","true","f","pattern_65","953.4000000059605","true","67","","","","","","","","","","","","","","","","","","",""
"","","","","","html-keyboard-response","171","468634","0.0-2.0-7.0-0.32","5fb69cacddba6408f81a9564","E1","batch5","","null","<p class=block-text>Trial 72 out of 78</p>","null","pattern_show_trial_num","","","","","","","","","","","","","","","","","","","","","","","","",""
"","","","","","image-keyboard-response","172","469435","0.0-2.0-7.0-1.32","5fb69cacddba6408f81a9564","E1","batch5","","800.2999999970198","stim/yes_35_dia_b1.png","f","pattern_response","true","f","pattern_57","800.2999999970198","true","68","","","","","","","","","","","","","","","","","","",""
"","","","","","html-keyboard-response","173","470747","0.0-2.0-7.0-0.33","5fb69cacddba6408f81a9564","E1","batch5","","null","<p class=block-text>Trial 73 out of 78</p>","null","pattern_show_trial_num","","","","","","","","","","","","","","","","","","","","","","","","",""
"","","","","","image-keyboard-response","174","474607","0.0-2.0-7.0-1.33","5fb69cacddba6408f81a9564","E1","batch5","","3859.7000000029802","stim/yes_31_hor_b1.png","f","pattern_response","true","f","pattern_55","3859.7000000029802","true","69","","","","","","","","","","","","","","","","","","",""
"","","","","","html-keyboard-response","175","475923","0.0-2.0-7.0-0.34","5fb69cacddba6408f81a9564","E1","batch5","","null","<p class=block-text>Trial 74 out of 78</p>","null","pattern_show_trial_num","","","","","","","","","","","","","","","","","","","","","","","","",""
"","","","","","image-keyboard-response","176","478789","0.0-2.0-7.0-1.34","5fb69cacddba6408f81a9564","E1","batch5","","2864.2999999970198","stim/no_26_1_w.png","j","pattern_response","true","j","pattern_10","2864.2999999970198","true","70","","","","","","","","","","","","","","","","","","",""
"","","","","","html-keyboard-response","177","480104","0.0-2.0-7.0-0.35","5fb69cacddba6408f81a9564","E1","batch5","","null","<p class=block-text>Trial 75 out of 78</p>","null","pattern_show_trial_num","","","","","","","","","","","","","","","","","","","","","","","","",""
"","","","","","image-keyboard-response","178","485446","0.0-2.0-7.0-1.35","5fb69cacddba6408f81a9564","E1","batch5","","5341","stim/no_55_1_w.png","j","pattern_response","true","j","pattern_34","5341","true","71","","","","","","","","","","","","","","","","","","",""
"","","","","","html-keyboard-response","179","486760","0.0-2.0-7.0-0.36","5fb69cacddba6408f81a9564","E1","batch5","","null","<p class=block-text>Trial 76 out of 78</p>","null","pattern_show_trial_num","","","","","","","","","","","","","","","","","","","","","","","","",""
"","","","","","image-keyboard-response","180","491783","0.0-2.0-7.0-1.36","5fb69cacddba6408f81a9564","E1","batch5","","5020.20000000298","stim/no_46_1_b.png","j","pattern_response","true","j","pattern_26","5020.20000000298","true","72","","","","","","","","","","","","","","","","","","",""
"","","","","","html-keyboard-response","181","493095","0.0-2.0-7.0-0.37","5fb69cacddba6408f81a9564","E1","batch5","","null","<p class=block-text>Trial 77 out of 78</p>","null","pattern_show_trial_num","","","","","","","","","","","","","","","","","","","","","","","","",""
"","","","","","image-keyboard-response","182","499186","0.0-2.0-7.0-1.37","5fb69cacddba6408f81a9564","E1","batch5","","6089.5999999940395","stim/no_65_1_b.png","j","pattern_response","true","j","pattern_38","6089.5999999940395","true","73","","","","","","","","","","","","","","","","","","",""
"","","","","","html-keyboard-response","183","500503","0.0-2.0-7.0-0.38","5fb69cacddba6408f81a9564","E1","batch5","","null","<p class=block-text>Trial 78 out of 78</p>","null","pattern_show_trial_num","","","","","","","","","","","","","","","","","","","","","","","","",""
"","","","","","image-keyboard-response","184","502557","0.0-2.0-7.0-1.38","5fb69cacddba6408f81a9564","E1","batch5","","2052.0999999940395","stim/no_32_1_w.png","j","pattern_response","true","j","pattern_14","2052.0999999940395","true","74","","","","","","","","","","","","","","","","","","",""
"","","","","","html-button-response","185","512722","0.0-2.0-8.0","5fb69cacddba6408f81a9564","E1","batch5","","9659.09999999404","<p class = block-text>This concludes the 4-in-a-row detection game.Thank you for your responses!<br>
            You responded correctly on 95% of the trials.<br>
            When you are ready, press ""Continue"" button to continue </p>","0","","","","","","","","","","","","","","","","","","","","","","","","","",""
"true","","","","","fullscreen","186","517038","0.0-3.0-0.0","5fb69cacddba6408f81a9564","E1","batch5","","","","","spm_fullscreen","","","","","","","","","","","","","","","","","","","","","","","","",""
"","","","","","html-button-response","187","526380","0.0-3.0-1.0","5fb69cacddba6408f81a9564","E1","batch5","","9340.89999999106","<p class = block-text><b>Instructions</b> <br>This is a widely used intelligence test in research. <br>In this test, a figure with a missing piece will be presented.<br>Below the figure are alternative pieces to complete the figure, only one of which is correct.<br> Different figures might involve different principles for obtaining the missing piece<br>Your job is to select the most logical piece to complete the figure.</p>","0","","","","","","","","","","","","","","","","","","","","","","","","","",""
"","","","","","html-keyboard-response","188","527185","0.0-3.0-2.0-0.0","5fb69cacddba6408f81a9564","E1","batch5","","null","<p class=block-text>Trial 1 out of 60</p>","null","spm_show_trial_num","","","","","","","","","","","","","","","","","","","","","","","","",""
"","","","","","image-button-response","189","538059","0.0-3.0-2.0-1.0","5fb69cacddba6408f81a9564","E1","batch5","","10868.90000000596","img/question_1_1.jpeg","3","spm_respsonse","1","4","mat_01","","","","","","1","10868.90000000596","","","","","","","","","","","","","","",""
"","","","","","html-keyboard-response","190","539126","0.0-3.0-2.0-0.1","5fb69cacddba6408f81a9564","E1","batch5","","null","<p class=block-text>Trial 2 out of 60</p>","null","spm_show_trial_num","","","","","","","","","","","","","","","","","","","","","","","","",""
"","","","","","image-button-response","191","542592","0.0-3.0-2.0-1.1","5fb69cacddba6408f81a9564","E1","batch5","","3464.7000000029802","img/question_1_2.jpeg","4","spm_respsonse","1","5","mat_02","","","","","","1","3464.7000000029802","","","","","","","","","","","","","","",""
"","","","","","html-keyboard-response","192","543653","0.0-3.0-2.0-0.2","5fb69cacddba6408f81a9564","E1","batch5","","null","<p class=block-text>Trial 3 out of 60</p>","null","spm_show_trial_num","","","","","","","","","","","","","","","","","","","","","","","","",""
"","","","","","image-button-response","193","548832","0.0-3.0-2.0-1.2","5fb69cacddba6408f81a9564","E1","batch5","","5177.5","img/question_1_3.jpeg","0","spm_respsonse","1","1","mat_03","","","","","","1","5177.5","","","","","","","","","","","","","","",""
"","","","","","html-keyboard-response","194","549897","0.0-3.0-2.0-0.3","5fb69cacddba6408f81a9564","E1","batch5","","null","<p class=block-text>Trial 4 out of 60</p>","null","spm_show_trial_num","","","","","","","","","","","","","","","","","","","","","","","","",""
"","","","","","image-button-response","195","553814","0.0-3.0-2.0-1.3","5fb69cacddba6408f81a9564","E1","batch5","","3914","img/question_1_4.jpeg","1","spm_respsonse","1","2","mat_04","","","","","","1","3914","","","","","","","","","","","","","","",""
"","","","","","html-keyboard-response","196","554880","0.0-3.0-2.0-0.4","5fb69cacddba6408f81a9564","E1","batch5","","null","<p class=block-text>Trial 5 out of 60</p>","null","spm_show_trial_num","","","","","","","","","","","","","","","","","","","","","","","","",""
"","","","","","image-button-response","197","562947","0.0-3.0-2.0-1.4","5fb69cacddba6408f81a9564","E1","batch5","","8064.9000000059605","img/question_1_5.jpeg","5","spm_respsonse","1","6","mat_05","","","","","","1","8064.9000000059605","","","","","","","","","","","","","","",""
"","","","","","html-keyboard-response","198","564016","0.0-3.0-2.0-0.5","5fb69cacddba6408f81a9564","E1","batch5","","null","<p class=block-text>Trial 6 out of 60</p>","null","spm_show_trial_num","","","","","","","","","","","","","","","","","","","","","","","","",""
"","","","","","image-button-response","199","569629","0.0-3.0-2.0-1.5","5fb69cacddba6408f81a9564","E1","batch5","","5611.100000008941","img/question_1_6.jpeg","2","spm_respsonse","1","3","mat_06","","","","","","1","5611.100000008941","","","","","","","","","","","","","","",""
"","","","","","html-keyboard-response","200","570697","0.0-3.0-2.0-0.6","5fb69cacddba6408f81a9564","E1","batch5","","null","<p class=block-text>Trial 7 out of 60</p>","null","spm_show_trial_num","","","","","","","","","","","","","","","","","","","","","","","","",""
"","","","","","image-button-response","201","574768","0.0-3.0-2.0-1.6","5fb69cacddba6408f81a9564","E1","batch5","","4069","img/question_1_7.jpeg","5","spm_respsonse","1","6","mat_07","","","","","","1","4069","","","","","","","","","","","","","","",""
"","","","","","html-keyboard-response","202","575822","0.0-3.0-2.0-0.7","5fb69cacddba6408f81a9564","E1","batch5","","null","<p class=block-text>Trial 8 out of 60</p>","null","spm_show_trial_num","","","","","","","","","","","","","","","","","","","","","","","","",""
"","","","","","image-button-response","203","580441","0.0-3.0-2.0-1.7","5fb69cacddba6408f81a9564","E1","batch5","","4617.5","img/question_1_8.jpeg","1","spm_respsonse","1","2","mat_08","","","","","","1","4617.5","","","","","","","","","","","","","","",""
"","","","","","html-keyboard-response","204","581510","0.0-3.0-2.0-0.8","5fb69cacddba6408f81a9564","E1","batch5","","null","<p class=block-text>Trial 9 out of 60</p>","null","spm_show_trial_num","","","","","","","","","","","","","","","","","","","","","","","","",""
"","","","","","image-button-response","205","587034","0.0-3.0-2.0-1.8","5fb69cacddba6408f81a9564","E1","batch5","","5521.5999999940395","img/question_1_9.jpeg","0","spm_respsonse","1","1","mat_09","","","","","","1","5521.5999999940395","","","","","","","","","","","","","","",""
"","","","","","html-keyboard-response","206","588101","0.0-3.0-2.0-0.9","5fb69cacddba6408f81a9564","E1","batch5","","null","<p class=block-text>Trial 10 out of 60</p>","null","spm_show_trial_num","","","","","","","","","","","","","","","","","","","","","","","","",""
"","","","","","image-button-response","207","594384","0.0-3.0-2.0-1.9","5fb69cacddba6408f81a9564","E1","batch5","","6281.29999999702","img/question_1_10.jpeg","2","spm_respsonse","1","3","mat_10","","","","","","1","6281.29999999702","","","","","","","","","","","","","","",""
"","","","","","html-keyboard-response","208","595445","0.0-3.0-2.0-0.10","5fb69cacddba6408f81a9564","E1","batch5","","null","<p class=block-text>Trial 11 out of 60</p>","null","spm_show_trial_num","","","","","","","","","","","","","","","","","","","","","","","","",""
"","","","","","image-button-response","209","600886","0.0-3.0-2.0-1.10","5fb69cacddba6408f81a9564","E1","batch5","","5438","img/question_1_11.jpeg","3","spm_respsonse","1","4","mat_11","","","","","","1","5438","","","","","","","","","","","","","","",""
"","","","","","html-keyboard-response","210","601949","0.0-3.0-2.0-0.11","5fb69cacddba6408f81a9564","E1","batch5","","null","<p class=block-text>Trial 12 out of 60</p>","null","spm_show_trial_num","","","","","","","","","","","","","","","","","","","","","","","","",""
"","","","","","image-button-response","211","618219","0.0-3.0-2.0-1.11","5fb69cacddba6408f81a9564","E1","batch5","","16268.79999999702","img/question_1_12.jpeg","4","spm_respsonse","1","5","mat_12","","","","","","1","16268.79999999702","","","","","","","","","","","","","","",""
"","","","","","html-keyboard-response","212","619285","0.0-3.0-2.0-0.12","5fb69cacddba6408f81a9564","E1","batch5","","null","<p class=block-text>Trial 13 out of 60</p>","null","spm_show_trial_num","","","","","","","","","","","","","","","","","","","","","","","","",""
"","","","","","image-button-response","213","621850","0.0-3.0-2.0-1.12","5fb69cacddba6408f81a9564","E1","batch5","","2562.5","img/question_2_1.jpeg","1","spm_respsonse","1","2","mat_13","","","","","","1","2562.5","","","","","","","","","","","","","","",""
"","","","","","html-keyboard-response","214","622918","0.0-3.0-2.0-0.13","5fb69cacddba6408f81a9564","E1","batch5","","null","<p class=block-text>Trial 14 out of 60</p>","null","spm_show_trial_num","","","","","","","","","","","","","","","","","","","","","","","","",""
"","","","","","image-button-response","215","628984","0.0-3.0-2.0-1.13","5fb69cacddba6408f81a9564","E1","batch5","","6055","img/question_2_2.jpeg","5","spm_respsonse","1","6","mat_14","","","","","","1","6055","","","","","","","","","","","","","","",""
"","","","","","html-keyboard-response","216","630052","0.0-3.0-2.0-0.14","5fb69cacddba6408f81a9564","E1","batch5","","null","<p class=block-text>Trial 15 out of 60</p>","null","spm_show_trial_num","","","","","","","","","","","","","","","","","","","","","","","","",""
"","","","","","image-button-response","217","633353","0.0-3.0-2.0-1.14","5fb69cacddba6408f81a9564","E1","batch5","","3299.8999999910593","img/question_2_3.jpeg","0","spm_respsonse","1","1","mat_15","","","","","","1","3299.8999999910593","","","","","","","","","","","","","","",""
"","","","","","html-keyboard-response","218","634417","0.0-3.0-2.0-0.15","5fb69cacddba6408f81a9564","E1","batch5","","null","<p class=block-text>Trial 16 out of 60</p>","null","spm_show_trial_num","","","","","","","","","","","","","","","","","","","","","","","","",""
"","","","","","image-button-response","219","640065","0.0-3.0-2.0-1.15","5fb69cacddba6408f81a9564","E1","batch5","","5646","img/question_2_4.jpeg","1","spm_respsonse","1","2","mat_16","","","","","","1","5646","","","","","","","","","","","","","","",""
"","","","","","html-keyboard-response","220","641130","0.0-3.0-2.0-0.16","5fb69cacddba6408f81a9564","E1","batch5","","null","<p class=block-text>Trial 17 out of 60</p>","null","spm_show_trial_num","","","","","","","","","","","","","","","","","","","","","","","","",""
"","","","","","image-button-response","221","647019","0.0-3.0-2.0-1.16","5fb69cacddba6408f81a9564","E1","batch5","","5887.5","img/question_2_5.jpeg","0","spm_respsonse","1","1","mat_17","","","","","","1","5887.5","","","","","","","","","","","","","","",""
"","","","","","html-keyboard-response","222","648081","0.0-3.0-2.0-0.17","5fb69cacddba6408f81a9564","E1","batch5","","null","<p class=block-text>Trial 18 out of 60</p>","null","spm_show_trial_num","","","","","","","","","","","","","","","","","","","","","","","","",""
"","","","","","image-button-response","223","654733","0.0-3.0-2.0-1.17","5fb69cacddba6408f81a9564","E1","batch5","","6649.399999991059","img/question_2_6.jpeg","2","spm_respsonse","1","3","mat_18","","","","","","1","6649.399999991059","","","","","","","","","","","","","","",""
"","","","","","html-keyboard-response","224","655798","0.0-3.0-2.0-0.18","5fb69cacddba6408f81a9564","E1","batch5","","null","<p class=block-text>Trial 19 out of 60</p>","null","spm_show_trial_num","","","","","","","","","","","","","","","","","","","","","","","","",""
"","","","","","image-button-response","225","662384","0.0-3.0-2.0-1.18","5fb69cacddba6408f81a9564","E1","batch5","","6583.70000000298","img/question_2_7.jpeg","4","spm_respsonse","1","5","mat_19","","","","","","1","6583.70000000298","","","","","","","","","","","","","","",""
"","","","","","html-keyboard-response","226","663452","0.0-3.0-2.0-0.19","5fb69cacddba6408f81a9564","E1","batch5","","null","<p class=block-text>Trial 20 out of 60</p>","null","spm_show_trial_num","","","","","","","","","","","","","","","","","","","","","","","","",""
"","","","","","image-button-response","227","668111","0.0-3.0-2.0-1.19","5fb69cacddba6408f81a9564","E1","batch5","","4657.5","img/question_2_8.jpeg","5","spm_respsonse","1","6","mat_20","","","","","","1","4657.5","","","","","","","","","","","","","","",""
"","","","","","html-keyboard-response","228","669176","0.0-3.0-2.0-0.20","5fb69cacddba6408f81a9564","E1","batch5","","null","<p class=block-text>Trial 21 out of 60</p>","null","spm_show_trial_num","","","","","","","","","","","","","","","","","","","","","","","","",""
"","","","","","image-button-response","229","673823","0.0-3.0-2.0-1.20","5fb69cacddba6408f81a9564","E1","batch5","","4645.5","img/question_2_9.jpeg","3","spm_respsonse","1","4","mat_21","","","","","","1","4645.5","","","","","","","","","","","","","","",""
"","","","","","html-keyboard-response","230","674890","0.0-3.0-2.0-0.21","5fb69cacddba6408f81a9564","E1","batch5","","null","<p class=block-text>Trial 22 out of 60</p>","null","spm_show_trial_num","","","","","","","","","","","","","","","","","","","","","","","","",""
"","","","","","image-button-response","231","680024","0.0-3.0-2.0-1.21","5fb69cacddba6408f81a9564","E1","batch5","","5132.79999999702","img/question_2_10.jpeg","2","spm_respsonse","1","3","mat_22","","","","","","1","5132.79999999702","","","","","","","","","","","","","","",""
"","","","","","html-keyboard-response","232","681088","0.0-3.0-2.0-0.22","5fb69cacddba6408f81a9564","E1","batch5","","null","<p class=block-text>Trial 23 out of 60</p>","null","spm_show_trial_num","","","","","","","","","","","","","","","","","","","","","","","","",""
"","","","","","image-button-response","233","688741","0.0-3.0-2.0-1.22","5fb69cacddba6408f81a9564","E1","batch5","","7650.20000000298","img/question_2_11.jpeg","3","spm_respsonse","1","4","mat_23","","","","","","1","7650.20000000298","","","","","","","","","","","","","","",""
"","","","","","html-keyboard-response","234","689803","0.0-3.0-2.0-0.23","5fb69cacddba6408f81a9564","E1","batch5","","null","<p class=block-text>Trial 24 out of 60</p>","null","spm_show_trial_num","","","","","","","","","","","","","","","","","","","","","","","","",""
"","","","","","image-button-response","235","706618","0.0-3.0-2.0-1.23","5fb69cacddba6408f81a9564","E1","batch5","","16814.09999999404","img/question_2_12.jpeg","4","spm_respsonse","1","5","mat_24","","","","","","1","16814.09999999404","","","","","","","","","","","","","","",""
"","","","","","html-button-response","236","708954","0.0-3.0-3.0","5fb69cacddba6408f81a9564","E1","batch5","","2078.199999988079","<p class = block-text>Attention check: Please choose 1<br></p>","0","attention_check","true","","","","","","","","","","","","","","","","","","","","","","","",""
"","","","","","html-keyboard-response","237","709761","0.0-3.0-4.0-0.0","5fb69cacddba6408f81a9564","E1","batch5","","null","<p class=block-text>Trial 25 out of 60</p>","null","spm_show_trial_num","","","","","","","","","","","","","","","","","","","","","","","","",""
"","","","","","image-button-response","238","718922","0.0-3.0-4.0-1.0","5fb69cacddba6408f81a9564","E1","batch5","","9158.90000000596","img/question_3_1.jpeg","7","spm_respsonse","1","8","mat_25","","","","","","1","9158.90000000596","","","","","","","","","","","","","","",""
"","","","","","html-keyboard-response","239","719977","0.0-3.0-4.0-0.1","5fb69cacddba6408f81a9564","E1","batch5","","null","<p class=block-text>Trial 26 out of 60</p>","null","spm_show_trial_num","","","","","","","","","","","","","","","","","","","","","","","","",""
"","","","","","image-button-response","240","725324","0.0-3.0-4.0-1.1","5fb69cacddba6408f81a9564","E1","batch5","","5345.5999999940395","img/question_3_2.jpeg","1","spm_respsonse","1","2","mat_26","","","","","","1","5345.5999999940395","","","","","","","","","","","","","","",""
"","","","","","html-keyboard-response","241","726394","0.0-3.0-4.0-0.2","5fb69cacddba6408f81a9564","E1","batch5","","null","<p class=block-text>Trial 27 out of 60</p>","null","spm_show_trial_num","","","","","","","","","","","","","","","","","","","","","","","","",""
"","","","","","image-button-response","242","736138","0.0-3.0-4.0-1.2","5fb69cacddba6408f81a9564","E1","batch5","","9742.5","img/question_3_3.jpeg","2","spm_respsonse","1","3","mat_27","","","","","","1","9742.5","","","","","","","","","","","","","","",""
"","","","","","html-keyboard-response","243","737198","0.0-3.0-4.0-0.3","5fb69cacddba6408f81a9564","E1","batch5","","null","<p class=block-text>Trial 28 out of 60</p>","null","spm_show_trial_num","","","","","","","","","","","","","","","","","","","","","","","","",""
"","","","","","image-button-response","244","748467","0.0-3.0-4.0-1.3","5fb69cacddba6408f81a9564","E1","batch5","","11266.5","img/question_3_4.jpeg","7","spm_respsonse","1","8","mat_28","","","","","","1","11266.5","","","","","","","","","","","","","","",""
"","","","","","html-keyboard-response","245","749530","0.0-3.0-4.0-0.4","5fb69cacddba6408f81a9564","E1","batch5","","null","<p class=block-text>Trial 29 out of 60</p>","null","spm_show_trial_num","","","","","","","","","","","","","","","","","","","","","","","","",""
"","","","","","image-button-response","246","757553","0.0-3.0-4.0-1.4","5fb69cacddba6408f81a9564","E1","batch5","","8021.0999999940395","img/question_3_5.jpeg","6","spm_respsonse","1","7","mat_29","","","","","","1","8021.0999999940395","","","","","","","","","","","","","","",""
"","","","","","html-keyboard-response","247","758617","0.0-3.0-4.0-0.5","5fb69cacddba6408f81a9564","E1","batch5","","null","<p class=block-text>Trial 30 out of 60</p>","null","spm_show_trial_num","","","","","","","","","","","","","","","","","","","","","","","","",""
"","","","","","image-button-response","248","774449","0.0-3.0-4.0-1.5","5fb69cacddba6408f81a9564","E1","batch5","","15830.79999999702","img/question_3_6.jpeg","3","spm_respsonse","1","4","mat_30","","","","","","1","15830.79999999702","","","","","","","","","","","","","","",""
"","","","","","html-keyboard-response","249","775509","0.0-3.0-4.0-0.6","5fb69cacddba6408f81a9564","E1","batch5","","null","<p class=block-text>Trial 31 out of 60</p>","null","spm_show_trial_num","","","","","","","","","","","","","","","","","","","","","","","","",""
"","","","","","image-button-response","250","785478","0.0-3.0-4.0-1.6","5fb69cacddba6408f81a9564","E1","batch5","","9965.39999999106","img/question_3_7.jpeg","0","spm_respsonse","0","5","mat_31","","","","","","0","9965.39999999106","","","","","","","","","","","","","","",""
"","","","","","html-keyboard-response","251","786541","0.0-3.0-4.0-0.7","5fb69cacddba6408f81a9564","E1","batch5","","null","<p class=block-text>Trial 32 out of 60</p>","null","spm_show_trial_num","","","","","","","","","","","","","","","","","","","","","","","","",""
"","","","","","image-button-response","252","808334","0.0-3.0-4.0-1.7","5fb69cacddba6408f81a9564","E1","batch5","","21791","img/question_3_8.jpeg","0","spm_respsonse","1","1","mat_32","","","","","","1","21791","","","","","","","","","","","","","","",""
"","","","","","html-keyboard-response","253","809400","0.0-3.0-4.0-0.8","5fb69cacddba6408f81a9564","E1","batch5","","null","<p class=block-text>Trial 33 out of 60</p>","null","spm_show_trial_num","","","","","","","","","","","","","","","","","","","","","","","","",""
"","","","","","image-button-response","254","818517","0.0-3.0-4.0-1.8","5fb69cacddba6408f81a9564","E1","batch5","","9115.09999999404","img/question_3_9.jpeg","0","spm_respsonse","0","7","mat_33","","","","","","0","9115.09999999404","","","","","","","","","","","","","","",""
"","","","","","html-keyboard-response","255","819579","0.0-3.0-4.0-0.9","5fb69cacddba6408f81a9564","E1","batch5","","null","<p class=block-text>Trial 34 out of 60</p>","null","spm_show_trial_num","","","","","","","","","","","","","","","","","","","","","","","","",""
"","","","","","image-button-response","256","838393","0.0-3.0-4.0-1.9","5fb69cacddba6408f81a9564","E1","batch5","","18812.79999999702","img/question_3_10.jpeg","5","spm_respsonse","1","6","mat_34","","","","","","1","18812.79999999702","","","","","","","","","","","","","","",""
"","","","","","html-keyboard-response","257","839458","0.0-3.0-4.0-0.10","5fb69cacddba6408f81a9564","E1","batch5","","null","<p class=block-text>Trial 35 out of 60</p>","null","spm_show_trial_num","","","","","","","","","","","","","","","","","","","","","","","","",""
"","","","","","image-button-response","258","856377","0.0-3.0-4.0-1.10","5fb69cacddba6408f81a9564","E1","batch5","","16916.29999999702","img/question_3_11.jpeg","0","spm_respsonse","1","1","mat_35","","","","","","1","16916.29999999702","","","","","","","","","","","","","","",""
"","","","","","html-keyboard-response","259","857446","0.0-3.0-4.0-0.11","5fb69cacddba6408f81a9564","E1","batch5","","null","<p class=block-text>Trial 36 out of 60</p>","null","spm_show_trial_num","","","","","","","","","","","","","","","","","","","","","","","","",""
"","","","","","image-button-response","260","893460","0.0-3.0-4.0-1.11","5fb69cacddba6408f81a9564","E1","batch5","","36012.10000000894","img/question_3_12.jpeg","4","spm_respsonse","0","2","mat_36","","","","","","0","36012.10000000894","","","","","","","","","","","","","","",""
"","","","","","html-keyboard-response","261","894524","0.0-3.0-4.0-0.12","5fb69cacddba6408f81a9564","E1","batch5","","null","<p class=block-text>Trial 37 out of 60</p>","null","spm_show_trial_num","","","","","","","","","","","","","","","","","","","","","","","","",""
"","","","","","image-button-response","262","898708","0.0-3.0-4.0-1.12","5fb69cacddba6408f81a9564","E1","batch5","","4181","img/question_4_1.jpeg","2","spm_respsonse","1","3","mat_37","","","","","","1","4181","","","","","","","","","","","","","","",""
"","","","","","html-keyboard-response","263","899770","0.0-3.0-4.0-0.13","5fb69cacddba6408f81a9564","E1","batch5","","null","<p class=block-text>Trial 38 out of 60</p>","null","spm_show_trial_num","","","","","","","","","","","","","","","","","","","","","","","","",""
"","","","","","image-button-response","264","911236","0.0-3.0-4.0-1.13","5fb69cacddba6408f81a9564","E1","batch5","","11463.79999999702","img/question_4_2.jpeg","3","spm_respsonse","1","4","mat_38","","","","","","1","11463.79999999702","","","","","","","","","","","","","","",""
"","","","","","html-keyboard-response","265","912300","0.0-3.0-4.0-0.14","5fb69cacddba6408f81a9564","E1","batch5","","null","<p class=block-text>Trial 39 out of 60</p>","null","spm_show_trial_num","","","","","","","","","","","","","","","","","","","","","","","","",""
"","","","","","image-button-response","266","925085","0.0-3.0-4.0-1.14","5fb69cacddba6408f81a9564","E1","batch5","","12783.40000000596","img/question_4_3.jpeg","2","spm_respsonse","1","3","mat_39","","","","","","1","12783.40000000596","","","","","","","","","","","","","","",""
"","","","","","html-keyboard-response","267","926152","0.0-3.0-4.0-0.15","5fb69cacddba6408f81a9564","E1","batch5","","null","<p class=block-text>Trial 40 out of 60</p>","null","spm_show_trial_num","","","","","","","","","","","","","","","","","","","","","","","","",""
"","","","","","image-button-response","268","943927","0.0-3.0-4.0-1.15","5fb69cacddba6408f81a9564","E1","batch5","","17773.60000000894","img/question_4_4.jpeg","6","spm_respsonse","1","7","mat_40","","","","","","1","17773.60000000894","","","","","","","","","","","","","","",""
"","","","","","html-keyboard-response","269","944992","0.0-3.0-4.0-0.16","5fb69cacddba6408f81a9564","E1","batch5","","null","<p class=block-text>Trial 41 out of 60</p>","null","spm_show_trial_num","","","","","","","","","","","","","","","","","","","","","","","","",""
"","","","","","image-button-response","270","952646","0.0-3.0-4.0-1.16","5fb69cacddba6408f81a9564","E1","batch5","","7652.5","img/question_4_5.jpeg","7","spm_respsonse","1","8","mat_41","","","","","","1","7652.5","","","","","","","","","","","","","","",""
"","","","","","html-keyboard-response","271","953715","0.0-3.0-4.0-0.17","5fb69cacddba6408f81a9564","E1","batch5","","null","<p class=block-text>Trial 42 out of 60</p>","null","spm_show_trial_num","","","","","","","","","","","","","","","","","","","","","","","","",""
"","","","","","image-button-response","272","963009","0.0-3.0-4.0-1.17","5fb69cacddba6408f81a9564","E1","batch5","","9290.699999988079","img/question_4_6.jpeg","5","spm_respsonse","1","6","mat_42","","","","","","1","9290.699999988079","","","","","","","","","","","","","","",""
"","","","","","html-keyboard-response","273","964070","0.0-3.0-4.0-0.18","5fb69cacddba6408f81a9564","E1","batch5","","null","<p class=block-text>Trial 43 out of 60</p>","null","spm_show_trial_num","","","","","","","","","","","","","","","","","","","","","","","","",""
"","","","","","image-button-response","274","979318","0.0-3.0-4.0-1.18","5fb69cacddba6408f81a9564","E1","batch5","","15246.39999999106","img/question_4_7.jpeg","4","spm_respsonse","1","5","mat_43","","","","","","1","15246.39999999106","","","","","","","","","","","","","","",""
"","","","","","html-keyboard-response","275","980381","0.0-3.0-4.0-0.19","5fb69cacddba6408f81a9564","E1","batch5","","null","<p class=block-text>Trial 44 out of 60</p>","null","spm_show_trial_num","","","","","","","","","","","","","","","","","","","","","","","","",""
"","","","","","image-button-response","276","990238","0.0-3.0-4.0-1.19","5fb69cacddba6408f81a9564","E1","batch5","","9854.79999999702","img/question_4_8.jpeg","3","spm_respsonse","1","4","mat_44","","","","","","1","9854.79999999702","","","","","","","","","","","","","","",""
"","","","","","html-keyboard-response","277","991304","0.0-3.0-4.0-0.20","5fb69cacddba6408f81a9564","E1","batch5","","null","<p class=block-text>Trial 45 out of 60</p>","null","spm_show_trial_num","","","","","","","","","","","","","","","","","","","","","","","","",""
"","","","","","image-button-response","278","1010265","0.0-3.0-4.0-1.20","5fb69cacddba6408f81a9564","E1","batch5","","18959.19999998808","img/question_4_9.jpeg","2","spm_respsonse","0","1","mat_45","","","","","","0","18959.19999998808","","","","","","","","","","","","","","",""
"","","","","","html-keyboard-response","279","1011328","0.0-3.0-4.0-0.21","5fb69cacddba6408f81a9564","E1","batch5","","null","<p class=block-text>Trial 46 out of 60</p>","null","spm_show_trial_num","","","","","","","","","","","","","","","","","","","","","","","","",""
"","","","","","image-button-response","280","1055073","0.0-3.0-4.0-1.21","5fb69cacddba6408f81a9564","E1","batch5","","43743.79999999702","img/question_4_10.jpeg","1","spm_respsonse","1","2","mat_46","","","","","","1","43743.79999999702","","","","","","","","","","","","","","",""
"","","","","","html-keyboard-response","281","1056139","0.0-3.0-4.0-0.22","5fb69cacddba6408f81a9564","E1","batch5","","null","<p class=block-text>Trial 47 out of 60</p>","null","spm_show_trial_num","","","","","","","","","","","","","","","","","","","","","","","","",""
"","","","","","image-button-response","282","1081351","0.0-3.0-4.0-1.22","5fb69cacddba6408f81a9564","E1","batch5","","25211","img/question_4_11.jpeg","4","spm_respsonse","1","5","mat_47","","","","","","1","25211","","","","","","","","","","","","","","",""
"","","","","","html-keyboard-response","283","1082410","0.0-3.0-4.0-0.23","5fb69cacddba6408f81a9564","E1","batch5","","null","<p class=block-text>Trial 48 out of 60</p>","null","spm_show_trial_num","","","","","","","","","","","","","","","","","","","","","","","","",""
"","","","","","image-button-response","284","1126549","0.0-3.0-4.0-1.23","5fb69cacddba6408f81a9564","E1","batch5","","44136.29999999702","img/question_4_12.jpeg","7","spm_respsonse","0","6","mat_48","","","","","","0","44136.29999999702","","","","","","","","","","","","","","",""
"","","","","","html-keyboard-response","285","1127613","0.0-3.0-4.0-0.24","5fb69cacddba6408f81a9564","E1","batch5","","null","<p class=block-text>Trial 49 out of 60</p>","null","spm_show_trial_num","","","","","","","","","","","","","","","","","","","","","","","","",""
"","","","","","image-button-response","286","1138621","0.0-3.0-4.0-1.24","5fb69cacddba6408f81a9564","E1","batch5","","11006.59999999404","img/question_5_1.jpeg","6","spm_respsonse","1","7","mat_49","","","","","","1","11006.59999999404","","","","","","","","","","","","","","",""
"","","","","","html-keyboard-response","287","1139683","0.0-3.0-4.0-0.25","5fb69cacddba6408f81a9564","E1","batch5","","null","<p class=block-text>Trial 50 out of 60</p>","null","spm_show_trial_num","","","","","","","","","","","","","","","","","","","","","","","","",""
"","","","","","image-button-response","288","1151432","0.0-3.0-4.0-1.25","5fb69cacddba6408f81a9564","E1","batch5","","11747.89999999106","img/question_5_2.jpeg","5","spm_respsonse","1","6","mat_50","","","","","","1","11747.89999999106","","","","","","","","","","","","","","",""
"","","","","","html-keyboard-response","289","1152497","0.0-3.0-4.0-0.26","5fb69cacddba6408f81a9564","E1","batch5","","null","<p class=block-text>Trial 51 out of 60</p>","null","spm_show_trial_num","","","","","","","","","","","","","","","","","","","","","","","","",""
"","","","","","image-button-response","290","1171034","0.0-3.0-4.0-1.26","5fb69cacddba6408f81a9564","E1","batch5","","18535.70000000298","img/question_5_3.jpeg","7","spm_respsonse","1","8","mat_51","","","","","","1","18535.70000000298","","","","","","","","","","","","","","",""
"","","","","","html-keyboard-response","291","1172096","0.0-3.0-4.0-0.27","5fb69cacddba6408f81a9564","E1","batch5","","null","<p class=block-text>Trial 52 out of 60</p>","null","spm_show_trial_num","","","","","","","","","","","","","","","","","","","","","","","","",""
"","","","","","image-button-response","292","1215667","0.0-3.0-4.0-1.27","5fb69cacddba6408f81a9564","E1","batch5","","43570.70000000298","img/question_5_4.jpeg","1","spm_respsonse","1","2","mat_52","","","","","","1","43570.70000000298","","","","","","","","","","","","","","",""
"","","","","","html-keyboard-response","293","1216735","0.0-3.0-4.0-0.28","5fb69cacddba6408f81a9564","E1","batch5","","null","<p class=block-text>Trial 53 out of 60</p>","null","spm_show_trial_num","","","","","","","","","","","","","","","","","","","","","","","","",""
"","","","","","image-button-response","294","1240084","0.0-3.0-4.0-1.28","5fb69cacddba6408f81a9564","E1","batch5","","23345.40000000596","img/question_5_5.jpeg","0","spm_respsonse","1","1","mat_53","","","","","","1","23345.40000000596","","","","","","","","","","","","","","",""
"","","","","","html-keyboard-response","295","1241154","0.0-3.0-4.0-0.29","5fb69cacddba6408f81a9564","E1","batch5","","null","<p class=block-text>Trial 54 out of 60</p>","null","spm_show_trial_num","","","","","","","","","","","","","","","","","","","","","","","","",""
"","","","","","image-button-response","296","1271375","0.0-3.0-4.0-1.29","5fb69cacddba6408f81a9564","E1","batch5","","30220","img/question_5_6.jpeg","6","spm_respsonse","0","5","mat_54","","","","","","0","30220","","","","","","","","","","","","","","",""
"","","","","","html-keyboard-response","297","1272437","0.0-3.0-4.0-0.30","5fb69cacddba6408f81a9564","E1","batch5","","null","<p class=block-text>Trial 55 out of 60</p>","null","spm_show_trial_num","","","","","","","","","","","","","","","","","","","","","","","","",""
"","","","","","image-button-response","298","1309406","0.0-3.0-4.0-1.30","5fb69cacddba6408f81a9564","E1","batch5","","36967.79999999702","img/question_5_7.jpeg","0","spm_respsonse","1","1","mat_55","","","","","","1","36967.79999999702","","","","","","","","","","","","","","",""
"","","","","","html-keyboard-response","299","1310467","0.0-3.0-4.0-0.31","5fb69cacddba6408f81a9564","E1","batch5","","null","<p class=block-text>Trial 56 out of 60</p>","null","spm_show_trial_num","","","","","","","","","","","","","","","","","","","","","","","","",""
"","","","","","image-button-response","300","1348084","0.0-3.0-4.0-1.31","5fb69cacddba6408f81a9564","E1","batch5","","37615.5","img/question_5_8.jpeg","0","spm_respsonse","0","6","mat_56","","","","","","0","37615.5","","","","","","","","","","","","","","",""
"","","","","","html-keyboard-response","301","1349150","0.0-3.0-4.0-0.32","5fb69cacddba6408f81a9564","E1","batch5","","null","<p class=block-text>Trial 57 out of 60</p>","null","spm_show_trial_num","","","","","","","","","","","","","","","","","","","","","","","","",""
"","","","","","image-button-response","302","1379946","0.0-3.0-4.0-1.32","5fb69cacddba6408f81a9564","E1","batch5","","30793","img/question_5_9.jpeg","4","spm_respsonse","0","3","mat_57","","","","","","0","30793","","","","","","","","","","","","","","",""
"","","","","","html-keyboard-response","303","1381009","0.0-3.0-4.0-0.33","5fb69cacddba6408f81a9564","E1","batch5","","null","<p class=block-text>Trial 58 out of 60</p>","null","spm_show_trial_num","","","","","","","","","","","","","","","","","","","","","","","","",""
"","","","","","image-button-response","304","1407376","0.0-3.0-4.0-1.33","5fb69cacddba6408f81a9564","E1","batch5","","26364.80000001192","img/question_5_10.jpeg","6","spm_respsonse","0","2","mat_58","","","","","","0","26364.80000001192","","","","","","","","","","","","","","",""
"","","","","","html-keyboard-response","305","1408439","0.0-3.0-4.0-0.34","5fb69cacddba6408f81a9564","E1","batch5","","null","<p class=block-text>Trial 59 out of 60</p>","null","spm_show_trial_num","","","","","","","","","","","","","","","","","","","","","","","","",""
"","","","","","image-button-response","306","1434670","0.0-3.0-4.0-1.34","5fb69cacddba6408f81a9564","E1","batch5","","26228.90000000596","img/question_5_11.jpeg","6","spm_respsonse","0","4","mat_59","","","","","","0","26228.90000000596","","","","","","","","","","","","","","",""
"","","","","","html-keyboard-response","307","1435736","0.0-3.0-4.0-0.35","5fb69cacddba6408f81a9564","E1","batch5","","null","<p class=block-text>Trial 60 out of 60</p>","null","spm_show_trial_num","","","","","","","","","","","","","","","","","","","","","","","","",""
"","","","","","image-button-response","308","1450309","0.0-3.0-4.0-1.35","5fb69cacddba6408f81a9564","E1","batch5","","14570.5","img/question_5_12.jpeg","4","spm_respsonse","1","5","mat_60","","","","","","1","14570.5","","","","","","","","","","","","","","",""
"","","","","","html-button-response","309","1846186","0.0-3.0-5.0","5fb69cacddba6408f81a9564","E1","batch5","","395531.799999997","<p class= block-text>This concludes the Standard Progressive Matrix game. Thank you for your responses!<br> When you are ready, click the button continue</p>","0","spm_goodbye","","","","","","","","","","","","","","","","","","","","","","","","",""
"true","","","","","fullscreen","310","1848819","0.0-4.0-0.0","5fb69cacddba6408f81a9564","E1","batch5","","","","","","","","","","","","","","","","","","","","","","","","","","","","","",""
"","","","","","instructions","311","2000984","0.0-4.0-1.0-0.0-0.0","5fb69cacddba6408f81a9564","E1","batch5","[{""page_index"":0,""viewing_time"":102642.70000000298},{""page_index"":1,""viewing_time"":5477.5},{""page_index"":2,""viewing_time"":3363.0999999940395},{""page_index"":3,""viewing_time"":9423.800000011921},{""page_index"":4,""viewing_time"":8452},{""page_index"":5,""viewing_time"":19540.59999999404},{""page_index"":6,""viewing_time"":3268.5}]","152168.5","","","tol-instructions","","","","","","","","","","","","","","","","","","","","","","","","",""
"","","","","","html-button-response","312","2003184","0.0-4.0-1.0-1.0-0.0","5fb69cacddba6408f81a9564","E1","batch5","","2199.3999999910593","<p class=block-text> Let's answer a few questions <br>","0","tol_enter_quiz","","","","","","","","","","","","","","","","","","","","","","","","",""
"","","","","","html-button-response","313","2010031","0.0-4.0-1.0-1.0-1.0","5fb69cacddba6408f81a9564","E1","batch5","","6843.800000011921","<p class = block-text>True or False: You can only move the ball on top of a peg. <br></p>","0","tol_quiz","true","","","","","","","","","","","","","","","","","","","","","","","",""
"","","","","","html-button-response","314","2011627","0.0-4.0-1.0-1.0-2.0","5fb69cacddba6408f81a9564","E1","batch5","","1593.9000000059605","<p class = block-text>Correct! You can only move the ball on top of a peg.</p>","0","tol_quiz_feedback","","","","","","","","","","","","","","","","","","","","","","","","",""
"","","","","","html-button-response","315","2015062","0.0-4.0-1.0-1.0-3.0","5fb69cacddba6408f81a9564","E1","batch5","","3434.800000011921","<p class = block-text>True or False: You should try to match your board with the target board with fewest moves possible. <br></p>","0","tol_quiz","true","","","","","","","","","","","","","","","","","","","","","","","",""
"","","","","","html-button-response","316","2015870","0.0-4.0-1.0-1.0-4.0","5fb69cacddba6408f81a9564","E1","batch5","","807","<p class = block-text>Correct! </p>","0","tol_quiz_feedback","","","","","","","","","","","","","","","","","","","","","","","","",""
"","","","","","html-button-response","317","2016898","0.0-4.0-2.0","5fb69cacddba6408f81a9564","E1","batch5","","1026.4000000059605","<p class=block-text> Now that you've understood the game, let's practice a few easier examples before we start!<br> <br>","0","","","","","","","","","","","","","","","","","","","","","","","","","",""
"","","","","","single-stim-button","318","2023458","0.0-4.0-3.0-0.0","5fb69cacddba6408f81a9564","E1","batch5","","6558","","","tol_practice","","","","","","","","","","","tol_peg_2","6558","6558","0","[[1,2,0],[0,0],[0]]","1","[[1,2,0],[0,0],[3]]","practice","6558","","","","","",""
"","","","","","single-stim-button","319","2024301","0.0-4.0-3.0-1.0","5fb69cacddba6408f81a9564","E1","batch5","","842","","","tol_practice","","","","","","","","","","","tol_peg_3","842","842","0","[[1,2,0],[0,0],[3]]","1","[[1,2,0],[0,0],[3]]","practice","842","","","","","",""
"","","","","","poldrack-single-stim","320","2025303","0.0-4.0-4.0","5fb69cacddba6408f81a9564","E1","batch5","","-1","","","tol_feedback","true","","","","","","","","","","","1000","1000","500","","","","","","-1","none","true","","0",""
"","","","","","single-stim-button","321","2029892","0.0-4.0-5.0-0.0","5fb69cacddba6408f81a9564","E1","batch5","","4589","","","tol_practice","","","","","","","","","","","tol_peg_1","4589","4589","0","[[1,0,0],[3,0],[0]]","2","[[0,0,0],[3,1],[2]]","practice","4589","","","","","",""
"","","","","","single-stim-button","322","2032529","0.0-4.0-5.0-1.0","5fb69cacddba6408f81a9564","E1","batch5","","2636","","","tol_practice","","","","","","","","","","","tol_peg_1","2636","2636","0","[[1,2,0],[3,0],[0]]","2","[[0,0,0],[3,1],[2]]","practice","2636","","","","","",""
"","","","","","single-stim-button","323","2033713","0.0-4.0-5.1-0.1","5fb69cacddba6408f81a9564","E1","batch5","","1183","","","tol_practice","","","","","","","","","","","tol_peg_1","1183","1183","0","[[1,0,0],[3,0],[0]]","3","[[0,0,0],[3,1],[2]]","practice","1183","","","","","",""
"","","","","","single-stim-button","324","2036421","0.0-4.0-5.1-1.1","5fb69cacddba6408f81a9564","E1","batch5","","2708","","","tol_practice","","","","","","","","","","","tol_peg_3","2708","2708","0","[[1,0,0],[3,0],[2]]","3","[[0,0,0],[3,1],[2]]","practice","2708","","","","","",""
"","","","","","single-stim-button","325","2037354","0.0-4.0-5.2-0.2","5fb69cacddba6408f81a9564","E1","batch5","","933","","","tol_practice","","","","","","","","","","","tol_peg_1","933","933","0","[[0,0,0],[3,0],[2]]","4","[[0,0,0],[3,1],[2]]","practice","933","","","","","",""
"","","","","","single-stim-button","326","2038528","0.0-4.0-5.2-1.2","5fb69cacddba6408f81a9564","E1","batch5","","1173","","","tol_practice","","","","","","","","","","","tol_peg_2","1173","1173","0","[[0,0,0],[3,1],[2]]","4","[[0,0,0],[3,1],[2]]","practice","1173","","","","","",""
"","","","","","poldrack-single-stim","327","2039535","0.0-4.0-6.0","5fb69cacddba6408f81a9564","E1","batch5","","-1","","","tol_feedback","true","","","","","","","","","","","1000","1000","500","","","","","","-1","none","true","","0",""
"","","","","","single-stim-button","328","2043240","0.0-4.0-7.0-0.0","5fb69cacddba6408f81a9564","E1","batch5","","3705","","","tol_practice","","","","","","","","","","","tol_peg_2","3705","3705","0","[[1,2,0],[0,0],[0]]","5","[[1,0,0],[2,0],[3]]","practice","3705","","","","","",""
"","","","","","single-stim-button","329","2045980","0.0-4.0-7.0-1.0","5fb69cacddba6408f81a9564","E1","batch5","","2739","","","tol_practice","","","","","","","","","","","tol_peg_3","2739","2739","0","[[1,2,0],[0,0],[3]]","5","[[1,0,0],[2,0],[3]]","practice","2739","","","","","",""
"","","","","","single-stim-button","330","2046847","0.0-4.0-7.1-0.1","5fb69cacddba6408f81a9564","E1","batch5","","866","","","tol_practice","","","","","","","","","","","tol_peg_1","866","866","0","[[1,0,0],[0,0],[3]]","6","[[1,0,0],[2,0],[3]]","practice","866","","","","","",""
"","","","","","single-stim-button","331","2048037","0.0-4.0-7.1-1.1","5fb69cacddba6408f81a9564","E1","batch5","","1190","","","tol_practice","","","","","","","","","","","tol_peg_2","1190","1190","0","[[1,0,0],[2,0],[3]]","6","[[1,0,0],[2,0],[3]]","practice","1190","","","","","",""
"","","","","","poldrack-single-stim","332","2049049","0.0-4.0-8.0","5fb69cacddba6408f81a9564","E1","batch5","","-1","","","tol_feedback","true","","","","","","","","","","","1000","1000","500","","","","","","-1","none","true","","0",""
"","","","","","html-button-response","333","2051733","0.0-4.0-9.0","5fb69cacddba6408f81a9564","E1","batch5","","2683.2999999970198","<div class = centerbox><p class = center-block-text>Great job! You are done with practice trials<br>You are about to start official trials.<br> <br> Problem <strong>1</strong> out of 25 problems</p></div>","0","tol_instruction","","","","","","","","","","","","","","","","","","","","","","","","",""
"","","","","","single-stim-button","334","2057661","0.0-4.0-10.0-0.0","5fb69cacddba6408f81a9564","E1","batch5","","4916","","","tol_tohand","","","","","","","","","","","tol_peg_1","4916","4916","0","[[1,0,0],[3,0],[0]]","1","[[1,3,0],[2,0],[0]]","0","0","","","","","","3"
"","","","","","single-stim-button","335","2058892","0.0-4.0-10.0-1.0","5fb69cacddba6408f81a9564","E1","batch5","","1231","","","tol_toboard","","","","","","","","","","","tol_peg_3","1231","1231","0","[[1,0,0],[3,0],[2]]","1","[[1,3,0],[2,0],[0]]","0","0","","","","","","3"
"","","","","","single-stim-button","336","2060456","0.0-4.0-10.1-0.1","5fb69cacddba6408f81a9564","E1","batch5","","1563","","","tol_tohand","","","","","","","","","","","tol_peg_2","1563","1563","0","[[1,0,0],[0,0],[2]]","2","[[1,3,0],[2,0],[0]]","0","0","","","","","","3"
"","","","","","single-stim-button","337","2061493","0.0-4.0-10.1-1.1","5fb69cacddba6408f81a9564","E1","batch5","","1037","","","tol_toboard","","","","","","","","","","","tol_peg_1","1037","1037","0","[[1,3,0],[0,0],[2]]","2","[[1,3,0],[2,0],[0]]","0","0","","","","","","3"
"","","","","","single-stim-button","338","2064234","0.0-4.0-10.2-0.2","5fb69cacddba6408f81a9564","E1","batch5","","2740","","","tol_tohand","","","","","","","","","","","tol_peg_3","2740","2740","0","[[1,3,0],[0,0],[0]]","3","[[1,3,0],[2,0],[0]]","0","0","","","","","","3"
"","","","","","single-stim-button","339","2065014","0.0-4.0-10.2-1.2","5fb69cacddba6408f81a9564","E1","batch5","","779","","","tol_toboard","","","","","","","","","","","tol_peg_2","779","779","0","[[1,3,0],[2,0],[0]]","3","[[1,3,0],[2,0],[0]]","0","0","","","","","","3"
"","","","","","poldrack-single-stim","340","2066025","0.0-4.0-11.0","5fb69cacddba6408f81a9564","E1","batch5","","-1","","","tol_feedback","true","","","","","","","","","","","1000","1000","500","","","","","","-1","none","true","4916","9219",""
"","","","","","html-button-response","341","2067654","0.0-4.0-12.0","5fb69cacddba6408f81a9564","E1","batch5","","1628.1000000089407","<div class = centerbox><p class = center-block-text>problem <strong>2</strong> out of 25 problems</p></div>","0","tol_trial_num","","","","","","","","","","","","","","","","","","","","","","","","",""
"","","","","","single-stim-button","342","2076688","0.0-4.0-13.0-0.0","5fb69cacddba6408f81a9564","E1","batch5","","9034","","","tol_tohand","","","","","","","","","","","tol_peg_1","9034","9034","0","[[1,0,0],[3,0],[0]]","1","[[2,1,3],[0,0],[0]]","1","0","","","","","","5"
"","","","","","single-stim-button","343","2077856","0.0-4.0-13.0-1.0","5fb69cacddba6408f81a9564","E1","batch5","","1168","","","tol_toboard","","","","","","","","","","","tol_peg_2","1168","1168","0","[[1,0,0],[3,2],[0]]","1","[[2,1,3],[0,0],[0]]","1","0","","","","","","5"
"","","","","","single-stim-button","344","2079725","0.0-4.0-13.1-0.1","5fb69cacddba6408f81a9564","E1","batch5","","1868","","","tol_tohand","","","","","","","","","","","tol_peg_1","1868","1868","0","[[0,0,0],[3,2],[0]]","2","[[2,1,3],[0,0],[0]]","1","0","","","","","","5"
"","","","","","single-stim-button","345","2080611","0.0-4.0-13.1-1.1","5fb69cacddba6408f81a9564","E1","batch5","","886","","","tol_toboard","","","","","","","","","","","tol_peg_3","886","886","0","[[0,0,0],[3,2],[1]]","2","[[2,1,3],[0,0],[0]]","1","0","","","","","","5"
"","","","","","single-stim-button","346","2081350","0.0-4.0-13.2-0.2","5fb69cacddba6408f81a9564","E1","batch5","","739","","","tol_tohand","","","","","","","","","","","tol_peg_2","739","739","0","[[0,0,0],[3,0],[1]]","3","[[2,1,3],[0,0],[0]]","1","0","","","","","","5"
"","","","","","single-stim-button","347","2082123","0.0-4.0-13.2-1.2","5fb69cacddba6408f81a9564","E1","batch5","","773","","","tol_toboard","","","","","","","","","","","tol_peg_1","773","773","0","[[2,0,0],[3,0],[1]]","3","[[2,1,3],[0,0],[0]]","1","0","","","","","","5"
