"success","timeout","failed_images","failed_audio","failed_video","trial_type","trial_index","time_elapsed","internal_node_id","subject_id","study_id","session_id","task","rt","stimulus","response","item","answer","correct","spm_correct","spm_rt","view_history","mouse_click","stim_duration","block_duration","timing_post_trial","current_position","tol_num_moves_made","tol_target","tol_problem_id","tol_rt","key_press","possible_responses","tol_correct","preplanning","tol_rt_per_trial","tol_min_moves","fiar_detect_rt","fiar_detect_correct","total_correct_fiar_detect","post_trial_gap","choices"
"true","false","[]","[]","[]","preload","0","1456","0.0-0.0","5fb7dd473afbb1033b491811","F1","batch6","","","","","","","","","","","","","","","","","","","","","","","","","","","","","",""
"true","","","","","fullscreen","1","24171","0.0-1.0-0.0","5fb7dd473afbb1033b491811","F1","batch6","","","","","","","","","","","","","","","","","","","","","","","","","","","","","",""
"true","","","","","fullscreen","2","34578","0.0-2.0-0.0","5fb7dd473afbb1033b491811","F1","batch6","spm_fullscreen","","","","","","","","","","","","","","","","","","","","","","","","","","","","",""
"","","","","","html-button-response","3","44222","0.0-2.0-1.0","5fb7dd473afbb1033b491811","F1","batch6","","9637.699999988079","<p class = block-text><b>Instructions</b> <br>This is a widely used intelligence test in research. <br>In this test, a figure with a missing piece will be presented.<br>Below the figure are alternative pieces to complete the figure, only one of which is correct.<br> Different figures might involve different principles for obtaining the missing piece<br>Your job is to select the most logical piece to complete the figure.</p>","0","","","","","","","","","","","","","","","","","","","","","","","","","",""
"","","","","","html-keyboard-response","4","45039","0.0-2.0-2.0-0.0","5fb7dd473afbb1033b491811","F1","batch6","spm_show_trial_num","null","<p class=block-text>Trial 1 out of 60</p>","null","","","","","","","","","","","","","","","","","","","","","","","","","",""
"","","","","","image-button-response","5","53633","0.0-2.0-2.0-1.0","5fb7dd473afbb1033b491811","F1","batch6","spm_respsonse","8577.700000047684","img/question_1_1.jpeg","3","mat_01","4","1","1","8577.700000047684","","","","","","","","","","","","","","","","","","","","",""
"","","","","","html-keyboard-response","6","54687","0.0-2.0-2.0-0.1","5fb7dd473afbb1033b491811","F1","batch6","spm_show_trial_num","null","<p class=block-text>Trial 2 out of 60</p>","null","","","","","","","","","","","","","","","","","","","","","","","","","",""
"","","","","","image-button-response","7","61459","0.0-2.0-2.0-1.1","5fb7dd473afbb1033b491811","F1","batch6","spm_respsonse","6765.700000047684","img/question_1_2.jpeg","4","mat_02","5","1","1","6765.700000047684","","","","","","","","","","","","","","","","","","","","",""
"","","","","","html-keyboard-response","8","62528","0.0-2.0-2.0-0.2","5fb7dd473afbb1033b491811","F1","batch6","spm_show_trial_num","null","<p class=block-text>Trial 3 out of 60</p>","null","","","","","","","","","","","","","","","","","","","","","","","","","",""
"","","","","","image-button-response","9","67972","0.0-2.0-2.0-1.2","5fb7dd473afbb1033b491811","F1","batch6","spm_respsonse","5435.400000035763","img/question_1_3.jpeg","0","mat_03","1","1","1","5435.400000035763","","","","","","","","","","","","","","","","","","","","",""
"","","","","","html-keyboard-response","10","69045","0.0-2.0-2.0-0.3","5fb7dd473afbb1033b491811","F1","batch6","spm_show_trial_num","null","<p class=block-text>Trial 4 out of 60</p>","null","","","","","","","","","","","","","","","","","","","","","","","","","",""
"","","","","","image-button-response","11","78785","0.0-2.0-2.0-1.3","5fb7dd473afbb1033b491811","F1","batch6","spm_respsonse","9727.799999952316","img/question_1_4.jpeg","1","mat_04","2","1","1","9727.799999952316","","","","","","","","","","","","","","","","","","","","",""
"","","","","","html-keyboard-response","12","79858","0.0-2.0-2.0-0.4","5fb7dd473afbb1033b491811","F1","batch6","spm_show_trial_num","null","<p class=block-text>Trial 5 out of 60</p>","null","","","","","","","","","","","","","","","","","","","","","","","","","",""
"","","","","","image-button-response","13","88447","0.0-2.0-2.0-1.4","5fb7dd473afbb1033b491811","F1","batch6","spm_respsonse","8579.699999988079","img/question_1_5.jpeg","5","mat_05","6","1","1","8579.699999988079","","","","","","","","","","","","","","","","","","","","",""
"","","","","","html-keyboard-response","14","89524","0.0-2.0-2.0-0.5","5fb7dd473afbb1033b491811","F1","batch6","spm_show_trial_num","null","<p class=block-text>Trial 6 out of 60</p>","null","","","","","","","","","","","","","","","","","","","","","","","","","",""
"","","","","","image-button-response","15","96321","0.0-2.0-2.0-1.5","5fb7dd473afbb1033b491811","F1","batch6","spm_respsonse","6788.199999988079","img/question_1_6.jpeg","2","mat_06","3","1","1","6788.199999988079","","","","","","","","","","","","","","","","","","","","",""
"","","","","","html-keyboard-response","16","97382","0.0-2.0-2.0-0.6","5fb7dd473afbb1033b491811","F1","batch6","spm_show_trial_num","null","<p class=block-text>Trial 7 out of 60</p>","null","","","","","","","","","","","","","","","","","","","","","","","","","",""
"","","","","","image-button-response","17","107122","0.0-2.0-2.0-1.6","5fb7dd473afbb1033b491811","F1","batch6","spm_respsonse","9730.100000023842","img/question_1_7.jpeg","5","mat_07","6","1","1","9730.100000023842","","","","","","","","","","","","","","","","","","","","",""
"","","","","","html-keyboard-response","18","108192","0.0-2.0-2.0-0.7","5fb7dd473afbb1033b491811","F1","batch6","spm_show_trial_num","null","<p class=block-text>Trial 8 out of 60</p>","null","","","","","","","","","","","","","","","","","","","","","","","","","",""
"","","","","","image-button-response","19","115250","0.0-2.0-2.0-1.7","5fb7dd473afbb1033b491811","F1","batch6","spm_respsonse","7051.5","img/question_1_8.jpeg","1","mat_08","2","1","1","7051.5","","","","","","","","","","","","","","","","","","","","",""
"","","","","","html-keyboard-response","20","116321","0.0-2.0-2.0-0.8","5fb7dd473afbb1033b491811","F1","batch6","spm_show_trial_num","null","<p class=block-text>Trial 9 out of 60</p>","null","","","","","","","","","","","","","","","","","","","","","","","","","",""
"","","","","","image-button-response","21","130524","0.0-2.0-2.0-1.8","5fb7dd473afbb1033b491811","F1","batch6","spm_respsonse","14195.399999976158","img/question_1_9.jpeg","0","mat_09","1","1","1","14195.399999976158","","","","","","","","","","","","","","","","","","","","",""
"","","","","","html-keyboard-response","22","131589","0.0-2.0-2.0-0.9","5fb7dd473afbb1033b491811","F1","batch6","spm_show_trial_num","null","<p class=block-text>Trial 10 out of 60</p>","null","","","","","","","","","","","","","","","","","","","","","","","","","",""
"","","","","","image-button-response","23","159105","0.0-2.0-2.0-1.9","5fb7dd473afbb1033b491811","F1","batch6","spm_respsonse","27506.69999998808","img/question_1_10.jpeg","2","mat_10","3","1","1","27506.69999998808","","","","","","","","","","","","","","","","","","","","",""
"","","","","","html-keyboard-response","24","160167","0.0-2.0-2.0-0.10","5fb7dd473afbb1033b491811","F1","batch6","spm_show_trial_num","null","<p class=block-text>Trial 11 out of 60</p>","null","","","","","","","","","","","","","","","","","","","","","","","","","",""
"","","","","","image-button-response","25","177771","0.0-2.0-2.0-1.10","5fb7dd473afbb1033b491811","F1","batch6","spm_respsonse","17595.600000023842","img/question_1_11.jpeg","3","mat_11","4","1","1","17595.600000023842","","","","","","","","","","","","","","","","","","","","",""
"","","","","","html-keyboard-response","26","178827","0.0-2.0-2.0-0.11","5fb7dd473afbb1033b491811","F1","batch6","spm_show_trial_num","null","<p class=block-text>Trial 12 out of 60</p>","null","","","","","","","","","","","","","","","","","","","","","","","","","",""
"","","","","","image-button-response","27","206826","0.0-2.0-2.0-1.11","5fb7dd473afbb1033b491811","F1","batch6","spm_respsonse","27992","img/question_1_12.jpeg","4","mat_12","5","1","1","27992","","","","","","","","","","","","","","","","","","","","",""
"","","","","","html-keyboard-response","28","207896","0.0-2.0-2.0-0.12","5fb7dd473afbb1033b491811","F1","batch6","spm_show_trial_num","null","<p class=block-text>Trial 13 out of 60</p>","null","","","","","","","","","","","","","","","","","","","","","","","","","",""
"","","","","","image-button-response","29","212508","0.0-2.0-2.0-1.12","5fb7dd473afbb1033b491811","F1","batch6","spm_respsonse","4604.699999988079","img/question_2_1.jpeg","1","mat_13","2","1","1","4604.699999988079","","","","","","","","","","","","","","","","","","","","",""
"","","","","","html-keyboard-response","30","213572","0.0-2.0-2.0-0.13","5fb7dd473afbb1033b491811","F1","batch6","spm_show_trial_num","null","<p class=block-text>Trial 14 out of 60</p>","null","","","","","","","","","","","","","","","","","","","","","","","","","",""
"","","","","","image-button-response","31","223525","0.0-2.0-2.0-1.13","5fb7dd473afbb1033b491811","F1","batch6","spm_respsonse","9945.600000023842","img/question_2_2.jpeg","5","mat_14","6","1","1","9945.600000023842","","","","","","","","","","","","","","","","","","","","",""
"","","","","","html-keyboard-response","32","224578","0.0-2.0-2.0-0.14","5fb7dd473afbb1033b491811","F1","batch6","spm_show_trial_num","null","<p class=block-text>Trial 15 out of 60</p>","null","","","","","","","","","","","","","","","","","","","","","","","","","",""
"","","","","","image-button-response","33","230549","0.0-2.0-2.0-1.14","5fb7dd473afbb1033b491811","F1","batch6","spm_respsonse","5962.5","img/question_2_3.jpeg","0","mat_15","1","1","1","5962.5","","","","","","","","","","","","","","","","","","","","",""
"","","","","","html-keyboard-response","34","231620","0.0-2.0-2.0-0.15","5fb7dd473afbb1033b491811","F1","batch6","spm_show_trial_num","null","<p class=block-text>Trial 16 out of 60</p>","null","","","","","","","","","","","","","","","","","","","","","","","","","",""
"","","","","","image-button-response","35","237957","0.0-2.0-2.0-1.15","5fb7dd473afbb1033b491811","F1","batch6","spm_respsonse","6332.399999976158","img/question_2_4.jpeg","1","mat_16","2","1","1","6332.399999976158","","","","","","","","","","","","","","","","","","","","",""
"","","","","","html-keyboard-response","36","239028","0.0-2.0-2.0-0.16","5fb7dd473afbb1033b491811","F1","batch6","spm_show_trial_num","null","<p class=block-text>Trial 17 out of 60</p>","null","","","","","","","","","","","","","","","","","","","","","","","","","",""
"","","","","","image-button-response","37","258494","0.0-2.0-2.0-1.16","5fb7dd473afbb1033b491811","F1","batch6","spm_respsonse","19460.80000001192","img/question_2_5.jpeg","0","mat_17","1","1","1","19460.80000001192","","","","","","","","","","","","","","","","","","","","",""
"","","","","","html-keyboard-response","38","259565","0.0-2.0-2.0-0.17","5fb7dd473afbb1033b491811","F1","batch6","spm_show_trial_num","null","<p class=block-text>Trial 18 out of 60</p>","null","","","","","","","","","","","","","","","","","","","","","","","","","",""
"","","","","","image-button-response","39","271667","0.0-2.0-2.0-1.17","5fb7dd473afbb1033b491811","F1","batch6","spm_respsonse","12093.199999988079","img/question_2_6.jpeg","2","mat_18","3","1","1","12093.199999988079","","","","","","","","","","","","","","","","","","","","",""
"","","","","","html-keyboard-response","40","272733","0.0-2.0-2.0-0.18","5fb7dd473afbb1033b491811","F1","batch6","spm_show_trial_num","null","<p class=block-text>Trial 19 out of 60</p>","null","","","","","","","","","","","","","","","","","","","","","","","","","",""
"","","","","","image-button-response","41","326382","0.0-2.0-2.0-1.18","5fb7dd473afbb1033b491811","F1","batch6","spm_respsonse","53640.89999997616","img/question_2_7.jpeg","4","mat_19","5","1","1","53640.89999997616","","","","","","","","","","","","","","","","","","","","",""
"","","","","","html-keyboard-response","42","327448","0.0-2.0-2.0-0.19","5fb7dd473afbb1033b491811","F1","batch6","spm_show_trial_num","null","<p class=block-text>Trial 20 out of 60</p>","null","","","","","","","","","","","","","","","","","","","","","","","","","",""
"","","","","","image-button-response","43","336082","0.0-2.0-2.0-1.19","5fb7dd473afbb1033b491811","F1","batch6","spm_respsonse","8628.900000035763","img/question_2_8.jpeg","5","mat_20","6","1","1","8628.900000035763","","","","","","","","","","","","","","","","","","","","",""
"","","","","","html-keyboard-response","44","337136","0.0-2.0-2.0-0.20","5fb7dd473afbb1033b491811","F1","batch6","spm_show_trial_num","null","<p class=block-text>Trial 21 out of 60</p>","null","","","","","","","","","","","","","","","","","","","","","","","","","",""
"","","","","","image-button-response","45","345300","0.0-2.0-2.0-1.20","5fb7dd473afbb1033b491811","F1","batch6","spm_respsonse","8158","img/question_2_9.jpeg","3","mat_21","4","1","1","8158","","","","","","","","","","","","","","","","","","","","",""
"","","","","","html-keyboard-response","46","346370","0.0-2.0-2.0-0.21","5fb7dd473afbb1033b491811","F1","batch6","spm_show_trial_num","null","<p class=block-text>Trial 22 out of 60</p>","null","","","","","","","","","","","","","","","","","","","","","","","","","",""
"","","","","","image-button-response","47","353719","0.0-2.0-2.0-1.21","5fb7dd473afbb1033b491811","F1","batch6","spm_respsonse","7340.5","img/question_2_10.jpeg","2","mat_22","3","1","1","7340.5","","","","","","","","","","","","","","","","","","","","",""
"","","","","","html-keyboard-response","48","354777","0.0-2.0-2.0-0.22","5fb7dd473afbb1033b491811","F1","batch6","spm_show_trial_num","null","<p class=block-text>Trial 23 out of 60</p>","null","","","","","","","","","","","","","","","","","","","","","","","","","",""
"","","","","","image-button-response","49","372530","0.0-2.0-2.0-1.22","5fb7dd473afbb1033b491811","F1","batch6","spm_respsonse","17744.30000001192","img/question_2_11.jpeg","3","mat_23","4","1","1","17744.30000001192","","","","","","","","","","","","","","","","","","","","",""
"","","","","","html-keyboard-response","50","373603","0.0-2.0-2.0-0.23","5fb7dd473afbb1033b491811","F1","batch6","spm_show_trial_num","null","<p class=block-text>Trial 24 out of 60</p>","null","","","","","","","","","","","","","","","","","","","","","","","","","",""
"","","","","","image-button-response","51","412104","0.0-2.0-2.0-1.23","5fb7dd473afbb1033b491811","F1","batch6","spm_respsonse","38492.90000003576","img/question_2_12.jpeg","4","mat_24","5","1","1","38492.90000003576","","","","","","","","","","","","","","","","","","","","",""
"","","","","","html-button-response","52","416928","0.0-2.0-3.0","5fb7dd473afbb1033b491811","F1","batch6","attention_check","4556.899999976158","<p class = block-text>Attention check: Please choose 1<br></p>","0","","","true","","","","","","","","","","","","","","","","","","","","","","",""
"","","","","","html-keyboard-response","53","417734","0.0-2.0-4.0-0.0","5fb7dd473afbb1033b491811","F1","batch6","spm_show_trial_num","null","<p class=block-text>Trial 25 out of 60</p>","null","","","","","","","","","","","","","","","","","","","","","","","","","",""
"","","","","","image-button-response","54","428675","0.0-2.0-4.0-1.0","5fb7dd473afbb1033b491811","F1","batch6","spm_respsonse","10931.199999988079","img/question_3_1.jpeg","7","mat_25","8","1","1","10931.199999988079","","","","","","","","","","","","","","","","","","","","",""
"","","","","","html-keyboard-response","55","429736","0.0-2.0-4.0-0.1","5fb7dd473afbb1033b491811","F1","batch6","spm_show_trial_num","null","<p class=block-text>Trial 26 out of 60</p>","null","","","","","","","","","","","","","","","","","","","","","","","","","",""
"","","","","","image-button-response","56","446033","0.0-2.0-4.0-1.1","5fb7dd473afbb1033b491811","F1","batch6","spm_respsonse","16287.200000047684","img/question_3_2.jpeg","1","mat_26","2","1","1","16287.200000047684","","","","","","","","","","","","","","","","","","","","",""
"","","","","","html-keyboard-response","57","447103","0.0-2.0-4.0-0.2","5fb7dd473afbb1033b491811","F1","batch6","spm_show_trial_num","null","<p class=block-text>Trial 27 out of 60</p>","null","","","","","","","","","","","","","","","","","","","","","","","","","",""
"","","","","","image-button-response","58","480973","0.0-2.0-4.0-1.2","5fb7dd473afbb1033b491811","F1","batch6","spm_respsonse","33859","img/question_3_3.jpeg","2","mat_27","3","1","1","33859","","","","","","","","","","","","","","","","","","","","",""
"","","","","","html-keyboard-response","59","482031","0.0-2.0-4.0-0.3","5fb7dd473afbb1033b491811","F1","batch6","spm_show_trial_num","null","<p class=block-text>Trial 28 out of 60</p>","null","","","","","","","","","","","","","","","","","","","","","","","","","",""
"","","","","","image-button-response","60","507318","0.0-2.0-4.0-1.3","5fb7dd473afbb1033b491811","F1","batch6","spm_respsonse","25277.599999964237","img/question_3_4.jpeg","7","mat_28","8","1","1","25277.599999964237","","","","","","","","","","","","","","","","","","","","",""
"","","","","","html-keyboard-response","61","508372","0.0-2.0-4.0-0.4","5fb7dd473afbb1033b491811","F1","batch6","spm_show_trial_num","null","<p class=block-text>Trial 29 out of 60</p>","null","","","","","","","","","","","","","","","","","","","","","","","","","",""
"","","","","","image-button-response","62","518918","0.0-2.0-4.0-1.4","5fb7dd473afbb1033b491811","F1","batch6","spm_respsonse","10537.5","img/question_3_5.jpeg","6","mat_29","7","1","1","10537.5","","","","","","","","","","","","","","","","","","","","",""
"","","","","","html-keyboard-response","63","519983","0.0-2.0-4.0-0.5","5fb7dd473afbb1033b491811","F1","batch6","spm_show_trial_num","null","<p class=block-text>Trial 30 out of 60</p>","null","","","","","","","","","","","","","","","","","","","","","","","","","",""
"","","","","","image-button-response","64","525488","0.0-2.0-4.0-1.5","5fb7dd473afbb1033b491811","F1","batch6","spm_respsonse","5496","img/question_3_6.jpeg","3","mat_30","4","1","1","5496","","","","","","","","","","","","","","","","","","","","",""
"","","","","","html-keyboard-response","65","526552","0.0-2.0-4.0-0.6","5fb7dd473afbb1033b491811","F1","batch6","spm_show_trial_num","null","<p class=block-text>Trial 31 out of 60</p>","null","","","","","","","","","","","","","","","","","","","","","","","","","",""
"","","","","","image-button-response","66","536217","0.0-2.0-4.0-1.6","5fb7dd473afbb1033b491811","F1","batch6","spm_respsonse","9658.600000023842","img/question_3_7.jpeg","4","mat_31","5","1","1","9658.600000023842","","","","","","","","","","","","","","","","","","","","",""
"","","","","","html-keyboard-response","67","537284","0.0-2.0-4.0-0.7","5fb7dd473afbb1033b491811","F1","batch6","spm_show_trial_num","null","<p class=block-text>Trial 32 out of 60</p>","null","","","","","","","","","","","","","","","","","","","","","","","","","",""
"","","","","","image-button-response","68","577200","0.0-2.0-4.0-1.7","5fb7dd473afbb1033b491811","F1","batch6","spm_respsonse","39907.40000003576","img/question_3_8.jpeg","0","mat_32","1","1","1","39907.40000003576","","","","","","","","","","","","","","","","","","","","",""
"","","","","","html-keyboard-response","69","578267","0.0-2.0-4.0-0.8","5fb7dd473afbb1033b491811","F1","batch6","spm_show_trial_num","null","<p class=block-text>Trial 33 out of 60</p>","null","","","","","","","","","","","","","","","","","","","","","","","","","",""
"","","","","","image-button-response","70","592213","0.0-2.0-4.0-1.8","5fb7dd473afbb1033b491811","F1","batch6","spm_respsonse","13939.100000023842","img/question_3_9.jpeg","6","mat_33","7","1","1","13939.100000023842","","","","","","","","","","","","","","","","","","","","",""
"","","","","","html-keyboard-response","71","593279","0.0-2.0-4.0-0.9","5fb7dd473afbb1033b491811","F1","batch6","spm_show_trial_num","null","<p class=block-text>Trial 34 out of 60</p>","null","","","","","","","","","","","","","","","","","","","","","","","","","",""
"","","","","","image-button-response","72","636370","0.0-2.0-4.0-1.9","5fb7dd473afbb1033b491811","F1","batch6","spm_respsonse","43080.40000003576","img/question_3_10.jpeg","7","mat_34","6","0","0","43080.40000003576","","","","","","","","","","","","","","","","","","","","",""
"","","","","","html-keyboard-response","73","637431","0.0-2.0-4.0-0.10","5fb7dd473afbb1033b491811","F1","batch6","spm_show_trial_num","null","<p class=block-text>Trial 35 out of 60</p>","null","","","","","","","","","","","","","","","","","","","","","","","","","",""
"","","","","","image-button-response","74","672692","0.0-2.0-4.0-1.10","5fb7dd473afbb1033b491811","F1","batch6","spm_respsonse","35251.80000001192","img/question_3_11.jpeg","4","mat_35","1","0","0","35251.80000001192","","","","","","","","","","","","","","","","","","","","",""
"","","","","","html-keyboard-response","75","673760","0.0-2.0-4.0-0.11","5fb7dd473afbb1033b491811","F1","batch6","spm_show_trial_num","null","<p class=block-text>Trial 36 out of 60</p>","null","","","","","","","","","","","","","","","","","","","","","","","","","",""
"","","","","","image-button-response","76","741697","0.0-2.0-4.0-1.11","5fb7dd473afbb1033b491811","F1","batch6","spm_respsonse","67928.5","img/question_3_12.jpeg","2","mat_36","2","0","0","67928.5","","","","","","","","","","","","","","","","","","","","",""
"","","","","","html-keyboard-response","77","742758","0.0-2.0-4.0-0.12","5fb7dd473afbb1033b491811","F1","batch6","spm_show_trial_num","null","<p class=block-text>Trial 37 out of 60</p>","null","","","","","","","","","","","","","","","","","","","","","","","","","",""
"","","","","","image-button-response","78","747253","0.0-2.0-4.0-1.12","5fb7dd473afbb1033b491811","F1","batch6","spm_respsonse","4488.199999988079","img/question_4_1.jpeg","2","mat_37","3","1","1","4488.199999988079","","","","","","","","","","","","","","","","","","","","",""
"","","","","","html-keyboard-response","79","748314","0.0-2.0-4.0-0.13","5fb7dd473afbb1033b491811","F1","batch6","spm_show_trial_num","null","<p class=block-text>Trial 38 out of 60</p>","null","","","","","","","","","","","","","","","","","","","","","","","","","",""
"","","","","","image-button-response","80","755506","0.0-2.0-4.0-1.13","5fb7dd473afbb1033b491811","F1","batch6","spm_respsonse","7181.699999988079","img/question_4_2.jpeg","3","mat_38","4","1","1","7181.699999988079","","","","","","","","","","","","","","","","","","","","",""
"","","","","","html-keyboard-response","81","756567","0.0-2.0-4.0-0.14","5fb7dd473afbb1033b491811","F1","batch6","spm_show_trial_num","null","<p class=block-text>Trial 39 out of 60</p>","null","","","","","","","","","","","","","","","","","","","","","","","","","",""
"","","","","","image-button-response","82","764800","0.0-2.0-4.0-1.14","5fb7dd473afbb1033b491811","F1","batch6","spm_respsonse","8228.5","img/question_4_3.jpeg","2","mat_39","3","1","1","8228.5","","","","","","","","","","","","","","","","","","","","",""
"","","","","","html-keyboard-response","83","765875","0.0-2.0-4.0-0.15","5fb7dd473afbb1033b491811","F1","batch6","spm_show_trial_num","null","<p class=block-text>Trial 40 out of 60</p>","null","","","","","","","","","","","","","","","","","","","","","","","","","",""
"","","","","","image-button-response","84","782114","0.0-2.0-4.0-1.15","5fb7dd473afbb1033b491811","F1","batch6","spm_respsonse","16229.300000011921","img/question_4_4.jpeg","6","mat_40","7","1","1","16229.300000011921","","","","","","","","","","","","","","","","","","","","",""
"","","","","","html-keyboard-response","85","783167","0.0-2.0-4.0-0.16","5fb7dd473afbb1033b491811","F1","batch6","spm_show_trial_num","null","<p class=block-text>Trial 41 out of 60</p>","null","","","","","","","","","","","","","","","","","","","","","","","","","",""
"","","","","","image-button-response","86","796543","0.0-2.0-4.0-1.16","5fb7dd473afbb1033b491811","F1","batch6","spm_respsonse","13369.5","img/question_4_5.jpeg","7","mat_41","8","1","1","13369.5","","","","","","","","","","","","","","","","","","","","",""
"","","","","","html-keyboard-response","87","797611","0.0-2.0-4.0-0.17","5fb7dd473afbb1033b491811","F1","batch6","spm_show_trial_num","null","<p class=block-text>Trial 42 out of 60</p>","null","","","","","","","","","","","","","","","","","","","","","","","","","",""
"","","","","","image-button-response","88","814716","0.0-2.0-4.0-1.17","5fb7dd473afbb1033b491811","F1","batch6","spm_respsonse","17094.100000023842","img/question_4_6.jpeg","5","mat_42","6","1","1","17094.100000023842","","","","","","","","","","","","","","","","","","","","",""
"","","","","","html-keyboard-response","89","815772","0.0-2.0-4.0-0.18","5fb7dd473afbb1033b491811","F1","batch6","spm_show_trial_num","null","<p class=block-text>Trial 43 out of 60</p>","null","","","","","","","","","","","","","","","","","","","","","","","","","",""
"","","","","","image-button-response","90","849396","0.0-2.0-4.0-1.18","5fb7dd473afbb1033b491811","F1","batch6","spm_respsonse","33615.30000001192","img/question_4_7.jpeg","4","mat_43","5","1","1","33615.30000001192","","","","","","","","","","","","","","","","","","","","",""
"","","","","","html-keyboard-response","91","850453","0.0-2.0-4.0-0.19","5fb7dd473afbb1033b491811","F1","batch6","spm_show_trial_num","null","<p class=block-text>Trial 44 out of 60</p>","null","","","","","","","","","","","","","","","","","","","","","","","","","",""
"","","","","","image-button-response","92","871605","0.0-2.0-4.0-1.19","5fb7dd473afbb1033b491811","F1","batch6","spm_respsonse","21146","img/question_4_8.jpeg","3","mat_44","4","1","1","21146","","","","","","","","","","","","","","","","","","","","",""
"","","","","","html-keyboard-response","93","872672","0.0-2.0-4.0-0.20","5fb7dd473afbb1033b491811","F1","batch6","spm_show_trial_num","null","<p class=block-text>Trial 45 out of 60</p>","null","","","","","","","","","","","","","","","","","","","","","","","","","",""
"","","","","","image-button-response","94","894656","0.0-2.0-4.0-1.20","5fb7dd473afbb1033b491811","F1","batch6","spm_respsonse","21975.69999998808","img/question_4_9.jpeg","0","mat_45","1","1","1","21975.69999998808","","","","","","","","","","","","","","","","","","","","",""
"","","","","","html-keyboard-response","95","895713","0.0-2.0-4.0-0.21","5fb7dd473afbb1033b491811","F1","batch6","spm_show_trial_num","null","<p class=block-text>Trial 46 out of 60</p>","null","","","","","","","","","","","","","","","","","","","","","","","","","",""
"","","","","","image-button-response","96","917743","0.0-2.0-4.0-1.21","5fb7dd473afbb1033b491811","F1","batch6","spm_respsonse","22020.899999976158","img/question_4_10.jpeg","1","mat_46","2","1","1","22020.899999976158","","","","","","","","","","","","","","","","","","","","",""
"","","","","","html-keyboard-response","97","918800","0.0-2.0-4.0-0.22","5fb7dd473afbb1033b491811","F1","batch6","spm_show_trial_num","null","<p class=block-text>Trial 47 out of 60</p>","null","","","","","","","","","","","","","","","","","","","","","","","","","",""
"","","","","","image-button-response","98","974716","0.0-2.0-4.0-1.22","5fb7dd473afbb1033b491811","F1","batch6","spm_respsonse","55910.09999996424","img/question_4_11.jpeg","7","mat_47","5","0","0","55910.09999996424","","","","","","","","","","","","","","","","","","","","",""
"","","","","","html-keyboard-response","99","975770","0.0-2.0-4.0-0.23","5fb7dd473afbb1033b491811","F1","batch6","spm_show_trial_num","null","<p class=block-text>Trial 48 out of 60</p>","null","","","","","","","","","","","","","","","","","","","","","","","","","",""
"","","","","","image-button-response","100","999269","0.0-2.0-4.0-1.23","5fb7dd473afbb1033b491811","F1","batch6","spm_respsonse","23491.600000023842","img/question_4_12.jpeg","5","mat_48","6","1","1","23491.600000023842","","","","","","","","","","","","","","","","","","","","",""
"","","","","","html-keyboard-response","101","1000321","0.0-2.0-4.0-0.24","5fb7dd473afbb1033b491811","F1","batch6","spm_show_trial_num","null","<p class=block-text>Trial 49 out of 60</p>","null","","","","","","","","","","","","","","","","","","","","","","","","","",""
"","","","","","image-button-response","102","1023952","0.0-2.0-4.0-1.24","5fb7dd473afbb1033b491811","F1","batch6","spm_respsonse","23621.5","img/question_5_1.jpeg","6","mat_49","7","1","1","23621.5","","","","","","","","","","","","","","","","","","","","",""
"","","","","","html-keyboard-response","103","1025022","0.0-2.0-4.0-0.25","5fb7dd473afbb1033b491811","F1","batch6","spm_show_trial_num","null","<p class=block-text>Trial 50 out of 60</p>","null","","","","","","","","","","","","","","","","","","","","","","","","","",""
"","","","","","image-button-response","104","1046228","0.0-2.0-4.0-1.25","5fb7dd473afbb1033b491811","F1","batch6","spm_respsonse","21199.19999998808","img/question_5_2.jpeg","5","mat_50","6","1","1","21199.19999998808","","","","","","","","","","","","","","","","","","","","",""
"","","","","","html-keyboard-response","105","1047288","0.0-2.0-4.0-0.26","5fb7dd473afbb1033b491811","F1","batch6","spm_show_trial_num","null","<p class=block-text>Trial 51 out of 60</p>","null","","","","","","","","","","","","","","","","","","","","","","","","","",""
"","","","","","image-button-response","106","1075932","0.0-2.0-4.0-1.26","5fb7dd473afbb1033b491811","F1","batch6","spm_respsonse","28635.30000001192","img/question_5_3.jpeg","7","mat_51","8","1","1","28635.30000001192","","","","","","","","","","","","","","","","","","","","",""
"","","","","","html-keyboard-response","107","1077000","0.0-2.0-4.0-0.27","5fb7dd473afbb1033b491811","F1","batch6","spm_show_trial_num","null","<p class=block-text>Trial 52 out of 60</p>","null","","","","","","","","","","","","","","","","","","","","","","","","","",""
"","","","","","image-button-response","108","1089873","0.0-2.0-4.0-1.27","5fb7dd473afbb1033b491811","F1","batch6","spm_respsonse","12863.399999976158","img/question_5_4.jpeg","1","mat_52","2","1","1","12863.399999976158","","","","","","","","","","","","","","","","","","","","",""
"","","","","","html-keyboard-response","109","1090931","0.0-2.0-4.0-0.28","5fb7dd473afbb1033b491811","F1","batch6","spm_show_trial_num","null","<p class=block-text>Trial 53 out of 60</p>","null","","","","","","","","","","","","","","","","","","","","","","","","","",""
"","","","","","image-button-response","110","1104207","0.0-2.0-4.0-1.28","5fb7dd473afbb1033b491811","F1","batch6","spm_respsonse","13267","img/question_5_5.jpeg","0","mat_53","1","1","1","13267","","","","","","","","","","","","","","","","","","","","",""
"","","","","","html-keyboard-response","111","1105279","0.0-2.0-4.0-0.29","5fb7dd473afbb1033b491811","F1","batch6","spm_show_trial_num","null","<p class=block-text>Trial 54 out of 60</p>","null","","","","","","","","","","","","","","","","","","","","","","","","","",""
"","","","","","image-button-response","112","1135069","0.0-2.0-4.0-1.29","5fb7dd473afbb1033b491811","F1","batch6","spm_respsonse","29780.299999952316","img/question_5_6.jpeg","4","mat_54","5","1","1","29780.299999952316","","","","","","","","","","","","","","","","","","","","",""
"","","","","","html-keyboard-response","113","1136145","0.0-2.0-4.0-0.30","5fb7dd473afbb1033b491811","F1","batch6","spm_show_trial_num","null","<p class=block-text>Trial 55 out of 60</p>","null","","","","","","","","","","","","","","","","","","","","","","","","","",""
"","","","","","image-button-response","114","1173655","0.0-2.0-4.0-1.30","5fb7dd473afbb1033b491811","F1","batch6","spm_respsonse","37499.19999998808","img/question_5_7.jpeg","0","mat_55","1","1","1","37499.19999998808","","","","","","","","","","","","","","","","","","","","",""
"","","","","","html-keyboard-response","115","1174710","0.0-2.0-4.0-0.31","5fb7dd473afbb1033b491811","F1","batch6","spm_show_trial_num","null","<p class=block-text>Trial 56 out of 60</p>","null","","","","","","","","","","","","","","","","","","","","","","","","","",""
"","","","","","image-button-response","116","1203229","0.0-2.0-4.0-1.31","5fb7dd473afbb1033b491811","F1","batch6","spm_respsonse","28508.400000035763","img/question_5_8.jpeg","5","mat_56","6","1","1","28508.400000035763","","","","","","","","","","","","","","","","","","","","",""
"","","","","","html-keyboard-response","117","1204286","0.0-2.0-4.0-0.32","5fb7dd473afbb1033b491811","F1","batch6","spm_show_trial_num","null","<p class=block-text>Trial 57 out of 60</p>","null","","","","","","","","","","","","","","","","","","","","","","","","","",""
"","","","","","image-button-response","118","1231800","0.0-2.0-4.0-1.32","5fb7dd473afbb1033b491811","F1","batch6","spm_respsonse","27504.200000047684","img/question_5_9.jpeg","2","mat_57","3","1","1","27504.200000047684","","","","","","","","","","","","","","","","","","","","",""
"","","","","","html-keyboard-response","119","1232861","0.0-2.0-4.0-0.33","5fb7dd473afbb1033b491811","F1","batch6","spm_show_trial_num","null","<p class=block-text>Trial 58 out of 60</p>","null","","","","","","","","","","","","","","","","","","","","","","","","","",""
"","","","","","image-button-response","120","1255131","0.0-2.0-4.0-1.33","5fb7dd473afbb1033b491811","F1","batch6","spm_respsonse","22260.80000001192","img/question_5_10.jpeg","3","mat_58","2","0","0","22260.80000001192","","","","","","","","","","","","","","","","","","","","",""
"","","","","","html-keyboard-response","121","1256206","0.0-2.0-4.0-0.34","5fb7dd473afbb1033b491811","F1","batch6","spm_show_trial_num","null","<p class=block-text>Trial 59 out of 60</p>","null","","","","","","","","","","","","","","","","","","","","","","","","","",""
"","","","","","image-button-response","122","1267198","0.0-2.0-4.0-1.34","5fb7dd473afbb1033b491811","F1","batch6","spm_respsonse","10982.699999988079","img/question_5_11.jpeg","0","mat_59","4","0","0","10982.699999988079","","","","","","","","","","","","","","","","","","","","",""
"","","","","","html-keyboard-response","123","1268270","0.0-2.0-4.0-0.35","5fb7dd473afbb1033b491811","F1","batch6","spm_show_trial_num","null","<p class=block-text>Trial 60 out of 60</p>","null","","","","","","","","","","","","","","","","","","","","","","","","","",""
"","","","","","image-button-response","124","1291269","0.0-2.0-4.0-1.35","5fb7dd473afbb1033b491811","F1","batch6","spm_respsonse","22993","img/question_5_12.jpeg","6","mat_60","5","0","0","22993","","","","","","","","","","","","","","","","","","","","",""
"","","","","","html-button-response","125","1294673","0.0-2.0-5.0","5fb7dd473afbb1033b491811","F1","batch6","spm_goodbye","3149","<p class= block-text>This concludes the Standard Progressive Matrix game. Thank you for your responses!<br> When you are ready, click the button continue</p>","0","","","","","","","","","","","","","","","","","","","","","","","","","",""
"true","","","","","fullscreen","126","1297836","0.0-3.0-0.0","5fb7dd473afbb1033b491811","F1","batch6","","","","","","","","","","","","","","","","","","","","","","","","","","","","","",""
"","","","","","instructions","127","1365871","0.0-3.0-1.0-0.0-0.0","5fb7dd473afbb1033b491811","F1","batch6","tol-instructions","68032.5","","","","","","","","[{""page_index"":0,""viewing_time"":9552.399999976158},{""page_index"":1,""viewing_time"":3571.100000023842},{""page_index"":2,""viewing_time"":2864.399999976158},{""page_index"":3,""viewing_time"":14508.400000035763},{""page_index"":4,""viewing_time"":23363},{""page_index"":5,""viewing_time"":10622.399999976158},{""page_index"":6,""viewing_time"":3550}]","","","","","","","","","","","","","","","","","","","",""
"","","","","","html-button-response","128","1367275","0.0-3.0-1.0-1.0-0.0","5fb7dd473afbb1033b491811","F1","batch6","tol_enter_quiz","1400.800000011921","<p class=block-text> Let's answer a few questions <br>","0","","","","","","","","","","","","","","","","","","","","","","","","","",""
"","","","","","html-button-response","129","1374324","0.0-3.0-1.0-1.0-1.0","5fb7dd473afbb1033b491811","F1","batch6","tol_quiz","7045.5","<p class = block-text>True or False: You can only move the ball on top of a peg. <br></p>","0","","","true","","","","","","","","","","","","","","","","","","","","","","",""
"","","","","","html-button-response","130","1375946","0.0-3.0-1.0-1.0-2.0","5fb7dd473afbb1033b491811","F1","batch6","tol_quiz_feedback","1615.9000000357628","<p class = block-text>Correct! You can only move the ball on top of a peg.</p>","0","","","","","","","","","","","","","","","","","","","","","","","","","",""
"","","","","","html-button-response","131","1379695","0.0-3.0-1.0-1.0-3.0","5fb7dd473afbb1033b491811","F1","batch6","tol_quiz","3747.2000000476837","<p class = block-text>True or False: You should try to match your board with the target board with fewest moves possible. <br></p>","0","","","true","","","","","","","","","","","","","","","","","","","","","","",""
"","","","","","html-button-response","132","1380753","0.0-3.0-1.0-1.0-4.0","5fb7dd473afbb1033b491811","F1","batch6","tol_quiz_feedback","1054.2000000476837","<p class = block-text>Correct! </p>","0","","","","","","","","","","","","","","","","","","","","","","","","","",""
"","","","","","html-button-response","133","1382975","0.0-3.0-2.0","5fb7dd473afbb1033b491811","F1","batch6","","2216.699999988079","<p class=block-text> Now that you've understood the game, let's practice a few easier examples before we start!<br> <br>","0","","","","","","","","","","","","","","","","","","","","","","","","","",""
"","","","","","single-stim-button","134","1388438","0.0-3.0-3.0-0.0","5fb7dd473afbb1033b491811","F1","batch6","tol_practice","5457","","","","","","","","","tol_peg_2","5457","5457","0","[[1,2,0],[0,0],[0]]","1","[[1,2,0],[0,0],[3]]","practice","5457","","","","","","","","","","",""
"","","","","","single-stim-button","135","1389976","0.0-3.0-3.0-1.0","5fb7dd473afbb1033b491811","F1","batch6","tol_practice","1535","","","","","","","","","tol_peg_3","1535","1535","0","[[1,2,0],[0,0],[3]]","1","[[1,2,0],[0,0],[3]]","practice","1535","","","","","","","","","","",""
"","","","","","poldrack-single-stim","136","1390984","0.0-3.0-4.0","5fb7dd473afbb1033b491811","F1","batch6","tol_feedback","-1","","","","","true","","","","","1000","1000","500","","","","","","-1","none","true","","0","","","","","",""
"","","","","","single-stim-button","137","1397349","0.0-3.0-5.0-0.0","5fb7dd473afbb1033b491811","F1","batch6","tol_practice","6361","","","","","","","","","tol_peg_1","6361","6361","0","[[1,0,0],[3,0],[0]]","2","[[0,0,0],[3,1],[2]]","practice","6361","","","","","","","","","","",""
"","","","","","single-stim-button","138","1399169","0.0-3.0-5.0-1.0","5fb7dd473afbb1033b491811","F1","batch6","tol_practice","1817","","","","","","","","","tol_peg_3","1817","1817","0","[[1,0,0],[3,0],[2]]","2","[[0,0,0],[3,1],[2]]","practice","1817","","","","","","","","","","",""
"","","","","","single-stim-button","139","1405599","0.0-3.0-5.1-0.1","5fb7dd473afbb1033b491811","F1","batch6","tol_practice","6428","","","","","","","","","tol_peg_1","6428","6428","0","[[0,0,0],[3,0],[2]]","3","[[0,0,0],[3,1],[2]]","practice","6428","","","","","","","","","","",""
"","","","","","single-stim-button","140","1407543","0.0-3.0-5.1-1.1","5fb7dd473afbb1033b491811","F1","batch6","tol_practice","1941","","","","","","","","","tol_peg_2","1941","1941","0","[[0,0,0],[3,1],[2]]","3","[[0,0,0],[3,1],[2]]","practice","1941","","","","","","","","","","",""
"","","","","","poldrack-single-stim","141","1408547","0.0-3.0-6.0","5fb7dd473afbb1033b491811","F1","batch6","tol_feedback","-1","","","","","true","","","","","1000","1000","500","","","","","","-1","none","true","","0","","","","","",""
"","","","","","single-stim-button","142","1418565","0.0-3.0-7.0-0.0","5fb7dd473afbb1033b491811","F1","batch6","tol_practice","10016","","","","","","","","","tol_peg_2","10016","10016","0","[[1,2,0],[0,0],[0]]","4","[[1,0,0],[2,0],[3]]","practice","10016","","","","","","","","","","",""
"","","","","","single-stim-button","143","1419800","0.0-3.0-7.0-1.0","5fb7dd473afbb1033b491811","F1","batch6","tol_practice","1231","","","","","","","","","tol_peg_3","1231","1231","0","[[1,2,0],[0,0],[3]]","4","[[1,0,0],[2,0],[3]]","practice","1231","","","","","","","","","","",""
"","","","","","single-stim-button","144","1421514","0.0-3.0-7.1-0.1","5fb7dd473afbb1033b491811","F1","batch6","tol_practice","1712","","","","","","","","","tol_peg_1","1712","1712","0","[[1,0,0],[0,0],[3]]","5","[[1,0,0],[2,0],[3]]","practice","1712","","","","","","","","","","",""
"","","","","","single-stim-button","145","1422501","0.0-3.0-7.1-1.1","5fb7dd473afbb1033b491811","F1","batch6","tol_practice","985","","","","","","","","","tol_peg_2","985","985","0","[[1,0,0],[2,0],[3]]","5","[[1,0,0],[2,0],[3]]","practice","985","","","","","","","","","","",""
"","","","","","poldrack-single-stim","146","1423514","0.0-3.0-8.0","5fb7dd473afbb1033b491811","F1","batch6","tol_feedback","-1","","","","","true","","","","","1000","1000","500","","","","","","-1","none","true","","0","","","","","",""
"","","","","","html-button-response","147","1443213","0.0-3.0-9.0","5fb7dd473afbb1033b491811","F1","batch6","tol_instruction","19695.900000035763","<div class = centerbox><p class = center-block-text>Great job! You are done with practice trials<br>You are about to start official trials.<br> <br> Problem <strong>1</strong> out of 25 problems</p></div>","0","","","","","","","","","","","","","","","","","","","","","","","","","",""
"","","","","","single-stim-button","148","1451459","0.0-3.0-10.0-0.0","5fb7dd473afbb1033b491811","F1","batch6","tol_tohand","7226","","","","","","","","","tol_peg_2","7226","7226","0","[[1,2,0],[0,0],[0]]","1","[[1,3,0],[2,0],[0]]","0","0","","","","","","3","","","","",""
"","","","","","single-stim-button","149","1455664","0.0-3.0-10.0-1.0","5fb7dd473afbb1033b491811","F1","batch6","tol_toboard","4202","","","","","","","","","tol_peg_3","4202","4202","0","[[1,2,0],[0,0],[3]]","1","[[1,3,0],[2,0],[0]]","0","0","","","","","","3","","","","",""
"","","","","","single-stim-button","150","1457255","0.0-3.0-10.1-0.1","5fb7dd473afbb1033b491811","F1","batch6","tol_tohand","1588","","","","","","","","","tol_peg_1","1588","1588","0","[[1,0,0],[0,0],[3]]","2","[[1,3,0],[2,0],[0]]","0","0","","","","","","3","","","","",""
"","","","","","single-stim-button","151","1459923","0.0-3.0-10.1-1.1","5fb7dd473afbb1033b491811","F1","batch6","tol_toboard","2665","","","","","","","","","tol_peg_2","2665","2665","0","[[1,0,0],[2,0],[3]]","2","[[1,3,0],[2,0],[0]]","0","0","","","","","","3","","","","",""
"","","","","","single-stim-button","152","1464577","0.0-3.0-10.2-0.2","5fb7dd473afbb1033b491811","F1","batch6","tol_tohand","4652","","","","","","","","","tol_peg_1","4652","4652","0","[[0,0,0],[2,0],[3]]","3","[[1,3,0],[2,0],[0]]","0","0","","","","","","3","","","","",""
"","","","","","single-stim-button","153","1466925","0.0-3.0-10.2-1.2","5fb7dd473afbb1033b491811","F1","batch6","tol_toboard","2346","","","","","","","","","tol_peg_1","2346","2346","0","[[1,0,0],[2,0],[3]]","3","[[1,3,0],[2,0],[0]]","0","0","","","","","","3","","","","",""
"","","","","","single-stim-button","154","1469987","0.0-3.0-10.3-0.3","5fb7dd473afbb1033b491811","F1","batch6","tol_tohand","3060","","","","","","","","","tol_peg_3","3060","3060","0","[[1,0,0],[2,0],[0]]","4","[[1,3,0],[2,0],[0]]","0","0","","","","","","3","","","","",""
"","","","","","single-stim-button","155","1471555","0.0-3.0-10.3-1.3","5fb7dd473afbb1033b491811","F1","batch6","tol_toboard","1565","","","","","","","","","tol_peg_1","1565","1565","0","[[1,3,0],[2,0],[0]]","4","[[1,3,0],[2,0],[0]]","0","0","","","","","","3","","","","",""
"","","","","","poldrack-single-stim","156","1472560","0.0-3.0-11.0","5fb7dd473afbb1033b491811","F1","batch6","tol_feedback","-1","","","","","true","","","","","1000","1000","500","","","","","","-1","none","true","7226","16526","","","","","",""
"","","","","","html-button-response","157","1474671","0.0-3.0-12.0","5fb7dd473afbb1033b491811","F1","batch6","tol_trial_num","2107.300000011921","<div class = centerbox><p class = center-block-text>problem <strong>2</strong> out of 25 problems</p></div>","0","","","","","","","","","","","","","","","","","","","","","","","","","",""
"","","","","","single-stim-button","158","1485351","0.0-3.0-13.0-0.0","5fb7dd473afbb1033b491811","F1","batch6","tol_tohand","10678","","","","","","","","","tol_peg_2","10678","10678","0","[[1,2,0],[0,0],[0]]","1","[[2,1,3],[0,0],[0]]","1","0","","","","","","5","","","","",""
"","","","","","single-stim-button","159","1486555","0.0-3.0-13.0-1.0","5fb7dd473afbb1033b491811","F1","batch6","tol_toboard","1201","","","","","","","","","tol_peg_3","1201","1201","0","[[1,2,0],[0,0],[3]]","1","[[2,1,3],[0,0],[0]]","1","0","","","","","","5","","","","",""
"","","","","","single-stim-button","160","1499947","0.0-3.0-13.1-0.1","5fb7dd473afbb1033b491811","F1","batch6","tol_tohand","13391","","","","","","","","","tol_peg_1","13391","13391","0","[[1,0,0],[0,0],[3]]","2","[[2,1,3],[0,0],[0]]","1","0","","","","","","5","","","","",""
"","","","","","single-stim-button","161","1512790","0.0-3.0-13.1-1.1","5fb7dd473afbb1033b491811","F1","batch6","tol_toboard","12840","","","","","","","","","tol_peg_2","12840","12840","0","[[1,0,0],[2,0],[3]]","2","[[2,1,3],[0,0],[0]]","1","0","","","","","","5","","","","",""
"","","","","","single-stim-button","162","1539521","0.0-3.0-13.2-0.2","5fb7dd473afbb1033b491811","F1","batch6","tol_tohand","26728","","","","","","","","","tol_peg_3","26728","26728","0","[[1,0,0],[2,0],[0]]","3","[[2,1,3],[0,0],[0]]","1","0","","","","","","5","","","","",""
"","","","","","single-stim-button","163","1540765","0.0-3.0-13.2-1.2","5fb7dd473afbb1033b491811","F1","batch6","tol_toboard","1242","","","","","","","","","tol_peg_1","1242","1242","0","[[1,3,0],[2,0],[0]]","3","[[2,1,3],[0,0],[0]]","1","0","","","","","","5","","","","",""
"","","","","","single-stim-button","164","1541651","0.0-3.0-13.3-0.3","5fb7dd473afbb1033b491811","F1","batch6","tol_tohand","884","","","","","","","","","tol_peg_2","884","884","0","[[1,3,0],[0,0],[0]]","4","[[2,1,3],[0,0],[0]]","1","0","","","","","","5","","","","",""
"","","","","","single-stim-button","165","1542685","0.0-3.0-13.3-1.3","5fb7dd473afbb1033b491811","F1","batch6","tol_toboard","1032","","","","","","","","","tol_peg_3","1032","1032","0","[[1,3,0],[0,0],[2]]","4","[[2,1,3],[0,0],[0]]","1","0","","","","","","5","","","","",""
"","","","","","single-stim-button","166","1548135","0.0-3.0-13.4-0.4","5fb7dd473afbb1033b491811","F1","batch6","tol_tohand","5447","","","","","","","","","tol_peg_1","5447","5447","0","[[1,0,0],[0,0],[2]]","5","[[2,1,3],[0,0],[0]]","1","0","","","","","","5","","","","",""
"","","","","","single-stim-button","167","1549871","0.0-3.0-13.4-1.4","5fb7dd473afbb1033b491811","F1","batch6","tol_toboard","1734","","","","","","","","","tol_peg_2","1734","1734","0","[[1,0,0],[3,0],[2]]","5","[[2,1,3],[0,0],[0]]","1","0","","","","","","5","","","","",""
"","","","","","single-stim-button","168","1554131","0.0-3.0-13.5-0.5","5fb7dd473afbb1033b491811","F1","batch6","tol_tohand","4257","","","","","","","","","tol_peg_1","4257","4257","0","[[0,0,0],[3,0],[2]]","6","[[2,1,3],[0,0],[0]]","1","0","","","","","","5","","","","",""
"","","","","","single-stim-button","169","1555373","0.0-3.0-13.5-1.5","5fb7dd473afbb1033b491811","F1","batch6","tol_toboard","1240","","","","","","","","","tol_peg_2","1240","1240","0","[[0,0,0],[3,1],[2]]","6","[[2,1,3],[0,0],[0]]","1","0","","","","","","5","","","","",""
"","","","","","single-stim-button","170","1556815","0.0-3.0-13.6-0.6","5fb7dd473afbb1033b491811","F1","batch6","tol_tohand","1440","","","","","","","","","tol_peg_3","1440","1440","0","[[0,0,0],[3,1],[0]]","7","[[2,1,3],[0,0],[0]]","1","0","","","","","","5","","","","",""
"","","","","","single-stim-button","171","1558036","0.0-3.0-13.6-1.6","5fb7dd473afbb1033b491811","F1","batch6","tol_toboard","1219","","","","","","","","","tol_peg_1","1219","1219","0","[[2,0,0],[3,1],[0]]","7","[[2,1,3],[0,0],[0]]","1","0","","","","","","5","","","","",""
"","","","","","single-stim-button","172","1562727","0.0-3.0-13.7-0.7","5fb7dd473afbb1033b491811","F1","batch6","tol_tohand","4690","","","","","","","","","tol_peg_2","4690","4690","0","[[2,0,0],[3,0],[0]]","8","[[2,1,3],[0,0],[0]]","1","0","","","","","","5","","","","",""
"","","","","","single-stim-button","173","1563923","0.0-3.0-13.7-1.7","5fb7dd473afbb1033b491811","F1","batch6","tol_toboard","1194","","","","","","","","","tol_peg_1","1194","1194","0","[[2,1,0],[3,0],[0]]","8","[[2,1,3],[0,0],[0]]","1","0","","","","","","5","","","","",""
"","","","","","single-stim-button","174","1564903","0.0-3.0-13.8-0.8","5fb7dd473afbb1033b491811","F1","batch6","tol_tohand","977","","","","","","","","","tol_peg_2","977","977","0","[[2,1,0],[0,0],[0]]","9","[[2,1,3],[0,0],[0]]","1","0","","","","","","5","","","","",""
"","","","","","single-stim-button","175","1565900","0.0-3.0-13.8-1.8","5fb7dd473afbb1033b491811","F1","batch6","tol_toboard","995","","","","","","","","","tol_peg_1","995","995","0","[[2,1,3],[0,0],[0]]","9","[[2,1,3],[0,0],[0]]","1","0","","","","","","5","","","","",""
"","","","","","poldrack-single-stim","176","1566914","0.0-3.0-14.0","5fb7dd473afbb1033b491811","F1","batch6","tol_feedback","-1","","","","","true","","","","","1000","1000","500","","","","","","-1","none","true","10678","68492","","","","","",""
"","","","","","html-button-response","177","1568145","0.0-3.0-15.0","5fb7dd473afbb1033b491811","F1","batch6","tol_trial_num","1227.3999999761581","<div class = centerbox><p class = center-block-text>problem <strong>3</strong> out of 25 problems</p></div>","0","","","","","","","","","","","","","","","","","","","","","","","","","",""
"","","","","","single-stim-button","178","1594543","0.0-3.0-16.0-0.0","5fb7dd473afbb1033b491811","F1","batch6","tol_tohand","26396","","","","","","","","","tol_peg_3","26396","26396","0","[[2,3,0],[0,0],[0]]","1","[[1,2,0],[3,0],[0]]","2","0","","","","","","4","","","","",""
"","","","","","single-stim-button","179","1595816","0.0-3.0-16.0-1.0","5fb7dd473afbb1033b491811","F1","batch6","tol_toboard","1271","","","","","","","","","tol_peg_2","1271","1271","0","[[2,3,0],[1,0],[0]]","1","[[1,2,0],[3,0],[0]]","2","0","","","","","","4","","","","",""
"","","","","","single-stim-button","180","1629978","0.0-3.0-16.1-0.1","5fb7dd473afbb1033b491811","F1","batch6","tol_tohand","34161","","","","","","","","","tol_peg_1","34161","34161","0","[[2,0,0],[1,0],[0]]","2","[[1,2,0],[3,0],[0]]","2","0","","","","","","4","","","","",""
"","","","","","single-stim-button","181","1631498","0.0-3.0-16.1-1.1","5fb7dd473afbb1033b491811","F1","batch6","tol_toboard","1517","","","","","","","","","tol_peg_2","1517","1517","0","[[2,0,0],[1,3],[0]]","2","[[1,2,0],[3,0],[0]]","2","0","","","","","","4","","","","",""
"","","","","","single-stim-button","182","1632756","0.0-3.0-16.2-0.2","5fb7dd473afbb1033b491811","F1","batch6","tol_tohand","1256","","","","","","","","","tol_peg_1","1256","1256","0","[[0,0,0],[1,3],[0]]","3","[[1,2,0],[3,0],[0]]","2","0","","","","","","4","","","","",""
"","","","","","single-stim-button","183","1634292","0.0-3.0-16.2-1.2","5fb7dd473afbb1033b491811","F1","batch6","tol_toboard","1533","","","","","","","","","tol_peg_3","1533","1533","0","[[0,0,0],[1,3],[2]]","3","[[1,2,0],[3,0],[0]]","2","0","","","","","","4","","","","",""
"","","","","","single-stim-button","184","1643121","0.0-3.0-16.3-0.3","5fb7dd473afbb1033b491811","F1","batch6","tol_tohand","8827","","","","","","","","","tol_peg_2","8827","8827","0","[[0,0,0],[1,0],[2]]","4","[[1,2,0],[3,0],[0]]","2","0","","","","","","4","","","","",""
"","","","","","single-stim-button","185","1647691","0.0-3.0-16.3-1.3","5fb7dd473afbb1033b491811","F1","batch6","tol_toboard","4567","","","","","","","","","tol_peg_1","4567","4567","0","[[3,0,0],[1,0],[2]]","4","[[1,2,0],[3,0],[0]]","2","0","","","","","","4","","","","",""
"","","","","","single-stim-button","186","1663157","0.0-3.0-16.4-0.4","5fb7dd473afbb1033b491811","F1","batch6","tol_tohand","15463","","","","","","","","","tol_peg_3","15463","15463","0","[[3,0,0],[1,0],[0]]","5","[[1,2,0],[3,0],[0]]","2","0","","","","","","4","","","","",""
"","","","","","single-stim-button","187","1670782","0.0-3.0-16.4-1.4","5fb7dd473afbb1033b491811","F1","batch6","tol_toboard","7621","","","","","","","","","tol_peg_1","7621","7621","0","[[3,2,0],[1,0],[0]]","5","[[1,2,0],[3,0],[0]]","2","0","","","","","","4","","","","",""
"","","","","","single-stim-button","188","1686460","0.0-3.0-16.5-0.5","5fb7dd473afbb1033b491811","F1","batch6","tol_tohand","15676","","","","","","","","","tol_peg_2","15676","15676","0","[[3,2,0],[0,0],[0]]","6","[[1,2,0],[3,0],[0]]","2","0","","","","","","4","","","","",""
"","","","","","single-stim-button","189","1694146","0.0-3.0-16.5-1.5","5fb7dd473afbb1033b491811","F1","batch6","tol_toboard","7684","","","","","","","","","tol_peg_3","7684","7684","0","[[3,2,0],[0,0],[1]]","6","[[1,2,0],[3,0],[0]]","2","0","","","","","","4","","","","",""
"","","","","","single-stim-button","190","1695836","0.0-3.0-16.6-0.6","5fb7dd473afbb1033b491811","F1","batch6","tol_tohand","1687","","","","","","","","","tol_peg_1","1687","1687","0","[[3,0,0],[0,0],[1]]","7","[[1,2,0],[3,0],[0]]","2","0","","","","","","4","","","","",""
"","","","","","single-stim-button","191","1698104","0.0-3.0-16.6-1.6","5fb7dd473afbb1033b491811","F1","batch6","tol_toboard","2266","","","","","","","","","tol_peg_2","2266","2266","0","[[3,0,0],[2,0],[1]]","7","[[1,2,0],[3,0],[0]]","2","0","","","","","","4","","","","",""
"","","","","","single-stim-button","192","1699192","0.0-3.0-16.7-0.7","5fb7dd473afbb1033b491811","F1","batch6","tol_tohand","1086","","","","","","","","","tol_peg_3","1086","1086","0","[[3,0,0],[2,0],[0]]","8","[[1,2,0],[3,0],[0]]","2","0","","","","","","4","","","","",""
"","","","","","single-stim-button","193","1700264","0.0-3.0-16.7-1.7","5fb7dd473afbb1033b491811","F1","batch6","tol_toboard","1070","","","","","","","","","tol_peg_2","1070","1070","0","[[3,0,0],[2,1],[0]]","8","[[1,2,0],[3,0],[0]]","2","0","","","","","","4","","","","",""
"","","","","","single-stim-button","194","1701414","0.0-3.0-16.8-0.8","5fb7dd473afbb1033b491811","F1","batch6","tol_tohand","1148","","","","","","","","","tol_peg_1","1148","1148","0","[[0,0,0],[2,1],[0]]","9","[[1,2,0],[3,0],[0]]","2","0","","","","","","4","","","","",""
"","","","","","single-stim-button","195","1702642","0.0-3.0-16.8-1.8","5fb7dd473afbb1033b491811","F1","batch6","tol_toboard","1226","","","","","","","","","tol_peg_3","1226","1226","0","[[0,0,0],[2,1],[3]]","9","[[1,2,0],[3,0],[0]]","2","0","","","","","","4","","","","",""
"","","","","","single-stim-button","196","1703760","0.0-3.0-16.9-0.9","5fb7dd473afbb1033b491811","F1","batch6","tol_tohand","1116","","","","","","","","","tol_peg_2","1116","1116","0","[[0,0,0],[2,0],[3]]","10","[[1,2,0],[3,0],[0]]","2","0","","","","","","4","","","","",""
"","","","","","single-stim-button","197","1704826","0.0-3.0-16.9-1.9","5fb7dd473afbb1033b491811","F1","batch6","tol_toboard","1064","","","","","","","","","tol_peg_1","1064","1064","0","[[1,0,0],[2,0],[3]]","10","[[1,2,0],[3,0],[0]]","2","0","","","","","","4","","","","",""
"","","","","","single-stim-button","198","1705682","0.0-3.0-16.10-0.10","5fb7dd473afbb1033b491811","F1","batch6","tol_tohand","853","","","","","","","","","tol_peg_2","853","853","0","[[1,0,0],[0,0],[3]]","11","[[1,2,0],[3,0],[0]]","2","0","","","","","","4","","","","",""
"","","","","","single-stim-button","199","1706978","0.0-3.0-16.10-1.10","5fb7dd473afbb1033b491811","F1","batch6","tol_toboard","1293","","","","","","","","","tol_peg_1","1293","1293","0","[[1,2,0],[0,0],[3]]","11","[[1,2,0],[3,0],[0]]","2","0","","","","","","4","","","","",""
"","","","","","single-stim-button","200","1709117","0.0-3.0-16.11-0.11","5fb7dd473afbb1033b491811","F1","batch6","tol_tohand","2137","","","","","","","","","tol_peg_3","2137","2137","0","[[1,2,0],[0,0],[0]]","12","[[1,2,0],[3,0],[0]]","2","0","","","","","","4","","","","",""
"","","","","","single-stim-button","201","1709934","0.0-3.0-16.11-1.11","5fb7dd473afbb1033b491811","F1","batch6","tol_toboard","816","","","","","","","","","tol_peg_2","816","816","0","[[1,2,0],[3,0],[0]]","12","[[1,2,0],[3,0],[0]]","2","0","","","","","","4","","","","",""
"","","","","","poldrack-single-stim","202","1710939","0.0-3.0-17.0","5fb7dd473afbb1033b491811","F1","batch6","tol_feedback","-1","","","","","true","","","","","1000","1000","500","","","","","","-1","none","true","26396","109806","","","","","",""
"","","","","","html-button-response","203","1712102","0.0-3.0-18.0","5fb7dd473afbb1033b491811","F1","batch6","tol_trial_num","1159.8999999761581","<div class = centerbox><p class = center-block-text>problem <strong>4</strong> out of 25 problems</p></div>","0","","","","","","","","","","","","","","","","","","","","","","","","","",""
"","","","","","single-stim-button","204","1720029","0.0-3.0-19.0-0.0","5fb7dd473afbb1033b491811","F1","batch6","tol_tohand","7924","","","","","","","","","tol_peg_2","7924","7924","0","[[3,0,0],[2,0],[0]]","1","[[3,0,0],[1,0],[2]]","3","0","","","","","","3","","","","",""
"","","","","","single-stim-button","205","1721201","0.0-3.0-19.0-1.0","5fb7dd473afbb1033b491811","F1","batch6","tol_toboard","1169","","","","","","","","","tol_peg_1","1169","1169","0","[[3,1,0],[2,0],[0]]","1","[[3,0,0],[1,0],[2]]","3","0","","","","","","3","","","","",""
"","","","","","single-stim-button","206","1722808","0.0-3.0-19.1-0.1","5fb7dd473afbb1033b491811","F1","batch6","tol_tohand","1604","","","","","","","","","tol_peg_2","1604","1604","0","[[3,1,0],[0,0],[0]]","2","[[3,0,0],[1,0],[2]]","3","0","","","","","","3","","","","",""
"","","","","","single-stim-button","207","1723834","0.0-3.0-19.1-1.1","5fb7dd473afbb1033b491811","F1","batch6","tol_toboard","1024","","","","","","","","","tol_peg_3","1024","1024","0","[[3,1,0],[0,0],[2]]","2","[[3,0,0],[1,0],[2]]","3","0","","","","","","3","","","","",""
"","","","","","single-stim-button","208","1724958","0.0-3.0-19.2-0.2","5fb7dd473afbb1033b491811","F1","batch6","tol_tohand","1122","","","","","","","","","tol_peg_1","1122","1122","0","[[3,0,0],[0,0],[2]]","3","[[3,0,0],[1,0],[2]]","3","0","","","","","","3","","","","",""
"","","","","","single-stim-button","209","1725971","0.0-3.0-19.2-1.2","5fb7dd473afbb1033b491811","F1","batch6","tol_toboard","1010","","","","","","","","","tol_peg_2","1010","1010","0","[[3,0,0],[1,0],[2]]","3","[[3,0,0],[1,0],[2]]","3","0","","","","","","3","","","","",""
"","","","","","poldrack-single-stim","210","1726975","0.0-3.0-20.0","5fb7dd473afbb1033b491811","F1","batch6","tol_feedback","-1","","","","","true","","","","","1000","1000","500","","","","","","-1","none","true","7924","10650","","","","","",""
"","","","","","html-button-response","211","1728100","0.0-3.0-21.0","5fb7dd473afbb1033b491811","F1","batch6","tol_trial_num","1123.3999999761581","<div class = centerbox><p class = center-block-text>problem <strong>5</strong> out of 25 problems</p></div>","0","","","","","","","","","","","","","","","","","","","","","","","","","",""
"","","","","","single-stim-button","212","1740665","0.0-3.0-22.0-0.0","5fb7dd473afbb1033b491811","F1","batch6","tol_tohand","12563","","","","","","","","","tol_peg_3","12563","12563","0","[[1,0,0],[2,0],[0]]","1","[[0,0,0],[1,2],[3]]","4","0","","","","","","7","","","","",""
"","","","","","single-stim-button","213","1745234","0.0-3.0-22.0-1.0","5fb7dd473afbb1033b491811","F1","batch6","tol_toboard","4567","","","","","","","","","tol_peg_1","4567","4567","0","[[1,3,0],[2,0],[0]]","1","[[0,0,0],[1,2],[3]]","4","0","","","","","","7","","","","",""
"","","","","","single-stim-button","214","1746181","0.0-3.0-22.1-0.1","5fb7dd473afbb1033b491811","F1","batch6","tol_tohand","945","","","","","","","","","tol_peg_2","945","945","0","[[1,3,0],[0,0],[0]]","2","[[0,0,0],[1,2],[3]]","4","0","","","","","","7","","","","",""
"","","","","","single-stim-button","215","1746853","0.0-3.0-22.1-1.1","5fb7dd473afbb1033b491811","F1","batch6","tol_toboard","670","","","","","","","","","tol_peg_3","670","670","0","[[1,3,0],[0,0],[2]]","2","[[0,0,0],[1,2],[3]]","4","0","","","","","","7","","","","",""
"","","","","","single-stim-button","216","1751159","0.0-3.0-22.2-0.2","5fb7dd473afbb1033b491811","F1","batch6","tol_tohand","4304","","","","","","","","","tol_peg_1","4304","4304","0","[[1,0,0],[0,0],[2]]","3","[[0,0,0],[1,2],[3]]","4","0","","","","","","7","","","","",""
"","","","","","single-stim-button","217","1752727","0.0-3.0-22.2-1.2","5fb7dd473afbb1033b491811","F1","batch6","tol_toboard","1565","","","","","","","","","tol_peg_2","1565","1565","0","[[1,0,0],[3,0],[2]]","3","[[0,0,0],[1,2],[3]]","4","0","","","","","","7","","","","",""
"","","","","","single-stim-button","218","1763438","0.0-3.0-22.3-0.3","5fb7dd473afbb1033b491811","F1","batch6","tol_tohand","10709","","","","","","","","","tol_peg_3","10709","10709","0","[[1,0,0],[3,0],[0]]","4","[[0,0,0],[1,2],[3]]","4","0","","","","","","7","","","","",""
"","","","","","single-stim-button","219","1764612","0.0-3.0-22.3-1.3","5fb7dd473afbb1033b491811","F1","batch6","tol_toboard","1172","","","","","","","","","tol_peg_2","1172","1172","0","[[1,0,0],[3,2],[0]]","4","[[0,0,0],[1,2],[3]]","4","0","","","","","","7","","","","",""
"","","","","","single-stim-button","220","1769166","0.0-3.0-22.4-0.4","5fb7dd473afbb1033b491811","F1","batch6","tol_tohand","4552","","","","","","","","","tol_peg_1","4552","4552","0","[[0,0,0],[3,2],[0]]","5","[[0,0,0],[1,2],[3]]","4","0","","","","","","7","","","","",""
"","","","","","single-stim-button","221","1770022","0.0-3.0-22.4-1.4","5fb7dd473afbb1033b491811","F1","batch6","tol_toboard","854","","","","","","","","","tol_peg_3","854","854","0","[[0,0,0],[3,2],[1]]","5","[[0,0,0],[1,2],[3]]","4","0","","","","","","7","","","","",""
"","","","","","single-stim-button","222","1774374","0.0-3.0-22.5-0.5","5fb7dd473afbb1033b491811","F1","batch6","tol_tohand","4350","","","","","","","","","tol_peg_2","4350","4350","0","[[0,0,0],[3,0],[1]]","6","[[0,0,0],[1,2],[3]]","4","0","","","","","","7","","","","",""
"","","","","","single-stim-button","223","1775870","0.0-3.0-22.5-1.5","5fb7dd473afbb1033b491811","F1","batch6","tol_toboard","1494","","","","","","","","","tol_peg_1","1494","1494","0","[[2,0,0],[3,0],[1]]","6","[[0,0,0],[1,2],[3]]","4","0","","","","","","7","","","","",""
"","","","","","single-stim-button","224","1778618","0.0-3.0-22.6-0.6","5fb7dd473afbb1033b491811","F1","batch6","tol_tohand","2746","","","","","","","","","tol_peg_2","2746","2746","0","[[2,0,0],[0,0],[1]]","7","[[0,0,0],[1,2],[3]]","4","0","","","","","","7","","","","",""
"","","","","","single-stim-button","225","1779374","0.0-3.0-22.6-1.6","5fb7dd473afbb1033b491811","F1","batch6","tol_toboard","754","","","","","","","","","tol_peg_1","754","754","0","[[2,3,0],[0,0],[1]]","7","[[0,0,0],[1,2],[3]]","4","0","","","","","","7","","","","",""
"","","","","","single-stim-button","226","1780306","0.0-3.0-22.7-0.7","5fb7dd473afbb1033b491811","F1","batch6","tol_tohand","929","","","","","","","","","tol_peg_3","929","929","0","[[2,3,0],[0,0],[0]]","8","[[0,0,0],[1,2],[3]]","4","0","","","","","","7","","","","",""
"","","","","","single-stim-button","227","1781078","0.0-3.0-22.7-1.7","5fb7dd473afbb1033b491811","F1","batch6","tol_toboard","770","","","","","","","","","tol_peg_2","770","770","0","[[2,3,0],[1,0],[0]]","8","[[0,0,0],[1,2],[3]]","4","0","","","","","","7","","","","",""
"","","","","","single-stim-button","228","1782026","0.0-3.0-22.8-0.8","5fb7dd473afbb1033b491811","F1","batch6","tol_tohand","946","","","","","","","","","tol_peg_1","946","946","0","[[2,0,0],[1,0],[0]]","9","[[0,0,0],[1,2],[3]]","4","0","","","","","","7","","","","",""
"","","","","","single-stim-button","229","1782914","0.0-3.0-22.8-1.8","5fb7dd473afbb1033b491811","F1","batch6","tol_toboard","886","","","","","","","","","tol_peg_3","886","886","0","[[2,0,0],[1,0],[3]]","9","[[0,0,0],[1,2],[3]]","4","0","","","","","","7","","","","",""
"","","","","","single-stim-button","230","1783873","0.0-3.0-22.9-0.9","5fb7dd473afbb1033b491811","F1","batch6","tol_tohand","956","","","","","","","","","tol_peg_1","956","956","0","[[0,0,0],[1,0],[3]]","10","[[0,0,0],[1,2],[3]]","4","0","","","","","","7","","","","",""
"","","","","","single-stim-button","231","1784334","0.0-3.0-22.9-1.9","5fb7dd473afbb1033b491811","F1","batch6","tol_toboard","459","","","","","","","","","tol_peg_2","459","459","0","[[0,0,0],[1,2],[3]]","10","[[0,0,0],[1,2],[3]]","4","0","","","","","","7","","","","",""
"","","","","","poldrack-single-stim","232","1785338","0.0-3.0-23.0","5fb7dd473afbb1033b491811","F1","batch6","tol_feedback","-1","","","","","true","","","","","1000","1000","500","","","","","","-1","none","true","12563","43000","","","","","",""
"","","","","","html-button-response","233","1786433","0.0-3.0-24.0","5fb7dd473afbb1033b491811","F1","batch6","tol_trial_num","1092.2999999523163","<div class = centerbox><p class = center-block-text>problem <strong>6</strong> out of 25 problems</p></div>","0","","","","","","","","","","","","","","","","","","","","","","","","","",""
"","","","","","single-stim-button","234","1790609","0.0-3.0-25.0-0.0","5fb7dd473afbb1033b491811","F1","batch6","tol_tohand","4173","","","","","","","","","tol_peg_3","4173","4173","0","[[0,0,0],[1,2],[0]]","1","[[1,0,0],[2,3],[0]]","5","0","","","","","","6","","","","",""
"","","","","","single-stim-button","235","1791711","0.0-3.0-25.0-1.0","5fb7dd473afbb1033b491811","F1","batch6","tol_toboard","1099","","","","","","","","","tol_peg_1","1099","1099","0","[[3,0,0],[1,2],[0]]","1","[[1,0,0],[2,3],[0]]","5","0","","","","","","6","","","","",""
"","","","","","single-stim-button","236","1800655","0.0-3.0-25.1-0.1","5fb7dd473afbb1033b491811","F1","batch6","tol_tohand","8942","","","","","","","","","tol_peg_2","8942","8942","0","[[3,0,0],[1,0],[0]]","2","[[1,0,0],[2,3],[0]]","5","0","","","","","","6","","","","",""
"","","","","","single-stim-button","237","1801435","0.0-3.0-25.1-1.1","5fb7dd473afbb1033b491811","F1","batch6","tol_toboard","777","","","","","","","","","tol_peg_3","777","777","0","[[3,0,0],[1,0],[2]]","2","[[1,0,0],[2,3],[0]]","5","0","","","","","","6","","","","",""
"","","","","","single-stim-button","238","1802137","0.0-3.0-25.2-0.2","5fb7dd473afbb1033b491811","F1","batch6","tol_tohand","700","","","","","","","","","tol_peg_2","700","700","0","[[3,0,0],[0,0],[2]]","3","[[1,0,0],[2,3],[0]]","5","0","","","","","","6","","","","",""
"","","","","","single-stim-button","239","1802607","0.0-3.0-25.2-1.2","5fb7dd473afbb1033b491811","F1","batch6","tol_toboard","468","","","","","","","","","tol_peg_1","468","468","0","[[3,1,0],[0,0],[2]]","3","[[1,0,0],[2,3],[0]]","5","0","","","","","","6","","","","",""
"","","","","","single-stim-button","240","1804675","0.0-3.0-25.3-0.3","5fb7dd473afbb1033b491811","F1","batch6","tol_tohand","2066","","","","","","","","","tol_peg_3","2066","2066","0","[[3,1,0],[0,0],[0]]","4","[[1,0,0],[2,3],[0]]","5","0","","","","","","6","","","","",""
"","","","","","single-stim-button","241","1805702","0.0-3.0-25.3-1.3","5fb7dd473afbb1033b491811","F1","batch6","tol_toboard","1024","","","","","","","","","tol_peg_2","1024","1024","0","[[3,1,0],[2,0],[0]]","4","[[1,0,0],[2,3],[0]]","5","0","","","","","","6","","","","",""
"","","","","","single-stim-button","242","1806419","0.0-3.0-25.4-0.4","5fb7dd473afbb1033b491811","F1","batch6","tol_tohand","715","","","","","","","","","tol_peg_1","715","715","0","[[3,0,0],[2,0],[0]]","5","[[1,0,0],[2,3],[0]]","5","0","","","","","","6","","","","",""
"","","","","","single-stim-button","243","1807315","0.0-3.0-25.4-1.4","5fb7dd473afbb1033b491811","F1","batch6","tol_toboard","895","","","","","","","","","tol_peg_3","895","895","0","[[3,0,0],[2,0],[1]]","5","[[1,0,0],[2,3],[0]]","5","0","","","","","","6","","","","",""
"","","","","","single-stim-button","244","1808533","0.0-3.0-25.5-0.5","5fb7dd473afbb1033b491811","F1","batch6","tol_tohand","1216","","","","","","","","","tol_peg_1","1216","1216","0","[[0,0,0],[2,0],[1]]","6","[[1,0,0],[2,3],[0]]","5","0","","","","","","6","","","","",""
"","","","","","single-stim-button","245","1809227","0.0-3.0-25.5-1.5","5fb7dd473afbb1033b491811","F1","batch6","tol_toboard","691","","","","","","","","","tol_peg_2","691","691","0","[[0,0,0],[2,3],[1]]","6","[[1,0,0],[2,3],[0]]","5","0","","","","","","6","","","","",""
"","","","","","single-stim-button","246","1809700","0.0-3.0-25.6-0.6","5fb7dd473afbb1033b491811","F1","batch6","tol_tohand","470","","","","","","","","","tol_peg_3","470","470","0","[[0,0,0],[2,3],[0]]","7","[[1,0,0],[2,3],[0]]","5","0","","","","","","6","","","","",""
"","","","","","single-stim-button","247","1810863","0.0-3.0-25.6-1.6","5fb7dd473afbb1033b491811","F1","batch6","tol_toboard","1162","","","","","","","","","tol_peg_1","1162","1162","0","[[1,0,0],[2,3],[0]]","7","[[1,0,0],[2,3],[0]]","5","0","","","","","","6","","","","",""
"","","","","","poldrack-single-stim","248","1811874","0.0-3.0-26.0","5fb7dd473afbb1033b491811","F1","batch6","tol_feedback","-1","","","","","true","","","","","1000","1000","500","","","","","","-1","none","true","4173","18282","","","","","",""
"","","","","","html-button-response","249","1812901","0.0-3.0-27.0","5fb7dd473afbb1033b491811","F1","batch6","tol_trial_num","1023.5","<div class = centerbox><p class = center-block-text>problem <strong>7</strong> out of 25 problems</p></div>","0","","","","","","","","","","","","","","","","","","","","","","","","","",""
"","","","","","single-stim-button","250","1820309","0.0-3.0-28.0-0.0","5fb7dd473afbb1033b491811","F1","batch6","tol_tohand","7406","","","","","","","","","tol_peg_1","7406","7406","0","[[2,0,0],[0,0],[3]]","1","[[1,2,0],[3,0],[0]]","6","0","","","","","","5","","","","",""
"","","","","","single-stim-button","251","1821976","0.0-3.0-28.0-1.0","5fb7dd473afbb1033b491811","F1","batch6","tol_toboard","1664","","","","","","","","","tol_peg_2","1664","1664","0","[[2,0,0],[1,0],[3]]","1","[[1,2,0],[3,0],[0]]","6","0","","","","","","5","","","","",""
"","","","","","single-stim-button","252","1828596","0.0-3.0-28.1-0.1","5fb7dd473afbb1033b491811","F1","batch6","tol_tohand","6618","","","","","","","","","tol_peg_2","6618","6618","0","[[2,0,0],[0,0],[3]]","2","[[1,2,0],[3,0],[0]]","6","0","","","","","","5","","","","",""
"","","","","","single-stim-button","253","1829267","0.0-3.0-28.1-1.1","5fb7dd473afbb1033b491811","F1","batch6","tol_toboard","669","","","","","","","","","tol_peg_1","669","669","0","[[2,1,0],[0,0],[3]]","2","[[1,2,0],[3,0],[0]]","6","0","","","","","","5","","","","",""
"","","","","","single-stim-button","254","1831444","0.0-3.0-28.2-0.2","5fb7dd473afbb1033b491811","F1","batch6","tol_tohand","2175","","","","","","","","","tol_peg_3","2175","2175","0","[[2,1,0],[0,0],[0]]","3","[[1,2,0],[3,0],[0]]","6","0","","","","","","5","","","","",""
"","","","","","single-stim-button","255","1832394","0.0-3.0-28.2-1.2","5fb7dd473afbb1033b491811","F1","batch6","tol_toboard","948","","","","","","","","","tol_peg_2","948","948","0","[[2,1,0],[3,0],[0]]","3","[[1,2,0],[3,0],[0]]","6","0","","","","","","5","","","","",""
"","","","","","single-stim-button","256","1833242","0.0-3.0-28.3-0.3","5fb7dd473afbb1033b491811","F1","batch6","tol_tohand","846","","","","","","","","","tol_peg_1","846","846","0","[[2,0,0],[3,0],[0]]","4","[[1,2,0],[3,0],[0]]","6","0","","","","","","5","","","","",""
"","","","","","single-stim-button","257","1834222","0.0-3.0-28.3-1.3","5fb7dd473afbb1033b491811","F1","batch6","tol_toboard","978","","","","","","","","","tol_peg_2","978","978","0","[[2,0,0],[3,1],[0]]","4","[[1,2,0],[3,0],[0]]","6","0","","","","","","5","","","","",""
"","","","","","single-stim-button","258","1835064","0.0-3.0-28.4-0.4","5fb7dd473afbb1033b491811","F1","batch6","tol_tohand","840","","","","","","","","","tol_peg_1","840","840","0","[[0,0,0],[3,1],[0]]","5","[[1,2,0],[3,0],[0]]","6","0","","","","","","5","","","","",""
"","","","","","single-stim-button","259","1835890","0.0-3.0-28.4-1.4","5fb7dd473afbb1033b491811","F1","batch6","tol_toboard","824","","","","","","","","","tol_peg_3","824","824","0","[[0,0,0],[3,1],[2]]","5","[[1,2,0],[3,0],[0]]","6","0","","","","","","5","","","","",""
"","","","","","single-stim-button","260","1836469","0.0-3.0-28.5-0.5","5fb7dd473afbb1033b491811","F1","batch6","tol_tohand","576","","","","","","","","","tol_peg_2","576","576","0","[[0,0,0],[3,0],[2]]","6","[[1,2,0],[3,0],[0]]","6","0","","","","","","5","","","","",""
"","","","","","single-stim-button","261","1837256","0.0-3.0-28.5-1.5","5fb7dd473afbb1033b491811","F1","batch6","tol_toboard","785","","","","","","","","","tol_peg_1","785","785","0","[[1,0,0],[3,0],[2]]","6","[[1,2,0],[3,0],[0]]","6","0","","","","","","5","","","","",""
"","","","","","single-stim-button","262","1838129","0.0-3.0-28.6-0.6","5fb7dd473afbb1033b491811","F1","batch6","tol_tohand","871","","","","","","","","","tol_peg_3","871","871","0","[[1,0,0],[3,0],[0]]","7","[[1,2,0],[3,0],[0]]","6","0","","","","","","5","","","","",""
"","","","","","single-stim-button","263","1839071","0.0-3.0-28.6-1.6","5fb7dd473afbb1033b491811","F1","batch6","tol_toboard","939","","","","","","","","","tol_peg_1","939","939","0","[[1,2,0],[3,0],[0]]","7","[[1,2,0],[3,0],[0]]","6","0","","","","","","5","","","","",""
"","","","","","poldrack-single-stim","264","1840077","0.0-3.0-29.0","5fb7dd473afbb1033b491811","F1","batch6","tol_feedback","-1","","","","","true","","","","","1000","1000","500","","","","","","-1","none","true","7406","19332","","","","","",""
"","","","","","html-button-response","265","1841346","0.0-3.0-30.0","5fb7dd473afbb1033b491811","F1","batch6","tol_trial_num","1265.3999999761581","<div class = centerbox><p class = center-block-text>problem <strong>8</strong> out of 25 problems</p></div>","0","","","","","","","","","","","","","","","","","","","","","","","","","",""
"","","","","","single-stim-button","266","1849804","0.0-3.0-31.0-0.0","5fb7dd473afbb1033b491811","F1","batch6","tol_tohand","8455","","","","","","","","","tol_peg_3","8455","8455","0","[[0,0,0],[2,3],[0]]","1","[[1,2,0],[3,0],[0]]","7","0","","","","","","4","","","","",""
"","","","","","single-stim-button","267","1850676","0.0-3.0-31.0-1.0","5fb7dd473afbb1033b491811","F1","batch6","tol_toboard","869","","","","","","","","","tol_peg_1","869","869","0","[[1,0,0],[2,3],[0]]","1","[[1,2,0],[3,0],[0]]","7","0","","","","","","4","","","","",""
"","","","","","single-stim-button","268","1852064","0.0-3.0-31.1-0.1","5fb7dd473afbb1033b491811","F1","batch6","tol_tohand","1386","","","","","","","","","tol_peg_2","1386","1386","0","[[1,0,0],[2,0],[0]]","2","[[1,2,0],[3,0],[0]]","7","0","","","","","","4","","","","",""
"","","","","","single-stim-button","269","1852790","0.0-3.0-31.1-1.1","5fb7dd473afbb1033b491811","F1","batch6","tol_toboard","724","","","","","","","","","tol_peg_3","724","724","0","[[1,0,0],[2,0],[3]]","2","[[1,2,0],[3,0],[0]]","7","0","","","","","","4","","","","",""
"","","","","","single-stim-button","270","1853791","0.0-3.0-31.2-0.2","5fb7dd473afbb1033b491811","F1","batch6","tol_tohand","1000","","","","","","","","","tol_peg_2","1000","1000","0","[[1,0,0],[0,0],[3]]","3","[[1,2,0],[3,0],[0]]","7","0","","","","","","4","","","","",""
"","","","","","single-stim-button","271","1854472","0.0-3.0-31.2-1.2","5fb7dd473afbb1033b491811","F1","batch6","tol_toboard","679","","","","","","","","","tol_peg_1","679","679","0","[[1,2,0],[0,0],[3]]","3","[[1,2,0],[3,0],[0]]","7","0","","","","","","4","","","","",""
"","","","","","single-stim-button","272","1855204","0.0-3.0-31.3-0.3","5fb7dd473afbb1033b491811","F1","batch6","tol_tohand","729","","","","","","","","","tol_peg_3","729","729","0","[[1,2,0],[0,0],[0]]","4","[[1,2,0],[3,0],[0]]","7","0","","","","","","4","","","","",""
"","","","","","single-stim-button","273","1855668","0.0-3.0-31.3-1.3","5fb7dd473afbb1033b491811","F1","batch6","tol_toboard","462","","","","","","","","","tol_peg_2","462","462","0","[[1,2,0],[3,0],[0]]","4","[[1,2,0],[3,0],[0]]","7","0","","","","","","4","","","","",""
"","","","","","poldrack-single-stim","274","1856673","0.0-3.0-32.0","5fb7dd473afbb1033b491811","F1","batch6","tol_feedback","-1","","","","","true","","","","","1000","1000","500","","","","","","-1","none","true","8455","11570","","","","","",""
"","","","","","html-button-response","275","1857704","0.0-3.0-33.0","5fb7dd473afbb1033b491811","F1","batch6","tol_trial_num","1027.5","<div class = centerbox><p class = center-block-text>problem <strong>9</strong> out of 25 problems</p></div>","0","","","","","","","","","","","","","","","","","","","","","","","","","",""
"","","","","","single-stim-button","276","1874099","0.0-3.0-34.0-0.0","5fb7dd473afbb1033b491811","F1","batch6","tol_tohand","16392","","","","","","","","","tol_peg_3","16392","16392","0","[[3,2,0],[0,0],[0]]","1","[[2,1,0],[3,0],[0]]","8","0","","","","","","6","","","","",""
"","","","","","single-stim-button","277","1874831","0.0-3.0-34.0-1.0","5fb7dd473afbb1033b491811","F1","batch6","tol_toboard","729","","","","","","","","","tol_peg_2","729","729","0","[[3,2,0],[1,0],[0]]","1","[[2,1,0],[3,0],[0]]","8","0","","","","","","6","","","","",""
"","","","","","single-stim-button","278","1875927","0.0-3.0-34.1-0.1","5fb7dd473afbb1033b491811","F1","batch6","tol_tohand","1094","","","","","","","","","tol_peg_1","1094","1094","0","[[3,0,0],[1,0],[0]]","2","[[2,1,0],[3,0],[0]]","8","0","","","","","","6","","","","",""
"","","","","","single-stim-button","279","1876976","0.0-3.0-34.1-1.1","5fb7dd473afbb1033b491811","F1","batch6","tol_toboard","1048","","","","","","","","","tol_peg_2","1048","1048","0","[[3,0,0],[1,2],[0]]","2","[[2,1,0],[3,0],[0]]","8","0","","","","","","6","","","","",""
"","","","","","single-stim-button","280","1878635","0.0-3.0-34.2-0.2","5fb7dd473afbb1033b491811","F1","batch6","tol_tohand","1657","","","","","","","","","tol_peg_1","1657","1657","0","[[0,0,0],[1,2],[0]]","3","[[2,1,0],[3,0],[0]]","8","0","","","","","","6","","","","",""
"","","","","","single-stim-button","281","1879469","0.0-3.0-34.2-1.2","5fb7dd473afbb1033b491811","F1","batch6","tol_toboard","832","","","","","","","","","tol_peg_3","832","832","0","[[0,0,0],[1,2],[3]]","3","[[2,1,0],[3,0],[0]]","8","0","","","","","","6","","","","",""
"","","","","","single-stim-button","282","1880209","0.0-3.0-34.3-0.3","5fb7dd473afbb1033b491811","F1","batch6","tol_tohand","738","","","","","","","","","tol_peg_2","738","738","0","[[0,0,0],[1,0],[3]]","4","[[2,1,0],[3,0],[0]]","8","0","","","","","","6","","","","",""
"","","","","","single-stim-button","283","1881027","0.0-3.0-34.3-1.3","5fb7dd473afbb1033b491811","F1","batch6","tol_toboard","816","","","","","","","","","tol_peg_1","816","816","0","[[2,0,0],[1,0],[3]]","4","[[2,1,0],[3,0],[0]]","8","0","","","","","","6","","","","",""
"","","","","","single-stim-button","284","1881791","0.0-3.0-34.4-0.4","5fb7dd473afbb1033b491811","F1","batch6","tol_tohand","762","","","","","","","","","tol_peg_2","762","762","0","[[2,0,0],[0,0],[3]]","5","[[2,1,0],[3,0],[0]]","8","0","","","","","","6","","","","",""
"","","","","","single-stim-button","285","1882625","0.0-3.0-34.4-1.4","5fb7dd473afbb1033b491811","F1","batch6","tol_toboard","832","","","","","","","","","tol_peg_1","832","832","0","[[2,1,0],[0,0],[3]]","5","[[2,1,0],[3,0],[0]]","8","0","","","","","","6","","","","",""
"","","","","","single-stim-button","286","1883405","0.0-3.0-34.5-0.5","5fb7dd473afbb1033b491811","F1","batch6","tol_tohand","777","","","","","","","","","tol_peg_3","777","777","0","[[2,1,0],[0,0],[0]]","6","[[2,1,0],[3,0],[0]]","8","0","","","","","","6","","","","",""
"","","","","","single-stim-button","287","1884129","0.0-3.0-34.5-1.5","5fb7dd473afbb1033b491811","F1","batch6","tol_toboard","722","","","","","","","","","tol_peg_2","722","722","0","[[2,1,0],[3,0],[0]]","6","[[2,1,0],[3,0],[0]]","8","0","","","","","","6","","","","",""
"","","","","","poldrack-single-stim","288","1885133","0.0-3.0-35.0","5fb7dd473afbb1033b491811","F1","batch6","tol_feedback","-1","","","","","true","","","","","1000","1000","500","","","","","","-1","none","true","16392","21420","","","","","",""
"","","","","","html-button-response","289","1886661","0.0-3.0-36.0","5fb7dd473afbb1033b491811","F1","batch6","tol_trial_num","1524.5","<div class = centerbox><p class = center-block-text>problem <strong>10</strong> out of 25 problems</p></div>","0","","","","","","","","","","","","","","","","","","","","","","","","","",""
"","","","","","single-stim-button","290","1892526","0.0-3.0-37.0-0.0","5fb7dd473afbb1033b491811","F1","batch6","tol_tohand","5863","","","","","","","","","tol_peg_2","5863","5863","0","[[3,0,0],[0,0],[2]]","1","[[3,0,0],[2,1],[0]]","9","0","","","","","","3","","","","",""
"","","","","","single-stim-button","291","1893274","0.0-3.0-37.0-1.0","5fb7dd473afbb1033b491811","F1","batch6","tol_toboard","745","","","","","","","","","tol_peg_1","745","745","0","[[3,1,0],[0,0],[2]]","1","[[3,0,0],[2,1],[0]]","9","0","","","","","","3","","","","",""
"","","","","","single-stim-button","292","1894015","0.0-3.0-37.1-0.1","5fb7dd473afbb1033b491811","F1","batch6","tol_tohand","738","","","","","","","","","tol_peg_3","738","738","0","[[3,1,0],[0,0],[0]]","2","[[3,0,0],[2,1],[0]]","9","0","","","","","","3","","","","",""
"","","","","","single-stim-button","293","1894847","0.0-3.0-37.1-1.1","5fb7dd473afbb1033b491811","F1","batch6","tol_toboard","831","","","","","","","","","tol_peg_2","831","831","0","[[3,1,0],[2,0],[0]]","2","[[3,0,0],[2,1],[0]]","9","0","","","","","","3","","","","",""
"","","","","","single-stim-button","294","1895619","0.0-3.0-37.2-0.2","5fb7dd473afbb1033b491811","F1","batch6","tol_tohand","770","","","","","","","","","tol_peg_1","770","770","0","[[3,0,0],[2,0],[0]]","3","[[3,0,0],[2,1],[0]]","9","0","","","","","","3","","","","",""
"","","","","","single-stim-button","295","1896399","0.0-3.0-37.2-1.2","5fb7dd473afbb1033b491811","F1","batch6","tol_toboard","777","","","","","","","","","tol_peg_2","777","777","0","[[3,0,0],[2,1],[0]]","3","[[3,0,0],[2,1],[0]]","9","0","","","","","","3","","","","",""
"","","","","","poldrack-single-stim","296","1897402","0.0-3.0-38.0","5fb7dd473afbb1033b491811","F1","batch6","tol_feedback","-1","","","","","true","","","","","1000","1000","500","","","","","","-1","none","true","5863","7371","","","","","",""
"","","","","","html-button-response","297","1898289","0.0-3.0-39.0","5fb7dd473afbb1033b491811","F1","batch6","tol_trial_num","885.5","<div class = centerbox><p class = center-block-text>problem <strong>11</strong> out of 25 problems</p></div>","0","","","","","","","","","","","","","","","","","","","","","","","","","",""
"","","","","","single-stim-button","298","1910276","0.0-3.0-40.0-0.0","5fb7dd473afbb1033b491811","F1","batch6","tol_tohand","11984","","","","","","","","","tol_peg_1","11984","11984","0","[[1,0,0],[3,0],[0]]","1","[[2,0,0],[1,3],[0]]","10","0","","","","","","6","","","","",""
"","","","","","single-stim-button","299","1911187","0.0-3.0-40.0-1.0","5fb7dd473afbb1033b491811","F1","batch6","tol_toboard","908","","","","","","","","","tol_peg_3","908","908","0","[[1,0,0],[3,0],[2]]","1","[[2,0,0],[1,3],[0]]","10","0","","","","","","6","","","","",""
"","","","","","single-stim-button","300","1914218","0.0-3.0-40.1-0.1","5fb7dd473afbb1033b491811","F1","batch6","tol_tohand","3029","","","","","","","","","tol_peg_1","3029","3029","0","[[0,0,0],[3,0],[2]]","2","[[2,0,0],[1,3],[0]]","10","0","","","","","","6","","","","",""
"","","","","","single-stim-button","301","1916117","0.0-3.0-40.1-1.1","5fb7dd473afbb1033b491811","F1","batch6","tol_toboard","1897","","","","","","","","","tol_peg_2","1897","1897","0","[[0,0,0],[3,1],[2]]","2","[[2,0,0],[1,3],[0]]","10","0","","","","","","6","","","","",""
"","","","","","single-stim-button","302","1916820","0.0-3.0-40.2-0.2","5fb7dd473afbb1033b491811","F1","batch6","tol_tohand","701","","","","","","","","","tol_peg_3","701","701","0","[[0,0,0],[3,1],[0]]","3","[[2,0,0],[1,3],[0]]","10","0","","","","","","6","","","","",""
"","","","","","single-stim-button","303","1917585","0.0-3.0-40.2-1.2","5fb7dd473afbb1033b491811","F1","batch6","tol_toboard","762","","","","","","","","","tol_peg_1","762","762","0","[[2,0,0],[3,1],[0]]","3","[[2,0,0],[1,3],[0]]","10","0","","","","","","6","","","","",""
"","","","","","single-stim-button","304","1920840","0.0-3.0-40.3-0.3","5fb7dd473afbb1033b491811","F1","batch6","tol_tohand","3253","","","","","","","","","tol_peg_2","3253","3253","0","[[2,0,0],[3,0],[0]]","4","[[2,0,0],[1,3],[0]]","10","0","","","","","","6","","","","",""
"","","","","","single-stim-button","305","1921580","0.0-3.0-40.3-1.3","5fb7dd473afbb1033b491811","F1","batch6","tol_toboard","737","","","","","","","","","tol_peg_3","737","737","0","[[2,0,0],[3,0],[1]]","4","[[2,0,0],[1,3],[0]]","10","0","","","","","","6","","","","",""
"","","","","","single-stim-button","306","1922083","0.0-3.0-40.4-0.4","5fb7dd473afbb1033b491811","F1","batch6","tol_tohand","501","","","","","","","","","tol_peg_2","501","501","0","[[2,0,0],[0,0],[1]]","5","[[2,0,0],[1,3],[0]]","10","0","","","","","","6","","","","",""
"","","","","","single-stim-button","307","1922800","0.0-3.0-40.4-1.4","5fb7dd473afbb1033b491811","F1","batch6","tol_toboard","715","","","","","","","","","tol_peg_1","715","715","0","[[2,3,0],[0,0],[1]]","5","[[2,0,0],[1,3],[0]]","10","0","","","","","","6","","","","",""
"","","","","","single-stim-button","308","1923648","0.0-3.0-40.5-0.5","5fb7dd473afbb1033b491811","F1","batch6","tol_tohand","845","","","","","","","","","tol_peg_3","845","845","0","[[2,3,0],[0,0],[0]]","6","[[2,0,0],[1,3],[0]]","10","0","","","","","","6","","","","",""
"","","","","","single-stim-button","309","1924282","0.0-3.0-40.5-1.5","5fb7dd473afbb1033b491811","F1","batch6","tol_toboard","632","","","","","","","","","tol_peg_2","632","632","0","[[2,3,0],[1,0],[0]]","6","[[2,0,0],[1,3],[0]]","10","0","","","","","","6","","","","",""
"","","","","","single-stim-button","310","1924776","0.0-3.0-40.6-0.6","5fb7dd473afbb1033b491811","F1","batch6","tol_tohand","491","","","","","","","","","tol_peg_1","491","491","0","[[2,0,0],[1,0],[0]]","7","[[2,0,0],[1,3],[0]]","10","0","","","","","","6","","","","",""
"","","","","","single-stim-button","311","1925162","0.0-3.0-40.6-1.6","5fb7dd473afbb1033b491811","F1","batch6","tol_toboard","384","","","","","","","","","tol_peg_2","384","384","0","[[2,0,0],[1,3],[0]]","7","[[2,0,0],[1,3],[0]]","10","0","","","","","","6","","","","",""
"","","","","","poldrack-single-stim","312","1926166","0.0-3.0-41.0","5fb7dd473afbb1033b491811","F1","batch6","tol_feedback","-1","","","","","true","","","","","1000","1000","500","","","","","","-1","none","true","11984","20804","","","","","",""
"","","","","","html-button-response","313","1927123","0.0-3.0-42.0","5fb7dd473afbb1033b491811","F1","batch6","tol_trial_num","954.1000000238419","<div class = centerbox><p class = center-block-text>problem <strong>12</strong> out of 25 problems</p></div>","0","","","","","","","","","","","","","","","","","","","","","","","","","",""
"","","","","","single-stim-button","314","1931520","0.0-3.0-43.0-0.0","5fb7dd473afbb1033b491811","F1","batch6","tol_tohand","4395","","","","","","","","","tol_peg_1","4395","4395","0","[[1,0,0],[3,0],[0]]","1","[[2,3,0],[0,0],[1]]","11","0","","","","","","4","","","","",""
"","","","","","single-stim-button","315","1932307","0.0-3.0-43.0-1.0","5fb7dd473afbb1033b491811","F1","batch6","tol_toboard","784","","","","","","","","","tol_peg_3","784","784","0","[[1,0,0],[3,0],[2]]","1","[[2,3,0],[0,0],[1]]","11","0","","","","","","4","","","","",""
"","","","","","single-stim-button","316","1938805","0.0-3.0-43.1-0.1","5fb7dd473afbb1033b491811","F1","batch6","tol_tohand","6496","","","","","","","","","tol_peg_1","6496","6496","0","[[0,0,0],[3,0],[2]]","2","[[2,3,0],[0,0],[1]]","11","0","","","","","","4","","","","",""
"","","","","","single-stim-button","317","1939491","0.0-3.0-43.1-1.1","5fb7dd473afbb1033b491811","F1","batch6","tol_toboard","683","","","","","","","","","tol_peg_2","683","683","0","[[0,0,0],[3,1],[2]]","2","[[2,3,0],[0,0],[1]]","11","0","","","","","","4","","","","",""
"","","","","","single-stim-button","318","1940133","0.0-3.0-43.2-0.2","5fb7dd473afbb1033b491811","F1","batch6","tol_tohand","640","","","","","","","","","tol_peg_3","640","640","0","[[0,0,0],[3,1],[0]]","3","[[2,3,0],[0,0],[1]]","11","0","","","","","","4","","","","",""
"","","","","","single-stim-button","319","1940935","0.0-3.0-43.2-1.2","5fb7dd473afbb1033b491811","F1","batch6","tol_toboard","800","","","","","","","","","tol_peg_1","800","800","0","[[2,0,0],[3,1],[0]]","3","[[2,3,0],[0,0],[1]]","11","0","","","","","","4","","","","",""
"","","","","","single-stim-button","320","1941513","0.0-3.0-43.3-0.3","5fb7dd473afbb1033b491811","F1","batch6","tol_tohand","576","","","","","","","","","tol_peg_2","576","576","0","[[2,0,0],[3,0],[0]]","4","[[2,3,0],[0,0],[1]]","11","0","","","","","","4","","","","",""
"","","","","","single-stim-button","321","1942331","0.0-3.0-43.3-1.3","5fb7dd473afbb1033b491811","F1","batch6","tol_toboard","816","","","","","","","","","tol_peg_3","816","816","0","[[2,0,0],[3,0],[1]]","4","[[2,3,0],[0,0],[1]]","11","0","","","","","","4","","","","",""
"","","","","","single-stim-button","322","1942879","0.0-3.0-43.4-0.4","5fb7dd473afbb1033b491811","F1","batch6","tol_tohand","545","","","","","","","","","tol_peg_2","545","545","0","[[2,0,0],[0,0],[1]]","5","[[2,3,0],[0,0],[1]]","11","0","","","","","","4","","","","",""
"","","","","","single-stim-button","323","1943467","0.0-3.0-43.4-1.4","5fb7dd473afbb1033b491811","F1","batch6","tol_toboard","586","","","","","","","","","tol_peg_1","586","586","0","[[2,3,0],[0,0],[1]]","5","[[2,3,0],[0,0],[1]]","11","0","","","","","","4","","","","",""
"","","","","","poldrack-single-stim","324","1944472","0.0-3.0-44.0","5fb7dd473afbb1033b491811","F1","batch6","tol_feedback","-1","","","","","true","","","","","1000","1000","500","","","","","","-1","none","true","4395","12652","","","","","",""
"","","","","","html-button-response","325","1945419","0.0-3.0-45.0","5fb7dd473afbb1033b491811","F1","batch6","tol_trial_num","943.6000000238419","<div class = centerbox><p class = center-block-text>problem <strong>13</strong> out of 25 problems</p></div>","0","","","","","","","","","","","","","","","","","","","","","","","","","",""
"","","","","","single-stim-button","326","1950133","0.0-3.0-46.0-0.0","5fb7dd473afbb1033b491811","F1","batch6","tol_tohand","4712","","","","","","","","","tol_peg_1","4712","4712","0","[[1,0,0],[3,0],[0]]","1","[[0,0,0],[2,3],[1]]","12","0","","","","","","4","","","","",""
"","","","","","single-stim-button","327","1950727","0.0-3.0-46.0-1.0","5fb7dd473afbb1033b491811","F1","batch6","tol_toboard","591","","","","","","","","","tol_peg_2","591","591","0","[[1,0,0],[3,2],[0]]","1","[[0,0,0],[2,3],[1]]","12","0","","","","","","4","","","","",""
"","","","","","single-stim-button","328","1951229","0.0-3.0-46.1-0.1","5fb7dd473afbb1033b491811","F1","batch6","tol_tohand","500","","","","","","","","","tol_peg_1","500","500","0","[[0,0,0],[3,2],[0]]","2","[[0,0,0],[2,3],[1]]","12","0","","","","","","4","","","","",""
"","","","","","single-stim-button","329","1952025","0.0-3.0-46.1-1.1","5fb7dd473afbb1033b491811","F1","batch6","tol_toboard","794","","","","","","","","","tol_peg_3","794","794","0","[[0,0,0],[3,2],[1]]","2","[[0,0,0],[2,3],[1]]","12","0","","","","","","4","","","","",""
"","","","","","single-stim-button","330","1957012","0.0-3.0-46.2-0.2","5fb7dd473afbb1033b491811","F1","batch6","tol_tohand","4984","","","","","","","","","tol_peg_2","4984","4984","0","[[0,0,0],[3,0],[1]]","3","[[0,0,0],[2,3],[1]]","12","0","","","","","","4","","","","",""
"","","","","","single-stim-button","331","1957977","0.0-3.0-46.2-1.2","5fb7dd473afbb1033b491811","F1","batch6","tol_toboard","961","","","","","","","","","tol_peg_1","961","961","0","[[2,0,0],[3,0],[1]]","3","[[0,0,0],[2,3],[1]]","12","0","","","","","","4","","","","",""
"","","","","","single-stim-button","332","1961472","0.0-3.0-46.3-0.3","5fb7dd473afbb1033b491811","F1","batch6","tol_tohand","3493","","","","","","","","","tol_peg_3","3493","3493","0","[[2,0,0],[3,0],[0]]","4","[[0,0,0],[2,3],[1]]","12","0","","","","","","4","","","","",""
"","","","","","single-stim-button","333","1962483","0.0-3.0-46.3-1.3","5fb7dd473afbb1033b491811","F1","batch6","tol_toboard","1009","","","","","","","","","tol_peg_1","1009","1009","0","[[2,1,0],[3,0],[0]]","4","[[0,0,0],[2,3],[1]]","12","0","","","","","","4","","","","",""
"","","","","","single-stim-button","334","1963199","0.0-3.0-46.4-0.4","5fb7dd473afbb1033b491811","F1","batch6","tol_tohand","714","","","","","","","","","tol_peg_2","714","714","0","[[2,1,0],[0,0],[0]]","5","[[0,0,0],[2,3],[1]]","12","0","","","","","","4","","","","",""
"","","","","","single-stim-button","335","1963857","0.0-3.0-46.4-1.4","5fb7dd473afbb1033b491811","F1","batch6","tol_toboard","655","","","","","","","","","tol_peg_3","655","655","0","[[2,1,0],[0,0],[3]]","5","[[0,0,0],[2,3],[1]]","12","0","","","","","","4","","","","",""
"","","","","","single-stim-button","336","1969522","0.0-3.0-46.5-0.5","5fb7dd473afbb1033b491811","F1","batch6","tol_tohand","5662","","","","","","","","","tol_peg_1","5662","5662","0","[[2,0,0],[0,0],[3]]","6","[[0,0,0],[2,3],[1]]","12","0","","","","","","4","","","","",""
"","","","","","single-stim-button","337","1970418","0.0-3.0-46.5-1.5","5fb7dd473afbb1033b491811","F1","batch6","tol_toboard","893","","","","","","","","","tol_peg_2","893","893","0","[[2,0,0],[1,0],[3]]","6","[[0,0,0],[2,3],[1]]","12","0","","","","","","4","","","","",""
"","","","","","single-stim-button","338","1971314","0.0-3.0-46.6-0.6","5fb7dd473afbb1033b491811","F1","batch6","tol_tohand","894","","","","","","","","","tol_peg_1","894","894","0","[[0,0,0],[1,0],[3]]","7","[[0,0,0],[2,3],[1]]","12","0","","","","","","4","","","","",""
"","","","","","single-stim-button","339","1972054","0.0-3.0-46.6-1.6","5fb7dd473afbb1033b491811","F1","batch6","tol_toboard","738","","","","","","","","","tol_peg_2","738","738","0","[[0,0,0],[1,2],[3]]","7","[[0,0,0],[2,3],[1]]","12","0","","","","","","4","","","","",""
"","","","","","single-stim-button","340","1982229","0.0-3.0-46.7-0.7","5fb7dd473afbb1033b491811","F1","batch6","tol_tohand","10173","","","","","","","","","tol_peg_3","10173","10173","0","[[0,0,0],[1,2],[0]]","8","[[0,0,0],[2,3],[1]]","12","0","","","","","","4","","","","",""
"","","","","","single-stim-button","341","1983408","0.0-3.0-46.7-1.7","5fb7dd473afbb1033b491811","F1","batch6","tol_toboard","1176","","","","","","","","","tol_peg_1","1176","1176","0","[[3,0,0],[1,2],[0]]","8","[[0,0,0],[2,3],[1]]","12","0","","","","","","4","","","","",""
"","","","","","single-stim-button","342","1986912","0.0-3.0-46.8-0.8","5fb7dd473afbb1033b491811","F1","batch6","tol_tohand","3501","","","","","","","","","tol_peg_2","3501","3501","0","[[3,0,0],[1,0],[0]]","9","[[0,0,0],[2,3],[1]]","12","0","","","","","","4","","","","",""
"","","","","","single-stim-button","343","1987707","0.0-3.0-46.8-1.8","5fb7dd473afbb1033b491811","F1","batch6","tol_toboard","792","","","","","","","","","tol_peg_3","792","792","0","[[3,0,0],[1,0],[2]]","9","[[0,0,0],[2,3],[1]]","12","0","","","","","","4","","","","",""
"","","","","","single-stim-button","344","1991783","0.0-3.0-46.9-0.9","5fb7dd473afbb1033b491811","F1","batch6","tol_tohand","4074","","","","","","","","","tol_peg_2","4074","4074","0","[[3,0,0],[0,0],[2]]","10","[[0,0,0],[2,3],[1]]","12","0","","","","","","4","","","","",""
"","","","","","single-stim-button","345","1992509","0.0-3.0-46.9-1.9","5fb7dd473afbb1033b491811","F1","batch6","tol_toboard","723","","","","","","","","","tol_peg_1","723","723","0","[[3,1,0],[0,0],[2]]","10","[[0,0,0],[2,3],[1]]","12","0","","","","","","4","","","","",""
"","","","","","single-stim-button","346","1993256","0.0-3.0-46.10-0.10","5fb7dd473afbb1033b491811","F1","batch6","tol_tohand","745","","","","","","","","","tol_peg_3","745","745","0","[[3,1,0],[0,0],[0]]","11","[[0,0,0],[2,3],[1]]","12","0","","","","","","4","","","","",""
"","","","","","single-stim-button","347","1993713","0.0-3.0-46.10-1.10","5fb7dd473afbb1033b491811","F1","batch6","tol_toboard","454","","","","","","","","","tol_peg_2","454","454","0","[[3,1,0],[2,0],[0]]","11","[[0,0,0],[2,3],[1]]","12","0","","","","","","4","","","","",""
"","","","","","single-stim-button","348","1994638","0.0-3.0-46.11-0.11","5fb7dd473afbb1033b491811","F1","batch6","tol_tohand","923","","","","","","","","","tol_peg_1","923","923","0","[[3,0,0],[2,0],[0]]","12","[[0,0,0],[2,3],[1]]","12","0","","","","","","4","","","","",""
"","","","","","single-stim-button","349","1995408","0.0-3.0-46.11-1.11","5fb7dd473afbb1033b491811","F1","batch6","tol_toboard","767","","","","","","","","","tol_peg_3","767","767","0","[[3,0,0],[2,0],[1]]","12","[[0,0,0],[2,3],[1]]","12","0","","","","","","4","","","","",""
"","","","","","single-stim-button","350","1996064","0.0-3.0-46.12-0.12","5fb7dd473afbb1033b491811","F1","batch6","tol_tohand","653","","","","","","","","","tol_peg_1","653","653","0","[[0,0,0],[2,0],[1]]","13","[[0,0,0],[2,3],[1]]","12","0","","","","","","4","","","","",""
"","","","","","single-stim-button","351","1996436","0.0-3.0-46.12-1.12","5fb7dd473afbb1033b491811","F1","batch6","tol_toboard","369","","","","","","","","","tol_peg_2","369","369","0","[[0,0,0],[2,3],[1]]","13","[[0,0,0],[2,3],[1]]","12","0","","","","","","4","","","","",""
"","","","","","poldrack-single-stim","352","1997452","0.0-3.0-47.0","5fb7dd473afbb1033b491811","F1","batch6","tol_feedback","-1","","","","","true","","","","","1000","1000","500","","","","","","-1","none","true","4712","41028","","","","","",""
"","","","","","html-button-response","353","2018830","0.0-3.0-48.0","5fb7dd473afbb1033b491811","F1","batch6","attention_check","21376.30000001192","<p class = block-text>How many balls are in your board<br></p>","1","","","true","","","","","","","","","","","","","","","","","","","","","","",""
"","","","","","html-button-response","354","2021531","0.0-3.0-49.0","5fb7dd473afbb1033b491811","F1","batch6","tol_trial_num","2698.199999988079","<div class = centerbox><p class = center-block-text>problem <strong>14</strong> out of 25 problems</p></div>","0","","","","","","","","","","","","","","","","","","","","","","","","","",""
