"success","timeout","failed_images","failed_audio","failed_video","trial_type","trial_index","time_elapsed","internal_node_id","subject_id","study_id","session_id","view_history","rt","task","stimulus","response","correct","mouse_click","stim_duration","block_duration","timing_post_trial","current_position","tol_num_moves_made","tol_target","tol_problem_id","tol_rt","key_press","possible_responses","tol_correct","preplanning","tol_rt_per_trial","tol_min_moves","answer","item","fiar_detect_rt","fiar_detect_correct","total_correct_fiar_detect","post_trial_gap","choices","spm_correct","spm_rt"
"true","false","[]","[]","[]","preload","0","2610","0.0-0.0","5fbe98e0e2bc9703bfd640d7","E1","batch5","","","","","","","","","","","","","","","","","","","","","","","","","","","","","",""
"true","","","","","fullscreen","1","30079","0.0-1.0-0.0","5fbe98e0e2bc9703bfd640d7","E1","batch5","","","","","","","","","","","","","","","","","","","","","","","","","","","","","",""
"true","","","","","fullscreen","2","37616","0.0-2.0-0.0","5fbe98e0e2bc9703bfd640d7","E1","batch5","","","","","","","","","","","","","","","","","","","","","","","","","","","","","",""
"","","","","","instructions","3","113278","0.0-2.0-1.0-0.0-0.0","5fbe98e0e2bc9703bfd640d7","E1","batch5","[{""page_index"":0,""viewing_time"":12718.099999904633},{""page_index"":1,""viewing_time"":6248.200000047684},{""page_index"":2,""viewing_time"":3959.7000000476837},{""page_index"":3,""viewing_time"":11624.099999904633},{""page_index"":4,""viewing_time"":6399.900000095367},{""page_index"":5,""viewing_time"":30680.099999904633},{""page_index"":6,""viewing_time"":4031.9000000953674}]","75662.29999995232","tol-instructions","","","","","","","","","","","","","","","","","","","","","","","","","","",""
"","","","","","html-button-response","4","114319","0.0-2.0-1.0-1.0-0.0","5fbe98e0e2bc9703bfd640d7","E1","batch5","","1039.3000000715256","tol_enter_quiz","<p class=block-text> Let's answer a few questions <br>","0","","","","","","","","","","","","","","","","","","","","","","","","",""
"","","","","","html-button-response","5","119775","0.0-2.0-1.0-1.0-1.0","5fbe98e0e2bc9703bfd640d7","E1","batch5","","5455.199999928474","tol_quiz","<p class = block-text>True or False: You can only move the ball on top of a peg. <br></p>","0","true","","","","","","","","","","","","","","","","","","","","","","","",""
"","","","","","html-button-response","6","120975","0.0-2.0-1.0-1.0-2.0","5fbe98e0e2bc9703bfd640d7","E1","batch5","","1199","tol_quiz_feedback","<p class = block-text>Correct! You can only move the ball on top of a peg.</p>","0","","","","","","","","","","","","","","","","","","","","","","","","",""
"","","","","","html-button-response","7","124303","0.0-2.0-1.0-1.0-3.0","5fbe98e0e2bc9703bfd640d7","E1","batch5","","3327.3000000715256","tol_quiz","<p class = block-text>True or False: You should try to match your board with the target board with fewest moves possible. <br></p>","0","true","","","","","","","","","","","","","","","","","","","","","","","",""
"","","","","","html-button-response","8","125239","0.0-2.0-1.0-1.0-4.0","5fbe98e0e2bc9703bfd640d7","E1","batch5","","935.4000000953674","tol_quiz_feedback","<p class = block-text>Correct! </p>","0","","","","","","","","","","","","","","","","","","","","","","","","",""
"","","","","","html-button-response","9","127655","0.0-2.0-2.0","5fbe98e0e2bc9703bfd640d7","E1","batch5","","2415.100000023842","","<p class=block-text> Now that you've understood the game, let's practice a few easier examples before we start!<br> <br>","0","","","","","","","","","","","","","","","","","","","","","","","","",""
"","","","","","single-stim-button","10","129831","0.0-2.0-3.0-0.0","5fbe98e0e2bc9703bfd640d7","E1","batch5","","2176","tol_practice","","","","tol_peg_2","2176","2176","0","[[1,2,0],[0,0],[0]]","1","[[1,2,0],[0,0],[3]]","practice","2176","","","","","","","","","","","","","","",""
"","","","","","single-stim-button","11","130895","0.0-2.0-3.0-1.0","5fbe98e0e2bc9703bfd640d7","E1","batch5","","1062","tol_practice","","","","tol_peg_3","1062","1062","0","[[1,2,0],[0,0],[3]]","1","[[1,2,0],[0,0],[3]]","practice","1062","","","","","","","","","","","","","","",""
"","","","","","poldrack-single-stim","12","131898","0.0-2.0-4.0","5fbe98e0e2bc9703bfd640d7","E1","batch5","","-1","tol_feedback","","","true","","1000","1000","500","","","","","","-1","none","true","","0","","","","","","","","","",""
"","","","","","single-stim-button","13","135495","0.0-2.0-5.0-0.0","5fbe98e0e2bc9703bfd640d7","E1","batch5","","3596","tol_practice","","","","tol_peg_1","3596","3596","0","[[1,0,0],[3,0],[0]]","2","[[0,0,0],[3,1],[2]]","practice","3596","","","","","","","","","","","","","","",""
"","","","","","single-stim-button","14","136583","0.0-2.0-5.0-1.0","5fbe98e0e2bc9703bfd640d7","E1","batch5","","1087","tol_practice","","","","tol_peg_3","1087","1087","0","[[1,0,0],[3,0],[2]]","2","[[0,0,0],[3,1],[2]]","practice","1087","","","","","","","","","","","","","","",""
"","","","","","single-stim-button","15","141007","0.0-2.0-5.1-0.1","5fbe98e0e2bc9703bfd640d7","E1","batch5","","4424","tol_practice","","","","tol_peg_1","4424","4424","0","[[0,0,0],[3,0],[2]]","3","[[0,0,0],[3,1],[2]]","practice","4424","","","","","","","","","","","","","","",""
"","","","","","single-stim-button","16","141255","0.0-2.0-5.1-1.1","5fbe98e0e2bc9703bfd640d7","E1","batch5","","247","tol_practice","","","","tol_peg_1","247","247","0","[[1,0,0],[3,0],[2]]","3","[[0,0,0],[3,1],[2]]","practice","247","","","","","","","","","","","","","","",""
"","","","","","single-stim-button","17","141743","0.0-2.0-5.2-0.2","5fbe98e0e2bc9703bfd640d7","E1","batch5","","487","tol_practice","","","","tol_peg_1","487","487","0","[[0,0,0],[3,0],[2]]","4","[[0,0,0],[3,1],[2]]","practice","487","","","","","","","","","","","","","","",""
"","","","","","single-stim-button","18","142191","0.0-2.0-5.2-1.2","5fbe98e0e2bc9703bfd640d7","E1","batch5","","448","tol_practice","","","","tol_peg_2","448","448","0","[[0,0,0],[3,1],[2]]","4","[[0,0,0],[3,1],[2]]","practice","448","","","","","","","","","","","","","","",""
"","","","","","poldrack-single-stim","19","143192","0.0-2.0-6.0","5fbe98e0e2bc9703bfd640d7","E1","batch5","","-1","tol_feedback","","","true","","1000","1000","500","","","","","","-1","none","true","","0","","","","","","","","","",""
"","","","","","single-stim-button","20","145759","0.0-2.0-7.0-0.0","5fbe98e0e2bc9703bfd640d7","E1","batch5","","2567","tol_practice","","","","tol_peg_2","2567","2567","0","[[1,2,0],[0,0],[0]]","5","[[1,0,0],[2,0],[3]]","practice","2567","","","","","","","","","","","","","","",""
"","","","","","single-stim-button","21","146447","0.0-2.0-7.0-1.0","5fbe98e0e2bc9703bfd640d7","E1","batch5","","687","tol_practice","","","","tol_peg_3","687","687","0","[[1,2,0],[0,0],[3]]","5","[[1,0,0],[2,0],[3]]","practice","687","","","","","","","","","","","","","","",""
"","","","","","single-stim-button","22","147167","0.0-2.0-7.1-0.1","5fbe98e0e2bc9703bfd640d7","E1","batch5","","720","tol_practice","","","","tol_peg_1","720","720","0","[[1,0,0],[0,0],[3]]","6","[[1,0,0],[2,0],[3]]","practice","720","","","","","","","","","","","","","","",""
"","","","","","single-stim-button","23","147807","0.0-2.0-7.1-1.1","5fbe98e0e2bc9703bfd640d7","E1","batch5","","639","tol_practice","","","","tol_peg_2","639","639","0","[[1,0,0],[2,0],[3]]","6","[[1,0,0],[2,0],[3]]","practice","639","","","","","","","","","","","","","","",""
"","","","","","poldrack-single-stim","24","148820","0.0-2.0-8.0","5fbe98e0e2bc9703bfd640d7","E1","batch5","","-1","tol_feedback","","","true","","1000","1000","500","","","","","","-1","none","true","","0","","","","","","","","","",""
"","","","","","html-button-response","25","155863","0.0-2.0-9.0","5fbe98e0e2bc9703bfd640d7","E1","batch5","","7041.900000095367","tol_instruction","<div class = centerbox><p class = center-block-text>Great job! You are done with practice trials<br>You are about to start official trials.<br> <br> Problem <strong>1</strong> out of 25 problems</p></div>","0","","","","","","","","","","","","","","","","","","","","","","","","",""
"","","","","","single-stim-button","26","160823","0.0-2.0-10.0-0.0","5fbe98e0e2bc9703bfd640d7","E1","batch5","","3960","tol_tohand","","","","tol_peg_1","3960","3960","0","[[1,0,0],[3,0],[0]]","1","[[1,3,0],[2,0],[0]]","0","0","","","","","","3","","","","","","","","",""
"","","","","","single-stim-button","27","161599","0.0-2.0-10.0-1.0","5fbe98e0e2bc9703bfd640d7","E1","batch5","","775","tol_toboard","","","","tol_peg_3","775","775","0","[[1,0,0],[3,0],[2]]","1","[[1,3,0],[2,0],[0]]","0","0","","","","","","3","","","","","","","","",""
"","","","","","single-stim-button","28","162015","0.0-2.0-10.1-0.1","5fbe98e0e2bc9703bfd640d7","E1","batch5","","415","tol_tohand","","","","tol_peg_1","415","415","0","[[0,0,0],[3,0],[2]]","2","[[1,3,0],[2,0],[0]]","0","0","","","","","","3","","","","","","","","",""
"","","","","","single-stim-button","29","162887","0.0-2.0-10.1-1.1","5fbe98e0e2bc9703bfd640d7","E1","batch5","","871","tol_toboard","","","","tol_peg_1","871","871","0","[[1,0,0],[3,0],[2]]","2","[[1,3,0],[2,0],[0]]","0","0","","","","","","3","","","","","","","","",""
"","","","","","single-stim-button","30","163352","0.0-2.0-10.2-0.2","5fbe98e0e2bc9703bfd640d7","E1","batch5","","464","tol_tohand","","","","tol_peg_2","464","464","0","[[1,0,0],[0,0],[2]]","3","[[1,3,0],[2,0],[0]]","0","0","","","","","","3","","","","","","","","",""
"","","","","","single-stim-button","31","163727","0.0-2.0-10.2-1.2","5fbe98e0e2bc9703bfd640d7","E1","batch5","","374","tol_toboard","","","","tol_peg_1","374","374","0","[[1,3,0],[0,0],[2]]","3","[[1,3,0],[2,0],[0]]","0","0","","","","","","3","","","","","","","","",""
"","","","","","single-stim-button","32","164623","0.0-2.0-10.3-0.3","5fbe98e0e2bc9703bfd640d7","E1","batch5","","895","tol_tohand","","","","tol_peg_3","895","895","0","[[1,3,0],[0,0],[0]]","4","[[1,3,0],[2,0],[0]]","0","0","","","","","","3","","","","","","","","",""
"","","","","","single-stim-button","33","165143","0.0-2.0-10.3-1.3","5fbe98e0e2bc9703bfd640d7","E1","batch5","","519","tol_toboard","","","","tol_peg_2","519","519","0","[[1,3,0],[2,0],[0]]","4","[[1,3,0],[2,0],[0]]","0","0","","","","","","3","","","","","","","","",""
"","","","","","poldrack-single-stim","34","166144","0.0-2.0-11.0","5fbe98e0e2bc9703bfd640d7","E1","batch5","","-1","tol_feedback","","","true","","1000","1000","500","","","","","","-1","none","true","3960","5734","","","","","","","","","",""
"","","","","","html-button-response","35","171391","0.0-2.0-12.0","5fbe98e0e2bc9703bfd640d7","E1","batch5","","5245.699999928474","tol_trial_num","<div class = centerbox><p class = center-block-text>problem <strong>2</strong> out of 25 problems</p></div>","0","","","","","","","","","","","","","","","","","","","","","","","","",""
"","","","","","single-stim-button","36","174391","0.0-2.0-13.0-0.0","5fbe98e0e2bc9703bfd640d7","E1","batch5","","2999","tol_tohand","","","","tol_peg_1","2999","2999","0","[[1,0,0],[3,0],[0]]","1","[[2,1,3],[0,0],[0]]","1","0","","","","","","5","","","","","","","","",""
"","","","","","single-stim-button","37","178151","0.0-2.0-13.0-1.0","5fbe98e0e2bc9703bfd640d7","E1","batch5","","3759","tol_toboard","","","","tol_peg_3","3759","3759","0","[[1,0,0],[3,0],[2]]","1","[[2,1,3],[0,0],[0]]","1","0","","","","","","5","","","","","","","","",""
"","","","","","single-stim-button","38","179399","0.0-2.0-13.1-0.1","5fbe98e0e2bc9703bfd640d7","E1","batch5","","1247","tol_tohand","","","","tol_peg_1","1247","1247","0","[[0,0,0],[3,0],[2]]","2","[[2,1,3],[0,0],[0]]","1","0","","","","","","5","","","","","","","","",""
"","","","","","single-stim-button","39","179855","0.0-2.0-13.1-1.1","5fbe98e0e2bc9703bfd640d7","E1","batch5","","455","tol_toboard","","","","tol_peg_2","455","455","0","[[0,0,0],[3,1],[2]]","2","[[2,1,3],[0,0],[0]]","1","0","","","","","","5","","","","","","","","",""
"","","","","","single-stim-button","40","180351","0.0-2.0-13.2-0.2","5fbe98e0e2bc9703bfd640d7","E1","batch5","","495","tol_tohand","","","","tol_peg_3","495","495","0","[[0,0,0],[3,1],[0]]","3","[[2,1,3],[0,0],[0]]","1","0","","","","","","5","","","","","","","","",""
"","","","","","single-stim-button","41","181192","0.0-2.0-13.2-1.2","5fbe98e0e2bc9703bfd640d7","E1","batch5","","840","tol_toboard","","","","tol_peg_1","840","840","0","[[2,0,0],[3,1],[0]]","3","[[2,1,3],[0,0],[0]]","1","0","","","","","","5","","","","","","","","",""
"","","","","","single-stim-button","42","181840","0.0-2.0-13.3-0.3","5fbe98e0e2bc9703bfd640d7","E1","batch5","","648","tol_tohand","","","","tol_peg_2","648","648","0","[[2,0,0],[3,0],[0]]","4","[[2,1,3],[0,0],[0]]","1","0","","","","","","5","","","","","","","","",""
"","","","","","single-stim-button","43","182679","0.0-2.0-13.3-1.3","5fbe98e0e2bc9703bfd640d7","E1","batch5","","839","tol_toboard","","","","tol_peg_1","839","839","0","[[2,1,0],[3,0],[0]]","4","[[2,1,3],[0,0],[0]]","1","0","","","","","","5","","","","","","","","",""
"","","","","","single-stim-button","44","183127","0.0-2.0-13.4-0.4","5fbe98e0e2bc9703bfd640d7","E1","batch5","","448","tol_tohand","","","","tol_peg_2","448","448","0","[[2,1,0],[0,0],[0]]","5","[[2,1,3],[0,0],[0]]","1","0","","","","","","5","","","","","","","","",""
"","","","","","single-stim-button","45","183535","0.0-2.0-13.4-1.4","5fbe98e0e2bc9703bfd640d7","E1","batch5","","408","tol_toboard","","","","tol_peg_1","408","408","0","[[2,1,3],[0,0],[0]]","5","[[2,1,3],[0,0],[0]]","1","0","","","","","","5","","","","","","","","",""
"","","","","","poldrack-single-stim","46","184549","0.0-2.0-14.0","5fbe98e0e2bc9703bfd640d7","E1","batch5","","-1","tol_feedback","","","true","","1000","1000","500","","","","","","-1","none","true","2999","5837","","","","","","","","","",""
"","","","","","html-button-response","47","185743","0.0-2.0-15.0","5fbe98e0e2bc9703bfd640d7","E1","batch5","","1193","tol_trial_num","<div class = centerbox><p class = center-block-text>problem <strong>3</strong> out of 25 problems</p></div>","0","","","","","","","","","","","","","","","","","","","","","","","","",""
"","","","","","single-stim-button","48","188015","0.0-2.0-16.0-0.0","5fbe98e0e2bc9703bfd640d7","E1","batch5","","2272","tol_tohand","","","","tol_peg_1","2272","2272","0","[[2,0,0],[0,0],[1]]","1","[[1,2,0],[3,0],[0]]","2","0","","","","","","4","","","","","","","","",""
"","","","","","single-stim-button","49","188487","0.0-2.0-16.0-1.0","5fbe98e0e2bc9703bfd640d7","E1","batch5","","472","tol_toboard","","","","tol_peg_2","472","472","0","[[2,0,0],[3,0],[1]]","1","[[1,2,0],[3,0],[0]]","2","0","","","","","","4","","","","","","","","",""
"","","","","","single-stim-button","50","189391","0.0-2.0-16.1-0.1","5fbe98e0e2bc9703bfd640d7","E1","batch5","","904","tol_tohand","","","","tol_peg_1","904","904","0","[[0,0,0],[3,0],[1]]","2","[[1,2,0],[3,0],[0]]","2","0","","","","","","4","","","","","","","","",""
"","","","","","single-stim-button","51","189703","0.0-2.0-16.1-1.1","5fbe98e0e2bc9703bfd640d7","E1","batch5","","312","tol_toboard","","","","tol_peg_2","312","312","0","[[0,0,0],[3,2],[1]]","2","[[1,2,0],[3,0],[0]]","2","0","","","","","","4","","","","","","","","",""
"","","","","","single-stim-button","52","190135","0.0-2.0-16.2-0.2","5fbe98e0e2bc9703bfd640d7","E1","batch5","","432","tol_tohand","","","","tol_peg_3","432","432","0","[[0,0,0],[3,2],[0]]","3","[[1,2,0],[3,0],[0]]","2","0","","","","","","4","","","","","","","","",""
"","","","","","single-stim-button","53","190567","0.0-2.0-16.2-1.2","5fbe98e0e2bc9703bfd640d7","E1","batch5","","432","tol_toboard","","","","tol_peg_1","432","432","0","[[1,0,0],[3,2],[0]]","3","[[1,2,0],[3,0],[0]]","2","0","","","","","","4","","","","","","","","",""
"","","","","","single-stim-button","54","190983","0.0-2.0-16.3-0.3","5fbe98e0e2bc9703bfd640d7","E1","batch5","","416","tol_tohand","","","","tol_peg_2","416","416","0","[[1,0,0],[3,0],[0]]","4","[[1,2,0],[3,0],[0]]","2","0","","","","","","4","","","","","","","","",""
"","","","","","single-stim-button","55","191351","0.0-2.0-16.3-1.3","5fbe98e0e2bc9703bfd640d7","E1","batch5","","367","tol_toboard","","","","tol_peg_1","367","367","0","[[1,2,0],[3,0],[0]]","4","[[1,2,0],[3,0],[0]]","2","0","","","","","","4","","","","","","","","",""
"","","","","","poldrack-single-stim","56","192352","0.0-2.0-17.0","5fbe98e0e2bc9703bfd640d7","E1","batch5","","-1","tol_feedback","","","true","","1000","1000","500","","","","","","-1","none","true","2272","4024","","","","","","","","","",""
"","","","","","html-button-response","57","193423","0.0-2.0-18.0","5fbe98e0e2bc9703bfd640d7","E1","batch5","","1070.7000000476837","tol_trial_num","<div class = centerbox><p class = center-block-text>problem <strong>4</strong> out of 25 problems</p></div>","0","","","","","","","","","","","","","","","","","","","","","","","","",""
"","","","","","single-stim-button","58","195591","0.0-2.0-19.0-0.0","5fbe98e0e2bc9703bfd640d7","E1","batch5","","2168","tol_tohand","","","","tol_peg_2","2168","2168","0","[[3,0,0],[2,0],[0]]","1","[[3,0,0],[1,0],[2]]","3","0","","","","","","3","","","","","","","","",""
"","","","","","single-stim-button","59","196087","0.0-2.0-19.0-1.0","5fbe98e0e2bc9703bfd640d7","E1","batch5","","496","tol_toboard","","","","tol_peg_1","496","496","0","[[3,1,0],[2,0],[0]]","1","[[3,0,0],[1,0],[2]]","3","0","","","","","","3","","","","","","","","",""
"","","","","","single-stim-button","60","196575","0.0-2.0-19.1-0.1","5fbe98e0e2bc9703bfd640d7","E1","batch5","","488","tol_tohand","","","","tol_peg_2","488","488","0","[[3,1,0],[0,0],[0]]","2","[[3,0,0],[1,0],[2]]","3","0","","","","","","3","","","","","","","","",""
"","","","","","single-stim-button","61","196935","0.0-2.0-19.1-1.1","5fbe98e0e2bc9703bfd640d7","E1","batch5","","360","tol_toboard","","","","tol_peg_3","360","360","0","[[3,1,0],[0,0],[2]]","2","[[3,0,0],[1,0],[2]]","3","0","","","","","","3","","","","","","","","",""
"","","","","","single-stim-button","62","197743","0.0-2.0-19.2-0.2","5fbe98e0e2bc9703bfd640d7","E1","batch5","","808","tol_tohand","","","","tol_peg_1","808","808","0","[[3,0,0],[0,0],[2]]","3","[[3,0,0],[1,0],[2]]","3","0","","","","","","3","","","","","","","","",""
"","","","","","single-stim-button","63","198151","0.0-2.0-19.2-1.2","5fbe98e0e2bc9703bfd640d7","E1","batch5","","408","tol_toboard","","","","tol_peg_2","408","408","0","[[3,0,0],[1,0],[2]]","3","[[3,0,0],[1,0],[2]]","3","0","","","","","","3","","","","","","","","",""
"","","","","","poldrack-single-stim","64","199152","0.0-2.0-20.0","5fbe98e0e2bc9703bfd640d7","E1","batch5","","-1","tol_feedback","","","true","","1000","1000","500","","","","","","-1","none","true","2168","3464","","","","","","","","","",""
"","","","","","html-button-response","65","200047","0.0-2.0-21.0","5fbe98e0e2bc9703bfd640d7","E1","batch5","","894.8000000715256","tol_trial_num","<div class = centerbox><p class = center-block-text>problem <strong>5</strong> out of 25 problems</p></div>","0","","","","","","","","","","","","","","","","","","","","","","","","",""
"","","","","","single-stim-button","66","203071","0.0-2.0-22.0-0.0","5fbe98e0e2bc9703bfd640d7","E1","batch5","","3024","tol_tohand","","","","tol_peg_2","3024","3024","0","[[1,0,0],[0,0],[3]]","1","[[0,0,0],[1,2],[3]]","4","0","","","","","","7","","","","","","","","",""
"","","","","","single-stim-button","67","204431","0.0-2.0-22.0-1.0","5fbe98e0e2bc9703bfd640d7","E1","batch5","","1360","tol_toboard","","","","tol_peg_2","1360","1360","0","[[1,0,0],[2,0],[3]]","1","[[0,0,0],[1,2],[3]]","4","0","","","","","","7","","","","","","","","",""
"","","","","","single-stim-button","68","208503","0.0-2.0-22.1-0.1","5fbe98e0e2bc9703bfd640d7","E1","batch5","","4072","tol_tohand","","","","tol_peg_2","4072","4072","0","[[1,0,0],[0,0],[3]]","2","[[0,0,0],[1,2],[3]]","4","0","","","","","","7","","","","","","","","",""
"","","","","","single-stim-button","69","210055","0.0-2.0-22.1-1.1","5fbe98e0e2bc9703bfd640d7","E1","batch5","","1552","tol_toboard","","","","tol_peg_2","1552","1552","0","[[1,0,0],[2,0],[3]]","2","[[0,0,0],[1,2],[3]]","4","0","","","","","","7","","","","","","","","",""
"","","","","","single-stim-button","70","210519","0.0-2.0-22.2-0.2","5fbe98e0e2bc9703bfd640d7","E1","batch5","","464","tol_tohand","","","","tol_peg_3","464","464","0","[[1,0,0],[2,0],[0]]","3","[[0,0,0],[1,2],[3]]","4","0","","","","","","7","","","","","","","","",""
"","","","","","single-stim-button","71","211127","0.0-2.0-22.2-1.2","5fbe98e0e2bc9703bfd640d7","E1","batch5","","608","tol_toboard","","","","tol_peg_1","608","608","0","[[1,3,0],[2,0],[0]]","3","[[0,0,0],[1,2],[3]]","4","0","","","","","","7","","","","","","","","",""
"","","","","","single-stim-button","72","211535","0.0-2.0-22.3-0.3","5fbe98e0e2bc9703bfd640d7","E1","batch5","","408","tol_tohand","","","","tol_peg_2","408","408","0","[[1,3,0],[0,0],[0]]","4","[[0,0,0],[1,2],[3]]","4","0","","","","","","7","","","","","","","","",""
"","","","","","single-stim-button","73","212143","0.0-2.0-22.3-1.3","5fbe98e0e2bc9703bfd640d7","E1","batch5","","608","tol_toboard","","","","tol_peg_3","608","608","0","[[1,3,0],[0,0],[2]]","4","[[0,0,0],[1,2],[3]]","4","0","","","","","","7","","","","","","","","",""
"","","","","","single-stim-button","74","213287","0.0-2.0-22.4-0.4","5fbe98e0e2bc9703bfd640d7","E1","batch5","","1144","tol_tohand","","","","tol_peg_1","1144","1144","0","[[1,0,0],[0,0],[2]]","5","[[0,0,0],[1,2],[3]]","4","0","","","","","","7","","","","","","","","",""
"","","","","","single-stim-button","75","216127","0.0-2.0-22.4-1.4","5fbe98e0e2bc9703bfd640d7","E1","batch5","","2840","tol_toboard","","","","tol_peg_2","2840","2840","0","[[1,0,0],[3,0],[2]]","5","[[0,0,0],[1,2],[3]]","4","0","","","","","","7","","","","","","","","",""
"","","","","","single-stim-button","76","216711","0.0-2.0-22.5-0.5","5fbe98e0e2bc9703bfd640d7","E1","batch5","","584","tol_tohand","","","","tol_peg_1","584","584","0","[[0,0,0],[3,0],[2]]","6","[[0,0,0],[1,2],[3]]","4","0","","","","","","7","","","","","","","","",""
"","","","","","single-stim-button","77","217255","0.0-2.0-22.5-1.5","5fbe98e0e2bc9703bfd640d7","E1","batch5","","544","tol_toboard","","","","tol_peg_2","544","544","0","[[0,0,0],[3,1],[2]]","6","[[0,0,0],[1,2],[3]]","4","0","","","","","","7","","","","","","","","",""
"","","","","","single-stim-button","78","217615","0.0-2.0-22.6-0.6","5fbe98e0e2bc9703bfd640d7","E1","batch5","","360","tol_tohand","","","","tol_peg_3","360","360","0","[[0,0,0],[3,1],[0]]","7","[[0,0,0],[1,2],[3]]","4","0","","","","","","7","","","","","","","","",""
"","","","","","single-stim-button","79","218255","0.0-2.0-22.6-1.6","5fbe98e0e2bc9703bfd640d7","E1","batch5","","640","tol_toboard","","","","tol_peg_1","640","640","0","[[2,0,0],[3,1],[0]]","7","[[0,0,0],[1,2],[3]]","4","0","","","","","","7","","","","","","","","",""
"","","","","","single-stim-button","80","221967","0.0-2.0-22.7-0.7","5fbe98e0e2bc9703bfd640d7","E1","batch5","","3712","tol_tohand","","","","tol_peg_2","3712","3712","0","[[2,0,0],[3,0],[0]]","8","[[0,0,0],[1,2],[3]]","4","0","","","","","","7","","","","","","","","",""
"","","","","","single-stim-button","81","222447","0.0-2.0-22.7-1.7","5fbe98e0e2bc9703bfd640d7","E1","batch5","","480","tol_toboard","","","","tol_peg_3","480","480","0","[[2,0,0],[3,0],[1]]","8","[[0,0,0],[1,2],[3]]","4","0","","","","","","7","","","","","","","","",""
"","","","","","single-stim-button","82","222807","0.0-2.0-22.8-0.8","5fbe98e0e2bc9703bfd640d7","E1","batch5","","360","tol_tohand","","","","tol_peg_2","360","360","0","[[2,0,0],[0,0],[1]]","9","[[0,0,0],[1,2],[3]]","4","0","","","","","","7","","","","","","","","",""
"","","","","","single-stim-button","83","223192","0.0-2.0-22.8-1.8","5fbe98e0e2bc9703bfd640d7","E1","batch5","","385","tol_toboard","","","","tol_peg_1","385","385","0","[[2,3,0],[0,0],[1]]","9","[[0,0,0],[1,2],[3]]","4","0","","","","","","7","","","","","","","","",""
"","","","","","single-stim-button","84","223655","0.0-2.0-22.9-0.9","5fbe98e0e2bc9703bfd640d7","E1","batch5","","463","tol_tohand","","","","tol_peg_3","463","463","0","[[2,3,0],[0,0],[0]]","10","[[0,0,0],[1,2],[3]]","4","0","","","","","","7","","","","","","","","",""
"","","","","","single-stim-button","85","224055","0.0-2.0-22.9-1.9","5fbe98e0e2bc9703bfd640d7","E1","batch5","","400","tol_toboard","","","","tol_peg_2","400","400","0","[[2,3,0],[1,0],[0]]","10","[[0,0,0],[1,2],[3]]","4","0","","","","","","7","","","","","","","","",""
"","","","","","single-stim-button","86","224551","0.0-2.0-22.10-0.10","5fbe98e0e2bc9703bfd640d7","E1","batch5","","496","tol_tohand","","","","tol_peg_1","496","496","0","[[2,0,0],[1,0],[0]]","11","[[0,0,0],[1,2],[3]]","4","0","","","","","","7","","","","","","","","",""
"","","","","","single-stim-button","87","225087","0.0-2.0-22.10-1.10","5fbe98e0e2bc9703bfd640d7","E1","batch5","","536","tol_toboard","","","","tol_peg_3","536","536","0","[[2,0,0],[1,0],[3]]","11","[[0,0,0],[1,2],[3]]","4","0","","","","","","7","","","","","","","","",""
"","","","","","single-stim-button","88","225799","0.0-2.0-22.11-0.11","5fbe98e0e2bc9703bfd640d7","E1","batch5","","712","tol_tohand","","","","tol_peg_1","712","712","0","[[0,0,0],[1,0],[3]]","12","[[0,0,0],[1,2],[3]]","4","0","","","","","","7","","","","","","","","",""
"","","","","","single-stim-button","89","226879","0.0-2.0-22.11-1.11","5fbe98e0e2bc9703bfd640d7","E1","batch5","","1079","tol_toboard","","","","tol_peg_2","1079","1079","0","[[0,0,0],[1,2],[3]]","12","[[0,0,0],[1,2],[3]]","4","0","","","","","","7","","","","","","","","",""
"","","","","","poldrack-single-stim","90","227881","0.0-2.0-23.0","5fbe98e0e2bc9703bfd640d7","E1","batch5","","-1","tol_feedback","","","true","","1000","1000","500","","","","","","-1","none","true","3024","15799","","","","","","","","","",""
"","","","","","html-button-response","91","228759","0.0-2.0-24.0","5fbe98e0e2bc9703bfd640d7","E1","batch5","","877.9000000953674","tol_trial_num","<div class = centerbox><p class = center-block-text>problem <strong>6</strong> out of 25 problems</p></div>","0","","","","","","","","","","","","","","","","","","","","","","","","",""
"","","","","","single-stim-button","92","234487","0.0-2.0-25.0-0.0","5fbe98e0e2bc9703bfd640d7","E1","batch5","","5728","tol_tohand","","","","tol_peg_2","5728","5728","0","[[0,0,0],[1,0],[3]]","1","[[1,0,0],[2,3],[0]]","5","0","","","","","","6","","","","","","","","",""
"","","","","","single-stim-button","93","238320","0.0-2.0-25.0-1.0","5fbe98e0e2bc9703bfd640d7","E1","batch5","","3833","tol_toboard","","","","tol_peg_2","3833","3833","0","[[0,0,0],[1,2],[3]]","1","[[1,0,0],[2,3],[0]]","5","0","","","","","","6","","","","","","","","",""
"","","","","","single-stim-button","94","238807","0.0-2.0-25.1-0.1","5fbe98e0e2bc9703bfd640d7","E1","batch5","","487","tol_tohand","","","","tol_peg_3","487","487","0","[[0,0,0],[1,2],[0]]","2","[[1,0,0],[2,3],[0]]","5","0","","","","","","6","","","","","","","","",""
"","","","","","single-stim-button","95","239871","0.0-2.0-25.1-1.1","5fbe98e0e2bc9703bfd640d7","E1","batch5","","1064","tol_toboard","","","","tol_peg_1","1064","1064","0","[[3,0,0],[1,2],[0]]","2","[[1,0,0],[2,3],[0]]","5","0","","","","","","6","","","","","","","","",""
"","","","","","single-stim-button","96","240551","0.0-2.0-25.2-0.2","5fbe98e0e2bc9703bfd640d7","E1","batch5","","680","tol_tohand","","","","tol_peg_2","680","680","0","[[3,0,0],[1,0],[0]]","3","[[1,0,0],[2,3],[0]]","5","0","","","","","","6","","","","","","","","",""
"","","","","","single-stim-button","97","243303","0.0-2.0-25.2-1.2","5fbe98e0e2bc9703bfd640d7","E1","batch5","","2752","tol_toboard","","","","tol_peg_3","2752","2752","0","[[3,0,0],[1,0],[2]]","3","[[1,0,0],[2,3],[0]]","5","0","","","","","","6","","","","","","","","",""
"","","","","","single-stim-button","98","243655","0.0-2.0-25.3-0.3","5fbe98e0e2bc9703bfd640d7","E1","batch5","","352","tol_tohand","","","","tol_peg_2","352","352","0","[[3,0,0],[0,0],[2]]","4","[[1,0,0],[2,3],[0]]","5","0","","","","","","6","","","","","","","","",""
"","","","","","single-stim-button","99","244767","0.0-2.0-25.3-1.3","5fbe98e0e2bc9703bfd640d7","E1","batch5","","1112","tol_toboard","","","","tol_peg_1","1112","1112","0","[[3,1,0],[0,0],[2]]","4","[[1,0,0],[2,3],[0]]","5","0","","","","","","6","","","","","","","","",""
"","","","","","single-stim-button","100","245279","0.0-2.0-25.4-0.4","5fbe98e0e2bc9703bfd640d7","E1","batch5","","512","tol_tohand","","","","tol_peg_3","512","512","0","[[3,1,0],[0,0],[0]]","5","[[1,0,0],[2,3],[0]]","5","0","","","","","","6","","","","","","","","",""
"","","","","","single-stim-button","101","245815","0.0-2.0-25.4-1.4","5fbe98e0e2bc9703bfd640d7","E1","batch5","","536","tol_toboard","","","","tol_peg_2","536","536","0","[[3,1,0],[2,0],[0]]","5","[[1,0,0],[2,3],[0]]","5","0","","","","","","6","","","","","","","","",""
"","","","","","single-stim-button","102","246575","0.0-2.0-25.5-0.5","5fbe98e0e2bc9703bfd640d7","E1","batch5","","760","tol_tohand","","","","tol_peg_1","760","760","0","[[3,0,0],[2,0],[0]]","6","[[1,0,0],[2,3],[0]]","5","0","","","","","","6","","","","","","","","",""
"","","","","","single-stim-button","103","247623","0.0-2.0-25.5-1.5","5fbe98e0e2bc9703bfd640d7","E1","batch5","","1048","tol_toboard","","","","tol_peg_3","1048","1048","0","[[3,0,0],[2,0],[1]]","6","[[1,0,0],[2,3],[0]]","5","0","","","","","","6","","","","","","","","",""
"","","","","","single-stim-button","104","248231","0.0-2.0-25.6-0.6","5fbe98e0e2bc9703bfd640d7","E1","batch5","","608","tol_tohand","","","","tol_peg_1","608","608","0","[[0,0,0],[2,0],[1]]","7","[[1,0,0],[2,3],[0]]","5","0","","","","","","6","","","","","","","","",""
"","","","","","single-stim-button","105","248567","0.0-2.0-25.6-1.6","5fbe98e0e2bc9703bfd640d7","E1","batch5","","336","tol_toboard","","","","tol_peg_2","336","336","0","[[0,0,0],[2,3],[1]]","7","[[1,0,0],[2,3],[0]]","5","0","","","","","","6","","","","","","","","",""
"","","","","","single-stim-button","106","249000","0.0-2.0-25.7-0.7","5fbe98e0e2bc9703bfd640d7","E1","batch5","","433","tol_tohand","","","","tol_peg_3","433","433","0","[[0,0,0],[2,3],[0]]","8","[[1,0,0],[2,3],[0]]","5","0","","","","","","6","","","","","","","","",""
"","","","","","single-stim-button","107","249455","0.0-2.0-25.7-1.7","5fbe98e0e2bc9703bfd640d7","E1","batch5","","455","tol_toboard","","","","tol_peg_1","455","455","0","[[1,0,0],[2,3],[0]]","8","[[1,0,0],[2,3],[0]]","5","0","","","","","","6","","","","","","","","",""
"","","","","","poldrack-single-stim","108","250459","0.0-2.0-26.0","5fbe98e0e2bc9703bfd640d7","E1","batch5","","-1","tol_feedback","","","true","","1000","1000","500","","","","","","-1","none","true","5728","9560","","","","","","","","","",""
"","","","","","html-button-response","109","251775","0.0-2.0-27.0","5fbe98e0e2bc9703bfd640d7","E1","batch5","","1315.5","tol_trial_num","<div class = centerbox><p class = center-block-text>problem <strong>7</strong> out of 25 problems</p></div>","0","","","","","","","","","","","","","","","","","","","","","","","","",""
"","","","","","single-stim-button","110","255823","0.0-2.0-28.0-0.0","5fbe98e0e2bc9703bfd640d7","E1","batch5","","4048","tol_tohand","","","","tol_peg_1","4048","4048","0","[[2,0,0],[0,0],[3]]","1","[[1,2,0],[3,0],[0]]","6","0","","","","","","5","","","","","","","","",""
"","","","","","single-stim-button","111","256967","0.0-2.0-28.0-1.0","5fbe98e0e2bc9703bfd640d7","E1","batch5","","1144","tol_toboard","","","","tol_peg_2","1144","1144","0","[[2,0,0],[1,0],[3]]","1","[[1,2,0],[3,0],[0]]","6","0","","","","","","5","","","","","","","","",""
"","","","","","single-stim-button","112","261711","0.0-2.0-28.1-0.1","5fbe98e0e2bc9703bfd640d7","E1","batch5","","4744","tol_tohand","","","","tol_peg_1","4744","4744","0","[[0,0,0],[1,0],[3]]","2","[[1,2,0],[3,0],[0]]","6","0","","","","","","5","","","","","","","","",""
"","","","","","single-stim-button","113","265615","0.0-2.0-28.1-1.1","5fbe98e0e2bc9703bfd640d7","E1","batch5","","3904","tol_toboard","","","","tol_peg_1","3904","3904","0","[[2,0,0],[1,0],[3]]","2","[[1,2,0],[3,0],[0]]","6","0","","","","","","5","","","","","","","","",""
"","","","","","single-stim-button","114","266607","0.0-2.0-28.2-0.2","5fbe98e0e2bc9703bfd640d7","E1","batch5","","992","tol_tohand","","","","tol_peg_3","992","992","0","[[2,0,0],[1,0],[0]]","3","[[1,2,0],[3,0],[0]]","6","0","","","","","","5","","","","","","","","",""
"","","","","","single-stim-button","115","267807","0.0-2.0-28.2-1.2","5fbe98e0e2bc9703bfd640d7","E1","batch5","","1200","tol_toboard","","","","tol_peg_1","1200","1200","0","[[2,3,0],[1,0],[0]]","3","[[1,2,0],[3,0],[0]]","6","0","","","","","","5","","","","","","","","",""
"","","","","","single-stim-button","116","268255","0.0-2.0-28.3-0.3","5fbe98e0e2bc9703bfd640d7","E1","batch5","","448","tol_tohand","","","","tol_peg_2","448","448","0","[[2,3,0],[0,0],[0]]","4","[[1,2,0],[3,0],[0]]","6","0","","","","","","5","","","","","","","","",""
"","","","","","single-stim-button","117","268663","0.0-2.0-28.3-1.3","5fbe98e0e2bc9703bfd640d7","E1","batch5","","408","tol_toboard","","","","tol_peg_3","408","408","0","[[2,3,0],[0,0],[1]]","4","[[1,2,0],[3,0],[0]]","6","0","","","","","","5","","","","","","","","",""
"","","","","","single-stim-button","118","269543","0.0-2.0-28.4-0.4","5fbe98e0e2bc9703bfd640d7","E1","batch5","","880","tol_tohand","","","","tol_peg_1","880","880","0","[[2,0,0],[0,0],[1]]","5","[[1,2,0],[3,0],[0]]","6","0","","","","","","5","","","","","","","","",""
"","","","","","single-stim-button","119","270863","0.0-2.0-28.4-1.4","5fbe98e0e2bc9703bfd640d7","E1","batch5","","1320","tol_toboard","","","","tol_peg_2","1320","1320","0","[[2,0,0],[3,0],[1]]","5","[[1,2,0],[3,0],[0]]","6","0","","","","","","5","","","","","","","","",""
"","","","","","single-stim-button","120","271383","0.0-2.0-28.5-0.5","5fbe98e0e2bc9703bfd640d7","E1","batch5","","520","tol_tohand","","","","tol_peg_1","520","520","0","[[0,0,0],[3,0],[1]]","6","[[1,2,0],[3,0],[0]]","6","0","","","","","","5","","","","","","","","",""
"","","","","","single-stim-button","121","272368","0.0-2.0-28.5-1.5","5fbe98e0e2bc9703bfd640d7","E1","batch5","","984","tol_toboard","","","","tol_peg_2","984","984","0","[[0,0,0],[3,2],[1]]","6","[[1,2,0],[3,0],[0]]","6","0","","","","","","5","","","","","","","","",""
"","","","","","single-stim-button","122","272767","0.0-2.0-28.6-0.6","5fbe98e0e2bc9703bfd640d7","E1","batch5","","399","tol_tohand","","","","tol_peg_3","399","399","0","[[0,0,0],[3,2],[0]]","7","[[1,2,0],[3,0],[0]]","6","0","","","","","","5","","","","","","","","",""
"","","","","","single-stim-button","123","274207","0.0-2.0-28.6-1.6","5fbe98e0e2bc9703bfd640d7","E1","batch5","","1439","tol_toboard","","","","tol_peg_1","1439","1439","0","[[1,0,0],[3,2],[0]]","7","[[1,2,0],[3,0],[0]]","6","0","","","","","","5","","","","","","","","",""
"","","","","","single-stim-button","124","274712","0.0-2.0-28.7-0.7","5fbe98e0e2bc9703bfd640d7","E1","batch5","","505","tol_tohand","","","","tol_peg_2","505","505","0","[[1,0,0],[3,0],[0]]","8","[[1,2,0],[3,0],[0]]","6","0","","","","","","5","","","","","","","","",""
"","","","","","single-stim-button","125","275039","0.0-2.0-28.7-1.7","5fbe98e0e2bc9703bfd640d7","E1","batch5","","327","tol_toboard","","","","tol_peg_1","327","327","0","[[1,2,0],[3,0],[0]]","8","[[1,2,0],[3,0],[0]]","6","0","","","","","","5","","","","","","","","",""
"","","","","","poldrack-single-stim","126","276041","0.0-2.0-29.0","5fbe98e0e2bc9703bfd640d7","E1","batch5","","-1","tol_feedback","","","true","","1000","1000","500","","","","","","-1","none","true","4048","12536","","","","","","","","","",""
"","","","","","html-button-response","127","276823","0.0-2.0-30.0","5fbe98e0e2bc9703bfd640d7","E1","batch5","","781.7000000476837","tol_trial_num","<div class = centerbox><p class = center-block-text>problem <strong>8</strong> out of 25 problems</p></div>","0","","","","","","","","","","","","","","","","","","","","","","","","",""
"","","","","","single-stim-button","128","279111","0.0-2.0-31.0-0.0","5fbe98e0e2bc9703bfd640d7","E1","batch5","","2288","tol_tohand","","","","tol_peg_3","2288","2288","0","[[0,0,0],[2,3],[0]]","1","[[1,2,0],[3,0],[0]]","7","0","","","","","","4","","","","","","","","",""
"","","","","","single-stim-button","129","280047","0.0-2.0-31.0-1.0","5fbe98e0e2bc9703bfd640d7","E1","batch5","","936","tol_toboard","","","","tol_peg_1","936","936","0","[[1,0,0],[2,3],[0]]","1","[[1,2,0],[3,0],[0]]","7","0","","","","","","4","","","","","","","","",""
"","","","","","single-stim-button","130","280751","0.0-2.0-31.1-0.1","5fbe98e0e2bc9703bfd640d7","E1","batch5","","704","tol_tohand","","","","tol_peg_2","704","704","0","[[1,0,0],[2,0],[0]]","2","[[1,2,0],[3,0],[0]]","7","0","","","","","","4","","","","","","","","",""
"","","","","","single-stim-button","131","281287","0.0-2.0-31.1-1.1","5fbe98e0e2bc9703bfd640d7","E1","batch5","","536","tol_toboard","","","","tol_peg_3","536","536","0","[[1,0,0],[2,0],[3]]","2","[[1,2,0],[3,0],[0]]","7","0","","","","","","4","","","","","","","","",""
"","","","","","single-stim-button","132","281695","0.0-2.0-31.2-0.2","5fbe98e0e2bc9703bfd640d7","E1","batch5","","408","tol_tohand","","","","tol_peg_2","408","408","0","[[1,0,0],[0,0],[3]]","3","[[1,2,0],[3,0],[0]]","7","0","","","","","","4","","","","","","","","",""
"","","","","","single-stim-button","133","282495","0.0-2.0-31.2-1.2","5fbe98e0e2bc9703bfd640d7","E1","batch5","","800","tol_toboard","","","","tol_peg_1","800","800","0","[[1,2,0],[0,0],[3]]","3","[[1,2,0],[3,0],[0]]","7","0","","","","","","4","","","","","","","","",""
"","","","","","single-stim-button","134","286335","0.0-2.0-31.3-0.3","5fbe98e0e2bc9703bfd640d7","E1","batch5","","3840","tol_tohand","","","","tol_peg_3","3840","3840","0","[[1,2,0],[0,0],[0]]","4","[[1,2,0],[3,0],[0]]","7","0","","","","","","4","","","","","","","","",""
"","","","","","single-stim-button","135","286759","0.0-2.0-31.3-1.3","5fbe98e0e2bc9703bfd640d7","E1","batch5","","424","tol_toboard","","","","tol_peg_2","424","424","0","[[1,2,0],[3,0],[0]]","4","[[1,2,0],[3,0],[0]]","7","0","","","","","","4","","","","","","","","",""
"","","","","","poldrack-single-stim","136","287760","0.0-2.0-32.0","5fbe98e0e2bc9703bfd640d7","E1","batch5","","-1","tol_feedback","","","true","","1000","1000","500","","","","","","-1","none","true","2288","7240","","","","","","","","","",""
"","","","","","html-button-response","137","299327","0.0-2.0-33.0","5fbe98e0e2bc9703bfd640d7","E1","batch5","","11566.800000071526","tol_trial_num","<div class = centerbox><p class = center-block-text>problem <strong>9</strong> out of 25 problems</p></div>","0","","","","","","","","","","","","","","","","","","","","","","","","",""
"","","","","","single-stim-button","138","303599","0.0-2.0-34.0-0.0","5fbe98e0e2bc9703bfd640d7","E1","batch5","","4272","tol_tohand","","","","tol_peg_3","4272","4272","0","[[3,2,0],[0,0],[0]]","1","[[2,1,0],[3,0],[0]]","8","0","","","","","","6","","","","","","","","",""
"","","","","","single-stim-button","139","304711","0.0-2.0-34.0-1.0","5fbe98e0e2bc9703bfd640d7","E1","batch5","","1112","tol_toboard","","","","tol_peg_2","1112","1112","0","[[3,2,0],[1,0],[0]]","1","[[2,1,0],[3,0],[0]]","8","0","","","","","","6","","","","","","","","",""
"","","","","","single-stim-button","140","305144","0.0-2.0-34.1-0.1","5fbe98e0e2bc9703bfd640d7","E1","batch5","","432","tol_tohand","","","","tol_peg_1","432","432","0","[[3,0,0],[1,0],[0]]","2","[[2,1,0],[3,0],[0]]","8","0","","","","","","6","","","","","","","","",""
"","","","","","single-stim-button","141","306559","0.0-2.0-34.1-1.1","5fbe98e0e2bc9703bfd640d7","E1","batch5","","1415","tol_toboard","","","","tol_peg_3","1415","1415","0","[[3,0,0],[1,0],[2]]","2","[[2,1,0],[3,0],[0]]","8","0","","","","","","6","","","","","","","","",""
"","","","","","single-stim-button","142","307143","0.0-2.0-34.2-0.2","5fbe98e0e2bc9703bfd640d7","E1","batch5","","584","tol_tohand","","","","tol_peg_1","584","584","0","[[0,0,0],[1,0],[2]]","3","[[2,1,0],[3,0],[0]]","8","0","","","","","","6","","","","","","","","",""
"","","","","","single-stim-button","143","307495","0.0-2.0-34.2-1.2","5fbe98e0e2bc9703bfd640d7","E1","batch5","","352","tol_toboard","","","","tol_peg_2","352","352","0","[[0,0,0],[1,3],[2]]","3","[[2,1,0],[3,0],[0]]","8","0","","","","","","6","","","","","","","","",""
"","","","","","single-stim-button","144","307895","0.0-2.0-34.3-0.3","5fbe98e0e2bc9703bfd640d7","E1","batch5","","400","tol_tohand","","","","tol_peg_3","400","400","0","[[0,0,0],[1,3],[0]]","4","[[2,1,0],[3,0],[0]]","8","0","","","","","","6","","","","","","","","",""
"","","","","","single-stim-button","145","310351","0.0-2.0-34.3-1.3","5fbe98e0e2bc9703bfd640d7","E1","batch5","","2456","tol_toboard","","","","tol_peg_1","2456","2456","0","[[2,0,0],[1,3],[0]]","4","[[2,1,0],[3,0],[0]]","8","0","","","","","","6","","","","","","","","",""
"","","","","","single-stim-button","146","310751","0.0-2.0-34.4-0.4","5fbe98e0e2bc9703bfd640d7","E1","batch5","","399","tol_tohand","","","","tol_peg_2","399","399","0","[[2,0,0],[1,0],[0]]","5","[[2,1,0],[3,0],[0]]","8","0","","","","","","6","","","","","","","","",""
"","","","","","single-stim-button","147","311135","0.0-2.0-34.4-1.4","5fbe98e0e2bc9703bfd640d7","E1","batch5","","384","tol_toboard","","","","tol_peg_3","384","384","0","[[2,0,0],[1,0],[3]]","5","[[2,1,0],[3,0],[0]]","8","0","","","","","","6","","","","","","","","",""
"","","","","","single-stim-button","148","311503","0.0-2.0-34.5-0.5","5fbe98e0e2bc9703bfd640d7","E1","batch5","","367","tol_tohand","","","","tol_peg_2","367","367","0","[[2,0,0],[0,0],[3]]","6","[[2,1,0],[3,0],[0]]","8","0","","","","","","6","","","","","","","","",""
"","","","","","single-stim-button","149","311880","0.0-2.0-34.5-1.5","5fbe98e0e2bc9703bfd640d7","E1","batch5","","376","tol_toboard","","","","tol_peg_1","376","376","0","[[2,1,0],[0,0],[3]]","6","[[2,1,0],[3,0],[0]]","8","0","","","","","","6","","","","","","","","",""
"","","","","","single-stim-button","150","312327","0.0-2.0-34.6-0.6","5fbe98e0e2bc9703bfd640d7","E1","batch5","","447","tol_tohand","","","","tol_peg_3","447","447","0","[[2,1,0],[0,0],[0]]","7","[[2,1,0],[3,0],[0]]","8","0","","","","","","6","","","","","","","","",""
"","","","","","single-stim-button","151","312647","0.0-2.0-34.6-1.6","5fbe98e0e2bc9703bfd640d7","E1","batch5","","320","tol_toboard","","","","tol_peg_2","320","320","0","[[2,1,0],[3,0],[0]]","7","[[2,1,0],[3,0],[0]]","8","0","","","","","","6","","","","","","","","",""
"","","","","","poldrack-single-stim","152","313648","0.0-2.0-35.0","5fbe98e0e2bc9703bfd640d7","E1","batch5","","-1","tol_feedback","","","true","","1000","1000","500","","","","","","-1","none","true","4272","6901","","","","","","","","","",""
"","","","","","html-button-response","153","314575","0.0-2.0-36.0","5fbe98e0e2bc9703bfd640d7","E1","batch5","","926.5","tol_trial_num","<div class = centerbox><p class = center-block-text>problem <strong>10</strong> out of 25 problems</p></div>","0","","","","","","","","","","","","","","","","","","","","","","","","",""
"","","","","","single-stim-button","154","317791","0.0-2.0-37.0-0.0","5fbe98e0e2bc9703bfd640d7","E1","batch5","","3216","tol_tohand","","","","tol_peg_2","3216","3216","0","[[3,0,0],[0,0],[2]]","1","[[3,0,0],[2,1],[0]]","9","0","","","","","","3","","","","","","","","",""
"","","","","","single-stim-button","155","318311","0.0-2.0-37.0-1.0","5fbe98e0e2bc9703bfd640d7","E1","batch5","","520","tol_toboard","","","","tol_peg_1","520","520","0","[[3,1,0],[0,0],[2]]","1","[[3,0,0],[2,1],[0]]","9","0","","","","","","3","","","","","","","","",""
"","","","","","single-stim-button","156","318919","0.0-2.0-37.1-0.1","5fbe98e0e2bc9703bfd640d7","E1","batch5","","608","tol_tohand","","","","tol_peg_3","608","608","0","[[3,1,0],[0,0],[0]]","2","[[3,0,0],[2,1],[0]]","9","0","","","","","","3","","","","","","","","",""
"","","","","","single-stim-button","157","319407","0.0-2.0-37.1-1.1","5fbe98e0e2bc9703bfd640d7","E1","batch5","","487","tol_toboard","","","","tol_peg_2","487","487","0","[[3,1,0],[2,0],[0]]","2","[[3,0,0],[2,1],[0]]","9","0","","","","","","3","","","","","","","","",""
"","","","","","single-stim-button","158","320023","0.0-2.0-37.2-0.2","5fbe98e0e2bc9703bfd640d7","E1","batch5","","616","tol_tohand","","","","tol_peg_1","616","616","0","[[3,0,0],[2,0],[0]]","3","[[3,0,0],[2,1],[0]]","9","0","","","","","","3","","","","","","","","",""
"","","","","","single-stim-button","159","320919","0.0-2.0-37.2-1.2","5fbe98e0e2bc9703bfd640d7","E1","batch5","","896","tol_toboard","","","","tol_peg_2","896","896","0","[[3,0,0],[2,1],[0]]","3","[[3,0,0],[2,1],[0]]","9","0","","","","","","3","","","","","","","","",""
"","","","","","poldrack-single-stim","160","321921","0.0-2.0-38.0","5fbe98e0e2bc9703bfd640d7","E1","batch5","","-1","tol_feedback","","","true","","1000","1000","500","","","","","","-1","none","true","3216","4440","","","","","","","","","",""
"","","","","","html-button-response","161","322815","0.0-2.0-39.0","5fbe98e0e2bc9703bfd640d7","E1","batch5","","893.3000000715256","tol_trial_num","<div class = centerbox><p class = center-block-text>problem <strong>11</strong> out of 25 problems</p></div>","0","","","","","","","","","","","","","","","","","","","","","","","","",""
"","","","","","single-stim-button","162","327895","0.0-2.0-40.0-0.0","5fbe98e0e2bc9703bfd640d7","E1","batch5","","5080","tol_tohand","","","","tol_peg_1","5080","5080","0","[[1,0,0],[3,0],[0]]","1","[[2,0,0],[1,3],[0]]","10","0","","","","","","6","","","","","","","","",""
"","","","","","single-stim-button","163","329959","0.0-2.0-40.0-1.0","5fbe98e0e2bc9703bfd640d7","E1","batch5","","2064","tol_toboard","","","","tol_peg_1","2064","2064","0","[[1,2,0],[3,0],[0]]","1","[[2,0,0],[1,3],[0]]","10","0","","","","","","6","","","","","","","","",""
"","","","","","single-stim-button","164","331223","0.0-2.0-40.1-0.1","5fbe98e0e2bc9703bfd640d7","E1","batch5","","1264","tol_tohand","","","","tol_peg_2","1264","1264","0","[[1,2,0],[0,0],[0]]","2","[[2,0,0],[1,3],[0]]","10","0","","","","","","6","","","","","","","","",""
"","","","","","single-stim-button","165","333807","0.0-2.0-40.1-1.1","5fbe98e0e2bc9703bfd640d7","E1","batch5","","2584","tol_toboard","","","","tol_peg_2","2584","2584","0","[[1,2,0],[3,0],[0]]","2","[[2,0,0],[1,3],[0]]","10","0","","","","","","6","","","","","","","","",""
"","","","","","single-stim-button","166","334359","0.0-2.0-40.2-0.2","5fbe98e0e2bc9703bfd640d7","E1","batch5","","552","tol_tohand","","","","tol_peg_1","552","552","0","[[1,0,0],[3,0],[0]]","3","[[2,0,0],[1,3],[0]]","10","0","","","","","","6","","","","","","","","",""
"","","","","","single-stim-button","167","341215","0.0-2.0-40.2-1.2","5fbe98e0e2bc9703bfd640d7","E1","batch5","","6855","tol_toboard","","","","tol_peg_2","6855","6855","0","[[1,0,0],[3,2],[0]]","3","[[2,0,0],[1,3],[0]]","10","0","","","","","","6","","","","","","","","",""
"","","","","","single-stim-button","168","342016","0.0-2.0-40.3-0.3","5fbe98e0e2bc9703bfd640d7","E1","batch5","","800","tol_tohand","","","","tol_peg_1","800","800","0","[[0,0,0],[3,2],[0]]","4","[[2,0,0],[1,3],[0]]","10","0","","","","","","6","","","","","","","","",""
"","","","","","single-stim-button","169","342647","0.0-2.0-40.3-1.3","5fbe98e0e2bc9703bfd640d7","E1","batch5","","631","tol_toboard","","","","tol_peg_3","631","631","0","[[0,0,0],[3,2],[1]]","4","[[2,0,0],[1,3],[0]]","10","0","","","","","","6","","","","","","","","",""
"","","","","","single-stim-button","170","343071","0.0-2.0-40.4-0.4","5fbe98e0e2bc9703bfd640d7","E1","batch5","","424","tol_tohand","","","","tol_peg_2","424","424","0","[[0,0,0],[3,0],[1]]","5","[[2,0,0],[1,3],[0]]","10","0","","","","","","6","","","","","","","","",""
"","","","","","single-stim-button","171","343527","0.0-2.0-40.4-1.4","5fbe98e0e2bc9703bfd640d7","E1","batch5","","456","tol_toboard","","","","tol_peg_1","456","456","0","[[2,0,0],[3,0],[1]]","5","[[2,0,0],[1,3],[0]]","10","0","","","","","","6","","","","","","","","",""
"","","","","","single-stim-button","172","343951","0.0-2.0-40.5-0.5","5fbe98e0e2bc9703bfd640d7","E1","batch5","","424","tol_tohand","","","","tol_peg_2","424","424","0","[[2,0,0],[0,0],[1]]","6","[[2,0,0],[1,3],[0]]","10","0","","","","","","6","","","","","","","","",""
"","","","","","single-stim-button","173","344376","0.0-2.0-40.5-1.5","5fbe98e0e2bc9703bfd640d7","E1","batch5","","423","tol_toboard","","","","tol_peg_1","423","423","0","[[2,3,0],[0,0],[1]]","6","[[2,0,0],[1,3],[0]]","10","0","","","","","","6","","","","","","","","",""
"","","","","","single-stim-button","174","345063","0.0-2.0-40.6-0.6","5fbe98e0e2bc9703bfd640d7","E1","batch5","","687","tol_tohand","","","","tol_peg_3","687","687","0","[[2,3,0],[0,0],[0]]","7","[[2,0,0],[1,3],[0]]","10","0","","","","","","6","","","","","","","","",""
"","","","","","single-stim-button","175","345391","0.0-2.0-40.6-1.6","5fbe98e0e2bc9703bfd640d7","E1","batch5","","328","tol_toboard","","","","tol_peg_2","328","328","0","[[2,3,0],[1,0],[0]]","7","[[2,0,0],[1,3],[0]]","10","0","","","","","","6","","","","","","","","",""
"","","","","","single-stim-button","176","345823","0.0-2.0-40.7-0.7","5fbe98e0e2bc9703bfd640d7","E1","batch5","","431","tol_tohand","","","","tol_peg_1","431","431","0","[[2,0,0],[1,0],[0]]","8","[[2,0,0],[1,3],[0]]","10","0","","","","","","6","","","","","","","","",""
"","","","","","single-stim-button","177","346247","0.0-2.0-40.7-1.7","5fbe98e0e2bc9703bfd640d7","E1","batch5","","423","tol_toboard","","","","tol_peg_2","423","423","0","[[2,0,0],[1,3],[0]]","8","[[2,0,0],[1,3],[0]]","10","0","","","","","","6","","","","","","","","",""
"","","","","","poldrack-single-stim","178","347248","0.0-2.0-41.0","5fbe98e0e2bc9703bfd640d7","E1","batch5","","-1","tol_feedback","","","true","","1000","1000","500","","","","","","-1","none","true","5080","9662","","","","","","","","","",""
"","","","","","html-button-response","179","348367","0.0-2.0-42.0","5fbe98e0e2bc9703bfd640d7","E1","batch5","","1118.2000000476837","tol_trial_num","<div class = centerbox><p class = center-block-text>problem <strong>12</strong> out of 25 problems</p></div>","0","","","","","","","","","","","","","","","","","","","","","","","","",""
"","","","","","single-stim-button","180","355743","0.0-2.0-43.0-0.0","5fbe98e0e2bc9703bfd640d7","E1","batch5","","7376","tol_tohand","","","","tol_peg_1","7376","7376","0","[[1,0,0],[3,0],[0]]","1","[[2,3,0],[0,0],[1]]","11","0","","","","","","4","","","","","","","","",""
"","","","","","single-stim-button","181","356631","0.0-2.0-43.0-1.0","5fbe98e0e2bc9703bfd640d7","E1","batch5","","888","tol_toboard","","","","tol_peg_2","888","888","0","[[1,0,0],[3,2],[0]]","1","[[2,3,0],[0,0],[1]]","11","0","","","","","","4","","","","","","","","",""
"","","","","","single-stim-button","182","357128","0.0-2.0-43.1-0.1","5fbe98e0e2bc9703bfd640d7","E1","batch5","","497","tol_tohand","","","","tol_peg_1","497","497","0","[[0,0,0],[3,2],[0]]","2","[[2,3,0],[0,0],[1]]","11","0","","","","","","4","","","","","","","","",""
"","","","","","single-stim-button","183","357703","0.0-2.0-43.1-1.1","5fbe98e0e2bc9703bfd640d7","E1","batch5","","575","tol_toboard","","","","tol_peg_3","575","575","0","[[0,0,0],[3,2],[1]]","2","[[2,3,0],[0,0],[1]]","11","0","","","","","","4","","","","","","","","",""
"","","","","","single-stim-button","184","358367","0.0-2.0-43.2-0.2","5fbe98e0e2bc9703bfd640d7","E1","batch5","","664","tol_tohand","","","","tol_peg_2","664","664","0","[[0,0,0],[3,0],[1]]","3","[[2,3,0],[0,0],[1]]","11","0","","","","","","4","","","","","","","","",""
"","","","","","single-stim-button","185","358807","0.0-2.0-43.2-1.2","5fbe98e0e2bc9703bfd640d7","E1","batch5","","440","tol_toboard","","","","tol_peg_1","440","440","0","[[2,0,0],[3,0],[1]]","3","[[2,3,0],[0,0],[1]]","11","0","","","","","","4","","","","","","","","",""
"","","","","","single-stim-button","186","359255","0.0-2.0-43.3-0.3","5fbe98e0e2bc9703bfd640d7","E1","batch5","","448","tol_tohand","","","","tol_peg_2","448","448","0","[[2,0,0],[0,0],[1]]","4","[[2,3,0],[0,0],[1]]","11","0","","","","","","4","","","","","","","","",""
"","","","","","single-stim-button","187","359743","0.0-2.0-43.3-1.3","5fbe98e0e2bc9703bfd640d7","E1","batch5","","488","tol_toboard","","","","tol_peg_1","488","488","0","[[2,3,0],[0,0],[1]]","4","[[2,3,0],[0,0],[1]]","11","0","","","","","","4","","","","","","","","",""
"","","","","","poldrack-single-stim","188","360747","0.0-2.0-44.0","5fbe98e0e2bc9703bfd640d7","E1","batch5","","-1","tol_feedback","","","true","","1000","1000","500","","","","","","-1","none","true","7376","8985","","","","","","","","","",""
"","","","","","html-button-response","189","361679","0.0-2.0-45.0","5fbe98e0e2bc9703bfd640d7","E1","batch5","","932.0999999046326","tol_trial_num","<div class = centerbox><p class = center-block-text>problem <strong>13</strong> out of 25 problems</p></div>","0","","","","","","","","","","","","","","","","","","","","","","","","",""
"","","","","","single-stim-button","190","367607","0.0-2.0-46.0-0.0","5fbe98e0e2bc9703bfd640d7","E1","batch5","","5928","tol_tohand","","","","tol_peg_1","5928","5928","0","[[1,0,0],[3,0],[0]]","1","[[0,0,0],[2,3],[1]]","12","0","","","","","","4","","","","","","","","",""
"","","","","","single-stim-button","191","368431","0.0-2.0-46.0-1.0","5fbe98e0e2bc9703bfd640d7","E1","batch5","","824","tol_toboard","","","","tol_peg_2","824","824","0","[[1,0,0],[3,2],[0]]","1","[[0,0,0],[2,3],[1]]","12","0","","","","","","4","","","","","","","","",""
"","","","","","single-stim-button","192","368928","0.0-2.0-46.1-0.1","5fbe98e0e2bc9703bfd640d7","E1","batch5","","496","tol_tohand","","","","tol_peg_1","496","496","0","[[0,0,0],[3,2],[0]]","2","[[0,0,0],[2,3],[1]]","12","0","","","","","","4","","","","","","","","",""
"","","","","","single-stim-button","193","369624","0.0-2.0-46.1-1.1","5fbe98e0e2bc9703bfd640d7","E1","batch5","","696","tol_toboard","","","","tol_peg_3","696","696","0","[[0,0,0],[3,2],[1]]","2","[[0,0,0],[2,3],[1]]","12","0","","","","","","4","","","","","","","","",""
"","","","","","single-stim-button","194","370167","0.0-2.0-46.2-0.2","5fbe98e0e2bc9703bfd640d7","E1","batch5","","543","tol_tohand","","","","tol_peg_2","543","543","0","[[0,0,0],[3,0],[1]]","3","[[0,0,0],[2,3],[1]]","12","0","","","","","","4","","","","","","","","",""
"","","","","","single-stim-button","195","370695","0.0-2.0-46.2-1.2","5fbe98e0e2bc9703bfd640d7","E1","batch5","","528","tol_toboard","","","","tol_peg_1","528","528","0","[[2,0,0],[3,0],[1]]","3","[[0,0,0],[2,3],[1]]","12","0","","","","","","4","","","","","","","","",""
"","","","","","single-stim-button","196","371207","0.0-2.0-46.3-0.3","5fbe98e0e2bc9703bfd640d7","E1","batch5","","512","tol_tohand","","","","tol_peg_2","512","512","0","[[2,0,0],[0,0],[1]]","4","[[0,0,0],[2,3],[1]]","12","0","","","","","","4","","","","","","","","",""
"","","","","","single-stim-button","197","371951","0.0-2.0-46.3-1.3","5fbe98e0e2bc9703bfd640d7","E1","batch5","","744","tol_toboard","","","","tol_peg_1","744","744","0","[[2,3,0],[0,0],[1]]","4","[[0,0,0],[2,3],[1]]","12","0","","","","","","4","","","","","","","","",""
"","","","","","single-stim-button","198","373896","0.0-2.0-46.4-0.4","5fbe98e0e2bc9703bfd640d7","E1","batch5","","1944","tol_tohand","","","","tol_peg_3","1944","1944","0","[[2,3,0],[0,0],[0]]","5","[[0,0,0],[2,3],[1]]","12","0","","","","","","4","","","","","","","","",""
"","","","","","single-stim-button","199","374207","0.0-2.0-46.4-1.4","5fbe98e0e2bc9703bfd640d7","E1","batch5","","311","tol_toboard","","","","tol_peg_2","311","311","0","[[2,3,0],[1,0],[0]]","5","[[0,0,0],[2,3],[1]]","12","0","","","","","","4","","","","","","","","",""
"","","","","","single-stim-button","200","374663","0.0-2.0-46.5-0.5","5fbe98e0e2bc9703bfd640d7","E1","batch5","","456","tol_tohand","","","","tol_peg_1","456","456","0","[[2,0,0],[1,0],[0]]","6","[[0,0,0],[2,3],[1]]","12","0","","","","","","4","","","","","","","","",""
"","","","","","single-stim-button","201","375119","0.0-2.0-46.5-1.5","5fbe98e0e2bc9703bfd640d7","E1","batch5","","456","tol_toboard","","","","tol_peg_3","456","456","0","[[2,0,0],[1,0],[3]]","6","[[0,0,0],[2,3],[1]]","12","0","","","","","","4","","","","","","","","",""
"","","","","","single-stim-button","202","378975","0.0-2.0-46.6-0.6","5fbe98e0e2bc9703bfd640d7","E1","batch5","","3855","tol_tohand","","","","tol_peg_1","3855","3855","0","[[0,0,0],[1,0],[3]]","7","[[0,0,0],[2,3],[1]]","12","0","","","","","","4","","","","","","","","",""
"","","","","","single-stim-button","203","379463","0.0-2.0-46.6-1.6","5fbe98e0e2bc9703bfd640d7","E1","batch5","","488","tol_toboard","","","","tol_peg_1","488","488","0","[[2,0,0],[1,0],[3]]","7","[[0,0,0],[2,3],[1]]","12","0","","","","","","4","","","","","","","","",""
"","","","","","single-stim-button","204","380479","0.0-2.0-46.7-0.7","5fbe98e0e2bc9703bfd640d7","E1","batch5","","1016","tol_tohand","","","","tol_peg_2","1016","1016","0","[[2,0,0],[0,0],[3]]","8","[[0,0,0],[2,3],[1]]","12","0","","","","","","4","","","","","","","","",""
"","","","","","single-stim-button","205","382183","0.0-2.0-46.7-1.7","5fbe98e0e2bc9703bfd640d7","E1","batch5","","1704","tol_toboard","","","","tol_peg_2","1704","1704","0","[[2,0,0],[1,0],[3]]","8","[[0,0,0],[2,3],[1]]","12","0","","","","","","4","","","","","","","","",""
"","","","","","single-stim-button","206","389168","0.0-2.0-46.8-0.8","5fbe98e0e2bc9703bfd640d7","E1","batch5","","6985","tol_tohand","","","","tol_peg_1","6985","6985","0","[[0,0,0],[1,0],[3]]","9","[[0,0,0],[2,3],[1]]","12","0","","","","","","4","","","","","","","","",""
"","","","","","single-stim-button","207","389527","0.0-2.0-46.8-1.8","5fbe98e0e2bc9703bfd640d7","E1","batch5","","359","tol_toboard","","","","tol_peg_2","359","359","0","[[0,0,0],[1,2],[3]]","9","[[0,0,0],[2,3],[1]]","12","0","","","","","","4","","","","","","","","",""
"","","","","","single-stim-button","208","390160","0.0-2.0-46.9-0.9","5fbe98e0e2bc9703bfd640d7","E1","batch5","","632","tol_tohand","","","","tol_peg_3","632","632","0","[[0,0,0],[1,2],[0]]","10","[[0,0,0],[2,3],[1]]","12","0","","","","","","4","","","","","","","","",""
"","","","","","single-stim-button","209","390967","0.0-2.0-46.9-1.9","5fbe98e0e2bc9703bfd640d7","E1","batch5","","807","tol_toboard","","","","tol_peg_1","807","807","0","[[3,0,0],[1,2],[0]]","10","[[0,0,0],[2,3],[1]]","12","0","","","","","","4","","","","","","","","",""
"","","","","","single-stim-button","210","391447","0.0-2.0-46.10-0.10","5fbe98e0e2bc9703bfd640d7","E1","batch5","","480","tol_tohand","","","","tol_peg_2","480","480","0","[[3,0,0],[1,0],[0]]","11","[[0,0,0],[2,3],[1]]","12","0","","","","","","4","","","","","","","","",""
"","","","","","single-stim-button","211","392415","0.0-2.0-46.10-1.10","5fbe98e0e2bc9703bfd640d7","E1","batch5","","968","tol_toboard","","","","tol_peg_3","968","968","0","[[3,0,0],[1,0],[2]]","11","[[0,0,0],[2,3],[1]]","12","0","","","","","","4","","","","","","","","",""
"","","","","","single-stim-button","212","392943","0.0-2.0-46.11-0.11","5fbe98e0e2bc9703bfd640d7","E1","batch5","","528","tol_tohand","","","","tol_peg_1","528","528","0","[[0,0,0],[1,0],[2]]","12","[[0,0,0],[2,3],[1]]","12","0","","","","","","4","","","","","","","","",""
"","","","","","single-stim-button","213","393943","0.0-2.0-46.11-1.11","5fbe98e0e2bc9703bfd640d7","E1","batch5","","999","tol_toboard","","","","tol_peg_2","999","999","0","[[0,0,0],[1,3],[2]]","12","[[0,0,0],[2,3],[1]]","12","0","","","","","","4","","","","","","","","",""
"","","","","","single-stim-button","214","394448","0.0-2.0-46.12-0.12","5fbe98e0e2bc9703bfd640d7","E1","batch5","","504","tol_tohand","","","","tol_peg_3","504","504","0","[[0,0,0],[1,3],[0]]","13","[[0,0,0],[2,3],[1]]","12","0","","","","","","4","","","","","","","","",""
"","","","","","single-stim-button","215","395119","0.0-2.0-46.12-1.12","5fbe98e0e2bc9703bfd640d7","E1","batch5","","671","tol_toboard","","","","tol_peg_1","671","671","0","[[2,0,0],[1,3],[0]]","13","[[0,0,0],[2,3],[1]]","12","0","","","","","","4","","","","","","","","",""
"","","","","","single-stim-button","216","395623","0.0-2.0-46.13-0.13","5fbe98e0e2bc9703bfd640d7","E1","batch5","","504","tol_tohand","","","","tol_peg_2","504","504","0","[[2,0,0],[1,0],[0]]","14","[[0,0,0],[2,3],[1]]","12","0","","","","","","4","","","","","","","","",""
"","","","","","single-stim-button","217","395992","0.0-2.0-46.13-1.13","5fbe98e0e2bc9703bfd640d7","E1","batch5","","369","tol_toboard","","","","tol_peg_1","369","369","0","[[2,3,0],[1,0],[0]]","14","[[0,0,0],[2,3],[1]]","12","0","","","","","","4","","","","","","","","",""
"","","","","","single-stim-button","218","396423","0.0-2.0-46.14-0.14","5fbe98e0e2bc9703bfd640d7","E1","batch5","","431","tol_tohand","","","","tol_peg_2","431","431","0","[[2,3,0],[0,0],[0]]","15","[[0,0,0],[2,3],[1]]","12","0","","","","","","4","","","","","","","","",""
"","","","","","single-stim-button","219","396783","0.0-2.0-46.14-1.14","5fbe98e0e2bc9703bfd640d7","E1","batch5","","360","tol_toboard","","","","tol_peg_3","360","360","0","[[2,3,0],[0,0],[1]]","15","[[0,0,0],[2,3],[1]]","12","0","","","","","","4","","","","","","","","",""
"","","","","","single-stim-button","220","400391","0.0-2.0-46.15-0.15","5fbe98e0e2bc9703bfd640d7","E1","batch5","","3608","tol_tohand","","","","tol_peg_3","3608","3608","0","[[2,3,0],[0,0],[0]]","16","[[0,0,0],[2,3],[1]]","12","0","","","","","","4","","","","","","","","",""
"","","","","","single-stim-button","221","400767","0.0-2.0-46.15-1.15","5fbe98e0e2bc9703bfd640d7","E1","batch5","","376","tol_toboard","","","","tol_peg_2","376","376","0","[[2,3,0],[1,0],[0]]","16","[[0,0,0],[2,3],[1]]","12","0","","","","","","4","","","","","","","","",""
"","","","","","single-stim-button","222","401263","0.0-2.0-46.16-0.16","5fbe98e0e2bc9703bfd640d7","E1","batch5","","495","tol_tohand","","","","tol_peg_1","495","495","0","[[2,0,0],[1,0],[0]]","17","[[0,0,0],[2,3],[1]]","12","0","","","","","","4","","","","","","","","",""
"","","","","","single-stim-button","223","402455","0.0-2.0-46.16-1.16","5fbe98e0e2bc9703bfd640d7","E1","batch5","","1192","tol_toboard","","","","tol_peg_3","1192","1192","0","[[2,0,0],[1,0],[3]]","17","[[0,0,0],[2,3],[1]]","12","0","","","","","","4","","","","","","","","",""
"","","","","","single-stim-button","224","403056","0.0-2.0-46.17-0.17","5fbe98e0e2bc9703bfd640d7","E1","batch5","","600","tol_tohand","","","","tol_peg_1","600","600","0","[[0,0,0],[1,0],[3]]","18","[[0,0,0],[2,3],[1]]","12","0","","","","","","4","","","","","","","","",""
"","","","","","single-stim-button","225","403510","0.0-2.0-46.17-1.17","5fbe98e0e2bc9703bfd640d7","E1","batch5","","454","tol_toboard","","","","tol_peg_2","454","454","0","[[0,0,0],[1,2],[3]]","18","[[0,0,0],[2,3],[1]]","12","0","","","","","","4","","","","","","","","",""
"","","","","","single-stim-button","226","403935","0.0-2.0-46.18-0.18","5fbe98e0e2bc9703bfd640d7","E1","batch5","","425","tol_tohand","","","","tol_peg_3","425","425","0","[[0,0,0],[1,2],[0]]","19","[[0,0,0],[2,3],[1]]","12","0","","","","","","4","","","","","","","","",""
"","","","","","single-stim-button","227","404527","0.0-2.0-46.18-1.18","5fbe98e0e2bc9703bfd640d7","E1","batch5","","592","tol_toboard","","","","tol_peg_1","592","592","0","[[3,0,0],[1,2],[0]]","19","[[0,0,0],[2,3],[1]]","12","0","","","","","","4","","","","","","","","",""
"","","","","","single-stim-button","228","404975","0.0-2.0-46.19-0.19","5fbe98e0e2bc9703bfd640d7","E1","batch5","","448","tol_tohand","","","","tol_peg_2","448","448","0","[[3,0,0],[1,0],[0]]","20","[[0,0,0],[2,3],[1]]","12","0","","","","","","4","","","","","","","","",""
"","","","","","single-stim-button","229","405391","0.0-2.0-46.19-1.19","5fbe98e0e2bc9703bfd640d7","E1","batch5","","415","tol_toboard","","","","tol_peg_1","415","415","0","[[3,2,0],[1,0],[0]]","20","[[0,0,0],[2,3],[1]]","12","0","","","","","","4","","","","","","","","",""
"","","","","","single-stim-button","230","405783","0.0-2.0-46.20-0.20","5fbe98e0e2bc9703bfd640d7","E1","batch5","","392","tol_tohand","","","","tol_peg_2","392","392","0","[[3,2,0],[0,0],[0]]","21","[[0,0,0],[2,3],[1]]","12","0","","","","","","4","","","","","","","","",""
"","","","","","single-stim-button","231","406295","0.0-2.0-46.20-1.20","5fbe98e0e2bc9703bfd640d7","E1","batch5","","512","tol_toboard","","","","tol_peg_3","512","512","0","[[3,2,0],[0,0],[1]]","21","[[0,0,0],[2,3],[1]]","12","0","","","","","","4","","","","","","","","",""
"","","","","","single-stim-button","232","406855","0.0-2.0-46.21-0.21","5fbe98e0e2bc9703bfd640d7","E1","batch5","","560","tol_tohand","","","","tol_peg_1","560","560","0","[[3,0,0],[0,0],[1]]","22","[[0,0,0],[2,3],[1]]","12","0","","","","","","4","","","","","","","","",""
"","","","","","single-stim-button","233","407239","0.0-2.0-46.21-1.21","5fbe98e0e2bc9703bfd640d7","E1","batch5","","384","tol_toboard","","","","tol_peg_2","384","384","0","[[3,0,0],[2,0],[1]]","22","[[0,0,0],[2,3],[1]]","12","0","","","","","","4","","","","","","","","",""
"","","","","","single-stim-button","234","407591","0.0-2.0-46.22-0.22","5fbe98e0e2bc9703bfd640d7","E1","batch5","","352","tol_tohand","","","","tol_peg_1","352","352","0","[[0,0,0],[2,0],[1]]","23","[[0,0,0],[2,3],[1]]","12","0","","","","","","4","","","","","","","","",""
"","","","","","single-stim-button","235","408127","0.0-2.0-46.22-1.22","5fbe98e0e2bc9703bfd640d7","E1","batch5","","535","tol_toboard","","","","tol_peg_2","535","535","0","[[0,0,0],[2,3],[1]]","23","[[0,0,0],[2,3],[1]]","12","0","","","","","","4","","","","","","","","",""
"","","","","","poldrack-single-stim","236","409128","0.0-2.0-47.0","5fbe98e0e2bc9703bfd640d7","E1","batch5","","-1","tol_feedback","","","true","","1000","1000","500","","","","","","-1","none","true","5928","31694","","","","","","","","","",""
"","","","","","html-button-response","237","412735","0.0-2.0-48.0","5fbe98e0e2bc9703bfd640d7","E1","batch5","","3606.7999999523163","attention_check","<p class = block-text>How many balls are in your board<br></p>","1","true","","","","","","","","","","","","","","","","","","","","","","","",""
"","","","","","html-button-response","238","413535","0.0-2.0-49.0","5fbe98e0e2bc9703bfd640d7","E1","batch5","","799.2000000476837","tol_trial_num","<div class = centerbox><p class = center-block-text>problem <strong>14</strong> out of 25 problems</p></div>","0","","","","","","","","","","","","","","","","","","","","","","","","",""
"","","","","","single-stim-button","239","416999","0.0-2.0-50.0-0.0","5fbe98e0e2bc9703bfd640d7","E1","batch5","","3464","tol_tohand","","","","tol_peg_1","3464","3464","0","[[2,0,0],[3,0],[0]]","1","[[1,2,0],[3,0],[0]]","13","0","","","","","","4","","","","","","","","",""
"","","","","","single-stim-button","240","417527","0.0-2.0-50.0-1.0","5fbe98e0e2bc9703bfd640d7","E1","batch5","","528","tol_toboard","","","","tol_peg_2","528","528","0","[[2,0,0],[3,1],[0]]","1","[[1,2,0],[3,0],[0]]","13","0","","","","","","4","","","","","","","","",""
"","","","","","single-stim-button","241","417903","0.0-2.0-50.1-0.1","5fbe98e0e2bc9703bfd640d7","E1","batch5","","376","tol_tohand","","","","tol_peg_1","376","376","0","[[0,0,0],[3,1],[0]]","2","[[1,2,0],[3,0],[0]]","13","0","","","","","","4","","","","","","","","",""
"","","","","","single-stim-button","242","418567","0.0-2.0-50.1-1.1","5fbe98e0e2bc9703bfd640d7","E1","batch5","","664","tol_toboard","","","","tol_peg_3","664","664","0","[[0,0,0],[3,1],[2]]","2","[[1,2,0],[3,0],[0]]","13","0","","","","","","4","","","","","","","","",""
"","","","","","single-stim-button","243","419119","0.0-2.0-50.2-0.2","5fbe98e0e2bc9703bfd640d7","E1","batch5","","552","tol_tohand","","","","tol_peg_2","552","552","0","[[0,0,0],[3,0],[2]]","3","[[1,2,0],[3,0],[0]]","13","0","","","","","","4","","","","","","","","",""
"","","","","","single-stim-button","244","419823","0.0-2.0-50.2-1.2","5fbe98e0e2bc9703bfd640d7","E1","batch5","","704","tol_toboard","","","","tol_peg_1","704","704","0","[[1,0,0],[3,0],[2]]","3","[[1,2,0],[3,0],[0]]","13","0","","","","","","4","","","","","","","","",""
"","","","","","single-stim-button","245","420591","0.0-2.0-50.3-0.3","5fbe98e0e2bc9703bfd640d7","E1","batch5","","768","tol_tohand","","","","tol_peg_3","768","768","0","[[1,0,0],[3,0],[0]]","4","[[1,2,0],[3,0],[0]]","13","0","","","","","","4","","","","","","","","",""
"","","","","","single-stim-button","246","421134","0.0-2.0-50.3-1.3","5fbe98e0e2bc9703bfd640d7","E1","batch5","","542","tol_toboard","","","","tol_peg_1","542","542","0","[[1,2,0],[3,0],[0]]","4","[[1,2,0],[3,0],[0]]","13","0","","","","","","4","","","","","","","","",""
"","","","","","poldrack-single-stim","247","422142","0.0-2.0-51.0","5fbe98e0e2bc9703bfd640d7","E1","batch5","","-1","tol_feedback","","","true","","1000","1000","500","","","","","","-1","none","true","3464","5160","","","","","","","","","",""
"","","","","","html-button-response","248","423102","0.0-2.0-52.0","5fbe98e0e2bc9703bfd640d7","E1","batch5","","959.2999999523163","tol_trial_num","<div class = centerbox><p class = center-block-text>problem <strong>15</strong> out of 25 problems</p></div>","0","","","","","","","","","","","","","","","","","","","","","","","","",""
"","","","","","single-stim-button","249","427903","0.0-2.0-53.0-0.0","5fbe98e0e2bc9703bfd640d7","E1","batch5","","4800","tol_tohand","","","","tol_peg_1","4800","4800","0","[[1,0,0],[3,0],[0]]","1","[[2,0,0],[3,0],[1]]","14","0","","","","","","3","","","","","","","","",""
"","","","","","single-stim-button","250","428263","0.0-2.0-53.0-1.0","5fbe98e0e2bc9703bfd640d7","E1","batch5","","359","tol_toboard","","","","tol_peg_2","359","359","0","[[1,0,0],[3,2],[0]]","1","[[2,0,0],[3,0],[1]]","14","0","","","","","","3","","","","","","","","",""
"","","","","","single-stim-button","251","429230","0.0-2.0-53.1-0.1","5fbe98e0e2bc9703bfd640d7","E1","batch5","","967","tol_tohand","","","","tol_peg_1","967","967","0","[[0,0,0],[3,2],[0]]","2","[[2,0,0],[3,0],[1]]","14","0","","","","","","3","","","","","","","","",""
"","","","","","single-stim-button","252","429911","0.0-2.0-53.1-1.1","5fbe98e0e2bc9703bfd640d7","E1","batch5","","680","tol_toboard","","","","tol_peg_3","680","680","0","[[0,0,0],[3,2],[1]]","2","[[2,0,0],[3,0],[1]]","14","0","","","","","","3","","","","","","","","",""
"","","","","","single-stim-button","253","430607","0.0-2.0-53.2-0.2","5fbe98e0e2bc9703bfd640d7","E1","batch5","","694","tol_tohand","","","","tol_peg_2","694","694","0","[[0,0,0],[3,0],[1]]","3","[[2,0,0],[3,0],[1]]","14","0","","","","","","3","","","","","","","","",""
"","","","","","single-stim-button","254","430999","0.0-2.0-53.2-1.2","5fbe98e0e2bc9703bfd640d7","E1","batch5","","391","tol_toboard","","","","tol_peg_1","391","391","0","[[2,0,0],[3,0],[1]]","3","[[2,0,0],[3,0],[1]]","14","0","","","","","","3","","","","","","","","",""
"","","","","","poldrack-single-stim","255","432000","0.0-2.0-54.0","5fbe98e0e2bc9703bfd640d7","E1","batch5","","-1","tol_feedback","","","true","","1000","1000","500","","","","","","-1","none","true","4800","6461","","","","","","","","","",""
"","","","","","html-button-response","256","432726","0.0-2.0-55.0","5fbe98e0e2bc9703bfd640d7","E1","batch5","","725.8000000715256","tol_trial_num","<div class = centerbox><p class = center-block-text>problem <strong>16</strong> out of 25 problems</p></div>","0","","","","","","","","","","","","","","","","","","","","","","","","",""
"","","","","","single-stim-button","257","438670","0.0-2.0-56.0-0.0","5fbe98e0e2bc9703bfd640d7","E1","batch5","","5943","tol_tohand","","","","tol_peg_2","5943","5943","0","[[0,0,0],[2,0],[1]]","1","[[2,3,0],[1,0],[0]]","15","0","","","","","","7","","","","","","","","",""
"","","","","","single-stim-button","258","450758","0.0-2.0-56.0-1.0","5fbe98e0e2bc9703bfd640d7","E1","batch5","","12087","tol_toboard","","","","tol_peg_1","12087","12087","0","[[3,0,0],[2,0],[1]]","1","[[2,3,0],[1,0],[0]]","15","0","","","","","","7","","","","","","","","",""
"","","","","","single-stim-button","259","451886","0.0-2.0-56.1-0.1","5fbe98e0e2bc9703bfd640d7","E1","batch5","","1127","tol_tohand","","","","tol_peg_3","1127","1127","0","[[3,0,0],[2,0],[0]]","2","[[2,3,0],[1,0],[0]]","15","0","","","","","","7","","","","","","","","",""
"","","","","","single-stim-button","260","453102","0.0-2.0-56.1-1.1","5fbe98e0e2bc9703bfd640d7","E1","batch5","","1215","tol_toboard","","","","tol_peg_1","1215","1215","0","[[3,1,0],[2,0],[0]]","2","[[2,3,0],[1,0],[0]]","15","0","","","","","","7","","","","","","","","",""
"","","","","","single-stim-button","261","453527","0.0-2.0-56.2-0.2","5fbe98e0e2bc9703bfd640d7","E1","batch5","","424","tol_tohand","","","","tol_peg_2","424","424","0","[[3,1,0],[0,0],[0]]","3","[[2,3,0],[1,0],[0]]","15","0","","","","","","7","","","","","","","","",""
"","","","","","single-stim-button","262","453975","0.0-2.0-56.2-1.2","5fbe98e0e2bc9703bfd640d7","E1","batch5","","447","tol_toboard","","","","tol_peg_3","447","447","0","[[3,1,0],[0,0],[2]]","3","[[2,3,0],[1,0],[0]]","15","0","","","","","","7","","","","","","","","",""
"","","","","","single-stim-button","263","455734","0.0-2.0-56.3-0.3","5fbe98e0e2bc9703bfd640d7","E1","batch5","","1759","tol_tohand","","","","tol_peg_1","1759","1759","0","[[3,0,0],[0,0],[2]]","4","[[2,3,0],[1,0],[0]]","15","0","","","","","","7","","","","","","","","",""
"","","","","","single-stim-button","264","456142","0.0-2.0-56.3-1.3","5fbe98e0e2bc9703bfd640d7","E1","batch5","","407","tol_toboard","","","","tol_peg_2","407","407","0","[[3,0,0],[1,0],[2]]","4","[[2,3,0],[1,0],[0]]","15","0","","","","","","7","","","","","","","","",""
"","","","","","single-stim-button","265","456552","0.0-2.0-56.4-0.4","5fbe98e0e2bc9703bfd640d7","E1","batch5","","408","tol_tohand","","","","tol_peg_1","408","408","0","[[0,0,0],[1,0],[2]]","5","[[2,3,0],[1,0],[0]]","15","0","","","","","","7","","","","","","","","",""
"","","","","","single-stim-button","266","456871","0.0-2.0-56.4-1.4","5fbe98e0e2bc9703bfd640d7","E1","batch5","","318","tol_toboard","","","","tol_peg_2","318","318","0","[[0,0,0],[1,3],[2]]","5","[[2,3,0],[1,0],[0]]","15","0","","","","","","7","","","","","","","","",""
"","","","","","single-stim-button","267","457447","0.0-2.0-56.5-0.5","5fbe98e0e2bc9703bfd640d7","E1","batch5","","576","tol_tohand","","","","tol_peg_3","576","576","0","[[0,0,0],[1,3],[0]]","6","[[2,3,0],[1,0],[0]]","15","0","","","","","","7","","","","","","","","",""
"","","","","","single-stim-button","268","458207","0.0-2.0-56.5-1.5","5fbe98e0e2bc9703bfd640d7","E1","batch5","","758","tol_toboard","","","","tol_peg_1","758","758","0","[[2,0,0],[1,3],[0]]","6","[[2,3,0],[1,0],[0]]","15","0","","","","","","7","","","","","","","","",""
"","","","","","single-stim-button","269","458647","0.0-2.0-56.6-0.6","5fbe98e0e2bc9703bfd640d7","E1","batch5","","439","tol_tohand","","","","tol_peg_2","439","439","0","[[2,0,0],[1,0],[0]]","7","[[2,3,0],[1,0],[0]]","15","0","","","","","","7","","","","","","","","",""
"","","","","","single-stim-button","270","458966","0.0-2.0-56.6-1.6","5fbe98e0e2bc9703bfd640d7","E1","batch5","","319","tol_toboard","","","","tol_peg_1","319","319","0","[[2,3,0],[1,0],[0]]","7","[[2,3,0],[1,0],[0]]","15","0","","","","","","7","","","","","","","","",""
"","","","","","poldrack-single-stim","271","459981","0.0-2.0-57.0","5fbe98e0e2bc9703bfd640d7","E1","batch5","","-1","tol_feedback","","","true","","1000","1000","500","","","","","","-1","none","true","5943","10676","","","","","","","","","",""
"","","","","","html-button-response","272","461142","0.0-2.0-58.0","5fbe98e0e2bc9703bfd640d7","E1","batch5","","1161.1000000238419","tol_trial_num","<div class = centerbox><p class = center-block-text>problem <strong>17</strong> out of 25 problems</p></div>","0","","","","","","","","","","","","","","","","","","","","","","","","",""
"","","","","","single-stim-button","273","465055","0.0-2.0-59.0-0.0","5fbe98e0e2bc9703bfd640d7","E1","batch5","","3911","tol_tohand","","","","tol_peg_2","3911","3911","0","[[1,2,0],[0,0],[0]]","1","[[3,1,0],[2,0],[0]]","16","0","","","","","","5","","","","","","","","",""
"","","","","","single-stim-button","274","466926","0.0-2.0-59.0-1.0","5fbe98e0e2bc9703bfd640d7","E1","batch5","","1871","tol_toboard","","","","tol_peg_3","1871","1871","0","[[1,2,0],[0,0],[3]]","1","[[3,1,0],[2,0],[0]]","16","0","","","","","","5","","","","","","","","",""
"","","","","","single-stim-button","275","467542","0.0-2.0-59.1-0.1","5fbe98e0e2bc9703bfd640d7","E1","batch5","","615","tol_tohand","","","","tol_peg_1","615","615","0","[[1,0,0],[0,0],[3]]","2","[[3,1,0],[2,0],[0]]","16","0","","","","","","5","","","","","","","","",""
"","","","","","single-stim-button","276","468142","0.0-2.0-59.1-1.1","5fbe98e0e2bc9703bfd640d7","E1","batch5","","599","tol_toboard","","","","tol_peg_2","599","599","0","[[1,0,0],[2,0],[3]]","2","[[3,1,0],[2,0],[0]]","16","0","","","","","","5","","","","","","","","",""
"","","","","","single-stim-button","277","468542","0.0-2.0-59.2-0.2","5fbe98e0e2bc9703bfd640d7","E1","batch5","","399","tol_tohand","","","","tol_peg_1","399","399","0","[[0,0,0],[2,0],[3]]","3","[[3,1,0],[2,0],[0]]","16","0","","","","","","5","","","","","","","","",""
"","","","","","single-stim-button","278","468871","0.0-2.0-59.2-1.2","5fbe98e0e2bc9703bfd640d7","E1","batch5","","327","tol_toboard","","","","tol_peg_2","327","327","0","[[0,0,0],[2,1],[3]]","3","[[3,1,0],[2,0],[0]]","16","0","","","","","","5","","","","","","","","",""
"","","","","","single-stim-button","279","469271","0.0-2.0-59.3-0.3","5fbe98e0e2bc9703bfd640d7","E1","batch5","","400","tol_tohand","","","","tol_peg_3","400","400","0","[[0,0,0],[2,1],[0]]","4","[[3,1,0],[2,0],[0]]","16","0","","","","","","5","","","","","","","","",""
"","","","","","single-stim-button","280","469766","0.0-2.0-59.3-1.3","5fbe98e0e2bc9703bfd640d7","E1","batch5","","495","tol_toboard","","","","tol_peg_1","495","495","0","[[3,0,0],[2,1],[0]]","4","[[3,1,0],[2,0],[0]]","16","0","","","","","","5","","","","","","","","",""
"","","","","","single-stim-button","281","470374","0.0-2.0-59.4-0.4","5fbe98e0e2bc9703bfd640d7","E1","batch5","","607","tol_tohand","","","","tol_peg_2","607","607","0","[[3,0,0],[2,0],[0]]","5","[[3,1,0],[2,0],[0]]","16","0","","","","","","5","","","","","","","","",""
"","","","","","single-stim-button","282","470734","0.0-2.0-59.4-1.4","5fbe98e0e2bc9703bfd640d7","E1","batch5","","359","tol_toboard","","","","tol_peg_1","359","359","0","[[3,1,0],[2,0],[0]]","5","[[3,1,0],[2,0],[0]]","16","0","","","","","","5","","","","","","","","",""
"","","","","","poldrack-single-stim","283","471736","0.0-2.0-60.0","5fbe98e0e2bc9703bfd640d7","E1","batch5","","-1","tol_feedback","","","true","","1000","1000","500","","","","","","-1","none","true","3911","5932","","","","","","","","","",""
"","","","","","html-button-response","284","472638","0.0-2.0-61.0","5fbe98e0e2bc9703bfd640d7","E1","batch5","","902","tol_trial_num","<div class = centerbox><p class = center-block-text>problem <strong>18</strong> out of 25 problems</p></div>","0","","","","","","","","","","","","","","","","","","","","","","","","",""
"","","","","","single-stim-button","285","476886","0.0-2.0-62.0-0.0","5fbe98e0e2bc9703bfd640d7","E1","batch5","","4247","tol_tohand","","","","tol_peg_1","4247","4247","0","[[1,0,0],[3,0],[0]]","1","[[3,0,0],[2,0],[1]]","17","0","","","","","","5","","","","","","","","",""
"","","","","","single-stim-button","286","477367","0.0-2.0-62.0-1.0","5fbe98e0e2bc9703bfd640d7","E1","batch5","","479","tol_toboard","","","","tol_peg_2","479","479","0","[[1,0,0],[3,2],[0]]","1","[[3,0,0],[2,0],[1]]","17","0","","","","","","5","","","","","","","","",""
"","","","","","single-stim-button","287","477727","0.0-2.0-62.1-0.1","5fbe98e0e2bc9703bfd640d7","E1","batch5","","360","tol_tohand","","","","tol_peg_1","360","360","0","[[0,0,0],[3,2],[0]]","2","[[3,0,0],[2,0],[1]]","17","0","","","","","","5","","","","","","","","",""
"","","","","","single-stim-button","288","478527","0.0-2.0-62.1-1.1","5fbe98e0e2bc9703bfd640d7","E1","batch5","","799","tol_toboard","","","","tol_peg_3","799","799","0","[[0,0,0],[3,2],[1]]","2","[[3,0,0],[2,0],[1]]","17","0","","","","","","5","","","","","","","","",""
"","","","","","single-stim-button","289","479167","0.0-2.0-62.2-0.2","5fbe98e0e2bc9703bfd640d7","E1","batch5","","639","tol_tohand","","","","tol_peg_2","639","639","0","[[0,0,0],[3,0],[1]]","3","[[3,0,0],[2,0],[1]]","17","0","","","","","","5","","","","","","","","",""
"","","","","","single-stim-button","290","480966","0.0-2.0-62.2-1.2","5fbe98e0e2bc9703bfd640d7","E1","batch5","","1799","tol_toboard","","","","tol_peg_1","1799","1799","0","[[2,0,0],[3,0],[1]]","3","[[3,0,0],[2,0],[1]]","17","0","","","","","","5","","","","","","","","",""
"","","","","","single-stim-button","291","481454","0.0-2.0-62.3-0.3","5fbe98e0e2bc9703bfd640d7","E1","batch5","","487","tol_tohand","","","","tol_peg_2","487","487","0","[[2,0,0],[0,0],[1]]","4","[[3,0,0],[2,0],[1]]","17","0","","","","","","5","","","","","","","","",""
"","","","","","single-stim-button","292","483182","0.0-2.0-62.3-1.3","5fbe98e0e2bc9703bfd640d7","E1","batch5","","1728","tol_toboard","","","","tol_peg_1","1728","1728","0","[[2,3,0],[0,0],[1]]","4","[[3,0,0],[2,0],[1]]","17","0","","","","","","5","","","","","","","","",""
"","","","","","single-stim-button","293","483598","0.0-2.0-62.4-0.4","5fbe98e0e2bc9703bfd640d7","E1","batch5","","416","tol_tohand","","","","tol_peg_3","416","416","0","[[2,3,0],[0,0],[0]]","5","[[3,0,0],[2,0],[1]]","17","0","","","","","","5","","","","","","","","",""
"","","","","","single-stim-button","294","484094","0.0-2.0-62.4-1.4","5fbe98e0e2bc9703bfd640d7","E1","batch5","","495","tol_toboard","","","","tol_peg_2","495","495","0","[[2,3,0],[1,0],[0]]","5","[[3,0,0],[2,0],[1]]","17","0","","","","","","5","","","","","","","","",""
"","","","","","single-stim-button","295","484894","0.0-2.0-62.5-0.5","5fbe98e0e2bc9703bfd640d7","E1","batch5","","800","tol_tohand","","","","tol_peg_1","800","800","0","[[2,0,0],[1,0],[0]]","6","[[3,0,0],[2,0],[1]]","17","0","","","","","","5","","","","","","","","",""
"","","","","","single-stim-button","296","500662","0.0-2.0-62.5-1.5","5fbe98e0e2bc9703bfd640d7","E1","batch5","","15768","tol_toboard","","","","tol_peg_2","15768","15768","0","[[2,0,0],[1,3],[0]]","6","[[3,0,0],[2,0],[1]]","17","0","","","","","","5","","","","","","","","",""
"","","","","","single-stim-button","297","501126","0.0-2.0-62.6-0.6","5fbe98e0e2bc9703bfd640d7","E1","batch5","","463","tol_tohand","","","","tol_peg_1","463","463","0","[[0,0,0],[1,3],[0]]","7","[[3,0,0],[2,0],[1]]","17","0","","","","","","5","","","","","","","","",""
"","","","","","single-stim-button","298","501550","0.0-2.0-62.6-1.6","5fbe98e0e2bc9703bfd640d7","E1","batch5","","423","tol_toboard","","","","tol_peg_3","423","423","0","[[0,0,0],[1,3],[2]]","7","[[3,0,0],[2,0],[1]]","17","0","","","","","","5","","","","","","","","",""
"","","","","","single-stim-button","299","501998","0.0-2.0-62.7-0.7","5fbe98e0e2bc9703bfd640d7","E1","batch5","","447","tol_tohand","","","","tol_peg_2","447","447","0","[[0,0,0],[1,0],[2]]","8","[[3,0,0],[2,0],[1]]","17","0","","","","","","5","","","","","","","","",""
"","","","","","single-stim-button","300","502438","0.0-2.0-62.7-1.7","5fbe98e0e2bc9703bfd640d7","E1","batch5","","440","tol_toboard","","","","tol_peg_1","440","440","0","[[3,0,0],[1,0],[2]]","8","[[3,0,0],[2,0],[1]]","17","0","","","","","","5","","","","","","","","",""
"","","","","","single-stim-button","301","502847","0.0-2.0-62.8-0.8","5fbe98e0e2bc9703bfd640d7","E1","batch5","","408","tol_tohand","","","","tol_peg_2","408","408","0","[[3,0,0],[0,0],[2]]","9","[[3,0,0],[2,0],[1]]","17","0","","","","","","5","","","","","","","","",""
"","","","","","single-stim-button","302","503142","0.0-2.0-62.8-1.8","5fbe98e0e2bc9703bfd640d7","E1","batch5","","295","tol_toboard","","","","tol_peg_1","295","295","0","[[3,1,0],[0,0],[2]]","9","[[3,0,0],[2,0],[1]]","17","0","","","","","","5","","","","","","","","",""
"","","","","","single-stim-button","303","504159","0.0-2.0-62.9-0.9","5fbe98e0e2bc9703bfd640d7","E1","batch5","","1016","tol_tohand","","","","tol_peg_3","1016","1016","0","[[3,1,0],[0,0],[0]]","10","[[3,0,0],[2,0],[1]]","17","0","","","","","","5","","","","","","","","",""
"","","","","","single-stim-button","304","504414","0.0-2.0-62.9-1.9","5fbe98e0e2bc9703bfd640d7","E1","batch5","","255","tol_toboard","","","","tol_peg_2","255","255","0","[[3,1,0],[2,0],[0]]","10","[[3,0,0],[2,0],[1]]","17","0","","","","","","5","","","","","","","","",""
"","","","","","single-stim-button","305","505550","0.0-2.0-62.10-0.10","5fbe98e0e2bc9703bfd640d7","E1","batch5","","1136","tol_tohand","","","","tol_peg_1","1136","1136","0","[[3,0,0],[2,0],[0]]","11","[[3,0,0],[2,0],[1]]","17","0","","","","","","5","","","","","","","","",""
"","","","","","single-stim-button","306","505990","0.0-2.0-62.10-1.10","5fbe98e0e2bc9703bfd640d7","E1","batch5","","440","tol_toboard","","","","tol_peg_3","440","440","0","[[3,0,0],[2,0],[1]]","11","[[3,0,0],[2,0],[1]]","17","0","","","","","","5","","","","","","","","",""
"","","","","","poldrack-single-stim","307","507000","0.0-2.0-63.0","5fbe98e0e2bc9703bfd640d7","E1","batch5","","-1","tol_feedback","","","true","","1000","1000","500","","","","","","-1","none","true","4247","10419","","","","","","","","","",""
"","","","","","html-button-response","308","508054","0.0-2.0-64.0","5fbe98e0e2bc9703bfd640d7","E1","batch5","","1054.2999999523163","tol_trial_num","<div class = centerbox><p class = center-block-text>problem <strong>19</strong> out of 25 problems</p></div>","0","","","","","","","","","","","","","","","","","","","","","","","","",""
"","","","","","single-stim-button","309","513150","0.0-2.0-65.0-0.0","5fbe98e0e2bc9703bfd640d7","E1","batch5","","5095","tol_tohand","","","","tol_peg_1","5095","5095","0","[[1,0,0],[3,0],[0]]","1","[[0,0,0],[1,2],[3]]","18","0","","","","","","7","","","","","","","","",""
"","","","","","single-stim-button","310","520190","0.0-2.0-65.0-1.0","5fbe98e0e2bc9703bfd640d7","E1","batch5","","7039","tol_toboard","","","","tol_peg_2","7039","7039","0","[[1,0,0],[3,2],[0]]","1","[[0,0,0],[1,2],[3]]","18","0","","","","","","7","","","","","","","","",""
"","","","","","single-stim-button","311","520702","0.0-2.0-65.1-0.1","5fbe98e0e2bc9703bfd640d7","E1","batch5","","511","tol_tohand","","","","tol_peg_1","511","511","0","[[0,0,0],[3,2],[0]]","2","[[0,0,0],[1,2],[3]]","18","0","","","","","","7","","","","","","","","",""
"","","","","","single-stim-button","312","521246","0.0-2.0-65.1-1.1","5fbe98e0e2bc9703bfd640d7","E1","batch5","","544","tol_toboard","","","","tol_peg_3","544","544","0","[[0,0,0],[3,2],[1]]","2","[[0,0,0],[1,2],[3]]","18","0","","","","","","7","","","","","","","","",""
"","","","","","single-stim-button","313","521694","0.0-2.0-65.2-0.2","5fbe98e0e2bc9703bfd640d7","E1","batch5","","448","tol_tohand","","","","tol_peg_2","448","448","0","[[0,0,0],[3,0],[1]]","3","[[0,0,0],[1,2],[3]]","18","0","","","","","","7","","","","","","","","",""
"","","","","","single-stim-button","314","522302","0.0-2.0-65.2-1.2","5fbe98e0e2bc9703bfd640d7","E1","batch5","","608","tol_toboard","","","","tol_peg_1","608","608","0","[[2,0,0],[3,0],[1]]","3","[[0,0,0],[1,2],[3]]","18","0","","","","","","7","","","","","","","","",""
"","","","","","single-stim-button","315","522678","0.0-2.0-65.3-0.3","5fbe98e0e2bc9703bfd640d7","E1","batch5","","375","tol_tohand","","","","tol_peg_2","375","375","0","[[2,0,0],[0,0],[1]]","4","[[0,0,0],[1,2],[3]]","18","0","","","","","","7","","","","","","","","",""
"","","","","","single-stim-button","316","523062","0.0-2.0-65.3-1.3","5fbe98e0e2bc9703bfd640d7","E1","batch5","","384","tol_toboard","","","","tol_peg_1","384","384","0","[[2,3,0],[0,0],[1]]","4","[[0,0,0],[1,2],[3]]","18","0","","","","","","7","","","","","","","","",""
"","","","","","single-stim-button","317","523478","0.0-2.0-65.4-0.4","5fbe98e0e2bc9703bfd640d7","E1","batch5","","415","tol_tohand","","","","tol_peg_3","415","415","0","[[2,3,0],[0,0],[0]]","5","[[0,0,0],[1,2],[3]]","18","0","","","","","","7","","","","","","","","",""
"","","","","","single-stim-button","318","523846","0.0-2.0-65.4-1.4","5fbe98e0e2bc9703bfd640d7","E1","batch5","","367","tol_toboard","","","","tol_peg_2","367","367","0","[[2,3,0],[1,0],[0]]","5","[[0,0,0],[1,2],[3]]","18","0","","","","","","7","","","","","","","","",""
"","","","","","single-stim-button","319","525174","0.0-2.0-65.5-0.5","5fbe98e0e2bc9703bfd640d7","E1","batch5","","1328","tol_tohand","","","","tol_peg_1","1328","1328","0","[[2,0,0],[1,0],[0]]","6","[[0,0,0],[1,2],[3]]","18","0","","","","","","7","","","","","","","","",""
"","","","","","single-stim-button","320","525639","0.0-2.0-65.5-1.5","5fbe98e0e2bc9703bfd640d7","E1","batch5","","463","tol_toboard","","","","tol_peg_3","463","463","0","[[2,0,0],[1,0],[3]]","6","[[0,0,0],[1,2],[3]]","18","0","","","","","","7","","","","","","","","",""
"","","","","","single-stim-button","321","526375","0.0-2.0-65.6-0.6","5fbe98e0e2bc9703bfd640d7","E1","batch5","","736","tol_tohand","","","","tol_peg_1","736","736","0","[[0,0,0],[1,0],[3]]","7","[[0,0,0],[1,2],[3]]","18","0","","","","","","7","","","","","","","","",""
"","","","","","single-stim-button","322","527030","0.0-2.0-65.6-1.6","5fbe98e0e2bc9703bfd640d7","E1","batch5","","655","tol_toboard","","","","tol_peg_2","655","655","0","[[0,0,0],[1,2],[3]]","7","[[0,0,0],[1,2],[3]]","18","0","","","","","","7","","","","","","","","",""
"","","","","","poldrack-single-stim","323","528043","0.0-2.0-66.0","5fbe98e0e2bc9703bfd640d7","E1","batch5","","-1","tol_feedback","","","true","","1000","1000","500","","","","","","-1","none","true","5095","8908","","","","","","","","","",""
"","","","","","html-button-response","324","528854","0.0-2.0-67.0","5fbe98e0e2bc9703bfd640d7","E1","batch5","","810.1000000238419","tol_trial_num","<div class = centerbox><p class = center-block-text>problem <strong>20</strong> out of 25 problems</p></div>","0","","","","","","","","","","","","","","","","","","","","","","","","",""
"","","","","","single-stim-button","325","534902","0.0-2.0-68.0-0.0","5fbe98e0e2bc9703bfd640d7","E1","batch5","","6048","tol_tohand","","","","tol_peg_1","6048","6048","0","[[1,0,0],[3,0],[0]]","1","[[2,1,0],[0,0],[3]]","19","0","","","","","","5","","","","","","","","",""
"","","","","","single-stim-button","326","537726","0.0-2.0-68.0-1.0","5fbe98e0e2bc9703bfd640d7","E1","batch5","","2824","tol_toboard","","","","tol_peg_2","2824","2824","0","[[1,0,0],[3,2],[0]]","1","[[2,1,0],[0,0],[3]]","19","0","","","","","","5","","","","","","","","",""
"","","","","","single-stim-button","327","538334","0.0-2.0-68.1-0.1","5fbe98e0e2bc9703bfd640d7","E1","batch5","","608","tol_tohand","","","","tol_peg_1","608","608","0","[[0,0,0],[3,2],[0]]","2","[[2,1,0],[0,0],[3]]","19","0","","","","","","5","","","","","","","","",""
"","","","","","single-stim-button","328","538902","0.0-2.0-68.1-1.1","5fbe98e0e2bc9703bfd640d7","E1","batch5","","567","tol_toboard","","","","tol_peg_3","567","567","0","[[0,0,0],[3,2],[1]]","2","[[2,1,0],[0,0],[3]]","19","0","","","","","","5","","","","","","","","",""
"","","","","","single-stim-button","329","539814","0.0-2.0-68.2-0.2","5fbe98e0e2bc9703bfd640d7","E1","batch5","","912","tol_tohand","","","","tol_peg_2","912","912","0","[[0,0,0],[3,0],[1]]","3","[[2,1,0],[0,0],[3]]","19","0","","","","","","5","","","","","","","","",""
"","","","","","single-stim-button","330","540422","0.0-2.0-68.2-1.2","5fbe98e0e2bc9703bfd640d7","E1","batch5","","607","tol_toboard","","","","tol_peg_1","607","607","0","[[2,0,0],[3,0],[1]]","3","[[2,1,0],[0,0],[3]]","19","0","","","","","","5","","","","","","","","",""
"","","","","","single-stim-button","331","540974","0.0-2.0-68.3-0.3","5fbe98e0e2bc9703bfd640d7","E1","batch5","","552","tol_tohand","","","","tol_peg_3","552","552","0","[[2,0,0],[3,0],[0]]","4","[[2,1,0],[0,0],[3]]","19","0","","","","","","5","","","","","","","","",""
"","","","","","single-stim-button","332","541502","0.0-2.0-68.3-1.3","5fbe98e0e2bc9703bfd640d7","E1","batch5","","528","tol_toboard","","","","tol_peg_1","528","528","0","[[2,1,0],[3,0],[0]]","4","[[2,1,0],[0,0],[3]]","19","0","","","","","","5","","","","","","","","",""
"","","","","","single-stim-button","333","541926","0.0-2.0-68.4-0.4","5fbe98e0e2bc9703bfd640d7","E1","batch5","","424","tol_tohand","","","","tol_peg_2","424","424","0","[[2,1,0],[0,0],[0]]","5","[[2,1,0],[0,0],[3]]","19","0","","","","","","5","","","","","","","","",""
"","","","","","single-stim-button","334","542671","0.0-2.0-68.4-1.4","5fbe98e0e2bc9703bfd640d7","E1","batch5","","745","tol_toboard","","","","tol_peg_3","745","745","0","[[2,1,0],[0,0],[3]]","5","[[2,1,0],[0,0],[3]]","19","0","","","","","","5","","","","","","","","",""
"","","","","","poldrack-single-stim","335","543673","0.0-2.0-69.0","5fbe98e0e2bc9703bfd640d7","E1","batch5","","-1","tol_feedback","","","true","","1000","1000","500","","","","","","-1","none","true","6048","8544","","","","","","","","","",""
"","","","","","html-button-response","336","544582","0.0-2.0-70.0","5fbe98e0e2bc9703bfd640d7","E1","batch5","","909","tol_trial_num","<div class = centerbox><p class = center-block-text>problem <strong>21</strong> out of 25 problems</p></div>","0","","","","","","","","","","","","","","","","","","","","","","","","",""
"","","","","","single-stim-button","337","567214","0.0-2.0-71.0-0.0","5fbe98e0e2bc9703bfd640d7","E1","batch5","","22631","tol_tohand","","","","tol_peg_2","22631","22631","0","[[1,2,0],[0,0],[0]]","1","[[3,2,0],[0,0],[1]]","20","0","","","","","","6","","","","","","","","",""
"","","","","","single-stim-button","338","567934","0.0-2.0-71.0-1.0","5fbe98e0e2bc9703bfd640d7","E1","batch5","","720","tol_toboard","","","","tol_peg_3","720","720","0","[[1,2,0],[0,0],[3]]","1","[[3,2,0],[0,0],[1]]","20","0","","","","","","6","","","","","","","","",""
"","","","","","single-stim-button","339","568422","0.0-2.0-71.1-0.1","5fbe98e0e2bc9703bfd640d7","E1","batch5","","488","tol_tohand","","","","tol_peg_1","488","488","0","[[1,0,0],[0,0],[3]]","2","[[3,2,0],[0,0],[1]]","20","0","","","","","","6","","","","","","","","",""
"","","","","","single-stim-button","340","568846","0.0-2.0-71.1-1.1","5fbe98e0e2bc9703bfd640d7","E1","batch5","","424","tol_toboard","","","","tol_peg_2","424","424","0","[[1,0,0],[2,0],[3]]","2","[[3,2,0],[0,0],[1]]","20","0","","","","","","6","","","","","","","","",""
"","","","","","single-stim-button","341","569262","0.0-2.0-71.2-0.2","5fbe98e0e2bc9703bfd640d7","E1","batch5","","415","tol_tohand","","","","tol_peg_1","415","415","0","[[0,0,0],[2,0],[3]]","3","[[3,2,0],[0,0],[1]]","20","0","","","","","","6","","","","","","","","",""
"","","","","","single-stim-button","342","569638","0.0-2.0-71.2-1.2","5fbe98e0e2bc9703bfd640d7","E1","batch5","","376","tol_toboard","","","","tol_peg_2","376","376","0","[[0,0,0],[2,1],[3]]","3","[[3,2,0],[0,0],[1]]","20","0","","","","","","6","","","","","","","","",""
"","","","","","single-stim-button","343","570230","0.0-2.0-71.3-0.3","5fbe98e0e2bc9703bfd640d7","E1","batch5","","592","tol_tohand","","","","tol_peg_3","592","592","0","[[0,0,0],[2,1],[0]]","4","[[3,2,0],[0,0],[1]]","20","0","","","","","","6","","","","","","","","",""
"","","","","","single-stim-button","344","571094","0.0-2.0-71.3-1.3","5fbe98e0e2bc9703bfd640d7","E1","batch5","","864","tol_toboard","","","","tol_peg_1","864","864","0","[[3,0,0],[2,1],[0]]","4","[[3,2,0],[0,0],[1]]","20","0","","","","","","6","","","","","","","","",""
"","","","","","single-stim-button","345","571550","0.0-2.0-71.4-0.4","5fbe98e0e2bc9703bfd640d7","E1","batch5","","456","tol_tohand","","","","tol_peg_2","456","456","0","[[3,0,0],[2,0],[0]]","5","[[3,2,0],[0,0],[1]]","20","0","","","","","","6","","","","","","","","",""
"","","","","","single-stim-button","346","572126","0.0-2.0-71.4-1.4","5fbe98e0e2bc9703bfd640d7","E1","batch5","","576","tol_toboard","","","","tol_peg_3","576","576","0","[[3,0,0],[2,0],[1]]","5","[[3,2,0],[0,0],[1]]","20","0","","","","","","6","","","","","","","","",""
"","","","","","single-stim-button","347","572543","0.0-2.0-71.5-0.5","5fbe98e0e2bc9703bfd640d7","E1","batch5","","417","tol_tohand","","","","tol_peg_2","417","417","0","[[3,0,0],[0,0],[1]]","6","[[3,2,0],[0,0],[1]]","20","0","","","","","","6","","","","","","","","",""
"","","","","","single-stim-button","348","572974","0.0-2.0-71.5-1.5","5fbe98e0e2bc9703bfd640d7","E1","batch5","","431","tol_toboard","","","","tol_peg_1","431","431","0","[[3,2,0],[0,0],[1]]","6","[[3,2,0],[0,0],[1]]","20","0","","","","","","6","","","","","","","","",""
"","","","","","poldrack-single-stim","349","573976","0.0-2.0-72.0","5fbe98e0e2bc9703bfd640d7","E1","batch5","","-1","tol_feedback","","","true","","1000","1000","500","","","","","","-1","none","true","22631","24999","","","","","","","","","",""
"","","","","","html-button-response","350","574878","0.0-2.0-73.0","5fbe98e0e2bc9703bfd640d7","E1","batch5","","901.6999999284744","tol_trial_num","<div class = centerbox><p class = center-block-text>problem <strong>22</strong> out of 25 problems</p></div>","0","","","","","","","","","","","","","","","","","","","","","","","","",""
"","","","","","single-stim-button","351","582726","0.0-2.0-74.0-0.0","5fbe98e0e2bc9703bfd640d7","E1","batch5","","7848","tol_tohand","","","","tol_peg_2","7848","7848","0","[[1,0,0],[2,0],[0]]","1","[[0,0,0],[1,2],[3]]","21","0","","","","","","6","","","","","","","","",""
"","","","","","single-stim-button","352","590559","0.0-2.0-74.0-1.0","5fbe98e0e2bc9703bfd640d7","E1","batch5","","7831","tol_toboard","","","","tol_peg_1","7831","7831","0","[[1,3,0],[2,0],[0]]","1","[[0,0,0],[1,2],[3]]","21","0","","","","","","6","","","","","","","","",""
"","","","","","single-stim-button","353","590983","0.0-2.0-74.1-0.1","5fbe98e0e2bc9703bfd640d7","E1","batch5","","423","tol_tohand","","","","tol_peg_2","423","423","0","[[1,3,0],[0,0],[0]]","2","[[0,0,0],[1,2],[3]]","21","0","","","","","","6","","","","","","","","",""
"","","","","","single-stim-button","354","591558","0.0-2.0-74.1-1.1","5fbe98e0e2bc9703bfd640d7","E1","batch5","","575","tol_toboard","","","","tol_peg_3","575","575","0","[[1,3,0],[0,0],[2]]","2","[[0,0,0],[1,2],[3]]","21","0","","","","","","6","","","","","","","","",""
"","","","","","single-stim-button","355","592582","0.0-2.0-74.2-0.2","5fbe98e0e2bc9703bfd640d7","E1","batch5","","1023","tol_tohand","","","","tol_peg_1","1023","1023","0","[[1,0,0],[0,0],[2]]","3","[[0,0,0],[1,2],[3]]","21","0","","","","","","6","","","","","","","","",""
"","","","","","single-stim-button","356","597110","0.0-2.0-74.2-1.2","5fbe98e0e2bc9703bfd640d7","E1","batch5","","4528","tol_toboard","","","","tol_peg_2","4528","4528","0","[[1,0,0],[3,0],[2]]","3","[[0,0,0],[1,2],[3]]","21","0","","","","","","6","","","","","","","","",""
