"success","timeout","failed_images","failed_audio","failed_video","trial_type","trial_index","time_elapsed","internal_node_id","subject_id","study_id","session_id","view_history","rt","stimulus","response","task","correct","answer","item","fiar_detect_rt","fiar_detect_correct","total_correct_fiar_detect","post_trial_gap","choices","spm_correct","spm_rt","mouse_click","stim_duration","block_duration","timing_post_trial","current_position","tol_num_moves_made","tol_target","tol_problem_id","tol_rt","key_press","possible_responses","tol_correct","preplanning","tol_rt_per_trial","tol_min_moves"
"true","false","[]","[]","[]","preload","0","11024","0.0-0.0","5fc2c0cfdb80f9025c6b4810","D2","batch4","","","","","","","","","","","","","","","","","","","","","","","","","","","","","",""
"true","","","","","fullscreen","1","22350","0.0-1.0-0.0","5fc2c0cfdb80f9025c6b4810","D2","batch4","","","","","","","","","","","","","","","","","","","","","","","","","","","","","",""
"true","","","","","fullscreen","2","77255","0.0-2.0-0.0","5fc2c0cfdb80f9025c6b4810","D2","batch4","","","","","","","","","","","","","","","","","","","","","","","","","","","","","",""
"","","","","","instructions","3","107141","0.0-2.0-1.0-0.0","5fc2c0cfdb80f9025c6b4810","D2","batch4","[{""page_index"":0,""viewing_time"":11340.400000035763},{""page_index"":1,""viewing_time"":18543.899999976158}]","29884.5","","","","","","","","","","","","","","","","","","","","","","","","","","","",""
"","","","","","html-button-response","4","108283","0.0-2.0-1.0-1.0-0.0","5fc2c0cfdb80f9025c6b4810","D2","batch4","","1141.5","<p class=block-text> Let's answer a few questions <br>","0","pattern_enter_quiz","","","","","","","","","","","","","","","","","","","","","","","","",""
"","","","","","html-button-response","5","110223","0.0-2.0-1.0-1.0-1.0","5fc2c0cfdb80f9025c6b4810","D2","batch4","","1938.5","<p class = block-text>True or False: You will have as much time as you want to make each choice. <br></p>","1","pattern_quiz","true","","","","","","","","","","","","","","","","","","","","","","","",""
"","","","","","html-button-response","6","111339","0.0-2.0-1.0-1.0-2.0","5fc2c0cfdb80f9025c6b4810","D2","batch4","","1114.199999988079","<p class = block-text>Correct! You should make your choice <strong> as fast as you can</strong>.</p>","0","pattern_quiz_feedback","","","","","","","","","","","","","","","","","","","","","","","","",""
"","","","","","html-button-response","7","114995","0.0-2.0-1.0-1.0-3.0","5fc2c0cfdb80f9025c6b4810","D2","batch4","","3654.900000035763","<p class = block-text>True or False: You will look for 4 pieces in black or white color connected in a row either horizontally, vertically or diagonally. <br></p>","0","pattern_quiz","true","","","","","","","","","","","","","","","","","","","","","","","",""
"","","","","","html-button-response","8","116679","0.0-2.0-1.0-1.0-4.0","5fc2c0cfdb80f9025c6b4810","D2","batch4","","1682.800000011921","<p class = block-text>Correct! </p>","0","pattern_quiz_feedback","","","","","","","","","","","","","","","","","","","","","","","","",""
"","","","","","html-button-response","9","124197","0.0-2.0-2.0","5fc2c0cfdb80f9025c6b4810","D2","batch4","","7515.5","<p class=block-text> Now that you've understood the game, let's do a few practice trials before we start!<br> <br>","0","pattern_enter_practice","","","","","","","","","","","","","","","","","","","","","","","","",""
"","","","","","image-keyboard-response","10","127977","0.0-2.0-3.0-0.0","5fc2c0cfdb80f9025c6b4810","D2","batch4","","3778.300000011921","stim/prac_no_16_1.png","j","pattern_practice","true","j","","","","","","","","","","","","","","","","","","","","","","",""
"","","","","","html-keyboard-response","11","129009","0.0-2.0-3.0-1.0","5fc2c0cfdb80f9025c6b4810","D2","batch4","","null","<p style=""font-size:30px;color:green;"">Correct!</p>","null","pattern_feedback","","","","","","","","","","","","","","","","","","","","","","","","",""
"","","","","","image-keyboard-response","12","131172","0.0-2.0-3.0-0.1","5fc2c0cfdb80f9025c6b4810","D2","batch4","","2162","stim/prac_yes_20_dia_b1.png","f","pattern_practice","true","f","","","","","","","","","","","","","","","","","","","","","","",""
"","","","","","html-keyboard-response","13","132185","0.0-2.0-3.0-1.1","5fc2c0cfdb80f9025c6b4810","D2","batch4","","null","<p style=""font-size:30px;color:green;"">Correct!</p>","null","pattern_feedback","","","","","","","","","","","","","","","","","","","","","","","","",""
"","","","","","image-keyboard-response","14","133255","0.0-2.0-3.0-0.2","5fc2c0cfdb80f9025c6b4810","D2","batch4","","1068.699999988079","stim/prac_yes_16_ver_w1.png","f","pattern_practice","true","f","","","","","","","","","","","","","","","","","","","","","","",""
"","","","","","html-keyboard-response","15","134274","0.0-2.0-3.0-1.2","5fc2c0cfdb80f9025c6b4810","D2","batch4","","null","<p style=""font-size:30px;color:green;"">Correct!</p>","null","pattern_feedback","","","","","","","","","","","","","","","","","","","","","","","","",""
"","","","","","image-keyboard-response","16","135230","0.0-2.0-3.0-0.3","5fc2c0cfdb80f9025c6b4810","D2","batch4","","955","stim/prac_yes_18_hor_w1.png","f","pattern_practice","true","f","","","","","","","","","","","","","","","","","","","","","","",""
"","","","","","html-keyboard-response","17","136239","0.0-2.0-3.0-1.3","5fc2c0cfdb80f9025c6b4810","D2","batch4","","null","<p style=""font-size:30px;color:green;"">Correct!</p>","null","pattern_feedback","","","","","","","","","","","","","","","","","","","","","","","","",""
"","","","","","image-keyboard-response","18","137133","0.0-2.0-3.0-0.4","5fc2c0cfdb80f9025c6b4810","D2","batch4","","892.4000000357628","stim/prac_no_18_1.png","j","pattern_practice","true","j","","","","","","","","","","","","","","","","","","","","","","",""
"","","","","","html-keyboard-response","19","138146","0.0-2.0-3.0-1.4","5fc2c0cfdb80f9025c6b4810","D2","batch4","","null","<p style=""font-size:30px;color:green;"">Correct!</p>","null","pattern_feedback","","","","","","","","","","","","","","","","","","","","","","","","",""
"","","","","","html-button-response","20","158322","0.0-2.0-4.0","5fc2c0cfdb80f9025c6b4810","D2","batch4","","20175.099999964237","<p class=block-text> Good job! You are done with practice trials!<br>
        You responded correctly on 100% of the trials.<br>
        Press the button below to start official trials. Now you won't see any feedback about your response</p>","0","pattern_enter_official_trials","","","","","","","","","","","","","","","","","","","","","","","","",""
"","","","","","html-keyboard-response","21","159130","0.0-2.0-5.0-0.0","5fc2c0cfdb80f9025c6b4810","D2","batch4","","null","<p class=block-text>Trial 1 out of 78</p>","null","pattern_show_trial_num","","","","","","","","","","","","","","","","","","","","","","","","",""
"","","","","","image-keyboard-response","22","160506","0.0-2.0-5.0-1.0","5fc2c0cfdb80f9025c6b4810","D2","batch4","","1374.0999999642372","stim/no_58_1_w.png","f","pattern_response","false","j","pattern_35","1374.0999999642372","false","0","","","","","","","","","","","","","","","","","","",""
"","","","","","html-keyboard-response","23","161840","0.0-2.0-5.0-0.1","5fc2c0cfdb80f9025c6b4810","D2","batch4","","null","<p class=block-text>Trial 2 out of 78</p>","null","pattern_show_trial_num","","","","","","","","","","","","","","","","","","","","","","","","",""
"","","","","","image-keyboard-response","24","164347","0.0-2.0-5.0-1.1","5fc2c0cfdb80f9025c6b4810","D2","batch4","","2506.699999988079","stim/no_49_2_b.png","j","pattern_response","true","j","pattern_29","2506.699999988079","true","1","","","","","","","","","","","","","","","","","","",""
"","","","","","html-keyboard-response","25","165660","0.0-2.0-5.0-0.2","5fc2c0cfdb80f9025c6b4810","D2","batch4","","null","<p class=block-text>Trial 3 out of 78</p>","null","pattern_show_trial_num","","","","","","","","","","","","","","","","","","","","","","","","",""
"","","","","","image-keyboard-response","26","168130","0.0-2.0-5.0-1.2","5fc2c0cfdb80f9025c6b4810","D2","batch4","","2468.199999988079","stim/no_51_1.png","j","pattern_response","true","j","pattern_31","2468.199999988079","true","2","","","","","","","","","","","","","","","","","","",""
"","","","","","html-keyboard-response","27","169469","0.0-2.0-5.0-0.3","5fc2c0cfdb80f9025c6b4810","D2","batch4","","null","<p class=block-text>Trial 4 out of 78</p>","null","pattern_show_trial_num","","","","","","","","","","","","","","","","","","","","","","","","",""
"","","","","","image-keyboard-response","28","171585","0.0-2.0-5.0-1.3","5fc2c0cfdb80f9025c6b4810","D2","batch4","","2114.600000023842","stim/no_25_1_b.png","j","pattern_response","true","j","pattern_09","2114.600000023842","true","3","","","","","","","","","","","","","","","","","","",""
"","","","","","html-keyboard-response","29","172908","0.0-2.0-5.0-0.4","5fc2c0cfdb80f9025c6b4810","D2","batch4","","null","<p class=block-text>Trial 5 out of 78</p>","null","pattern_show_trial_num","","","","","","","","","","","","","","","","","","","","","","","","",""
"","","","","","image-keyboard-response","30","173703","0.0-2.0-5.0-1.4","5fc2c0cfdb80f9025c6b4810","D2","batch4","","794.3999999761581","stim/yes_37_hor_w1_w.png","f","pattern_response","true","f","pattern_60","794.3999999761581","true","4","","","","","","","","","","","","","","","","","","",""
"","","","","","html-keyboard-response","31","175020","0.0-2.0-5.0-0.5","5fc2c0cfdb80f9025c6b4810","D2","batch4","","null","<p class=block-text>Trial 6 out of 78</p>","null","pattern_show_trial_num","","","","","","","","","","","","","","","","","","","","","","","","",""
"","","","","","image-keyboard-response","32","175821","0.0-2.0-5.0-1.5","5fc2c0cfdb80f9025c6b4810","D2","batch4","","800.2000000476837","stim/yes_17_ver_b1_b.png","f","pattern_response","true","f","pattern_46","800.2000000476837","true","5","","","","","","","","","","","","","","","","","","",""
"","","","","","html-keyboard-response","33","177144","0.0-2.0-5.0-0.6","5fc2c0cfdb80f9025c6b4810","D2","batch4","","null","<p class=block-text>Trial 7 out of 78</p>","null","pattern_show_trial_num","","","","","","","","","","","","","","","","","","","","","","","","",""
"","","","","","image-keyboard-response","34","179379","0.0-2.0-5.0-1.6","5fc2c0cfdb80f9025c6b4810","D2","batch4","","2234.199999988079","stim/no_43_2_b.png","j","pattern_response","true","j","pattern_23","2234.199999988079","true","6","","","","","","","","","","","","","","","","","","",""
"","","","","","html-keyboard-response","35","180697","0.0-2.0-5.0-0.7","5fc2c0cfdb80f9025c6b4810","D2","batch4","","null","<p class=block-text>Trial 8 out of 78</p>","null","pattern_show_trial_num","","","","","","","","","","","","","","","","","","","","","","","","",""
"","","","","","image-keyboard-response","36","181833","0.0-2.0-5.0-1.7","5fc2c0cfdb80f9025c6b4810","D2","batch4","","1135","stim/no_12_1.png","j","pattern_response","true","j","pattern_01","1135","true","7","","","","","","","","","","","","","","","","","","",""
"","","","","","html-keyboard-response","37","183149","0.0-2.0-5.0-0.8","5fc2c0cfdb80f9025c6b4810","D2","batch4","","null","<p class=block-text>Trial 9 out of 78</p>","null","pattern_show_trial_num","","","","","","","","","","","","","","","","","","","","","","","","",""
"","","","","","image-keyboard-response","38","184706","0.0-2.0-5.0-1.8","5fc2c0cfdb80f9025c6b4810","D2","batch4","","1556.5","stim/no_22_1_b.png","j","pattern_response","true","j","pattern_07","1556.5","true","8","","","","","","","","","","","","","","","","","","",""
"","","","","","html-keyboard-response","39","186024","0.0-2.0-5.0-0.9","5fc2c0cfdb80f9025c6b4810","D2","batch4","","null","<p class=block-text>Trial 10 out of 78</p>","null","pattern_show_trial_num","","","","","","","","","","","","","","","","","","","","","","","","",""
"","","","","","image-keyboard-response","40","187441","0.0-2.0-5.0-1.9","5fc2c0cfdb80f9025c6b4810","D2","batch4","","1416","stim/no_30_1_b.png","j","pattern_response","true","j","pattern_13","1416","true","9","","","","","","","","","","","","","","","","","","",""
"","","","","","html-keyboard-response","41","188747","0.0-2.0-5.0-0.10","5fc2c0cfdb80f9025c6b4810","D2","batch4","","null","<p class=block-text>Trial 11 out of 78</p>","null","pattern_show_trial_num","","","","","","","","","","","","","","","","","","","","","","","","",""
"","","","","","image-keyboard-response","42","189734","0.0-2.0-5.0-1.10","5fc2c0cfdb80f9025c6b4810","D2","batch4","","985.5","stim/yes_15_dia_b1u_b.png","f","pattern_response","true","f","pattern_44","985.5","true","10","","","","","","","","","","","","","","","","","","",""
"","","","","","html-keyboard-response","43","191036","0.0-2.0-5.0-0.11","5fc2c0cfdb80f9025c6b4810","D2","batch4","","null","<p class=block-text>Trial 12 out of 78</p>","null","pattern_show_trial_num","","","","","","","","","","","","","","","","","","","","","","","","",""
"","","","","","image-keyboard-response","44","193708","0.0-2.0-5.0-1.11","5fc2c0cfdb80f9025c6b4810","D2","batch4","","2671.399999976158","stim/yes_63_dia_b1.png","j","pattern_response","false","f","pattern_78","2671.399999976158","false","10","","","","","","","","","","","","","","","","","","",""
"","","","","","html-keyboard-response","45","195041","0.0-2.0-5.0-0.12","5fc2c0cfdb80f9025c6b4810","D2","batch4","","null","<p class=block-text>Trial 13 out of 78</p>","null","pattern_show_trial_num","","","","","","","","","","","","","","","","","","","","","","","","",""
"","","","","","image-keyboard-response","46","196504","0.0-2.0-5.0-1.12","5fc2c0cfdb80f9025c6b4810","D2","batch4","","1462.5","stim/no_15_1_w.png","j","pattern_response","true","j","pattern_03","1462.5","true","11","","","","","","","","","","","","","","","","","","",""
"","","","","","html-keyboard-response","47","197808","0.0-2.0-5.0-0.13","5fc2c0cfdb80f9025c6b4810","D2","batch4","","null","<p class=block-text>Trial 14 out of 78</p>","null","pattern_show_trial_num","","","","","","","","","","","","","","","","","","","","","","","","",""
"","","","","","image-keyboard-response","48","198933","0.0-2.0-5.0-1.13","5fc2c0cfdb80f9025c6b4810","D2","batch4","","1124.800000011921","stim/no_33_1_b.png","f","pattern_response","false","j","pattern_15","1124.800000011921","false","11","","","","","","","","","","","","","","","","","","",""
"","","","","","html-keyboard-response","49","200238","0.0-2.0-5.0-0.14","5fc2c0cfdb80f9025c6b4810","D2","batch4","","null","<p class=block-text>Trial 15 out of 78</p>","null","pattern_show_trial_num","","","","","","","","","","","","","","","","","","","","","","","","",""
"","","","","","image-keyboard-response","50","204012","0.0-2.0-5.0-1.14","5fc2c0cfdb80f9025c6b4810","D2","batch4","","3773.400000035763","stim/no_36_1_b.png","j","pattern_response","true","j","pattern_17","3773.400000035763","true","12","","","","","","","","","","","","","","","","","","",""
"","","","","","html-keyboard-response","51","205331","0.0-2.0-5.0-0.15","5fc2c0cfdb80f9025c6b4810","D2","batch4","","null","<p class=block-text>Trial 16 out of 78</p>","null","pattern_show_trial_num","","","","","","","","","","","","","","","","","","","","","","","","",""
"","","","","","image-keyboard-response","52","206605","0.0-2.0-5.0-1.15","5fc2c0cfdb80f9025c6b4810","D2","batch4","","1273.300000011921","stim/yes_46_ver_b1_b.png","f","pattern_response","true","f","pattern_68","1273.300000011921","true","13","","","","","","","","","","","","","","","","","","",""
"","","","","","html-keyboard-response","53","207919","0.0-2.0-5.0-0.16","5fc2c0cfdb80f9025c6b4810","D2","batch4","","null","<p class=block-text>Trial 17 out of 78</p>","null","pattern_show_trial_num","","","","","","","","","","","","","","","","","","","","","","","","",""
"","","","","","image-keyboard-response","54","210197","0.0-2.0-5.0-1.16","5fc2c0cfdb80f9025c6b4810","D2","batch4","","2276.800000011921","stim/no_47_1_b.png","j","pattern_response","true","j","pattern_27","2276.800000011921","true","14","","","","","","","","","","","","","","","","","","",""
"","","","","","html-keyboard-response","55","211510","0.0-2.0-5.0-0.17","5fc2c0cfdb80f9025c6b4810","D2","batch4","","null","<p class=block-text>Trial 18 out of 78</p>","null","pattern_show_trial_num","","","","","","","","","","","","","","","","","","","","","","","","",""
"","","","","","image-keyboard-response","56","212646","0.0-2.0-5.0-1.17","5fc2c0cfdb80f9025c6b4810","D2","batch4","","1133.699999988079","stim/yes_30_ver_b1_b.png","f","pattern_response","true","f","pattern_54","1133.699999988079","true","15","","","","","","","","","","","","","","","","","","",""
"","","","","","html-keyboard-response","57","213977","0.0-2.0-5.0-0.18","5fc2c0cfdb80f9025c6b4810","D2","batch4","","null","<p class=block-text>Trial 19 out of 78</p>","null","pattern_show_trial_num","","","","","","","","","","","","","","","","","","","","","","","","",""
"","","","","","image-keyboard-response","58","216698","0.0-2.0-5.0-1.18","5fc2c0cfdb80f9025c6b4810","D2","batch4","","2719.699999988079","stim/yes_44_ver_w1_w.png","f","pattern_response","true","f","pattern_66","2719.699999988079","true","16","","","","","","","","","","","","","","","","","","",""
"","","","","","html-keyboard-response","59","218011","0.0-2.0-5.0-0.19","5fc2c0cfdb80f9025c6b4810","D2","batch4","","null","<p class=block-text>Trial 20 out of 78</p>","null","pattern_show_trial_num","","","","","","","","","","","","","","","","","","","","","","","","",""
"","","","","","image-keyboard-response","60","221244","0.0-2.0-5.0-1.19","5fc2c0cfdb80f9025c6b4810","D2","batch4","","3232","stim/no_67_1.png","j","pattern_response","true","j","pattern_39","3232","true","17","","","","","","","","","","","","","","","","","","",""
"","","","","","html-keyboard-response","61","222568","0.0-2.0-5.0-0.20","5fc2c0cfdb80f9025c6b4810","D2","batch4","","null","<p class=block-text>Trial 21 out of 78</p>","null","pattern_show_trial_num","","","","","","","","","","","","","","","","","","","","","","","","",""
"","","","","","image-keyboard-response","62","223894","0.0-2.0-5.0-1.20","5fc2c0cfdb80f9025c6b4810","D2","batch4","","1324.5","stim/no_18_1_b.png","j","pattern_response","true","j","pattern_05","1324.5","true","18","","","","","","","","","","","","","","","","","","",""
"","","","","","html-keyboard-response","63","225220","0.0-2.0-5.0-0.21","5fc2c0cfdb80f9025c6b4810","D2","batch4","","null","<p class=block-text>Trial 22 out of 78</p>","null","pattern_show_trial_num","","","","","","","","","","","","","","","","","","","","","","","","",""
"","","","","","image-keyboard-response","64","226972","0.0-2.0-5.0-1.21","5fc2c0cfdb80f9025c6b4810","D2","batch4","","1750.3999999761581","stim/yes_26_dia_w2_w.png","j","pattern_response","false","f","pattern_50","1750.3999999761581","false","18","","","","","","","","","","","","","","","","","","",""
"","","","","","html-keyboard-response","65","228282","0.0-2.0-5.0-0.22","5fc2c0cfdb80f9025c6b4810","D2","batch4","","null","<p class=block-text>Trial 23 out of 78</p>","null","pattern_show_trial_num","","","","","","","","","","","","","","","","","","","","","","","","",""
"","","","","","image-keyboard-response","66","229065","0.0-2.0-5.0-1.22","5fc2c0cfdb80f9025c6b4810","D2","batch4","","782.1000000238419","stim/yes_12_hor_w1_w.png","f","pattern_response","true","f","pattern_42","782.1000000238419","true","19","","","","","","","","","","","","","","","","","","",""
"","","","","","html-keyboard-response","67","230382","0.0-2.0-5.0-0.23","5fc2c0cfdb80f9025c6b4810","D2","batch4","","null","<p class=block-text>Trial 24 out of 78</p>","null","pattern_show_trial_num","","","","","","","","","","","","","","","","","","","","","","","","",""
"","","","","","image-keyboard-response","68","231451","0.0-2.0-5.0-1.23","5fc2c0cfdb80f9025c6b4810","D2","batch4","","1067.800000011921","stim/yes_39_hor_w1_w.png","f","pattern_response","true","f","pattern_62","1067.800000011921","true","20","","","","","","","","","","","","","","","","","","",""
"","","","","","html-keyboard-response","69","232771","0.0-2.0-5.0-0.24","5fc2c0cfdb80f9025c6b4810","D2","batch4","","null","<p class=block-text>Trial 25 out of 78</p>","null","pattern_show_trial_num","","","","","","","","","","","","","","","","","","","","","","","","",""
"","","","","","image-keyboard-response","70","235250","0.0-2.0-5.0-1.24","5fc2c0cfdb80f9025c6b4810","D2","batch4","","2476.800000011921","stim/yes_49_hor_w1_b.png","f","pattern_response","true","f","pattern_70","2476.800000011921","true","21","","","","","","","","","","","","","","","","","","",""
"","","","","","html-keyboard-response","71","236561","0.0-2.0-5.0-0.25","5fc2c0cfdb80f9025c6b4810","D2","batch4","","null","<p class=block-text>Trial 26 out of 78</p>","null","pattern_show_trial_num","","","","","","","","","","","","","","","","","","","","","","","","",""
"","","","","","image-keyboard-response","72","239467","0.0-2.0-5.0-1.25","5fc2c0cfdb80f9025c6b4810","D2","batch4","","2905.199999988079","stim/yes_42_dia_w1_w.png","j","pattern_response","false","f","pattern_64","2905.199999988079","false","21","","","","","","","","","","","","","","","","","","",""
"","","","","","html-keyboard-response","73","240772","0.0-2.0-5.0-0.26","5fc2c0cfdb80f9025c6b4810","D2","batch4","","null","<p class=block-text>Trial 27 out of 78</p>","null","pattern_show_trial_num","","","","","","","","","","","","","","","","","","","","","","","","",""
"","","","","","image-keyboard-response","74","243003","0.0-2.0-5.0-1.26","5fc2c0cfdb80f9025c6b4810","D2","batch4","","2229.5","stim/yes_33_dia_w1_w.png","f","pattern_response","true","f","pattern_56","2229.5","true","22","","","","","","","","","","","","","","","","","","",""
"","","","","","html-keyboard-response","75","244331","0.0-2.0-5.0-0.27","5fc2c0cfdb80f9025c6b4810","D2","batch4","","null","<p class=block-text>Trial 28 out of 78</p>","null","pattern_show_trial_num","","","","","","","","","","","","","","","","","","","","","","","","",""
"","","","","","image-keyboard-response","76","246304","0.0-2.0-5.0-1.27","5fc2c0cfdb80f9025c6b4810","D2","batch4","","1972.2999999523163","stim/no_45_1_w.png","j","pattern_response","true","j","pattern_25","1972.2999999523163","true","23","","","","","","","","","","","","","","","","","","",""
"","","","","","html-keyboard-response","77","247622","0.0-2.0-5.0-0.28","5fc2c0cfdb80f9025c6b4810","D2","batch4","","null","<p class=block-text>Trial 29 out of 78</p>","null","pattern_show_trial_num","","","","","","","","","","","","","","","","","","","","","","","","",""
"","","","","","image-keyboard-response","78","249494","0.0-2.0-5.0-1.28","5fc2c0cfdb80f9025c6b4810","D2","batch4","","1873.199999988079","stim/no_39_1_w.png","j","pattern_response","true","j","pattern_21","1873.199999988079","true","24","","","","","","","","","","","","","","","","","","",""
"","","","","","html-keyboard-response","79","250810","0.0-2.0-5.0-0.29","5fc2c0cfdb80f9025c6b4810","D2","batch4","","null","<p class=block-text>Trial 30 out of 78</p>","null","pattern_show_trial_num","","","","","","","","","","","","","","","","","","","","","","","","",""
"","","","","","image-keyboard-response","80","252743","0.0-2.0-5.0-1.29","5fc2c0cfdb80f9025c6b4810","D2","batch4","","1930.8999999761581","stim/yes_51_dia_b1.png","j","pattern_response","false","f","pattern_72","1930.8999999761581","false","24","","","","","","","","","","","","","","","","","","",""
"","","","","","html-keyboard-response","81","254049","0.0-2.0-5.0-0.30","5fc2c0cfdb80f9025c6b4810","D2","batch4","","null","<p class=block-text>Trial 31 out of 78</p>","null","pattern_show_trial_num","","","","","","","","","","","","","","","","","","","","","","","","",""
"","","","","","image-keyboard-response","82","254964","0.0-2.0-5.0-1.30","5fc2c0cfdb80f9025c6b4810","D2","batch4","","914.8000000119209","stim/yes_36_ver_w1_w.png","f","pattern_response","true","f","pattern_58","914.8000000119209","true","25","","","","","","","","","","","","","","","","","","",""
"","","","","","html-keyboard-response","83","256267","0.0-2.0-5.0-0.31","5fc2c0cfdb80f9025c6b4810","D2","batch4","","null","<p class=block-text>Trial 32 out of 78</p>","null","pattern_show_trial_num","","","","","","","","","","","","","","","","","","","","","","","","",""
"","","","","","image-keyboard-response","84","257897","0.0-2.0-5.0-1.31","5fc2c0cfdb80f9025c6b4810","D2","batch4","","1629.800000011921","stim/yes_23_ver_b1.png","f","pattern_response","true","f","pattern_48","1629.800000011921","true","26","","","","","","","","","","","","","","","","","","",""
"","","","","","html-keyboard-response","85","259226","0.0-2.0-5.0-0.32","5fc2c0cfdb80f9025c6b4810","D2","batch4","","null","<p class=block-text>Trial 33 out of 78</p>","null","pattern_show_trial_num","","","","","","","","","","","","","","","","","","","","","","","","",""
"","","","","","image-keyboard-response","86","261570","0.0-2.0-5.0-1.32","5fc2c0cfdb80f9025c6b4810","D2","batch4","","2342.5","stim/yes_53_ver_b1_b.png","j","pattern_response","false","f","pattern_74","2342.5","false","26","","","","","","","","","","","","","","","","","","",""
"","","","","","html-keyboard-response","87","262882","0.0-2.0-5.0-0.33","5fc2c0cfdb80f9025c6b4810","D2","batch4","","null","<p class=block-text>Trial 34 out of 78</p>","null","pattern_show_trial_num","","","","","","","","","","","","","","","","","","","","","","","","",""
"","","","","","image-keyboard-response","88","264926","0.0-2.0-5.0-1.33","5fc2c0cfdb80f9025c6b4810","D2","batch4","","2042.8999999761581","stim/no_53_1_b.png","j","pattern_response","true","j","pattern_33","2042.8999999761581","true","27","","","","","","","","","","","","","","","","","","",""
"","","","","","html-keyboard-response","89","266242","0.0-2.0-5.0-0.34","5fc2c0cfdb80f9025c6b4810","D2","batch4","","null","<p class=block-text>Trial 35 out of 78</p>","null","pattern_show_trial_num","","","","","","","","","","","","","","","","","","","","","","","","",""
"","","","","","image-keyboard-response","90","267540","0.0-2.0-5.0-1.34","5fc2c0cfdb80f9025c6b4810","D2","batch4","","1297.6000000238419","stim/no_28_2.png","j","pattern_response","true","j","pattern_11","1297.6000000238419","true","28","","","","","","","","","","","","","","","","","","",""
"","","","","","html-keyboard-response","91","268846","0.0-2.0-5.0-0.35","5fc2c0cfdb80f9025c6b4810","D2","batch4","","null","<p class=block-text>Trial 36 out of 78</p>","null","pattern_show_trial_num","","","","","","","","","","","","","","","","","","","","","","","","",""
"","","","","","image-keyboard-response","92","269701","0.0-2.0-5.0-1.35","5fc2c0cfdb80f9025c6b4810","D2","batch4","","853.5","stim/yes_29_hor_b1_b.png","f","pattern_response","true","f","pattern_52","853.5","true","29","","","","","","","","","","","","","","","","","","",""
"","","","","","html-keyboard-response","93","271013","0.0-2.0-5.0-0.36","5fc2c0cfdb80f9025c6b4810","D2","batch4","","null","<p class=block-text>Trial 37 out of 78</p>","null","pattern_show_trial_num","","","","","","","","","","","","","","","","","","","","","","","","",""
"","","","","","image-keyboard-response","94","272520","0.0-2.0-5.0-1.36","5fc2c0cfdb80f9025c6b4810","D2","batch4","","1506.199999988079","stim/yes_70_ver_b1.png","f","pattern_response","true","f","pattern_80","1506.199999988079","true","30","","","","","","","","","","","","","","","","","","",""
"","","","","","html-keyboard-response","95","273834","0.0-2.0-5.0-0.37","5fc2c0cfdb80f9025c6b4810","D2","batch4","","null","<p class=block-text>Trial 38 out of 78</p>","null","pattern_show_trial_num","","","","","","","","","","","","","","","","","","","","","","","","",""
"","","","","","image-keyboard-response","96","275121","0.0-2.0-5.0-1.37","5fc2c0cfdb80f9025c6b4810","D2","batch4","","1285.7000000476837","stim/yes_58_dia_w1_w.png","f","pattern_response","true","f","pattern_76","1285.7000000476837","true","31","","","","","","","","","","","","","","","","","","",""
"","","","","","html-keyboard-response","97","276426","0.0-2.0-5.0-0.38","5fc2c0cfdb80f9025c6b4810","D2","batch4","","null","<p class=block-text>Trial 39 out of 78</p>","null","pattern_show_trial_num","","","","","","","","","","","","","","","","","","","","","","","","",""
"","","","","","image-keyboard-response","98","277718","0.0-2.0-5.0-1.38","5fc2c0cfdb80f9025c6b4810","D2","batch4","","1291.6000000238419","stim/no_37_2_w.png","j","pattern_response","true","j","pattern_19","1291.6000000238419","true","32","","","","","","","","","","","","","","","","","","",""
"","","","","","image-keyboard-response","99","279891","0.0-2.0-6.0","5fc2c0cfdb80f9025c6b4810","D2","batch4","","1664.1000000238419","stim/empty_board.png","j","attention_check","true","j","","","","","500","[""f"",""j""]","","","","","","","","","","","","","","","","",""
"","","","","","html-keyboard-response","100","280702","0.0-2.0-7.0-0.0","5fc2c0cfdb80f9025c6b4810","D2","batch4","","null","<p class=block-text>Trial 40 out of 78</p>","null","pattern_show_trial_num","","","","","","","","","","","","","","","","","","","","","","","","",""
"","","","","","image-keyboard-response","101","282687","0.0-2.0-7.0-1.0","5fc2c0cfdb80f9025c6b4810","D2","batch4","","1983.699999988079","stim/yes_50_dia_w1.png","j","pattern_response","false","f","pattern_71","1983.699999988079","false","32","","","","","","","","","","","","","","","","","","",""
"","","","","","html-keyboard-response","102","284005","0.0-2.0-7.0-0.1","5fc2c0cfdb80f9025c6b4810","D2","batch4","","null","<p class=block-text>Trial 41 out of 78</p>","null","pattern_show_trial_num","","","","","","","","","","","","","","","","","","","","","","","","",""
"","","","","","image-keyboard-response","103","286206","0.0-2.0-7.0-1.1","5fc2c0cfdb80f9025c6b4810","D2","batch4","","2199.599999964237","stim/no_62_1_w.png","j","pattern_response","true","j","pattern_36","2199.599999964237","true","33","","","","","","","","","","","","","","","","","","",""
"","","","","","html-keyboard-response","104","287514","0.0-2.0-7.0-0.2","5fc2c0cfdb80f9025c6b4810","D2","batch4","","null","<p class=block-text>Trial 42 out of 78</p>","null","pattern_show_trial_num","","","","","","","","","","","","","","","","","","","","","","","","",""
"","","","","","image-keyboard-response","105","289168","0.0-2.0-7.0-1.2","5fc2c0cfdb80f9025c6b4810","D2","batch4","","1651.800000011921","stim/yes_48_dia_w1_w.png","j","pattern_response","false","f","pattern_69","1651.800000011921","false","33","","","","","","","","","","","","","","","","","","",""
"","","","","","html-keyboard-response","106","290488","0.0-2.0-7.0-0.3","5fc2c0cfdb80f9025c6b4810","D2","batch4","","null","<p class=block-text>Trial 43 out of 78</p>","null","pattern_show_trial_num","","","","","","","","","","","","","","","","","","","","","","","","",""
"","","","","","image-keyboard-response","107","293215","0.0-2.0-7.0-1.3","5fc2c0cfdb80f9025c6b4810","D2","batch4","","2726.100000023842","stim/no_46_1_b.png","j","pattern_response","true","j","pattern_26","2726.100000023842","true","34","","","","","","","","","","","","","","","","","","",""
"","","","","","html-keyboard-response","108","294526","0.0-2.0-7.0-0.4","5fc2c0cfdb80f9025c6b4810","D2","batch4","","null","<p class=block-text>Trial 44 out of 78</p>","null","pattern_show_trial_num","","","","","","","","","","","","","","","","","","","","","","","","",""
"","","","","","image-keyboard-response","109","295805","0.0-2.0-7.0-1.4","5fc2c0cfdb80f9025c6b4810","D2","batch4","","1276.8999999761581","stim/yes_22_ver_w1.png","f","pattern_response","true","f","pattern_47","1276.8999999761581","true","35","","","","","","","","","","","","","","","","","","",""
"","","","","","html-keyboard-response","110","297117","0.0-2.0-7.0-0.5","5fc2c0cfdb80f9025c6b4810","D2","batch4","","null","<p class=block-text>Trial 45 out of 78</p>","null","pattern_show_trial_num","","","","","","","","","","","","","","","","","","","","","","","","",""
"","","","","","image-keyboard-response","111","298789","0.0-2.0-7.0-1.5","5fc2c0cfdb80f9025c6b4810","D2","batch4","","1670.199999988079","stim/yes_52_ver_w1.png","f","pattern_response","true","f","pattern_73","1670.199999988079","true","36","","","","","","","","","","","","","","","","","","",""
"","","","","","html-keyboard-response","112","300118","0.0-2.0-7.0-0.6","5fc2c0cfdb80f9025c6b4810","D2","batch4","","null","<p class=block-text>Trial 46 out of 78</p>","null","pattern_show_trial_num","","","","","","","","","","","","","","","","","","","","","","","","",""
"","","","","","image-keyboard-response","113","301446","0.0-2.0-7.0-1.6","5fc2c0cfdb80f9025c6b4810","D2","batch4","","1327.7999999523163","stim/yes_14_hor_b1_w.png","f","pattern_response","true","f","pattern_43","1327.7999999523163","true","37","","","","","","","","","","","","","","","","","","",""
"","","","","","html-keyboard-response","114","302750","0.0-2.0-7.0-0.7","5fc2c0cfdb80f9025c6b4810","D2","batch4","","null","<p class=block-text>Trial 47 out of 78</p>","null","pattern_show_trial_num","","","","","","","","","","","","","","","","","","","","","","","","",""
"","","","","","image-keyboard-response","115","303755","0.0-2.0-7.0-1.7","5fc2c0cfdb80f9025c6b4810","D2","batch4","","1004","stim/no_23_1.png","j","pattern_response","true","j","pattern_08","1004","true","38","","","","","","","","","","","","","","","","","","",""
"","","","","","html-keyboard-response","116","305070","0.0-2.0-7.0-0.8","5fc2c0cfdb80f9025c6b4810","D2","batch4","","null","<p class=block-text>Trial 48 out of 78</p>","null","pattern_show_trial_num","","","","","","","","","","","","","","","","","","","","","","","","",""
"","","","","","image-keyboard-response","117","307053","0.0-2.0-7.0-1.8","5fc2c0cfdb80f9025c6b4810","D2","batch4","","1981.3999999761581","stim/no_52_1.png","j","pattern_response","true","j","pattern_32","1981.3999999761581","true","39","","","","","","","","","","","","","","","","","","",""
"","","","","","html-keyboard-response","118","308357","0.0-2.0-7.0-0.9","5fc2c0cfdb80f9025c6b4810","D2","batch4","","null","<p class=block-text>Trial 49 out of 78</p>","null","pattern_show_trial_num","","","","","","","","","","","","","","","","","","","","","","","","",""
"","","","","","image-keyboard-response","119","309543","0.0-2.0-7.0-1.9","5fc2c0cfdb80f9025c6b4810","D2","batch4","","1193.9000000357628","stim/yes_35_dia_b1.png","f","pattern_response","true","f","pattern_57","1193.9000000357628","true","40","","","","","","","","","","","","","","","","","","",""
"","","","","","html-keyboard-response","120","310854","0.0-2.0-7.0-0.10","5fc2c0cfdb80f9025c6b4810","D2","batch4","","null","<p class=block-text>Trial 50 out of 78</p>","null","pattern_show_trial_num","","","","","","","","","","","","","","","","","","","","","","","","",""
"","","","","","image-keyboard-response","121","311750","0.0-2.0-7.0-1.10","5fc2c0cfdb80f9025c6b4810","D2","batch4","","895.1999999880791","stim/no_17_1_w.png","j","pattern_response","true","j","pattern_04","895.1999999880791","true","41","","","","","","","","","","","","","","","","","","",""
"","","","","","html-keyboard-response","122","313062","0.0-2.0-7.0-0.11","5fc2c0cfdb80f9025c6b4810","D2","batch4","","null","<p class=block-text>Trial 51 out of 78</p>","null","pattern_show_trial_num","","","","","","","","","","","","","","","","","","","","","","","","",""
"","","","","","image-keyboard-response","123","315161","0.0-2.0-7.0-1.11","5fc2c0cfdb80f9025c6b4810","D2","batch4","","2097.600000023842","stim/yes_43_ver_w1_w.png","f","pattern_response","true","f","pattern_65","2097.600000023842","true","42","","","","","","","","","","","","","","","","","","",""
"","","","","","html-keyboard-response","124","316467","0.0-2.0-7.0-0.12","5fc2c0cfdb80f9025c6b4810","D2","batch4","","null","<p class=block-text>Trial 52 out of 78</p>","null","pattern_show_trial_num","","","","","","","","","","","","","","","","","","","","","","","","",""
"","","","","","image-keyboard-response","125","318101","0.0-2.0-7.0-1.12","5fc2c0cfdb80f9025c6b4810","D2","batch4","","1633.3999999761581","stim/no_50_1.png","j","pattern_response","true","j","pattern_30","1633.3999999761581","true","43","","","","","","","","","","","","","","","","","","",""
"","","","","","html-keyboard-response","126","319413","0.0-2.0-7.0-0.13","5fc2c0cfdb80f9025c6b4810","D2","batch4","","null","<p class=block-text>Trial 53 out of 78</p>","null","pattern_show_trial_num","","","","","","","","","","","","","","","","","","","","","","","","",""
"","","","","","image-keyboard-response","127","321256","0.0-2.0-7.0-1.13","5fc2c0cfdb80f9025c6b4810","D2","batch4","","1841.6000000238419","stim/no_38_1_b.png","j","pattern_response","true","j","pattern_20","1841.6000000238419","true","44","","","","","","","","","","","","","","","","","","",""
"","","","","","html-keyboard-response","128","322560","0.0-2.0-7.0-0.14","5fc2c0cfdb80f9025c6b4810","D2","batch4","","null","<p class=block-text>Trial 54 out of 78</p>","null","pattern_show_trial_num","","","","","","","","","","","","","","","","","","","","","","","","",""
"","","","","","image-keyboard-response","129","323723","0.0-2.0-7.0-1.14","5fc2c0cfdb80f9025c6b4810","D2","batch4","","1161.699999988079","stim/yes_55_hor_w1_w.png","f","pattern_response","true","f","pattern_75","1161.699999988079","true","45","","","","","","","","","","","","","","","","","","",""
"","","","","","html-keyboard-response","130","325034","0.0-2.0-7.0-0.15","5fc2c0cfdb80f9025c6b4810","D2","batch4","","null","<p class=block-text>Trial 55 out of 78</p>","null","pattern_show_trial_num","","","","","","","","","","","","","","","","","","","","","","","","",""
"","","","","","image-keyboard-response","131","327114","0.0-2.0-7.0-1.15","5fc2c0cfdb80f9025c6b4810","D2","batch4","","2078","stim/no_20_1_w.png","j","pattern_response","true","j","pattern_06","2078","true","46","","","","","","","","","","","","","","","","","","",""
"","","","","","html-keyboard-response","132","328428","0.0-2.0-7.0-0.16","5fc2c0cfdb80f9025c6b4810","D2","batch4","","null","<p class=block-text>Trial 56 out of 78</p>","null","pattern_show_trial_num","","","","","","","","","","","","","","","","","","","","","","","","",""
"","","","","","image-keyboard-response","133","329499","0.0-2.0-7.0-1.16","5fc2c0cfdb80f9025c6b4810","D2","batch4","","1070.300000011921","stim/yes_28_ver_b1.png","f","pattern_response","true","f","pattern_51","1070.300000011921","true","47","","","","","","","","","","","","","","","","","","",""
"","","","","","html-keyboard-response","134","330818","0.0-2.0-7.0-0.17","5fc2c0cfdb80f9025c6b4810","D2","batch4","","null","<p class=block-text>Trial 57 out of 78</p>","null","pattern_show_trial_num","","","","","","","","","","","","","","","","","","","","","","","","",""
"","","","","","image-keyboard-response","135","332699","0.0-2.0-7.0-1.17","5fc2c0cfdb80f9025c6b4810","D2","batch4","","1880.2999999523163","stim/yes_40_dia_b1_b.png","j","pattern_response","false","f","pattern_63","1880.2999999523163","false","47","","","","","","","","","","","","","","","","","","",""
"","","","","","html-keyboard-response","136","334026","0.0-2.0-7.0-0.18","5fc2c0cfdb80f9025c6b4810","D2","batch4","","null","<p class=block-text>Trial 58 out of 78</p>","null","pattern_show_trial_num","","","","","","","","","","","","","","","","","","","","","","","","",""
"","","","","","image-keyboard-response","137","335775","0.0-2.0-7.0-1.18","5fc2c0cfdb80f9025c6b4810","D2","batch4","","1747.3999999761581","stim/no_34_1_b.png","j","pattern_response","true","j","pattern_16","1747.3999999761581","true","48","","","","","","","","","","","","","","","","","","",""
"","","","","","html-keyboard-response","138","337081","0.0-2.0-7.0-0.19","5fc2c0cfdb80f9025c6b4810","D2","batch4","","null","<p class=block-text>Trial 59 out of 78</p>","null","pattern_show_trial_num","","","","","","","","","","","","","","","","","","","","","","","","",""
"","","","","","image-keyboard-response","139","338769","0.0-2.0-7.0-1.19","5fc2c0cfdb80f9025c6b4810","D2","batch4","","1687.1000000238419","stim/no_55_1_w.png","j","pattern_response","true","j","pattern_34","1687.1000000238419","true","49","","","","","","","","","","","","","","","","","","",""
"","","","","","html-keyboard-response","140","340073","0.0-2.0-7.0-0.20","5fc2c0cfdb80f9025c6b4810","D2","batch4","","null","<p class=block-text>Trial 60 out of 78</p>","null","pattern_show_trial_num","","","","","","","","","","","","","","","","","","","","","","","","",""
"","","","","","image-keyboard-response","141","342587","0.0-2.0-7.0-1.20","5fc2c0cfdb80f9025c6b4810","D2","batch4","","2513.399999976158","stim/yes_17_dia_w1.png","f","pattern_response","true","f","pattern_45","2513.399999976158","true","50","","","","","","","","","","","","","","","","","","",""
"","","","","","html-keyboard-response","142","343896","0.0-2.0-7.0-0.21","5fc2c0cfdb80f9025c6b4810","D2","batch4","","null","<p class=block-text>Trial 61 out of 78</p>","null","pattern_show_trial_num","","","","","","","","","","","","","","","","","","","","","","","","",""
"","","","","","image-keyboard-response","143","345018","0.0-2.0-7.0-1.21","5fc2c0cfdb80f9025c6b4810","D2","batch4","","1119.5","stim/yes_38_hor_b1_b.png","f","pattern_response","true","f","pattern_61","1119.5","true","51","","","","","","","","","","","","","","","","","","",""
"","","","","","html-keyboard-response","144","346330","0.0-2.0-7.0-0.22","5fc2c0cfdb80f9025c6b4810","D2","batch4","","null","<p class=block-text>Trial 62 out of 78</p>","null","pattern_show_trial_num","","","","","","","","","","","","","","","","","","","","","","","","",""
"","","","","","image-keyboard-response","145","349105","0.0-2.0-7.0-1.22","5fc2c0cfdb80f9025c6b4810","D2","batch4","","2774.7000000476837","stim/no_65_1_b.png","j","pattern_response","true","j","pattern_38","2774.7000000476837","true","52","","","","","","","","","","","","","","","","","","",""
"","","","","","html-keyboard-response","146","350425","0.0-2.0-7.0-0.23","5fc2c0cfdb80f9025c6b4810","D2","batch4","","null","<p class=block-text>Trial 63 out of 78</p>","null","pattern_show_trial_num","","","","","","","","","","","","","","","","","","","","","","","","",""
"","","","","","image-keyboard-response","147","351921","0.0-2.0-7.0-1.23","5fc2c0cfdb80f9025c6b4810","D2","batch4","","1493.9000000357628","stim/yes_45_hor_b2_b.png","j","pattern_response","false","f","pattern_67","1493.9000000357628","false","52","","","","","","","","","","","","","","","","","","",""
"","","","","","html-keyboard-response","148","353239","0.0-2.0-7.0-0.24","5fc2c0cfdb80f9025c6b4810","D2","batch4","","null","<p class=block-text>Trial 64 out of 78</p>","null","pattern_show_trial_num","","","","","","","","","","","","","","","","","","","","","","","","",""
"","","","","","image-keyboard-response","149","355001","0.0-2.0-7.0-1.24","5fc2c0cfdb80f9025c6b4810","D2","batch4","","1760.6000000238419","stim/no_48_1_w.png","j","pattern_response","true","j","pattern_28","1760.6000000238419","true","53","","","","","","","","","","","","","","","","","","",""
"","","","","","html-keyboard-response","150","356325","0.0-2.0-7.0-0.25","5fc2c0cfdb80f9025c6b4810","D2","batch4","","null","<p class=block-text>Trial 65 out of 78</p>","null","pattern_show_trial_num","","","","","","","","","","","","","","","","","","","","","","","","",""
"","","","","","image-keyboard-response","151","357441","0.0-2.0-7.0-1.25","5fc2c0cfdb80f9025c6b4810","D2","batch4","","1115.199999988079","stim/no_32_1_w.png","j","pattern_response","true","j","pattern_14","1115.199999988079","true","54","","","","","","","","","","","","","","","","","","",""
"","","","","","html-keyboard-response","152","358765","0.0-2.0-7.0-0.26","5fc2c0cfdb80f9025c6b4810","D2","batch4","","null","<p class=block-text>Trial 66 out of 78</p>","null","pattern_show_trial_num","","","","","","","","","","","","","","","","","","","","","","","","",""
"","","","","","image-keyboard-response","153","360904","0.0-2.0-7.0-1.26","5fc2c0cfdb80f9025c6b4810","D2","batch4","","2137.2000000476837","stim/no_44_1.png","j","pattern_response","true","j","pattern_24","2137.2000000476837","true","55","","","","","","","","","","","","","","","","","","",""
"","","","","","html-keyboard-response","154","362227","0.0-2.0-7.0-0.27","5fc2c0cfdb80f9025c6b4810","D2","batch4","","null","<p class=block-text>Trial 67 out of 78</p>","null","pattern_show_trial_num","","","","","","","","","","","","","","","","","","","","","","","","",""
"","","","","","image-keyboard-response","155","365187","0.0-2.0-7.0-1.27","5fc2c0cfdb80f9025c6b4810","D2","batch4","","2959.2000000476837","stim/yes_31_hor_b1.png","f","pattern_response","true","f","pattern_55","2959.2000000476837","true","56","","","","","","","","","","","","","","","","","","",""
"","","","","","html-keyboard-response","156","366514","0.0-2.0-7.0-0.28","5fc2c0cfdb80f9025c6b4810","D2","batch4","","null","<p class=block-text>Trial 68 out of 78</p>","null","pattern_show_trial_num","","","","","","","","","","","","","","","","","","","","","","","","",""
"","","","","","image-keyboard-response","157","367257","0.0-2.0-7.0-1.28","5fc2c0cfdb80f9025c6b4810","D2","batch4","","743","stim/yes_25_hor_b1_b.png","f","pattern_response","true","f","pattern_49","743","true","57","","","","","","","","","","","","","","","","","","",""
"","","","","","html-keyboard-response","158","368572","0.0-2.0-7.0-0.29","5fc2c0cfdb80f9025c6b4810","D2","batch4","","null","<p class=block-text>Trial 69 out of 78</p>","null","pattern_show_trial_num","","","","","","","","","","","","","","","","","","","","","","","","",""
"","","","","","image-keyboard-response","159","369700","0.0-2.0-7.0-1.29","5fc2c0cfdb80f9025c6b4810","D2","batch4","","1129","stim/yes_60_ver_b1_b.png","f","pattern_response","true","f","pattern_77","1129","true","58","","","","","","","","","","","","","","","","","","",""
"","","","","","html-keyboard-response","160","371017","0.0-2.0-7.0-0.30","5fc2c0cfdb80f9025c6b4810","D2","batch4","","null","<p class=block-text>Trial 70 out of 78</p>","null","pattern_show_trial_num","","","","","","","","","","","","","","","","","","","","","","","","",""
"","","","","","image-keyboard-response","161","372678","0.0-2.0-7.0-1.30","5fc2c0cfdb80f9025c6b4810","D2","batch4","","1659.4000000357628","stim/no_42_1_w.png","j","pattern_response","true","j","pattern_22","1659.4000000357628","true","59","","","","","","","","","","","","","","","","","","",""
"","","","","","html-keyboard-response","162","373994","0.0-2.0-7.0-0.31","5fc2c0cfdb80f9025c6b4810","D2","batch4","","null","<p class=block-text>Trial 71 out of 78</p>","null","pattern_show_trial_num","","","","","","","","","","","","","","","","","","","","","","","","",""
"","","","","","image-keyboard-response","163","374963","0.0-2.0-7.0-1.31","5fc2c0cfdb80f9025c6b4810","D2","batch4","","968.5","stim/no_13_2_b.png","j","pattern_response","true","j","pattern_02","968.5","true","60","","","","","","","","","","","","","","","","","","",""
"","","","","","html-keyboard-response","164","376267","0.0-2.0-7.0-0.32","5fc2c0cfdb80f9025c6b4810","D2","batch4","","null","<p class=block-text>Trial 72 out of 78</p>","null","pattern_show_trial_num","","","","","","","","","","","","","","","","","","","","","","","","",""
"","","","","","image-keyboard-response","165","377772","0.0-2.0-7.0-1.32","5fc2c0cfdb80f9025c6b4810","D2","batch4","","1503.1000000238419","stim/yes_29_ver_w1.png","f","pattern_response","true","f","pattern_53","1503.1000000238419","true","61","","","","","","","","","","","","","","","","","","",""
"","","","","","html-keyboard-response","166","379089","0.0-2.0-7.0-0.33","5fc2c0cfdb80f9025c6b4810","D2","batch4","","null","<p class=block-text>Trial 73 out of 78</p>","null","pattern_show_trial_num","","","","","","","","","","","","","","","","","","","","","","","","",""
"","","","","","image-keyboard-response","167","380862","0.0-2.0-7.0-1.33","5fc2c0cfdb80f9025c6b4810","D2","batch4","","1771.6000000238419","stim/no_29_1_b.png","j","pattern_response","true","j","pattern_12","1771.6000000238419","true","62","","","","","","","","","","","","","","","","","","",""
"","","","","","html-keyboard-response","168","382178","0.0-2.0-7.0-0.34","5fc2c0cfdb80f9025c6b4810","D2","batch4","","null","<p class=block-text>Trial 74 out of 78</p>","null","pattern_show_trial_num","","","","","","","","","","","","","","","","","","","","","","","","",""
"","","","","","image-keyboard-response","169","383519","0.0-2.0-7.0-1.34","5fc2c0cfdb80f9025c6b4810","D2","batch4","","1339.9000000357628","stim/yes_67_hor_b1.png","f","pattern_response","true","f","pattern_79","1339.9000000357628","true","63","","","","","","","","","","","","","","","","","","",""
"","","","","","html-keyboard-response","170","384831","0.0-2.0-7.0-0.35","5fc2c0cfdb80f9025c6b4810","D2","batch4","","null","<p class=block-text>Trial 75 out of 78</p>","null","pattern_show_trial_num","","","","","","","","","","","","","","","","","","","","","","","","",""
"","","","","","image-keyboard-response","171","387186","0.0-2.0-7.0-1.35","5fc2c0cfdb80f9025c6b4810","D2","batch4","","2354.699999988079","stim/no_70_2.png","f","pattern_response","false","j","pattern_40","2354.699999988079","false","63","","","","","","","","","","","","","","","","","","",""
"","","","","","html-keyboard-response","172","388492","0.0-2.0-7.0-0.36","5fc2c0cfdb80f9025c6b4810","D2","batch4","","null","<p class=block-text>Trial 76 out of 78</p>","null","pattern_show_trial_num","","","","","","","","","","","","","","","","","","","","","","","","",""
"","","","","","image-keyboard-response","173","390330","0.0-2.0-7.0-1.36","5fc2c0cfdb80f9025c6b4810","D2","batch4","","1837","stim/no_26_1_w.png","j","pattern_response","true","j","pattern_10","1837","true","64","","","","","","","","","","","","","","","","","","",""
"","","","","","html-keyboard-response","174","391646","0.0-2.0-7.0-0.37","5fc2c0cfdb80f9025c6b4810","D2","batch4","","null","<p class=block-text>Trial 77 out of 78</p>","null","pattern_show_trial_num","","","","","","","","","","","","","","","","","","","","","","","","",""
"","","","","","image-keyboard-response","175","392789","0.0-2.0-7.0-1.37","5fc2c0cfdb80f9025c6b4810","D2","batch4","","1142.300000011921","stim/yes_37_dia_w1.png","j","pattern_response","false","f","pattern_59","1142.300000011921","false","64","","","","","","","","","","","","","","","","","","",""
"","","","","","html-keyboard-response","176","394102","0.0-2.0-7.0-0.38","5fc2c0cfdb80f9025c6b4810","D2","batch4","","null","<p class=block-text>Trial 78 out of 78</p>","null","pattern_show_trial_num","","","","","","","","","","","","","","","","","","","","","","","","",""
"","","","","","image-keyboard-response","177","395892","0.0-2.0-7.0-1.38","5fc2c0cfdb80f9025c6b4810","D2","batch4","","1789.4000000357628","stim/no_36_2_w.png","j","pattern_response","true","j","pattern_18","1789.4000000357628","true","65","","","","","","","","","","","","","","","","","","",""
"","","","","","html-button-response","178","399165","0.0-2.0-8.0","5fc2c0cfdb80f9025c6b4810","D2","batch4","","2756.5","<p class = block-text>This concludes the 4-in-a-row detection game.Thank you for your responses!<br>
            You responded correctly on 83% of the trials.<br>
            When you are ready, press ""Continue"" button to continue </p>","0","","","","","","","","","","","","","","","","","","","","","","","","","",""
"true","","","","","fullscreen","179","402601","0.0-3.0-0.0","5fc2c0cfdb80f9025c6b4810","D2","batch4","","","","","spm_fullscreen","","","","","","","","","","","","","","","","","","","","","","","","",""
"","","","","","html-button-response","180","421556","0.0-3.0-1.0","5fc2c0cfdb80f9025c6b4810","D2","batch4","","18954","<p class = block-text><b>Instructions</b> <br>This is a widely used intelligence test in research. <br>In this test, a figure with a missing piece will be presented.<br>Below the figure are alternative pieces to complete the figure, only one of which is correct.<br> Different figures might involve different principles for obtaining the missing piece<br>Your job is to select the most logical piece to complete the figure.</p>","0","","","","","","","","","","","","","","","","","","","","","","","","","",""
"","","","","","html-keyboard-response","181","422358","0.0-3.0-2.0-0.0","5fc2c0cfdb80f9025c6b4810","D2","batch4","","null","<p class=block-text>Trial 1 out of 60</p>","null","spm_show_trial_num","","","","","","","","","","","","","","","","","","","","","","","","",""
"","","","","","image-button-response","182","426419","0.0-3.0-2.0-1.0","5fc2c0cfdb80f9025c6b4810","D2","batch4","","4057.699999988079","img/question_1_1.jpeg","1","spm_respsonse","0","4","mat_01","","","","","","0","4057.699999988079","","","","","","","","","","","","","","",""
"","","","","","html-keyboard-response","183","427475","0.0-3.0-2.0-0.1","5fc2c0cfdb80f9025c6b4810","D2","batch4","","null","<p class=block-text>Trial 2 out of 60</p>","null","spm_show_trial_num","","","","","","","","","","","","","","","","","","","","","","","","",""
"","","","","","image-button-response","184","429873","0.0-3.0-2.0-1.1","5fc2c0cfdb80f9025c6b4810","D2","batch4","","2384","img/question_1_2.jpeg","4","spm_respsonse","1","5","mat_02","","","","","","1","2384","","","","","","","","","","","","","","",""
"","","","","","html-keyboard-response","185","430930","0.0-3.0-2.0-0.2","5fc2c0cfdb80f9025c6b4810","D2","batch4","","null","<p class=block-text>Trial 3 out of 60</p>","null","spm_show_trial_num","","","","","","","","","","","","","","","","","","","","","","","","",""
"","","","","","image-button-response","186","433491","0.0-3.0-2.0-1.2","5fc2c0cfdb80f9025c6b4810","D2","batch4","","2558.900000035763","img/question_1_3.jpeg","0","spm_respsonse","1","1","mat_03","","","","","","1","2558.900000035763","","","","","","","","","","","","","","",""
"","","","","","html-keyboard-response","187","434549","0.0-3.0-2.0-0.3","5fc2c0cfdb80f9025c6b4810","D2","batch4","","null","<p class=block-text>Trial 4 out of 60</p>","null","spm_show_trial_num","","","","","","","","","","","","","","","","","","","","","","","","",""
"","","","","","image-button-response","188","437555","0.0-3.0-2.0-1.3","5fc2c0cfdb80f9025c6b4810","D2","batch4","","3004.2000000476837","img/question_1_4.jpeg","1","spm_respsonse","1","2","mat_04","","","","","","1","3004.2000000476837","","","","","","","","","","","","","","",""
"","","","","","html-keyboard-response","189","438614","0.0-3.0-2.0-0.4","5fc2c0cfdb80f9025c6b4810","D2","batch4","","null","<p class=block-text>Trial 5 out of 60</p>","null","spm_show_trial_num","","","","","","","","","","","","","","","","","","","","","","","","",""
"","","","","","image-button-response","190","441297","0.0-3.0-2.0-1.4","5fc2c0cfdb80f9025c6b4810","D2","batch4","","2681.2000000476837","img/question_1_5.jpeg","4","spm_respsonse","0","6","mat_05","","","","","","0","2681.2000000476837","","","","","","","","","","","","","","",""
"","","","","","html-keyboard-response","191","442361","0.0-3.0-2.0-0.5","5fc2c0cfdb80f9025c6b4810","D2","batch4","","null","<p class=block-text>Trial 6 out of 60</p>","null","spm_show_trial_num","","","","","","","","","","","","","","","","","","","","","","","","",""
"","","","","","image-button-response","192","445339","0.0-3.0-2.0-1.5","5fc2c0cfdb80f9025c6b4810","D2","batch4","","2976.199999988079","img/question_1_6.jpeg","2","spm_respsonse","1","3","mat_06","","","","","","1","2976.199999988079","","","","","","","","","","","","","","",""
"","","","","","html-keyboard-response","193","446399","0.0-3.0-2.0-0.6","5fc2c0cfdb80f9025c6b4810","D2","batch4","","null","<p class=block-text>Trial 7 out of 60</p>","null","spm_show_trial_num","","","","","","","","","","","","","","","","","","","","","","","","",""
"","","","","","image-button-response","194","449497","0.0-3.0-2.0-1.6","5fc2c0cfdb80f9025c6b4810","D2","batch4","","3096.5","img/question_1_7.jpeg","5","spm_respsonse","1","6","mat_07","","","","","","1","3096.5","","","","","","","","","","","","","","",""
"","","","","","html-keyboard-response","195","450559","0.0-3.0-2.0-0.7","5fc2c0cfdb80f9025c6b4810","D2","batch4","","null","<p class=block-text>Trial 8 out of 60</p>","null","spm_show_trial_num","","","","","","","","","","","","","","","","","","","","","","","","",""
"","","","","","image-button-response","196","454483","0.0-3.0-2.0-1.7","5fc2c0cfdb80f9025c6b4810","D2","batch4","","3922.600000023842","img/question_1_8.jpeg","1","spm_respsonse","1","2","mat_08","","","","","","1","3922.600000023842","","","","","","","","","","","","","","",""
"","","","","","html-keyboard-response","197","455541","0.0-3.0-2.0-0.8","5fc2c0cfdb80f9025c6b4810","D2","batch4","","null","<p class=block-text>Trial 9 out of 60</p>","null","spm_show_trial_num","","","","","","","","","","","","","","","","","","","","","","","","",""
"","","","","","image-button-response","198","460523","0.0-3.0-2.0-1.8","5fc2c0cfdb80f9025c6b4810","D2","batch4","","4980.299999952316","img/question_1_9.jpeg","0","spm_respsonse","1","1","mat_09","","","","","","1","4980.299999952316","","","","","","","","","","","","","","",""
"","","","","","html-keyboard-response","199","461580","0.0-3.0-2.0-0.9","5fc2c0cfdb80f9025c6b4810","D2","batch4","","null","<p class=block-text>Trial 10 out of 60</p>","null","spm_show_trial_num","","","","","","","","","","","","","","","","","","","","","","","","",""
"","","","","","image-button-response","200","465557","0.0-3.0-2.0-1.9","5fc2c0cfdb80f9025c6b4810","D2","batch4","","3975.300000011921","img/question_1_10.jpeg","2","spm_respsonse","1","3","mat_10","","","","","","1","3975.300000011921","","","","","","","","","","","","","","",""
"","","","","","html-keyboard-response","201","466610","0.0-3.0-2.0-0.10","5fc2c0cfdb80f9025c6b4810","D2","batch4","","null","<p class=block-text>Trial 11 out of 60</p>","null","spm_show_trial_num","","","","","","","","","","","","","","","","","","","","","","","","",""
"","","","","","image-button-response","202","471443","0.0-3.0-2.0-1.10","5fc2c0cfdb80f9025c6b4810","D2","batch4","","4831.399999976158","img/question_1_11.jpeg","4","spm_respsonse","0","4","mat_11","","","","","","0","4831.399999976158","","","","","","","","","","","","","","",""
"","","","","","html-keyboard-response","203","472508","0.0-3.0-2.0-0.11","5fc2c0cfdb80f9025c6b4810","D2","batch4","","null","<p class=block-text>Trial 12 out of 60</p>","null","spm_show_trial_num","","","","","","","","","","","","","","","","","","","","","","","","",""
"","","","","","image-button-response","204","477675","0.0-3.0-2.0-1.11","5fc2c0cfdb80f9025c6b4810","D2","batch4","","5165.300000011921","img/question_1_12.jpeg","5","spm_respsonse","0","5","mat_12","","","","","","0","5165.300000011921","","","","","","","","","","","","","","",""
"","","","","","html-keyboard-response","205","478734","0.0-3.0-2.0-0.12","5fc2c0cfdb80f9025c6b4810","D2","batch4","","null","<p class=block-text>Trial 13 out of 60</p>","null","spm_show_trial_num","","","","","","","","","","","","","","","","","","","","","","","","",""
"","","","","","image-button-response","206","480853","0.0-3.0-2.0-1.12","5fc2c0cfdb80f9025c6b4810","D2","batch4","","2118.5","img/question_2_1.jpeg","1","spm_respsonse","1","2","mat_13","","","","","","1","2118.5","","","","","","","","","","","","","","",""
"","","","","","html-keyboard-response","207","481907","0.0-3.0-2.0-0.13","5fc2c0cfdb80f9025c6b4810","D2","batch4","","null","<p class=block-text>Trial 14 out of 60</p>","null","spm_show_trial_num","","","","","","","","","","","","","","","","","","","","","","","","",""
"","","","","","image-button-response","208","485586","0.0-3.0-2.0-1.13","5fc2c0cfdb80f9025c6b4810","D2","batch4","","3677.300000011921","img/question_2_2.jpeg","5","spm_respsonse","1","6","mat_14","","","","","","1","3677.300000011921","","","","","","","","","","","","","","",""
"","","","","","html-keyboard-response","209","486645","0.0-3.0-2.0-0.14","5fc2c0cfdb80f9025c6b4810","D2","batch4","","null","<p class=block-text>Trial 15 out of 60</p>","null","spm_show_trial_num","","","","","","","","","","","","","","","","","","","","","","","","",""
"","","","","","image-button-response","210","489467","0.0-3.0-2.0-1.14","5fc2c0cfdb80f9025c6b4810","D2","batch4","","2820.099999964237","img/question_2_3.jpeg","0","spm_respsonse","1","1","mat_15","","","","","","1","2820.099999964237","","","","","","","","","","","","","","",""
"","","","","","html-keyboard-response","211","490530","0.0-3.0-2.0-0.15","5fc2c0cfdb80f9025c6b4810","D2","batch4","","null","<p class=block-text>Trial 16 out of 60</p>","null","spm_show_trial_num","","","","","","","","","","","","","","","","","","","","","","","","",""
"","","","","","image-button-response","212","494146","0.0-3.0-2.0-1.15","5fc2c0cfdb80f9025c6b4810","D2","batch4","","3614.400000035763","img/question_2_4.jpeg","1","spm_respsonse","1","2","mat_16","","","","","","1","3614.400000035763","","","","","","","","","","","","","","",""
"","","","","","html-keyboard-response","213","495200","0.0-3.0-2.0-0.16","5fc2c0cfdb80f9025c6b4810","D2","batch4","","null","<p class=block-text>Trial 17 out of 60</p>","null","spm_show_trial_num","","","","","","","","","","","","","","","","","","","","","","","","",""
"","","","","","image-button-response","214","499332","0.0-3.0-2.0-1.16","5fc2c0cfdb80f9025c6b4810","D2","batch4","","4130.100000023842","img/question_2_5.jpeg","0","spm_respsonse","1","1","mat_17","","","","","","1","4130.100000023842","","","","","","","","","","","","","","",""
"","","","","","html-keyboard-response","215","500394","0.0-3.0-2.0-0.17","5fc2c0cfdb80f9025c6b4810","D2","batch4","","null","<p class=block-text>Trial 18 out of 60</p>","null","spm_show_trial_num","","","","","","","","","","","","","","","","","","","","","","","","",""
"","","","","","image-button-response","216","504149","0.0-3.0-2.0-1.17","5fc2c0cfdb80f9025c6b4810","D2","batch4","","3752.800000011921","img/question_2_6.jpeg","2","spm_respsonse","1","3","mat_18","","","","","","1","3752.800000011921","","","","","","","","","","","","","","",""
"","","","","","html-keyboard-response","217","505201","0.0-3.0-2.0-0.18","5fc2c0cfdb80f9025c6b4810","D2","batch4","","null","<p class=block-text>Trial 19 out of 60</p>","null","spm_show_trial_num","","","","","","","","","","","","","","","","","","","","","","","","",""
"","","","","","image-button-response","218","510483","0.0-3.0-2.0-1.18","5fc2c0cfdb80f9025c6b4810","D2","batch4","","5280.199999988079","img/question_2_7.jpeg","4","spm_respsonse","1","5","mat_19","","","","","","1","5280.199999988079","","","","","","","","","","","","","","",""
"","","","","","html-keyboard-response","219","511539","0.0-3.0-2.0-0.19","5fc2c0cfdb80f9025c6b4810","D2","batch4","","null","<p class=block-text>Trial 20 out of 60</p>","null","spm_show_trial_num","","","","","","","","","","","","","","","","","","","","","","","","",""
"","","","","","image-button-response","220","515098","0.0-3.0-2.0-1.19","5fc2c0cfdb80f9025c6b4810","D2","batch4","","3556.600000023842","img/question_2_8.jpeg","5","spm_respsonse","1","6","mat_20","","","","","","1","3556.600000023842","","","","","","","","","","","","","","",""
"","","","","","html-keyboard-response","221","516163","0.0-3.0-2.0-0.20","5fc2c0cfdb80f9025c6b4810","D2","batch4","","null","<p class=block-text>Trial 21 out of 60</p>","null","spm_show_trial_num","","","","","","","","","","","","","","","","","","","","","","","","",""
"","","","","","image-button-response","222","519906","0.0-3.0-2.0-1.20","5fc2c0cfdb80f9025c6b4810","D2","batch4","","3741.5","img/question_2_9.jpeg","3","spm_respsonse","1","4","mat_21","","","","","","1","3741.5","","","","","","","","","","","","","","",""
"","","","","","html-keyboard-response","223","520966","0.0-3.0-2.0-0.21","5fc2c0cfdb80f9025c6b4810","D2","batch4","","null","<p class=block-text>Trial 22 out of 60</p>","null","spm_show_trial_num","","","","","","","","","","","","","","","","","","","","","","","","",""
"","","","","","image-button-response","224","525356","0.0-3.0-2.0-1.21","5fc2c0cfdb80f9025c6b4810","D2","batch4","","4387.699999988079","img/question_2_10.jpeg","2","spm_respsonse","1","3","mat_22","","","","","","1","4387.699999988079","","","","","","","","","","","","","","",""
"","","","","","html-keyboard-response","225","526408","0.0-3.0-2.0-0.22","5fc2c0cfdb80f9025c6b4810","D2","batch4","","null","<p class=block-text>Trial 23 out of 60</p>","null","spm_show_trial_num","","","","","","","","","","","","","","","","","","","","","","","","",""
"","","","","","image-button-response","226","531352","0.0-3.0-2.0-1.22","5fc2c0cfdb80f9025c6b4810","D2","batch4","","4942.899999976158","img/question_2_11.jpeg","3","spm_respsonse","1","4","mat_23","","","","","","1","4942.899999976158","","","","","","","","","","","","","","",""
"","","","","","html-keyboard-response","227","532404","0.0-3.0-2.0-0.23","5fc2c0cfdb80f9025c6b4810","D2","batch4","","null","<p class=block-text>Trial 24 out of 60</p>","null","spm_show_trial_num","","","","","","","","","","","","","","","","","","","","","","","","",""
"","","","","","image-button-response","228","544568","0.0-3.0-2.0-1.23","5fc2c0cfdb80f9025c6b4810","D2","batch4","","12162.699999988079","img/question_2_12.jpeg","4","spm_respsonse","1","5","mat_24","","","","","","1","12162.699999988079","","","","","","","","","","","","","","",""
"","","","","","html-button-response","229","546758","0.0-3.0-3.0","5fc2c0cfdb80f9025c6b4810","D2","batch4","","1937.5","<p class = block-text>Attention check: Please choose 1<br></p>","0","attention_check","true","","","","","","","","","","","","","","","","","","","","","","","",""
"","","","","","html-keyboard-response","230","547560","0.0-3.0-4.0-0.0","5fc2c0cfdb80f9025c6b4810","D2","batch4","","null","<p class=block-text>Trial 25 out of 60</p>","null","spm_show_trial_num","","","","","","","","","","","","","","","","","","","","","","","","",""
"","","","","","image-button-response","231","552913","0.0-3.0-4.0-1.0","5fc2c0cfdb80f9025c6b4810","D2","batch4","","5350.699999988079","img/question_3_1.jpeg","7","spm_respsonse","1","8","mat_25","","","","","","1","5350.699999988079","","","","","","","","","","","","","","",""
"","","","","","html-keyboard-response","232","553971","0.0-3.0-4.0-0.1","5fc2c0cfdb80f9025c6b4810","D2","batch4","","null","<p class=block-text>Trial 26 out of 60</p>","null","spm_show_trial_num","","","","","","","","","","","","","","","","","","","","","","","","",""
"","","","","","image-button-response","233","559781","0.0-3.0-4.0-1.1","5fc2c0cfdb80f9025c6b4810","D2","batch4","","5807.800000011921","img/question_3_2.jpeg","1","spm_respsonse","1","2","mat_26","","","","","","1","5807.800000011921","","","","","","","","","","","","","","",""
"","","","","","html-keyboard-response","234","560849","0.0-3.0-4.0-0.2","5fc2c0cfdb80f9025c6b4810","D2","batch4","","null","<p class=block-text>Trial 27 out of 60</p>","null","spm_show_trial_num","","","","","","","","","","","","","","","","","","","","","","","","",""
"","","","","","image-button-response","235","565581","0.0-3.0-4.0-1.2","5fc2c0cfdb80f9025c6b4810","D2","batch4","","4730.600000023842","img/question_3_3.jpeg","2","spm_respsonse","1","3","mat_27","","","","","","1","4730.600000023842","","","","","","","","","","","","","","",""
"","","","","","html-keyboard-response","236","566633","0.0-3.0-4.0-0.3","5fc2c0cfdb80f9025c6b4810","D2","batch4","","null","<p class=block-text>Trial 28 out of 60</p>","null","spm_show_trial_num","","","","","","","","","","","","","","","","","","","","","","","","",""
"","","","","","image-button-response","237","571241","0.0-3.0-4.0-1.3","5fc2c0cfdb80f9025c6b4810","D2","batch4","","4605.800000011921","img/question_3_4.jpeg","7","spm_respsonse","1","8","mat_28","","","","","","1","4605.800000011921","","","","","","","","","","","","","","",""
"","","","","","html-keyboard-response","238","572301","0.0-3.0-4.0-0.4","5fc2c0cfdb80f9025c6b4810","D2","batch4","","null","<p class=block-text>Trial 29 out of 60</p>","null","spm_show_trial_num","","","","","","","","","","","","","","","","","","","","","","","","",""
"","","","","","image-button-response","239","579755","0.0-3.0-4.0-1.4","5fc2c0cfdb80f9025c6b4810","D2","batch4","","7452.100000023842","img/question_3_5.jpeg","6","spm_respsonse","1","7","mat_29","","","","","","1","7452.100000023842","","","","","","","","","","","","","","",""
"","","","","","html-keyboard-response","240","580819","0.0-3.0-4.0-0.5","5fc2c0cfdb80f9025c6b4810","D2","batch4","","null","<p class=block-text>Trial 30 out of 60</p>","null","spm_show_trial_num","","","","","","","","","","","","","","","","","","","","","","","","",""
"","","","","","image-button-response","241","585143","0.0-3.0-4.0-1.5","5fc2c0cfdb80f9025c6b4810","D2","batch4","","4321.299999952316","img/question_3_6.jpeg","3","spm_respsonse","1","4","mat_30","","","","","","1","4321.299999952316","","","","","","","","","","","","","","",""
"","","","","","html-keyboard-response","242","586210","0.0-3.0-4.0-0.6","5fc2c0cfdb80f9025c6b4810","D2","batch4","","null","<p class=block-text>Trial 31 out of 60</p>","null","spm_show_trial_num","","","","","","","","","","","","","","","","","","","","","","","","",""
"","","","","","image-button-response","243","590881","0.0-3.0-4.0-1.6","5fc2c0cfdb80f9025c6b4810","D2","batch4","","4668.5","img/question_3_7.jpeg","4","spm_respsonse","1","5","mat_31","","","","","","1","4668.5","","","","","","","","","","","","","","",""
"","","","","","html-keyboard-response","244","591933","0.0-3.0-4.0-0.7","5fc2c0cfdb80f9025c6b4810","D2","batch4","","null","<p class=block-text>Trial 32 out of 60</p>","null","spm_show_trial_num","","","","","","","","","","","","","","","","","","","","","","","","",""
"","","","","","image-button-response","245","612559","0.0-3.0-4.0-1.7","5fc2c0cfdb80f9025c6b4810","D2","batch4","","20624.099999964237","img/question_3_8.jpeg","5","spm_respsonse","0","1","mat_32","","","","","","0","20624.099999964237","","","","","","","","","","","","","","",""
"","","","","","html-keyboard-response","246","613631","0.0-3.0-4.0-0.8","5fc2c0cfdb80f9025c6b4810","D2","batch4","","null","<p class=block-text>Trial 33 out of 60</p>","null","spm_show_trial_num","","","","","","","","","","","","","","","","","","","","","","","","",""
"","","","","","image-button-response","247","622001","0.0-3.0-4.0-1.8","5fc2c0cfdb80f9025c6b4810","D2","batch4","","8367.199999988079","img/question_3_9.jpeg","6","spm_respsonse","1","7","mat_33","","","","","","1","8367.199999988079","","","","","","","","","","","","","","",""
"","","","","","html-keyboard-response","248","623061","0.0-3.0-4.0-0.9","5fc2c0cfdb80f9025c6b4810","D2","batch4","","null","<p class=block-text>Trial 34 out of 60</p>","null","spm_show_trial_num","","","","","","","","","","","","","","","","","","","","","","","","",""
"","","","","","image-button-response","249","629103","0.0-3.0-4.0-1.9","5fc2c0cfdb80f9025c6b4810","D2","batch4","","6039.299999952316","img/question_3_10.jpeg","5","spm_respsonse","1","6","mat_34","","","","","","1","6039.299999952316","","","","","","","","","","","","","","",""
"","","","","","html-keyboard-response","250","630165","0.0-3.0-4.0-0.10","5fc2c0cfdb80f9025c6b4810","D2","batch4","","null","<p class=block-text>Trial 35 out of 60</p>","null","spm_show_trial_num","","","","","","","","","","","","","","","","","","","","","","","","",""
"","","","","","image-button-response","251","641972","0.0-3.0-4.0-1.10","5fc2c0cfdb80f9025c6b4810","D2","batch4","","11805.100000023842","img/question_3_11.jpeg","4","spm_respsonse","0","1","mat_35","","","","","","0","11805.100000023842","","","","","","","","","","","","","","",""
"","","","","","html-keyboard-response","252","643031","0.0-3.0-4.0-0.11","5fc2c0cfdb80f9025c6b4810","D2","batch4","","null","<p class=block-text>Trial 36 out of 60</p>","null","spm_show_trial_num","","","","","","","","","","","","","","","","","","","","","","","","",""
"","","","","","image-button-response","253","648887","0.0-3.0-4.0-1.11","5fc2c0cfdb80f9025c6b4810","D2","batch4","","5853.699999988079","img/question_3_12.jpeg","5","spm_respsonse","0","2","mat_36","","","","","","0","5853.699999988079","","","","","","","","","","","","","","",""
"","","","","","html-keyboard-response","254","649954","0.0-3.0-4.0-0.12","5fc2c0cfdb80f9025c6b4810","D2","batch4","","null","<p class=block-text>Trial 37 out of 60</p>","null","spm_show_trial_num","","","","","","","","","","","","","","","","","","","","","","","","",""
"","","","","","image-button-response","255","654133","0.0-3.0-4.0-1.12","5fc2c0cfdb80f9025c6b4810","D2","batch4","","4177","img/question_4_1.jpeg","2","spm_respsonse","1","3","mat_37","","","","","","1","4177","","","","","","","","","","","","","","",""
"","","","","","html-keyboard-response","256","655184","0.0-3.0-4.0-0.13","5fc2c0cfdb80f9025c6b4810","D2","batch4","","null","<p class=block-text>Trial 38 out of 60</p>","null","spm_show_trial_num","","","","","","","","","","","","","","","","","","","","","","","","",""
"","","","","","image-button-response","257","658450","0.0-3.0-4.0-1.13","5fc2c0cfdb80f9025c6b4810","D2","batch4","","3264.199999988079","img/question_4_2.jpeg","3","spm_respsonse","1","4","mat_38","","","","","","1","3264.199999988079","","","","","","","","","","","","","","",""
"","","","","","html-keyboard-response","258","659509","0.0-3.0-4.0-0.14","5fc2c0cfdb80f9025c6b4810","D2","batch4","","null","<p class=block-text>Trial 39 out of 60</p>","null","spm_show_trial_num","","","","","","","","","","","","","","","","","","","","","","","","",""
"","","","","","image-button-response","259","667655","0.0-3.0-4.0-1.14","5fc2c0cfdb80f9025c6b4810","D2","batch4","","8144.5","img/question_4_3.jpeg","2","spm_respsonse","1","3","mat_39","","","","","","1","8144.5","","","","","","","","","","","","","","",""
"","","","","","html-keyboard-response","260","668706","0.0-3.0-4.0-0.15","5fc2c0cfdb80f9025c6b4810","D2","batch4","","null","<p class=block-text>Trial 40 out of 60</p>","null","spm_show_trial_num","","","","","","","","","","","","","","","","","","","","","","","","",""
"","","","","","image-button-response","261","677741","0.0-3.0-4.0-1.15","5fc2c0cfdb80f9025c6b4810","D2","batch4","","9032.199999988079","img/question_4_4.jpeg","6","spm_respsonse","1","7","mat_40","","","","","","1","9032.199999988079","","","","","","","","","","","","","","",""
"","","","","","html-keyboard-response","262","678792","0.0-3.0-4.0-0.16","5fc2c0cfdb80f9025c6b4810","D2","batch4","","null","<p class=block-text>Trial 41 out of 60</p>","null","spm_show_trial_num","","","","","","","","","","","","","","","","","","","","","","","","",""
"","","","","","image-button-response","263","686319","0.0-3.0-4.0-1.16","5fc2c0cfdb80f9025c6b4810","D2","batch4","","7524.600000023842","img/question_4_5.jpeg","7","spm_respsonse","1","8","mat_41","","","","","","1","7524.600000023842","","","","","","","","","","","","","","",""
"","","","","","html-keyboard-response","264","687371","0.0-3.0-4.0-0.17","5fc2c0cfdb80f9025c6b4810","D2","batch4","","null","<p class=block-text>Trial 42 out of 60</p>","null","spm_show_trial_num","","","","","","","","","","","","","","","","","","","","","","","","",""
"","","","","","image-button-response","265","696628","0.0-3.0-4.0-1.17","5fc2c0cfdb80f9025c6b4810","D2","batch4","","9255.199999988079","img/question_4_6.jpeg","5","spm_respsonse","1","6","mat_42","","","","","","1","9255.199999988079","","","","","","","","","","","","","","",""
"","","","","","html-keyboard-response","266","697694","0.0-3.0-4.0-0.18","5fc2c0cfdb80f9025c6b4810","D2","batch4","","null","<p class=block-text>Trial 43 out of 60</p>","null","spm_show_trial_num","","","","","","","","","","","","","","","","","","","","","","","","",""
"","","","","","image-button-response","267","703146","0.0-3.0-4.0-1.18","5fc2c0cfdb80f9025c6b4810","D2","batch4","","5450","img/question_4_7.jpeg","1","spm_respsonse","0","5","mat_43","","","","","","0","5450","","","","","","","","","","","","","","",""
"","","","","","html-keyboard-response","268","704214","0.0-3.0-4.0-0.19","5fc2c0cfdb80f9025c6b4810","D2","batch4","","null","<p class=block-text>Trial 44 out of 60</p>","null","spm_show_trial_num","","","","","","","","","","","","","","","","","","","","","","","","",""
"","","","","","image-button-response","269","711896","0.0-3.0-4.0-1.19","5fc2c0cfdb80f9025c6b4810","D2","batch4","","7680.399999976158","img/question_4_8.jpeg","3","spm_respsonse","1","4","mat_44","","","","","","1","7680.399999976158","","","","","","","","","","","","","","",""
"","","","","","html-keyboard-response","270","712949","0.0-3.0-4.0-0.20","5fc2c0cfdb80f9025c6b4810","D2","batch4","","null","<p class=block-text>Trial 45 out of 60</p>","null","spm_show_trial_num","","","","","","","","","","","","","","","","","","","","","","","","",""
"","","","","","image-button-response","271","722950","0.0-3.0-4.0-1.20","5fc2c0cfdb80f9025c6b4810","D2","batch4","","9999.199999988079","img/question_4_9.jpeg","4","spm_respsonse","0","1","mat_45","","","","","","0","9999.199999988079","","","","","","","","","","","","","","",""
"","","","","","html-keyboard-response","272","724034","0.0-3.0-4.0-0.21","5fc2c0cfdb80f9025c6b4810","D2","batch4","","null","<p class=block-text>Trial 46 out of 60</p>","null","spm_show_trial_num","","","","","","","","","","","","","","","","","","","","","","","","",""
"","","","","","image-button-response","273","732031","0.0-3.0-4.0-1.21","5fc2c0cfdb80f9025c6b4810","D2","batch4","","7993.600000023842","img/question_4_10.jpeg","1","spm_respsonse","1","2","mat_46","","","","","","1","7993.600000023842","","","","","","","","","","","","","","",""
"","","","","","html-keyboard-response","274","733086","0.0-3.0-4.0-0.22","5fc2c0cfdb80f9025c6b4810","D2","batch4","","null","<p class=block-text>Trial 47 out of 60</p>","null","spm_show_trial_num","","","","","","","","","","","","","","","","","","","","","","","","",""
"","","","","","image-button-response","275","744461","0.0-3.0-4.0-1.22","5fc2c0cfdb80f9025c6b4810","D2","batch4","","11372.300000011921","img/question_4_11.jpeg","5","spm_respsonse","0","5","mat_47","","","","","","0","11372.300000011921","","","","","","","","","","","","","","",""
"","","","","","html-keyboard-response","276","745522","0.0-3.0-4.0-0.23","5fc2c0cfdb80f9025c6b4810","D2","batch4","","null","<p class=block-text>Trial 48 out of 60</p>","null","spm_show_trial_num","","","","","","","","","","","","","","","","","","","","","","","","",""
"","","","","","image-button-response","277","765150","0.0-3.0-4.0-1.23","5fc2c0cfdb80f9025c6b4810","D2","batch4","","19625.899999976158","img/question_4_12.jpeg","6","spm_respsonse","0","6","mat_48","","","","","","0","19625.899999976158","","","","","","","","","","","","","","",""
"","","","","","html-keyboard-response","278","766214","0.0-3.0-4.0-0.24","5fc2c0cfdb80f9025c6b4810","D2","batch4","","null","<p class=block-text>Trial 49 out of 60</p>","null","spm_show_trial_num","","","","","","","","","","","","","","","","","","","","","","","","",""
"","","","","","image-button-response","279","775827","0.0-3.0-4.0-1.24","5fc2c0cfdb80f9025c6b4810","D2","batch4","","9610.899999976158","img/question_5_1.jpeg","6","spm_respsonse","1","7","mat_49","","","","","","1","9610.899999976158","","","","","","","","","","","","","","",""
"","","","","","html-keyboard-response","280","776879","0.0-3.0-4.0-0.25","5fc2c0cfdb80f9025c6b4810","D2","batch4","","null","<p class=block-text>Trial 50 out of 60</p>","null","spm_show_trial_num","","","","","","","","","","","","","","","","","","","","","","","","",""
"","","","","","image-button-response","281","792639","0.0-3.0-4.0-1.25","5fc2c0cfdb80f9025c6b4810","D2","batch4","","15757.400000035763","img/question_5_2.jpeg","5","spm_respsonse","1","6","mat_50","","","","","","1","15757.400000035763","","","","","","","","","","","","","","",""
"","","","","","html-keyboard-response","282","793706","0.0-3.0-4.0-0.26","5fc2c0cfdb80f9025c6b4810","D2","batch4","","null","<p class=block-text>Trial 51 out of 60</p>","null","spm_show_trial_num","","","","","","","","","","","","","","","","","","","","","","","","",""
"","","","","","image-button-response","283","799821","0.0-3.0-4.0-1.26","5fc2c0cfdb80f9025c6b4810","D2","batch4","","6114.199999988079","img/question_5_3.jpeg","7","spm_respsonse","1","8","mat_51","","","","","","1","6114.199999988079","","","","","","","","","","","","","","",""
"","","","","","html-keyboard-response","284","800874","0.0-3.0-4.0-0.27","5fc2c0cfdb80f9025c6b4810","D2","batch4","","null","<p class=block-text>Trial 52 out of 60</p>","null","spm_show_trial_num","","","","","","","","","","","","","","","","","","","","","","","","",""
"","","","","","image-button-response","285","819922","0.0-3.0-4.0-1.27","5fc2c0cfdb80f9025c6b4810","D2","batch4","","19046.400000035763","img/question_5_4.jpeg","1","spm_respsonse","1","2","mat_52","","","","","","1","19046.400000035763","","","","","","","","","","","","","","",""
"","","","","","html-keyboard-response","286","820974","0.0-3.0-4.0-0.28","5fc2c0cfdb80f9025c6b4810","D2","batch4","","null","<p class=block-text>Trial 53 out of 60</p>","null","spm_show_trial_num","","","","","","","","","","","","","","","","","","","","","","","","",""
"","","","","","image-button-response","287","826218","0.0-3.0-4.0-1.28","5fc2c0cfdb80f9025c6b4810","D2","batch4","","5241.899999976158","img/question_5_5.jpeg","4","spm_respsonse","0","1","mat_53","","","","","","0","5241.899999976158","","","","","","","","","","","","","","",""
"","","","","","html-keyboard-response","288","827276","0.0-3.0-4.0-0.29","5fc2c0cfdb80f9025c6b4810","D2","batch4","","null","<p class=block-text>Trial 54 out of 60</p>","null","spm_show_trial_num","","","","","","","","","","","","","","","","","","","","","","","","",""
"","","","","","image-button-response","289","843260","0.0-3.0-4.0-1.29","5fc2c0cfdb80f9025c6b4810","D2","batch4","","15983","img/question_5_6.jpeg","1","spm_respsonse","0","5","mat_54","","","","","","0","15983","","","","","","","","","","","","","","",""
"","","","","","html-keyboard-response","290","844318","0.0-3.0-4.0-0.30","5fc2c0cfdb80f9025c6b4810","D2","batch4","","null","<p class=block-text>Trial 55 out of 60</p>","null","spm_show_trial_num","","","","","","","","","","","","","","","","","","","","","","","","",""
"","","","","","image-button-response","291","857464","0.0-3.0-4.0-1.30","5fc2c0cfdb80f9025c6b4810","D2","batch4","","13144.699999988079","img/question_5_7.jpeg","0","spm_respsonse","1","1","mat_55","","","","","","1","13144.699999988079","","","","","","","","","","","","","","",""
"","","","","","html-keyboard-response","292","858518","0.0-3.0-4.0-0.31","5fc2c0cfdb80f9025c6b4810","D2","batch4","","null","<p class=block-text>Trial 56 out of 60</p>","null","spm_show_trial_num","","","","","","","","","","","","","","","","","","","","","","","","",""
"","","","","","image-button-response","293","866258","0.0-3.0-4.0-1.31","5fc2c0cfdb80f9025c6b4810","D2","batch4","","7739.099999964237","img/question_5_8.jpeg","5","spm_respsonse","1","6","mat_56","","","","","","1","7739.099999964237","","","","","","","","","","","","","","",""
"","","","","","html-keyboard-response","294","867310","0.0-3.0-4.0-0.32","5fc2c0cfdb80f9025c6b4810","D2","batch4","","null","<p class=block-text>Trial 57 out of 60</p>","null","spm_show_trial_num","","","","","","","","","","","","","","","","","","","","","","","","",""
"","","","","","image-button-response","295","881418","0.0-3.0-4.0-1.32","5fc2c0cfdb80f9025c6b4810","D2","batch4","","14106.199999988079","img/question_5_9.jpeg","6","spm_respsonse","0","3","mat_57","","","","","","0","14106.199999988079","","","","","","","","","","","","","","",""
"","","","","","html-keyboard-response","296","882477","0.0-3.0-4.0-0.33","5fc2c0cfdb80f9025c6b4810","D2","batch4","","null","<p class=block-text>Trial 58 out of 60</p>","null","spm_show_trial_num","","","","","","","","","","","","","","","","","","","","","","","","",""
"","","","","","image-button-response","297","893404","0.0-3.0-4.0-1.33","5fc2c0cfdb80f9025c6b4810","D2","batch4","","10925.900000035763","img/question_5_10.jpeg","2","spm_respsonse","0","2","mat_58","","","","","","0","10925.900000035763","","","","","","","","","","","","","","",""
"","","","","","html-keyboard-response","298","894457","0.0-3.0-4.0-0.34","5fc2c0cfdb80f9025c6b4810","D2","batch4","","null","<p class=block-text>Trial 59 out of 60</p>","null","spm_show_trial_num","","","","","","","","","","","","","","","","","","","","","","","","",""
"","","","","","image-button-response","299","906979","0.0-3.0-4.0-1.34","5fc2c0cfdb80f9025c6b4810","D2","batch4","","12519.5","img/question_5_11.jpeg","1","spm_respsonse","0","4","mat_59","","","","","","0","12519.5","","","","","","","","","","","","","","",""
"","","","","","html-keyboard-response","300","908032","0.0-3.0-4.0-0.35","5fc2c0cfdb80f9025c6b4810","D2","batch4","","null","<p class=block-text>Trial 60 out of 60</p>","null","spm_show_trial_num","","","","","","","","","","","","","","","","","","","","","","","","",""
"","","","","","image-button-response","301","915794","0.0-3.0-4.0-1.35","5fc2c0cfdb80f9025c6b4810","D2","batch4","","7760.299999952316","img/question_5_12.jpeg","2","spm_respsonse","0","5","mat_60","","","","","","0","7760.299999952316","","","","","","","","","","","","","","",""
"","","","","","html-button-response","302","917261","0.0-3.0-5.0","5fc2c0cfdb80f9025c6b4810","D2","batch4","","1214.699999988079","<p class= block-text>This concludes the Standard Progressive Matrix game. Thank you for your responses!<br> When you are ready, click the button continue</p>","0","spm_goodbye","","","","","","","","","","","","","","","","","","","","","","","","",""
"true","","","","","fullscreen","303","919422","0.0-4.0-0.0","5fc2c0cfdb80f9025c6b4810","D2","batch4","","","","","","","","","","","","","","","","","","","","","","","","","","","","","",""
"","","","","","instructions","304","1001224","0.0-4.0-1.0-0.0-0.0","5fc2c0cfdb80f9025c6b4810","D2","batch4","[{""page_index"":0,""viewing_time"":12625.399999976158},{""page_index"":1,""viewing_time"":14179.600000023842},{""page_index"":2,""viewing_time"":4959.799999952316},{""page_index"":3,""viewing_time"":17208.30000001192},{""page_index"":4,""viewing_time"":12062.699999988079},{""page_index"":5,""viewing_time"":15913.200000047684},{""page_index"":6,""viewing_time"":4852}]","81801.5","","","tol-instructions","","","","","","","","","","","","","","","","","","","","","","","","",""
"","","","","","html-button-response","305","1002250","0.0-4.0-1.0-1.0-0.0","5fc2c0cfdb80f9025c6b4810","D2","batch4","","1025.0999999642372","<p class=block-text> Let's answer a few questions <br>","0","tol_enter_quiz","","","","","","","","","","","","","","","","","","","","","","","","",""
"","","","","","html-button-response","306","1005628","0.0-4.0-1.0-1.0-1.0","5fc2c0cfdb80f9025c6b4810","D2","batch4","","3376.600000023842","<p class = block-text>True or False: You can only move the ball on top of a peg. <br></p>","1","tol_quiz","false","","","","","","","","","","","","","","","","","","","","","","","",""
"","","","","","html-button-response","307","1006968","0.0-4.0-1.0-1.0-2.0","5fc2c0cfdb80f9025c6b4810","D2","batch4","","1338.2000000476837","<p class = block-text>Incorrect. Remember, you can only move the ball on top of a peg.</p>","0","tol_quiz_feedback","","","","","","","","","","","","","","","","","","","","","","","","",""
"","","","","","html-button-response","308","1009013","0.0-4.0-1.0-1.0-3.0","5fc2c0cfdb80f9025c6b4810","D2","batch4","","2043.5","<p class = block-text>True or False: You should try to match your board with the target board with fewest moves possible. <br></p>","0","tol_quiz","true","","","","","","","","","","","","","","","","","","","","","","","",""
"","","","","","html-button-response","309","1009788","0.0-4.0-1.0-1.0-4.0","5fc2c0cfdb80f9025c6b4810","D2","batch4","","774","<p class = block-text>Correct! </p>","0","tol_quiz_feedback","","","","","","","","","","","","","","","","","","","","","","","","",""
"","","","","","html-button-response","310","1010910","0.0-4.0-1.0-2.0-0.0","5fc2c0cfdb80f9025c6b4810","D2","batch4","","1120","<p class = block-text>You made too many incorrect choices.</p><p class = block-text>You will now repeat the instructions and quiz</p>","0","","","","","","","","","","","","","","","","","","","","","","","","","",""
"","","","","","instructions","311","1016952","0.0-4.0-1.1-0.1-0.1","5fc2c0cfdb80f9025c6b4810","D2","batch4","[{""page_index"":0,""viewing_time"":1263.5},{""page_index"":1,""viewing_time"":616.0999999642372},{""page_index"":2,""viewing_time"":838.4000000357628},{""page_index"":3,""viewing_time"":848.3999999761581},{""page_index"":4,""viewing_time"":519.1000000238419},{""page_index"":5,""viewing_time"":551.8999999761581},{""page_index"":6,""viewing_time"":1404}]","6041.699999988079","","","tol-instructions","","","","","","","","","","","","","","","","","","","","","","","","",""
"","","","","","html-button-response","312","1017962","0.0-4.0-1.1-1.1-0.1","5fc2c0cfdb80f9025c6b4810","D2","batch4","","1009.1999999880791","<p class=block-text> Let's answer a few questions <br>","0","tol_enter_quiz","","","","","","","","","","","","","","","","","","","","","","","","",""
"","","","","","html-button-response","313","1020684","0.0-4.0-1.1-1.1-1.1","5fc2c0cfdb80f9025c6b4810","D2","batch4","","2720.300000011921","<p class = block-text>True or False: You can only move the ball on top of a peg. <br></p>","1","tol_quiz","false","","","","","","","","","","","","","","","","","","","","","","","",""
"","","","","","html-button-response","314","1021594","0.0-4.0-1.1-1.1-2.1","5fc2c0cfdb80f9025c6b4810","D2","batch4","","908.5","<p class = block-text>Incorrect. Remember, you can only move the ball on top of a peg.</p>","0","tol_quiz_feedback","","","","","","","","","","","","","","","","","","","","","","","","",""
"","","","","","html-button-response","315","1023630","0.0-4.0-1.1-1.1-3.1","5fc2c0cfdb80f9025c6b4810","D2","batch4","","2034.800000011921","<p class = block-text>True or False: You should try to match your board with the target board with fewest moves possible. <br></p>","0","tol_quiz","true","","","","","","","","","","","","","","","","","","","","","","","",""
"","","","","","html-button-response","316","1024328","0.0-4.0-1.1-1.1-4.1","5fc2c0cfdb80f9025c6b4810","D2","batch4","","696.7999999523163","<p class = block-text>Correct! </p>","0","tol_quiz_feedback","","","","","","","","","","","","","","","","","","","","","","","","",""
"","","","","","html-button-response","317","1025321","0.0-4.0-1.1-2.1-0.1","5fc2c0cfdb80f9025c6b4810","D2","batch4","","992.7000000476837","<p class = block-text>You made too many incorrect choices.</p><p class = block-text>You will now repeat the instructions and quiz</p>","0","","","","","","","","","","","","","","","","","","","","","","","","","",""
"","","","","","instructions","318","1030154","0.0-4.0-1.2-0.2-0.2","5fc2c0cfdb80f9025c6b4810","D2","batch4","[{""page_index"":0,""viewing_time"":1075.800000011921},{""page_index"":1,""viewing_time"":408.10000002384186},{""page_index"":2,""viewing_time"":448},{""page_index"":3,""viewing_time"":501.89999997615814},{""page_index"":4,""viewing_time"":550},{""page_index"":5,""viewing_time"":692.1000000238419},{""page_index"":6,""viewing_time"":1155.8999999761581}]","4832.199999988079","","","tol-instructions","","","","","","","","","","","","","","","","","","","","","","","","",""
"","","","","","html-button-response","319","1030794","0.0-4.0-1.2-1.2-0.2","5fc2c0cfdb80f9025c6b4810","D2","batch4","","638.7999999523163","<p class=block-text> Let's answer a few questions <br>","0","tol_enter_quiz","","","","","","","","","","","","","","","","","","","","","","","","",""
"","","","","","html-button-response","320","1031314","0.0-4.0-1.2-1.2-1.2","5fc2c0cfdb80f9025c6b4810","D2","batch4","","518.6999999880791","<p class = block-text>True or False: You can only move the ball on top of a peg. <br></p>","0","tol_quiz","true","","","","","","","","","","","","","","","","","","","","","","","",""
"","","","","","html-button-response","321","1032216","0.0-4.0-1.2-1.2-2.2","5fc2c0cfdb80f9025c6b4810","D2","batch4","","901.3999999761581","<p class = block-text>Correct! You can only move the ball on top of a peg.</p>","0","tol_quiz_feedback","","","","","","","","","","","","","","","","","","","","","","","","",""
"","","","","","html-button-response","322","1032738","0.0-4.0-1.2-1.2-3.2","5fc2c0cfdb80f9025c6b4810","D2","batch4","","520.6999999880791","<p class = block-text>True or False: You should try to match your board with the target board with fewest moves possible. <br></p>","0","tol_quiz","true","","","","","","","","","","","","","","","","","","","","","","","",""
"","","","","","html-button-response","323","1033450","0.0-4.0-1.2-1.2-4.2","5fc2c0cfdb80f9025c6b4810","D2","batch4","","711.5","<p class = block-text>Correct! </p>","0","tol_quiz_feedback","","","","","","","","","","","","","","","","","","","","","","","","",""
"","","","","","html-button-response","324","1034780","0.0-4.0-2.0","5fc2c0cfdb80f9025c6b4810","D2","batch4","","1328.3999999761581","<p class=block-text> Now that you've understood the game, let's practice a few easier examples before we start!<br> <br>","0","","","","","","","","","","","","","","","","","","","","","","","","","",""
"","","","","","single-stim-button","325","1051031","0.0-4.0-3.0-0.0","5fc2c0cfdb80f9025c6b4810","D2","batch4","","16248","","","tol_practice","","","","","","","","","","","tol_peg_2","16248","16248","0","[[1,2,0],[0,0],[0]]","1","[[1,2,0],[0,0],[3]]","practice","16248","","","","","",""
"","","","","","single-stim-button","326","1051968","0.0-4.0-3.0-1.0","5fc2c0cfdb80f9025c6b4810","D2","batch4","","936","","","tol_practice","","","","","","","","","","","tol_peg_3","936","936","0","[[1,2,0],[0,0],[3]]","1","[[1,2,0],[0,0],[3]]","practice","936","","","","","",""
"","","","","","poldrack-single-stim","327","1052971","0.0-4.0-4.0","5fc2c0cfdb80f9025c6b4810","D2","batch4","","-1","","","tol_feedback","true","","","","","","","","","","","1000","1000","500","","","","","","-1","none","true","","0",""
"","","","","","single-stim-button","328","1056086","0.0-4.0-5.0-0.0","5fc2c0cfdb80f9025c6b4810","D2","batch4","","3115","","","tol_practice","","","","","","","","","","","tol_peg_1","3115","3115","0","[[1,0,0],[3,0],[0]]","2","[[0,0,0],[3,1],[2]]","practice","3115","","","","","",""
"","","","","","single-stim-button","329","1056964","0.0-4.0-5.0-1.0","5fc2c0cfdb80f9025c6b4810","D2","batch4","","877","","","tol_practice","","","","","","","","","","","tol_peg_3","877","877","0","[[1,0,0],[3,0],[2]]","2","[[0,0,0],[3,1],[2]]","practice","877","","","","","",""
"","","","","","single-stim-button","330","1058151","0.0-4.0-5.1-0.1","5fc2c0cfdb80f9025c6b4810","D2","batch4","","1186","","","tol_practice","","","","","","","","","","","tol_peg_1","1186","1186","0","[[0,0,0],[3,0],[2]]","3","[[0,0,0],[3,1],[2]]","practice","1186","","","","","",""
"","","","","","single-stim-button","331","1059037","0.0-4.0-5.1-1.1","5fc2c0cfdb80f9025c6b4810","D2","batch4","","885","","","tol_practice","","","","","","","","","","","tol_peg_2","885","885","0","[[0,0,0],[3,1],[2]]","3","[[0,0,0],[3,1],[2]]","practice","885","","","","","",""
"","","","","","poldrack-single-stim","332","1060046","0.0-4.0-6.0","5fc2c0cfdb80f9025c6b4810","D2","batch4","","-1","","","tol_feedback","true","","","","","","","","","","","1000","1000","500","","","","","","-1","none","true","","0",""
"","","","","","single-stim-button","333","1064157","0.0-4.0-7.0-0.0","5fc2c0cfdb80f9025c6b4810","D2","batch4","","4109","","","tol_practice","","","","","","","","","","","tol_peg_2","4109","4109","0","[[1,2,0],[0,0],[0]]","4","[[1,0,0],[2,0],[3]]","practice","4109","","","","","",""
"","","","","","single-stim-button","334","1064872","0.0-4.0-7.0-1.0","5fc2c0cfdb80f9025c6b4810","D2","batch4","","715","","","tol_practice","","","","","","","","","","","tol_peg_3","715","715","0","[[1,2,0],[0,0],[3]]","4","[[1,0,0],[2,0],[3]]","practice","715","","","","","",""
"","","","","","single-stim-button","335","1065547","0.0-4.0-7.1-0.1","5fc2c0cfdb80f9025c6b4810","D2","batch4","","673","","","tol_practice","","","","","","","","","","","tol_peg_1","673","673","0","[[1,0,0],[0,0],[3]]","5","[[1,0,0],[2,0],[3]]","practice","673","","","","","",""
"","","","","","single-stim-button","336","1066468","0.0-4.0-7.1-1.1","5fc2c0cfdb80f9025c6b4810","D2","batch4","","921","","","tol_practice","","","","","","","","","","","tol_peg_2","921","921","0","[[1,0,0],[2,0],[3]]","5","[[1,0,0],[2,0],[3]]","practice","921","","","","","",""
"","","","","","poldrack-single-stim","337","1067492","0.0-4.0-8.0","5fc2c0cfdb80f9025c6b4810","D2","batch4","","-1","","","tol_feedback","true","","","","","","","","","","","1000","1000","500","","","","","","-1","none","true","","0",""
"","","","","","html-button-response","338","1070988","0.0-4.0-9.0","5fc2c0cfdb80f9025c6b4810","D2","batch4","","3494.800000011921","<div class = centerbox><p class = center-block-text>Great job! You are done with practice trials<br>You are about to start official trials.<br> <br> Problem <strong>1</strong> out of 25 problems</p></div>","0","tol_instruction","","","","","","","","","","","","","","","","","","","","","","","","",""
"","","","","","single-stim-button","339","1077502","0.0-4.0-10.0-0.0","5fc2c0cfdb80f9025c6b4810","D2","batch4","","5497","","","tol_tohand","","","","","","","","","","","tol_peg_1","5497","5497","0","[[1,0,0],[3,0],[0]]","1","[[1,3,0],[2,0],[0]]","0","0","","","","","","3"
"","","","","","single-stim-button","340","1078291","0.0-4.0-10.0-1.0","5fc2c0cfdb80f9025c6b4810","D2","batch4","","788","","","tol_toboard","","","","","","","","","","","tol_peg_3","788","788","0","[[1,0,0],[3,0],[2]]","1","[[1,3,0],[2,0],[0]]","0","0","","","","","","3"
"","","","","","single-stim-button","341","1078911","0.0-4.0-10.1-0.1","5fc2c0cfdb80f9025c6b4810","D2","batch4","","619","","","tol_tohand","","","","","","","","","","","tol_peg_2","619","619","0","[[1,0,0],[0,0],[2]]","2","[[1,3,0],[2,0],[0]]","0","0","","","","","","3"
"","","","","","single-stim-button","342","1079438","0.0-4.0-10.1-1.1","5fc2c0cfdb80f9025c6b4810","D2","batch4","","527","","","tol_toboard","","","","","","","","","","","tol_peg_1","527","527","0","[[1,3,0],[0,0],[2]]","2","[[1,3,0],[2,0],[0]]","0","0","","","","","","3"
"","","","","","single-stim-button","343","1080729","0.0-4.0-10.2-0.2","5fc2c0cfdb80f9025c6b4810","D2","batch4","","1291","","","tol_tohand","","","","","","","","","","","tol_peg_3","1291","1291","0","[[1,3,0],[0,0],[0]]","3","[[1,3,0],[2,0],[0]]","0","0","","","","","","3"
