"success","timeout","failed_images","failed_audio","failed_video","trial_type","trial_index","time_elapsed","internal_node_id","subject_id","study_id","session_id","view_history","rt","stimulus","response","task","correct","answer","item","fiar_detect_rt","fiar_detect_correct","total_correct_fiar_detect","post_trial_gap","choices","mouse_click","stim_duration","block_duration","timing_post_trial","current_position","tol_num_moves_made","tol_target","tol_problem_id","tol_rt","key_press","possible_responses","tol_correct","preplanning","tol_rt_per_trial","tol_min_moves","spm_correct","spm_rt"
"true","false","[]","[]","[]","preload","0","12078","0.0-0.0","5fc7e4142a10490c47936a64","C3","batch3","","","","","","","","","","","","","","","","","","","","","","","","","","","","","",""
"true","","","","","fullscreen","1","19681","0.0-1.0-0.0","5fc7e4142a10490c47936a64","C3","batch3","","","","","","","","","","","","","","","","","","","","","","","","","","","","","",""
"true","","","","","fullscreen","2","24092","0.0-2.0-0.0","5fc7e4142a10490c47936a64","C3","batch3","","","","","","","","","","","","","","","","","","","","","","","","","","","","","",""
"","","","","","instructions","3","42755","0.0-2.0-1.0-0.0","5fc7e4142a10490c47936a64","C3","batch3","[{""page_index"":0,""viewing_time"":8487.899999976158},{""page_index"":1,""viewing_time"":10173.300000071526}]","18661.600000023842","","","","","","","","","","","","","","","","","","","","","","","","","","","",""
"","","","","","html-button-response","4","44560","0.0-2.0-1.0-1.0-0.0","5fc7e4142a10490c47936a64","C3","batch3","","1803.7999999523163","<p class=block-text> Let's answer a few questions <br>","0","pattern_enter_quiz","","","","","","","","","","","","","","","","","","","","","","","","",""
"","","","","","html-button-response","5","46739","0.0-2.0-1.0-1.0-1.0","5fc7e4142a10490c47936a64","C3","batch3","","2178.399999976158","<p class = block-text>True or False: You will have as much time as you want to make each choice. <br></p>","1","pattern_quiz","true","","","","","","","","","","","","","","","","","","","","","","","",""
"","","","","","html-button-response","6","48015","0.0-2.0-1.0-1.0-2.0","5fc7e4142a10490c47936a64","C3","batch3","","1274.8999999761581","<p class = block-text>Correct! You should make your choice <strong> as fast as you can</strong>.</p>","0","pattern_quiz_feedback","","","","","","","","","","","","","","","","","","","","","","","","",""
"","","","","","html-button-response","7","50895","0.0-2.0-1.0-1.0-3.0","5fc7e4142a10490c47936a64","C3","batch3","","2879.2000000476837","<p class = block-text>True or False: You will look for 4 pieces in black or white color connected in a row either horizontally, vertically or diagonally. <br></p>","0","pattern_quiz","true","","","","","","","","","","","","","","","","","","","","","","","",""
"","","","","","html-button-response","8","51666","0.0-2.0-1.0-1.0-4.0","5fc7e4142a10490c47936a64","C3","batch3","","770.5","<p class = block-text>Correct! </p>","0","pattern_quiz_feedback","","","","","","","","","","","","","","","","","","","","","","","","",""
"","","","","","html-button-response","9","53234","0.0-2.0-2.0","5fc7e4142a10490c47936a64","C3","batch3","","1567.1000000238419","<p class=block-text> Now that you've understood the game, let's do a few practice trials before we start!<br> <br>","0","pattern_enter_practice","","","","","","","","","","","","","","","","","","","","","","","","",""
"","","","","","image-keyboard-response","10","55731","0.0-2.0-3.0-0.0","5fc7e4142a10490c47936a64","C3","batch3","","2494.7999999523163","stim/prac_no_18_1.png","j","pattern_practice","true","j","","","","","","","","","","","","","","","","","","","","","","",""
"","","","","","html-keyboard-response","11","56750","0.0-2.0-3.0-1.0","5fc7e4142a10490c47936a64","C3","batch3","","null","<p style=""font-size:30px;color:green;"">Correct!</p>","null","pattern_feedback","","","","","","","","","","","","","","","","","","","","","","","","",""
"","","","","","image-keyboard-response","12","57883","0.0-2.0-3.0-0.1","5fc7e4142a10490c47936a64","C3","batch3","","1131.7000000476837","stim/prac_yes_20_dia_b1.png","f","pattern_practice","true","f","","","","","","","","","","","","","","","","","","","","","","",""
"","","","","","html-keyboard-response","13","58902","0.0-2.0-3.0-1.1","5fc7e4142a10490c47936a64","C3","batch3","","null","<p style=""font-size:30px;color:green;"">Correct!</p>","null","pattern_feedback","","","","","","","","","","","","","","","","","","","","","","","","",""
"","","","","","image-keyboard-response","14","60698","0.0-2.0-3.0-0.2","5fc7e4142a10490c47936a64","C3","batch3","","1794.8999999761581","stim/prac_no_16_1.png","j","pattern_practice","true","j","","","","","","","","","","","","","","","","","","","","","","",""
"","","","","","html-keyboard-response","15","61722","0.0-2.0-3.0-1.2","5fc7e4142a10490c47936a64","C3","batch3","","null","<p style=""font-size:30px;color:green;"">Correct!</p>","null","pattern_feedback","","","","","","","","","","","","","","","","","","","","","","","","",""
"","","","","","image-keyboard-response","16","63155","0.0-2.0-3.0-0.3","5fc7e4142a10490c47936a64","C3","batch3","","1431.3000000715256","stim/prac_yes_18_hor_w1.png","f","pattern_practice","true","f","","","","","","","","","","","","","","","","","","","","","","",""
"","","","","","html-keyboard-response","17","64174","0.0-2.0-3.0-1.3","5fc7e4142a10490c47936a64","C3","batch3","","null","<p style=""font-size:30px;color:green;"">Correct!</p>","null","pattern_feedback","","","","","","","","","","","","","","","","","","","","","","","","",""
"","","","","","image-keyboard-response","18","65667","0.0-2.0-3.0-0.4","5fc7e4142a10490c47936a64","C3","batch3","","1491.1000000238419","stim/prac_yes_16_ver_w1.png","f","pattern_practice","true","f","","","","","","","","","","","","","","","","","","","","","","",""
"","","","","","html-keyboard-response","19","66695","0.0-2.0-3.0-1.4","5fc7e4142a10490c47936a64","C3","batch3","","null","<p style=""font-size:30px;color:green;"">Correct!</p>","null","pattern_feedback","","","","","","","","","","","","","","","","","","","","","","","","",""
"","","","","","html-button-response","20","145750","0.0-2.0-4.0","5fc7e4142a10490c47936a64","C3","batch3","","79053.79999995232","<p class=block-text> Good job! You are done with practice trials!<br>
        You responded correctly on 100% of the trials.<br>
        Press the button below to start official trials. Now you won't see any feedback about your response</p>","0","pattern_enter_official_trials","","","","","","","","","","","","","","","","","","","","","","","","",""
"","","","","","html-keyboard-response","21","146563","0.0-2.0-5.0-0.0","5fc7e4142a10490c47936a64","C3","batch3","","null","<p class=block-text>Trial 1 out of 78</p>","null","pattern_show_trial_num","","","","","","","","","","","","","","","","","","","","","","","","",""
"","","","","","image-keyboard-response","22","149138","0.0-2.0-5.0-1.0","5fc7e4142a10490c47936a64","C3","batch3","","2573.100000023842","stim/yes_26_dia_w2_w.png","f","pattern_response","true","f","pattern_50","2573.100000023842","true","1","","","","","","","","","","","","","","","","","","",""
"","","","","","html-keyboard-response","23","150456","0.0-2.0-5.0-0.1","5fc7e4142a10490c47936a64","C3","batch3","","null","<p class=block-text>Trial 2 out of 78</p>","null","pattern_show_trial_num","","","","","","","","","","","","","","","","","","","","","","","","",""
"","","","","","image-keyboard-response","24","151482","0.0-2.0-5.0-1.1","5fc7e4142a10490c47936a64","C3","batch3","","1024.5","stim/yes_29_hor_b1_b.png","f","pattern_response","true","f","pattern_52","1024.5","true","2","","","","","","","","","","","","","","","","","","",""
"","","","","","html-keyboard-response","25","152805","0.0-2.0-5.0-0.2","5fc7e4142a10490c47936a64","C3","batch3","","null","<p class=block-text>Trial 3 out of 78</p>","null","pattern_show_trial_num","","","","","","","","","","","","","","","","","","","","","","","","",""
"","","","","","image-keyboard-response","26","153698","0.0-2.0-5.0-1.2","5fc7e4142a10490c47936a64","C3","batch3","","891.2000000476837","stim/yes_23_ver_b1.png","f","pattern_response","true","f","pattern_48","891.2000000476837","true","3","","","","","","","","","","","","","","","","","","",""
"","","","","","html-keyboard-response","27","155015","0.0-2.0-5.0-0.3","5fc7e4142a10490c47936a64","C3","batch3","","null","<p class=block-text>Trial 4 out of 78</p>","null","pattern_show_trial_num","","","","","","","","","","","","","","","","","","","","","","","","",""
"","","","","","image-keyboard-response","28","155890","0.0-2.0-5.0-1.3","5fc7e4142a10490c47936a64","C3","batch3","","873.1000000238419","stim/yes_30_ver_b1_b.png","f","pattern_response","true","f","pattern_54","873.1000000238419","true","4","","","","","","","","","","","","","","","","","","",""
"","","","","","html-keyboard-response","29","157206","0.0-2.0-5.0-0.4","5fc7e4142a10490c47936a64","C3","batch3","","null","<p class=block-text>Trial 5 out of 78</p>","null","pattern_show_trial_num","","","","","","","","","","","","","","","","","","","","","","","","",""
"","","","","","image-keyboard-response","30","159282","0.0-2.0-5.0-1.4","5fc7e4142a10490c47936a64","C3","batch3","","2075.3000000715256","stim/yes_51_dia_b1.png","f","pattern_response","true","f","pattern_72","2075.3000000715256","true","5","","","","","","","","","","","","","","","","","","",""
"","","","","","html-keyboard-response","31","160605","0.0-2.0-5.0-0.5","5fc7e4142a10490c47936a64","C3","batch3","","null","<p class=block-text>Trial 6 out of 78</p>","null","pattern_show_trial_num","","","","","","","","","","","","","","","","","","","","","","","","",""
"","","","","","image-keyboard-response","32","163171","0.0-2.0-5.0-1.5","5fc7e4142a10490c47936a64","C3","batch3","","2564.0999999046326","stim/yes_53_ver_b1_b.png","j","pattern_response","false","f","pattern_74","2564.0999999046326","false","5","","","","","","","","","","","","","","","","","","",""
"","","","","","html-keyboard-response","33","164486","0.0-2.0-5.0-0.6","5fc7e4142a10490c47936a64","C3","batch3","","null","<p class=block-text>Trial 7 out of 78</p>","null","pattern_show_trial_num","","","","","","","","","","","","","","","","","","","","","","","","",""
"","","","","","image-keyboard-response","34","166106","0.0-2.0-5.0-1.6","5fc7e4142a10490c47936a64","C3","batch3","","1618.5","stim/yes_46_ver_b1_b.png","f","pattern_response","true","f","pattern_68","1618.5","true","6","","","","","","","","","","","","","","","","","","",""
"","","","","","html-keyboard-response","35","167433","0.0-2.0-5.0-0.7","5fc7e4142a10490c47936a64","C3","batch3","","null","<p class=block-text>Trial 8 out of 78</p>","null","pattern_show_trial_num","","","","","","","","","","","","","","","","","","","","","","","","",""
"","","","","","image-keyboard-response","36","169834","0.0-2.0-5.0-1.7","5fc7e4142a10490c47936a64","C3","batch3","","2399.6999999284744","stim/no_25_1_b.png","j","pattern_response","true","j","pattern_09","2399.6999999284744","true","7","","","","","","","","","","","","","","","","","","",""
"","","","","","html-keyboard-response","37","171160","0.0-2.0-5.0-0.8","5fc7e4142a10490c47936a64","C3","batch3","","null","<p class=block-text>Trial 9 out of 78</p>","null","pattern_show_trial_num","","","","","","","","","","","","","","","","","","","","","","","","",""
"","","","","","image-keyboard-response","38","171946","0.0-2.0-5.0-1.8","5fc7e4142a10490c47936a64","C3","batch3","","785.2000000476837","stim/yes_17_ver_b1_b.png","f","pattern_response","true","f","pattern_46","785.2000000476837","true","8","","","","","","","","","","","","","","","","","","",""
"","","","","","html-keyboard-response","39","173267","0.0-2.0-5.0-0.9","5fc7e4142a10490c47936a64","C3","batch3","","null","<p class=block-text>Trial 10 out of 78</p>","null","pattern_show_trial_num","","","","","","","","","","","","","","","","","","","","","","","","",""
"","","","","","image-keyboard-response","40","176667","0.0-2.0-5.0-1.9","5fc7e4142a10490c47936a64","C3","batch3","","3398","stim/yes_63_dia_b1.png","j","pattern_response","false","f","pattern_78","3398","false","8","","","","","","","","","","","","","","","","","","",""
"","","","","","html-keyboard-response","41","177982","0.0-2.0-5.0-0.10","5fc7e4142a10490c47936a64","C3","batch3","","null","<p class=block-text>Trial 11 out of 78</p>","null","pattern_show_trial_num","","","","","","","","","","","","","","","","","","","","","","","","",""
"","","","","","image-keyboard-response","42","180778","0.0-2.0-5.0-1.10","5fc7e4142a10490c47936a64","C3","batch3","","2794.2000000476837","stim/no_39_1_w.png","j","pattern_response","true","j","pattern_21","2794.2000000476837","true","9","","","","","","","","","","","","","","","","","","",""
"","","","","","html-keyboard-response","43","182090","0.0-2.0-5.0-0.11","5fc7e4142a10490c47936a64","C3","batch3","","null","<p class=block-text>Trial 12 out of 78</p>","null","pattern_show_trial_num","","","","","","","","","","","","","","","","","","","","","","","","",""
"","","","","","image-keyboard-response","44","183217","0.0-2.0-5.0-1.11","5fc7e4142a10490c47936a64","C3","batch3","","1125.5","stim/no_12_1.png","j","pattern_response","true","j","pattern_01","1125.5","true","10","","","","","","","","","","","","","","","","","","",""
"","","","","","html-keyboard-response","45","184537","0.0-2.0-5.0-0.12","5fc7e4142a10490c47936a64","C3","batch3","","null","<p class=block-text>Trial 13 out of 78</p>","null","pattern_show_trial_num","","","","","","","","","","","","","","","","","","","","","","","","",""
"","","","","","image-keyboard-response","46","187003","0.0-2.0-5.0-1.12","5fc7e4142a10490c47936a64","C3","batch3","","2464.1999999284744","stim/yes_58_dia_w1_w.png","j","pattern_response","false","f","pattern_76","2464.1999999284744","false","10","","","","","","","","","","","","","","","","","","",""
"","","","","","html-keyboard-response","47","188324","0.0-2.0-5.0-0.13","5fc7e4142a10490c47936a64","C3","batch3","","null","<p class=block-text>Trial 14 out of 78</p>","null","pattern_show_trial_num","","","","","","","","","","","","","","","","","","","","","","","","",""
"","","","","","image-keyboard-response","48","190619","0.0-2.0-5.0-1.13","5fc7e4142a10490c47936a64","C3","batch3","","2292.5999999046326","stim/no_37_2_w.png","j","pattern_response","true","j","pattern_19","2292.5999999046326","true","11","","","","","","","","","","","","","","","","","","",""
"","","","","","html-keyboard-response","49","191942","0.0-2.0-5.0-0.14","5fc7e4142a10490c47936a64","C3","batch3","","null","<p class=block-text>Trial 15 out of 78</p>","null","pattern_show_trial_num","","","","","","","","","","","","","","","","","","","","","","","","",""
"","","","","","image-keyboard-response","50","193874","0.0-2.0-5.0-1.14","5fc7e4142a10490c47936a64","C3","batch3","","1929.7999999523163","stim/no_58_1_w.png","j","pattern_response","true","j","pattern_35","1929.7999999523163","true","12","","","","","","","","","","","","","","","","","","",""
"","","","","","html-keyboard-response","51","195179","0.0-2.0-5.0-0.15","5fc7e4142a10490c47936a64","C3","batch3","","null","<p class=block-text>Trial 16 out of 78</p>","null","pattern_show_trial_num","","","","","","","","","","","","","","","","","","","","","","","","",""
"","","","","","image-keyboard-response","52","196009","0.0-2.0-5.0-1.15","5fc7e4142a10490c47936a64","C3","batch3","","828.1000000238419","stim/no_15_1_w.png","j","pattern_response","true","j","pattern_03","828.1000000238419","true","13","","","","","","","","","","","","","","","","","","",""
"","","","","","html-keyboard-response","53","197336","0.0-2.0-5.0-0.16","5fc7e4142a10490c47936a64","C3","batch3","","null","<p class=block-text>Trial 17 out of 78</p>","null","pattern_show_trial_num","","","","","","","","","","","","","","","","","","","","","","","","",""
"","","","","","image-keyboard-response","54","198795","0.0-2.0-5.0-1.16","5fc7e4142a10490c47936a64","C3","batch3","","1457.1000000238419","stim/no_36_1_b.png","j","pattern_response","true","j","pattern_17","1457.1000000238419","true","14","","","","","","","","","","","","","","","","","","",""
"","","","","","html-keyboard-response","55","200118","0.0-2.0-5.0-0.17","5fc7e4142a10490c47936a64","C3","batch3","","null","<p class=block-text>Trial 18 out of 78</p>","null","pattern_show_trial_num","","","","","","","","","","","","","","","","","","","","","","","","",""
"","","","","","image-keyboard-response","56","200762","0.0-2.0-5.0-1.17","5fc7e4142a10490c47936a64","C3","batch3","","641.2000000476837","stim/yes_70_ver_b1.png","f","pattern_response","true","f","pattern_80","641.2000000476837","true","15","","","","","","","","","","","","","","","","","","",""
"","","","","","html-keyboard-response","57","202072","0.0-2.0-5.0-0.18","5fc7e4142a10490c47936a64","C3","batch3","","null","<p class=block-text>Trial 19 out of 78</p>","null","pattern_show_trial_num","","","","","","","","","","","","","","","","","","","","","","","","",""
"","","","","","image-keyboard-response","58","203714","0.0-2.0-5.0-1.18","5fc7e4142a10490c47936a64","C3","batch3","","1640.8999999761581","stim/no_33_1_b.png","j","pattern_response","true","j","pattern_15","1640.8999999761581","true","16","","","","","","","","","","","","","","","","","","",""
"","","","","","html-keyboard-response","59","205033","0.0-2.0-5.0-0.19","5fc7e4142a10490c47936a64","C3","batch3","","null","<p class=block-text>Trial 20 out of 78</p>","null","pattern_show_trial_num","","","","","","","","","","","","","","","","","","","","","","","","",""
"","","","","","image-keyboard-response","60","206499","0.0-2.0-5.0-1.19","5fc7e4142a10490c47936a64","C3","batch3","","1464.1999999284744","stim/yes_33_dia_w1_w.png","f","pattern_response","true","f","pattern_56","1464.1999999284744","true","17","","","","","","","","","","","","","","","","","","",""
"","","","","","html-keyboard-response","61","207819","0.0-2.0-5.0-0.20","5fc7e4142a10490c47936a64","C3","batch3","","null","<p class=block-text>Trial 21 out of 78</p>","null","pattern_show_trial_num","","","","","","","","","","","","","","","","","","","","","","","","",""
"","","","","","image-keyboard-response","62","208394","0.0-2.0-5.0-1.20","5fc7e4142a10490c47936a64","C3","batch3","","574.7000000476837","stim/yes_36_ver_w1_w.png","f","pattern_response","true","f","pattern_58","574.7000000476837","true","18","","","","","","","","","","","","","","","","","","",""
"","","","","","html-keyboard-response","63","209720","0.0-2.0-5.0-0.21","5fc7e4142a10490c47936a64","C3","batch3","","null","<p class=block-text>Trial 22 out of 78</p>","null","pattern_show_trial_num","","","","","","","","","","","","","","","","","","","","","","","","",""
"","","","","","image-keyboard-response","64","213042","0.0-2.0-5.0-1.21","5fc7e4142a10490c47936a64","C3","batch3","","3320.5999999046326","stim/no_51_1.png","j","pattern_response","true","j","pattern_31","3320.5999999046326","true","19","","","","","","","","","","","","","","","","","","",""
"","","","","","html-keyboard-response","65","214354","0.0-2.0-5.0-0.22","5fc7e4142a10490c47936a64","C3","batch3","","null","<p class=block-text>Trial 23 out of 78</p>","null","pattern_show_trial_num","","","","","","","","","","","","","","","","","","","","","","","","",""
"","","","","","image-keyboard-response","66","215906","0.0-2.0-5.0-1.22","5fc7e4142a10490c47936a64","C3","batch3","","1549.8000000715256","stim/yes_44_ver_w1_w.png","f","pattern_response","true","f","pattern_66","1549.8000000715256","true","20","","","","","","","","","","","","","","","","","","",""
"","","","","","html-keyboard-response","67","217218","0.0-2.0-5.0-0.23","5fc7e4142a10490c47936a64","C3","batch3","","null","<p class=block-text>Trial 24 out of 78</p>","null","pattern_show_trial_num","","","","","","","","","","","","","","","","","","","","","","","","",""
"","","","","","image-keyboard-response","68","219154","0.0-2.0-5.0-1.23","5fc7e4142a10490c47936a64","C3","batch3","","1934.6000000238419","stim/no_53_1_b.png","f","pattern_response","false","j","pattern_33","1934.6000000238419","false","20","","","","","","","","","","","","","","","","","","",""
"","","","","","html-keyboard-response","69","220467","0.0-2.0-5.0-0.24","5fc7e4142a10490c47936a64","C3","batch3","","null","<p class=block-text>Trial 25 out of 78</p>","null","pattern_show_trial_num","","","","","","","","","","","","","","","","","","","","","","","","",""
"","","","","","image-keyboard-response","70","221963","0.0-2.0-5.0-1.24","5fc7e4142a10490c47936a64","C3","batch3","","1493.7999999523163","stim/no_18_1_b.png","j","pattern_response","true","j","pattern_05","1493.7999999523163","true","21","","","","","","","","","","","","","","","","","","",""
"","","","","","html-keyboard-response","71","223285","0.0-2.0-5.0-0.25","5fc7e4142a10490c47936a64","C3","batch3","","null","<p class=block-text>Trial 26 out of 78</p>","null","pattern_show_trial_num","","","","","","","","","","","","","","","","","","","","","","","","",""
"","","","","","image-keyboard-response","72","225435","0.0-2.0-5.0-1.25","5fc7e4142a10490c47936a64","C3","batch3","","2148.3000000715256","stim/no_47_1_b.png","j","pattern_response","true","j","pattern_27","2148.3000000715256","true","22","","","","","","","","","","","","","","","","","","",""
"","","","","","html-keyboard-response","73","226758","0.0-2.0-5.0-0.26","5fc7e4142a10490c47936a64","C3","batch3","","null","<p class=block-text>Trial 27 out of 78</p>","null","pattern_show_trial_num","","","","","","","","","","","","","","","","","","","","","","","","",""
"","","","","","image-keyboard-response","74","228890","0.0-2.0-5.0-1.26","5fc7e4142a10490c47936a64","C3","batch3","","2131.5","stim/no_45_1_w.png","j","pattern_response","true","j","pattern_25","2131.5","true","23","","","","","","","","","","","","","","","","","","",""
"","","","","","html-keyboard-response","75","230202","0.0-2.0-5.0-0.27","5fc7e4142a10490c47936a64","C3","batch3","","null","<p class=block-text>Trial 28 out of 78</p>","null","pattern_show_trial_num","","","","","","","","","","","","","","","","","","","","","","","","",""
"","","","","","image-keyboard-response","76","230906","0.0-2.0-5.0-1.27","5fc7e4142a10490c47936a64","C3","batch3","","703.1999999284744","stim/yes_12_hor_w1_w.png","f","pattern_response","true","f","pattern_42","703.1999999284744","true","24","","","","","","","","","","","","","","","","","","",""
"","","","","","html-keyboard-response","77","232231","0.0-2.0-5.0-0.28","5fc7e4142a10490c47936a64","C3","batch3","","null","<p class=block-text>Trial 29 out of 78</p>","null","pattern_show_trial_num","","","","","","","","","","","","","","","","","","","","","","","","",""
"","","","","","image-keyboard-response","78","234218","0.0-2.0-5.0-1.28","5fc7e4142a10490c47936a64","C3","batch3","","1985","stim/no_28_2.png","j","pattern_response","true","j","pattern_11","1985","true","25","","","","","","","","","","","","","","","","","","",""
"","","","","","html-keyboard-response","79","235533","0.0-2.0-5.0-0.29","5fc7e4142a10490c47936a64","C3","batch3","","null","<p class=block-text>Trial 30 out of 78</p>","null","pattern_show_trial_num","","","","","","","","","","","","","","","","","","","","","","","","",""
"","","","","","image-keyboard-response","80","236611","0.0-2.0-5.0-1.29","5fc7e4142a10490c47936a64","C3","batch3","","1076.3999999761581","stim/yes_37_hor_w1_w.png","f","pattern_response","true","f","pattern_60","1076.3999999761581","true","26","","","","","","","","","","","","","","","","","","",""
"","","","","","html-keyboard-response","81","237931","0.0-2.0-5.0-0.30","5fc7e4142a10490c47936a64","C3","batch3","","null","<p class=block-text>Trial 31 out of 78</p>","null","pattern_show_trial_num","","","","","","","","","","","","","","","","","","","","","","","","",""
"","","","","","image-keyboard-response","82","239994","0.0-2.0-5.0-1.30","5fc7e4142a10490c47936a64","C3","batch3","","2061.8000000715256","stim/yes_42_dia_w1_w.png","j","pattern_response","false","f","pattern_64","2061.8000000715256","false","26","","","","","","","","","","","","","","","","","","",""
"","","","","","html-keyboard-response","83","241311","0.0-2.0-5.0-0.31","5fc7e4142a10490c47936a64","C3","batch3","","null","<p class=block-text>Trial 32 out of 78</p>","null","pattern_show_trial_num","","","","","","","","","","","","","","","","","","","","","","","","",""
"","","","","","image-keyboard-response","84","242786","0.0-2.0-5.0-1.31","5fc7e4142a10490c47936a64","C3","batch3","","1473.2999999523163","stim/yes_39_hor_w1_w.png","f","pattern_response","true","f","pattern_62","1473.2999999523163","true","27","","","","","","","","","","","","","","","","","","",""
"","","","","","html-keyboard-response","85","244102","0.0-2.0-5.0-0.32","5fc7e4142a10490c47936a64","C3","batch3","","null","<p class=block-text>Trial 33 out of 78</p>","null","pattern_show_trial_num","","","","","","","","","","","","","","","","","","","","","","","","",""
"","","","","","image-keyboard-response","86","245490","0.0-2.0-5.0-1.32","5fc7e4142a10490c47936a64","C3","batch3","","1386.3999999761581","stim/no_22_1_b.png","j","pattern_response","true","j","pattern_07","1386.3999999761581","true","28","","","","","","","","","","","","","","","","","","",""
"","","","","","html-keyboard-response","87","246812","0.0-2.0-5.0-0.33","5fc7e4142a10490c47936a64","C3","batch3","","null","<p class=block-text>Trial 34 out of 78</p>","null","pattern_show_trial_num","","","","","","","","","","","","","","","","","","","","","","","","",""
"","","","","","image-keyboard-response","88","248690","0.0-2.0-5.0-1.33","5fc7e4142a10490c47936a64","C3","batch3","","1876.3999999761581","stim/no_49_2_b.png","j","pattern_response","true","j","pattern_29","1876.3999999761581","true","29","","","","","","","","","","","","","","","","","","",""
"","","","","","html-keyboard-response","89","250009","0.0-2.0-5.0-0.34","5fc7e4142a10490c47936a64","C3","batch3","","null","<p class=block-text>Trial 35 out of 78</p>","null","pattern_show_trial_num","","","","","","","","","","","","","","","","","","","","","","","","",""
"","","","","","image-keyboard-response","90","251137","0.0-2.0-5.0-1.34","5fc7e4142a10490c47936a64","C3","batch3","","1127.1999999284744","stim/yes_49_hor_w1_b.png","f","pattern_response","true","f","pattern_70","1127.1999999284744","true","30","","","","","","","","","","","","","","","","","","",""
"","","","","","html-keyboard-response","91","252450","0.0-2.0-5.0-0.35","5fc7e4142a10490c47936a64","C3","batch3","","null","<p class=block-text>Trial 36 out of 78</p>","null","pattern_show_trial_num","","","","","","","","","","","","","","","","","","","","","","","","",""
"","","","","","image-keyboard-response","92","253595","0.0-2.0-5.0-1.35","5fc7e4142a10490c47936a64","C3","batch3","","1143","stim/yes_15_dia_b1u_b.png","f","pattern_response","true","f","pattern_44","1143","true","31","","","","","","","","","","","","","","","","","","",""
"","","","","","html-keyboard-response","93","254915","0.0-2.0-5.0-0.36","5fc7e4142a10490c47936a64","C3","batch3","","null","<p class=block-text>Trial 37 out of 78</p>","null","pattern_show_trial_num","","","","","","","","","","","","","","","","","","","","","","","","",""
"","","","","","image-keyboard-response","94","256898","0.0-2.0-5.0-1.36","5fc7e4142a10490c47936a64","C3","batch3","","1981.3999999761581","stim/no_67_1.png","j","pattern_response","true","j","pattern_39","1981.3999999761581","true","32","","","","","","","","","","","","","","","","","","",""
"","","","","","html-keyboard-response","95","258212","0.0-2.0-5.0-0.37","5fc7e4142a10490c47936a64","C3","batch3","","null","<p class=block-text>Trial 38 out of 78</p>","null","pattern_show_trial_num","","","","","","","","","","","","","","","","","","","","","","","","",""
"","","","","","image-keyboard-response","96","260154","0.0-2.0-5.0-1.37","5fc7e4142a10490c47936a64","C3","batch3","","1940.3999999761581","stim/no_43_2_b.png","j","pattern_response","true","j","pattern_23","1940.3999999761581","true","33","","","","","","","","","","","","","","","","","","",""
"","","","","","html-keyboard-response","97","261474","0.0-2.0-5.0-0.38","5fc7e4142a10490c47936a64","C3","batch3","","null","<p class=block-text>Trial 39 out of 78</p>","null","pattern_show_trial_num","","","","","","","","","","","","","","","","","","","","","","","","",""
"","","","","","image-keyboard-response","98","262794","0.0-2.0-5.0-1.38","5fc7e4142a10490c47936a64","C3","batch3","","1318.1999999284744","stim/no_30_1_b.png","j","pattern_response","true","j","pattern_13","1318.1999999284744","true","34","","","","","","","","","","","","","","","","","","",""
"","","","","","image-keyboard-response","99","265682","0.0-2.0-6.0","5fc7e4142a10490c47936a64","C3","batch3","","2372.1999999284744","stim/empty_board.png","j","attention_check","true","j","","","","","500","[""f"",""j""]","","","","","","","","","","","","","","","","",""
"","","","","","html-keyboard-response","100","266494","0.0-2.0-7.0-0.0","5fc7e4142a10490c47936a64","C3","batch3","","null","<p class=block-text>Trial 40 out of 78</p>","null","pattern_show_trial_num","","","","","","","","","","","","","","","","","","","","","","","","",""
"","","","","","image-keyboard-response","101","268002","0.0-2.0-7.0-1.0","5fc7e4142a10490c47936a64","C3","batch3","","1506.5","stim/yes_43_ver_w1_w.png","f","pattern_response","true","f","pattern_65","1506.5","true","35","","","","","","","","","","","","","","","","","","",""
"","","","","","html-keyboard-response","102","269323","0.0-2.0-7.0-0.1","5fc7e4142a10490c47936a64","C3","batch3","","null","<p class=block-text>Trial 41 out of 78</p>","null","pattern_show_trial_num","","","","","","","","","","","","","","","","","","","","","","","","",""
"","","","","","image-keyboard-response","103","271556","0.0-2.0-7.0-1.1","5fc7e4142a10490c47936a64","C3","batch3","","2230.899999976158","stim/no_70_2.png","j","pattern_response","true","j","pattern_40","2230.899999976158","true","36","","","","","","","","","","","","","","","","","","",""
"","","","","","html-keyboard-response","104","272879","0.0-2.0-7.0-0.2","5fc7e4142a10490c47936a64","C3","batch3","","null","<p class=block-text>Trial 42 out of 78</p>","null","pattern_show_trial_num","","","","","","","","","","","","","","","","","","","","","","","","",""
"","","","","","image-keyboard-response","105","274267","0.0-2.0-7.0-1.2","5fc7e4142a10490c47936a64","C3","batch3","","1386.4000000953674","stim/yes_60_ver_b1_b.png","f","pattern_response","true","f","pattern_77","1386.4000000953674","true","37","","","","","","","","","","","","","","","","","","",""
"","","","","","html-keyboard-response","106","275582","0.0-2.0-7.0-0.3","5fc7e4142a10490c47936a64","C3","batch3","","null","<p class=block-text>Trial 43 out of 78</p>","null","pattern_show_trial_num","","","","","","","","","","","","","","","","","","","","","","","","",""
"","","","","","image-keyboard-response","107","277603","0.0-2.0-7.0-1.3","5fc7e4142a10490c47936a64","C3","batch3","","2020.1999999284744","stim/no_29_1_b.png","j","pattern_response","true","j","pattern_12","2020.1999999284744","true","38","","","","","","","","","","","","","","","","","","",""
"","","","","","html-keyboard-response","108","278917","0.0-2.0-7.0-0.4","5fc7e4142a10490c47936a64","C3","batch3","","null","<p class=block-text>Trial 44 out of 78</p>","null","pattern_show_trial_num","","","","","","","","","","","","","","","","","","","","","","","","",""
"","","","","","image-keyboard-response","109","281354","0.0-2.0-7.0-1.4","5fc7e4142a10490c47936a64","C3","batch3","","2435.100000023842","stim/no_44_1.png","j","pattern_response","true","j","pattern_24","2435.100000023842","true","39","","","","","","","","","","","","","","","","","","",""
"","","","","","html-keyboard-response","110","282678","0.0-2.0-7.0-0.5","5fc7e4142a10490c47936a64","C3","batch3","","null","<p class=block-text>Trial 45 out of 78</p>","null","pattern_show_trial_num","","","","","","","","","","","","","","","","","","","","","","","","",""
"","","","","","image-keyboard-response","111","284939","0.0-2.0-7.0-1.5","5fc7e4142a10490c47936a64","C3","batch3","","2259","stim/yes_40_dia_b1_b.png","f","pattern_response","true","f","pattern_63","2259","true","40","","","","","","","","","","","","","","","","","","",""
"","","","","","html-keyboard-response","112","286258","0.0-2.0-7.0-0.6","5fc7e4142a10490c47936a64","C3","batch3","","null","<p class=block-text>Trial 46 out of 78</p>","null","pattern_show_trial_num","","","","","","","","","","","","","","","","","","","","","","","","",""
"","","","","","image-keyboard-response","113","287250","0.0-2.0-7.0-1.6","5fc7e4142a10490c47936a64","C3","batch3","","990.4000000953674","stim/yes_67_hor_b1.png","f","pattern_response","true","f","pattern_79","990.4000000953674","true","41","","","","","","","","","","","","","","","","","","",""
"","","","","","html-keyboard-response","114","288561","0.0-2.0-7.0-0.7","5fc7e4142a10490c47936a64","C3","batch3","","null","<p class=block-text>Trial 47 out of 78</p>","null","pattern_show_trial_num","","","","","","","","","","","","","","","","","","","","","","","","",""
"","","","","","image-keyboard-response","115","290362","0.0-2.0-7.0-1.7","5fc7e4142a10490c47936a64","C3","batch3","","1800.1999999284744","stim/no_26_1_w.png","j","pattern_response","true","j","pattern_10","1800.1999999284744","true","42","","","","","","","","","","","","","","","","","","",""
"","","","","","html-keyboard-response","116","291674","0.0-2.0-7.0-0.8","5fc7e4142a10490c47936a64","C3","batch3","","null","<p class=block-text>Trial 48 out of 78</p>","null","pattern_show_trial_num","","","","","","","","","","","","","","","","","","","","","","","","",""
"","","","","","image-keyboard-response","117","292946","0.0-2.0-7.0-1.8","5fc7e4142a10490c47936a64","C3","batch3","","1271.1000000238419","stim/yes_31_hor_b1.png","f","pattern_response","true","f","pattern_55","1271.1000000238419","true","43","","","","","","","","","","","","","","","","","","",""
"","","","","","html-keyboard-response","118","294256","0.0-2.0-7.0-0.9","5fc7e4142a10490c47936a64","C3","batch3","","null","<p class=block-text>Trial 49 out of 78</p>","null","pattern_show_trial_num","","","","","","","","","","","","","","","","","","","","","","","","",""
"","","","","","image-keyboard-response","119","295163","0.0-2.0-7.0-1.9","5fc7e4142a10490c47936a64","C3","batch3","","906.1000000238419","stim/yes_22_ver_w1.png","f","pattern_response","true","f","pattern_47","906.1000000238419","true","44","","","","","","","","","","","","","","","","","","",""
"","","","","","html-keyboard-response","120","296480","0.0-2.0-7.0-0.10","5fc7e4142a10490c47936a64","C3","batch3","","null","<p class=block-text>Trial 50 out of 78</p>","null","pattern_show_trial_num","","","","","","","","","","","","","","","","","","","","","","","","",""
"","","","","","image-keyboard-response","121","298307","0.0-2.0-7.0-1.10","5fc7e4142a10490c47936a64","C3","batch3","","1825.6000000238419","stim/no_32_1_w.png","j","pattern_response","true","j","pattern_14","1825.6000000238419","true","45","","","","","","","","","","","","","","","","","","",""
"","","","","","html-keyboard-response","122","299623","0.0-2.0-7.0-0.11","5fc7e4142a10490c47936a64","C3","batch3","","null","<p class=block-text>Trial 51 out of 78</p>","null","pattern_show_trial_num","","","","","","","","","","","","","","","","","","","","","","","","",""
"","","","","","image-keyboard-response","123","300571","0.0-2.0-7.0-1.11","5fc7e4142a10490c47936a64","C3","batch3","","946.0999999046326","stim/yes_25_hor_b1_b.png","f","pattern_response","true","f","pattern_49","946.0999999046326","true","46","","","","","","","","","","","","","","","","","","",""
"","","","","","html-keyboard-response","124","301880","0.0-2.0-7.0-0.12","5fc7e4142a10490c47936a64","C3","batch3","","null","<p class=block-text>Trial 52 out of 78</p>","null","pattern_show_trial_num","","","","","","","","","","","","","","","","","","","","","","","","",""
"","","","","","image-keyboard-response","125","304066","0.0-2.0-7.0-1.12","5fc7e4142a10490c47936a64","C3","batch3","","2185","stim/no_62_1_w.png","j","pattern_response","true","j","pattern_36","2185","true","47","","","","","","","","","","","","","","","","","","",""
"","","","","","html-keyboard-response","126","305389","0.0-2.0-7.0-0.13","5fc7e4142a10490c47936a64","C3","batch3","","null","<p class=block-text>Trial 53 out of 78</p>","null","pattern_show_trial_num","","","","","","","","","","","","","","","","","","","","","","","","",""
"","","","","","image-keyboard-response","127","306594","0.0-2.0-7.0-1.13","5fc7e4142a10490c47936a64","C3","batch3","","1204","stim/yes_45_hor_b2_b.png","f","pattern_response","true","f","pattern_67","1204","true","48","","","","","","","","","","","","","","","","","","",""
"","","","","","html-keyboard-response","128","307913","0.0-2.0-7.0-0.14","5fc7e4142a10490c47936a64","C3","batch3","","null","<p class=block-text>Trial 54 out of 78</p>","null","pattern_show_trial_num","","","","","","","","","","","","","","","","","","","","","","","","",""
"","","","","","image-keyboard-response","129","309074","0.0-2.0-7.0-1.14","5fc7e4142a10490c47936a64","C3","batch3","","1160","stim/no_50_1.png","f","pattern_response","false","j","pattern_30","1160","false","48","","","","","","","","","","","","","","","","","","",""
"","","","","","html-keyboard-response","130","310386","0.0-2.0-7.0-0.15","5fc7e4142a10490c47936a64","C3","batch3","","null","<p class=block-text>Trial 55 out of 78</p>","null","pattern_show_trial_num","","","","","","","","","","","","","","","","","","","","","","","","",""
"","","","","","image-keyboard-response","131","311939","0.0-2.0-7.0-1.15","5fc7e4142a10490c47936a64","C3","batch3","","1551.3999999761581","stim/yes_52_ver_w1.png","f","pattern_response","true","f","pattern_73","1551.3999999761581","true","49","","","","","","","","","","","","","","","","","","",""
"","","","","","html-keyboard-response","132","313266","0.0-2.0-7.0-0.16","5fc7e4142a10490c47936a64","C3","batch3","","null","<p class=block-text>Trial 56 out of 78</p>","null","pattern_show_trial_num","","","","","","","","","","","","","","","","","","","","","","","","",""
"","","","","","image-keyboard-response","133","314842","0.0-2.0-7.0-1.16","5fc7e4142a10490c47936a64","C3","batch3","","1574.6999999284744","stim/no_20_1_w.png","j","pattern_response","true","j","pattern_06","1574.6999999284744","true","50","","","","","","","","","","","","","","","","","","",""
"","","","","","html-keyboard-response","134","316165","0.0-2.0-7.0-0.17","5fc7e4142a10490c47936a64","C3","batch3","","null","<p class=block-text>Trial 57 out of 78</p>","null","pattern_show_trial_num","","","","","","","","","","","","","","","","","","","","","","","","",""
"","","","","","image-keyboard-response","135","317002","0.0-2.0-7.0-1.17","5fc7e4142a10490c47936a64","C3","batch3","","836.1000000238419","stim/yes_28_ver_b1.png","f","pattern_response","true","f","pattern_51","836.1000000238419","true","51","","","","","","","","","","","","","","","","","","",""
"","","","","","html-keyboard-response","136","318325","0.0-2.0-7.0-0.18","5fc7e4142a10490c47936a64","C3","batch3","","null","<p class=block-text>Trial 58 out of 78</p>","null","pattern_show_trial_num","","","","","","","","","","","","","","","","","","","","","","","","",""
"","","","","","image-keyboard-response","137","319202","0.0-2.0-7.0-1.18","5fc7e4142a10490c47936a64","C3","batch3","","870.3000000715256","stim/yes_14_hor_b1_w.png","f","pattern_response","true","f","pattern_43","870.3000000715256","true","52","","","","","","","","","","","","","","","","","","",""
"","","","","","html-keyboard-response","138","320517","0.0-2.0-7.0-0.19","5fc7e4142a10490c47936a64","C3","batch3","","null","<p class=block-text>Trial 59 out of 78</p>","null","pattern_show_trial_num","","","","","","","","","","","","","","","","","","","","","","","","",""
"","","","","","image-keyboard-response","139","323635","0.0-2.0-7.0-1.19","5fc7e4142a10490c47936a64","C3","batch3","","3115.3000000715256","stim/yes_50_dia_w1.png","j","pattern_response","false","f","pattern_71","3115.3000000715256","false","52","","","","","","","","","","","","","","","","","","",""
"","","","","","html-keyboard-response","140","324948","0.0-2.0-7.0-0.20","5fc7e4142a10490c47936a64","C3","batch3","","null","<p class=block-text>Trial 60 out of 78</p>","null","pattern_show_trial_num","","","","","","","","","","","","","","","","","","","","","","","","",""
"","","","","","image-keyboard-response","141","326820","0.0-2.0-7.0-1.20","5fc7e4142a10490c47936a64","C3","batch3","","1870.1999999284744","stim/no_34_1_b.png","j","pattern_response","true","j","pattern_16","1870.1999999284744","true","53","","","","","","","","","","","","","","","","","","",""
"","","","","","html-keyboard-response","142","328143","0.0-2.0-7.0-0.21","5fc7e4142a10490c47936a64","C3","batch3","","null","<p class=block-text>Trial 61 out of 78</p>","null","pattern_show_trial_num","","","","","","","","","","","","","","","","","","","","","","","","",""
"","","","","","image-keyboard-response","143","329379","0.0-2.0-7.0-1.21","5fc7e4142a10490c47936a64","C3","batch3","","1234.4000000953674","stim/yes_48_dia_w1_w.png","f","pattern_response","true","f","pattern_69","1234.4000000953674","true","54","","","","","","","","","","","","","","","","","","",""
"","","","","","html-keyboard-response","144","330697","0.0-2.0-7.0-0.22","5fc7e4142a10490c47936a64","C3","batch3","","null","<p class=block-text>Trial 62 out of 78</p>","null","pattern_show_trial_num","","","","","","","","","","","","","","","","","","","","","","","","",""
"","","","","","image-keyboard-response","145","332946","0.0-2.0-7.0-1.22","5fc7e4142a10490c47936a64","C3","batch3","","2247","stim/no_38_1_b.png","f","pattern_response","false","j","pattern_20","2247","false","54","","","","","","","","","","","","","","","","","","",""
"","","","","","html-keyboard-response","146","334274","0.0-2.0-7.0-0.23","5fc7e4142a10490c47936a64","C3","batch3","","null","<p class=block-text>Trial 63 out of 78</p>","null","pattern_show_trial_num","","","","","","","","","","","","","","","","","","","","","","","","",""
"","","","","","image-keyboard-response","147","335482","0.0-2.0-7.0-1.23","5fc7e4142a10490c47936a64","C3","batch3","","1207","stim/yes_17_dia_w1.png","f","pattern_response","true","f","pattern_45","1207","true","55","","","","","","","","","","","","","","","","","","",""
"","","","","","html-keyboard-response","148","336799","0.0-2.0-7.0-0.24","5fc7e4142a10490c47936a64","C3","batch3","","null","<p class=block-text>Trial 64 out of 78</p>","null","pattern_show_trial_num","","","","","","","","","","","","","","","","","","","","","","","","",""
"","","","","","image-keyboard-response","149","338938","0.0-2.0-7.0-1.24","5fc7e4142a10490c47936a64","C3","batch3","","2137.5","stim/no_55_1_w.png","j","pattern_response","true","j","pattern_34","2137.5","true","56","","","","","","","","","","","","","","","","","","",""
"","","","","","html-keyboard-response","150","340255","0.0-2.0-7.0-0.25","5fc7e4142a10490c47936a64","C3","batch3","","null","<p class=block-text>Trial 65 out of 78</p>","null","pattern_show_trial_num","","","","","","","","","","","","","","","","","","","","","","","","",""
"","","","","","image-keyboard-response","151","342186","0.0-2.0-7.0-1.25","5fc7e4142a10490c47936a64","C3","batch3","","1930.1000000238419","stim/no_42_1_w.png","j","pattern_response","true","j","pattern_22","1930.1000000238419","true","57","","","","","","","","","","","","","","","","","","",""
"","","","","","html-keyboard-response","152","343511","0.0-2.0-7.0-0.26","5fc7e4142a10490c47936a64","C3","batch3","","null","<p class=block-text>Trial 66 out of 78</p>","null","pattern_show_trial_num","","","","","","","","","","","","","","","","","","","","","","","","",""
"","","","","","image-keyboard-response","153","345722","0.0-2.0-7.0-1.26","5fc7e4142a10490c47936a64","C3","batch3","","2209","stim/no_36_2_w.png","j","pattern_response","true","j","pattern_18","2209","true","58","","","","","","","","","","","","","","","","","","",""
"","","","","","html-keyboard-response","154","347038","0.0-2.0-7.0-0.27","5fc7e4142a10490c47936a64","C3","batch3","","null","<p class=block-text>Trial 67 out of 78</p>","null","pattern_show_trial_num","","","","","","","","","","","","","","","","","","","","","","","","",""
"","","","","","image-keyboard-response","155","348522","0.0-2.0-7.0-1.27","5fc7e4142a10490c47936a64","C3","batch3","","1482.5","stim/no_23_1.png","j","pattern_response","true","j","pattern_08","1482.5","true","59","","","","","","","","","","","","","","","","","","",""
"","","","","","html-keyboard-response","156","349837","0.0-2.0-7.0-0.28","5fc7e4142a10490c47936a64","C3","batch3","","null","<p class=block-text>Trial 68 out of 78</p>","null","pattern_show_trial_num","","","","","","","","","","","","","","","","","","","","","","","","",""
"","","","","","image-keyboard-response","157","352523","0.0-2.0-7.0-1.28","5fc7e4142a10490c47936a64","C3","batch3","","2684.399999976158","stim/no_65_1_b.png","j","pattern_response","true","j","pattern_38","2684.399999976158","true","60","","","","","","","","","","","","","","","","","","",""
"","","","","","html-keyboard-response","158","353834","0.0-2.0-7.0-0.29","5fc7e4142a10490c47936a64","C3","batch3","","null","<p class=block-text>Trial 69 out of 78</p>","null","pattern_show_trial_num","","","","","","","","","","","","","","","","","","","","","","","","",""
"","","","","","image-keyboard-response","159","354913","0.0-2.0-7.0-1.29","5fc7e4142a10490c47936a64","C3","batch3","","1077.2999999523163","stim/yes_38_hor_b1_b.png","f","pattern_response","true","f","pattern_61","1077.2999999523163","true","61","","","","","","","","","","","","","","","","","","",""
"","","","","","html-keyboard-response","160","356238","0.0-2.0-7.0-0.30","5fc7e4142a10490c47936a64","C3","batch3","","null","<p class=block-text>Trial 70 out of 78</p>","null","pattern_show_trial_num","","","","","","","","","","","","","","","","","","","","","","","","",""
"","","","","","image-keyboard-response","161","357130","0.0-2.0-7.0-1.30","5fc7e4142a10490c47936a64","C3","batch3","","889.5","stim/yes_29_ver_w1.png","f","pattern_response","true","f","pattern_53","889.5","true","62","","","","","","","","","","","","","","","","","","",""
"","","","","","html-keyboard-response","162","358454","0.0-2.0-7.0-0.31","5fc7e4142a10490c47936a64","C3","batch3","","null","<p class=block-text>Trial 71 out of 78</p>","null","pattern_show_trial_num","","","","","","","","","","","","","","","","","","","","","","","","",""
"","","","","","image-keyboard-response","163","360730","0.0-2.0-7.0-1.31","5fc7e4142a10490c47936a64","C3","batch3","","2273.5","stim/no_48_1_w.png","j","pattern_response","true","j","pattern_28","2273.5","true","63","","","","","","","","","","","","","","","","","","",""
"","","","","","html-keyboard-response","164","362045","0.0-2.0-7.0-0.32","5fc7e4142a10490c47936a64","C3","batch3","","null","<p class=block-text>Trial 72 out of 78</p>","null","pattern_show_trial_num","","","","","","","","","","","","","","","","","","","","","","","","",""
"","","","","","image-keyboard-response","165","363378","0.0-2.0-7.0-1.32","5fc7e4142a10490c47936a64","C3","batch3","","1331.2999999523163","stim/no_17_1_w.png","j","pattern_response","true","j","pattern_04","1331.2999999523163","true","64","","","","","","","","","","","","","","","","","","",""
"","","","","","html-keyboard-response","166","364706","0.0-2.0-7.0-0.33","5fc7e4142a10490c47936a64","C3","batch3","","null","<p class=block-text>Trial 73 out of 78</p>","null","pattern_show_trial_num","","","","","","","","","","","","","","","","","","","","","","","","",""
"","","","","","image-keyboard-response","167","366530","0.0-2.0-7.0-1.33","5fc7e4142a10490c47936a64","C3","batch3","","1822.2999999523163","stim/yes_37_dia_w1.png","j","pattern_response","false","f","pattern_59","1822.2999999523163","false","64","","","","","","","","","","","","","","","","","","",""
"","","","","","html-keyboard-response","168","367856","0.0-2.0-7.0-0.34","5fc7e4142a10490c47936a64","C3","batch3","","null","<p class=block-text>Trial 74 out of 78</p>","null","pattern_show_trial_num","","","","","","","","","","","","","","","","","","","","","","","","",""
"","","","","","image-keyboard-response","169","370802","0.0-2.0-7.0-1.34","5fc7e4142a10490c47936a64","C3","batch3","","2944.2999999523163","stim/no_52_1.png","j","pattern_response","true","j","pattern_32","2944.2999999523163","true","65","","","","","","","","","","","","","","","","","","",""
"","","","","","html-keyboard-response","170","372117","0.0-2.0-7.0-0.35","5fc7e4142a10490c47936a64","C3","batch3","","null","<p class=block-text>Trial 75 out of 78</p>","null","pattern_show_trial_num","","","","","","","","","","","","","","","","","","","","","","","","",""
"","","","","","image-keyboard-response","171","374051","0.0-2.0-7.0-1.35","5fc7e4142a10490c47936a64","C3","batch3","","1931.6000000238419","stim/no_46_1_b.png","j","pattern_response","true","j","pattern_26","1931.6000000238419","true","66","","","","","","","","","","","","","","","","","","",""
"","","","","","html-keyboard-response","172","375372","0.0-2.0-7.0-0.36","5fc7e4142a10490c47936a64","C3","batch3","","null","<p class=block-text>Trial 76 out of 78</p>","null","pattern_show_trial_num","","","","","","","","","","","","","","","","","","","","","","","","",""
"","","","","","image-keyboard-response","173","376298","0.0-2.0-7.0-1.36","5fc7e4142a10490c47936a64","C3","batch3","","924.2000000476837","stim/yes_55_hor_w1_w.png","f","pattern_response","true","f","pattern_75","924.2000000476837","true","67","","","","","","","","","","","","","","","","","","",""
"","","","","","html-keyboard-response","174","377606","0.0-2.0-7.0-0.37","5fc7e4142a10490c47936a64","C3","batch3","","null","<p class=block-text>Trial 77 out of 78</p>","null","pattern_show_trial_num","","","","","","","","","","","","","","","","","","","","","","","","",""
"","","","","","image-keyboard-response","175","378611","0.0-2.0-7.0-1.37","5fc7e4142a10490c47936a64","C3","batch3","","1003.0999999046326","stim/no_13_2_b.png","j","pattern_response","true","j","pattern_02","1003.0999999046326","true","68","","","","","","","","","","","","","","","","","","",""
"","","","","","html-keyboard-response","176","379937","0.0-2.0-7.0-0.38","5fc7e4142a10490c47936a64","C3","batch3","","null","<p class=block-text>Trial 78 out of 78</p>","null","pattern_show_trial_num","","","","","","","","","","","","","","","","","","","","","","","","",""
"","","","","","image-keyboard-response","177","382138","0.0-2.0-7.0-1.38","5fc7e4142a10490c47936a64","C3","batch3","","2199.7000000476837","stim/yes_35_dia_b1.png","j","pattern_response","false","f","pattern_57","2199.7000000476837","false","68","","","","","","","","","","","","","","","","","","",""
"","","","","","html-button-response","178","385692","0.0-2.0-8.0","5fc7e4142a10490c47936a64","C3","batch3","","3046.5","<p class = block-text>This concludes the 4-in-a-row detection game.Thank you for your responses!<br>
            You responded correctly on 87% of the trials.<br>
            When you are ready, press ""Continue"" button to continue </p>","0","","","","","","","","","","","","","","","","","","","","","","","","","",""
"true","","","","","fullscreen","179","388802","0.0-3.0-0.0","5fc7e4142a10490c47936a64","C3","batch3","","","","","","","","","","","","","","","","","","","","","","","","","","","","","",""
"","","","","","instructions","180","433082","0.0-3.0-1.0-0.0-0.0","5fc7e4142a10490c47936a64","C3","batch3","[{""page_index"":0,""viewing_time"":9676.200000047684},{""page_index"":1,""viewing_time"":4871.100000023842},{""page_index"":2,""viewing_time"":4000.1999999284744},{""page_index"":3,""viewing_time"":9944.600000023842},{""page_index"":4,""viewing_time"":4649.899999976158},{""page_index"":5,""viewing_time"":8513},{""page_index"":6,""viewing_time"":2624.399999976158}]","44279.89999997616","","","tol-instructions","","","","","","","","","","","","","","","","","","","","","","","","",""
"","","","","","html-button-response","181","434253","0.0-3.0-1.0-1.0-0.0","5fc7e4142a10490c47936a64","C3","batch3","","1169.7000000476837","<p class=block-text> Let's answer a few questions <br>","0","tol_enter_quiz","","","","","","","","","","","","","","","","","","","","","","","","",""
"","","","","","html-button-response","182","440775","0.0-3.0-1.0-1.0-1.0","5fc7e4142a10490c47936a64","C3","batch3","","6520.899999976158","<p class = block-text>True or False: You can only move the ball on top of a peg. <br></p>","0","tol_quiz","true","","","","","","","","","","","","","","","","","","","","","","","",""
"","","","","","html-button-response","183","441749","0.0-3.0-1.0-1.0-2.0","5fc7e4142a10490c47936a64","C3","batch3","","973.1000000238419","<p class = block-text>Correct! You can only move the ball on top of a peg.</p>","0","tol_quiz_feedback","","","","","","","","","","","","","","","","","","","","","","","","",""
"","","","","","html-button-response","184","443863","0.0-3.0-1.0-1.0-3.0","5fc7e4142a10490c47936a64","C3","batch3","","2112.899999976158","<p class = block-text>True or False: You should try to match your board with the target board with fewest moves possible. <br></p>","0","tol_quiz","true","","","","","","","","","","","","","","","","","","","","","","","",""
"","","","","","html-button-response","185","444639","0.0-3.0-1.0-1.0-4.0","5fc7e4142a10490c47936a64","C3","batch3","","775.5","<p class = block-text>Correct! </p>","0","tol_quiz_feedback","","","","","","","","","","","","","","","","","","","","","","","","",""
"","","","","","html-button-response","186","445974","0.0-3.0-2.0","5fc7e4142a10490c47936a64","C3","batch3","","1334.5999999046326","<p class=block-text> Now that you've understood the game, let's practice a few easier examples before we start!<br> <br>","0","","","","","","","","","","","","","","","","","","","","","","","","","",""
"","","","","","single-stim-button","187","448047","0.0-3.0-3.0-0.0","5fc7e4142a10490c47936a64","C3","batch3","","2071","","","tol_practice","","","","","","","","","tol_peg_2","2071","2071","0","[[1,2,0],[0,0],[0]]","1","[[1,2,0],[0,0],[3]]","practice","2071","","","","","","","",""
"","","","","","single-stim-button","188","448877","0.0-3.0-3.0-1.0","5fc7e4142a10490c47936a64","C3","batch3","","829","","","tol_practice","","","","","","","","","tol_peg_3","829","829","0","[[1,2,0],[0,0],[3]]","1","[[1,2,0],[0,0],[3]]","practice","829","","","","","","","",""
"","","","","","poldrack-single-stim","189","449887","0.0-3.0-4.0","5fc7e4142a10490c47936a64","C3","batch3","","-1","","","tol_feedback","true","","","","","","","","","1000","1000","500","","","","","","-1","none","true","","0","","",""
"","","","","","single-stim-button","190","454111","0.0-3.0-5.0-0.0","5fc7e4142a10490c47936a64","C3","batch3","","4223","","","tol_practice","","","","","","","","","tol_peg_1","4223","4223","0","[[1,0,0],[3,0],[0]]","2","[[0,0,0],[3,1],[2]]","practice","4223","","","","","","","",""
"","","","","","single-stim-button","191","455648","0.0-3.0-5.0-1.0","5fc7e4142a10490c47936a64","C3","batch3","","1537","","","tol_practice","","","","","","","","","tol_peg_3","1537","1537","0","[[1,0,0],[3,0],[2]]","2","[[0,0,0],[3,1],[2]]","practice","1537","","","","","","","",""
"","","","","","single-stim-button","192","456591","0.0-3.0-5.1-0.1","5fc7e4142a10490c47936a64","C3","batch3","","942","","","tol_practice","","","","","","","","","tol_peg_1","942","942","0","[[0,0,0],[3,0],[2]]","3","[[0,0,0],[3,1],[2]]","practice","942","","","","","","","",""
"","","","","","single-stim-button","193","457484","0.0-3.0-5.1-1.1","5fc7e4142a10490c47936a64","C3","batch3","","892","","","tol_practice","","","","","","","","","tol_peg_2","892","892","0","[[0,0,0],[3,1],[2]]","3","[[0,0,0],[3,1],[2]]","practice","892","","","","","","","",""
"","","","","","poldrack-single-stim","194","458487","0.0-3.0-6.0","5fc7e4142a10490c47936a64","C3","batch3","","-1","","","tol_feedback","true","","","","","","","","","1000","1000","500","","","","","","-1","none","true","","0","","",""
"","","","","","single-stim-button","195","461979","0.0-3.0-7.0-0.0","5fc7e4142a10490c47936a64","C3","batch3","","3491","","","tol_practice","","","","","","","","","tol_peg_2","3491","3491","0","[[1,2,0],[0,0],[0]]","4","[[1,0,0],[2,0],[3]]","practice","3491","","","","","","","",""
"","","","","","single-stim-button","196","462903","0.0-3.0-7.0-1.0","5fc7e4142a10490c47936a64","C3","batch3","","924","","","tol_practice","","","","","","","","","tol_peg_3","924","924","0","[[1,2,0],[0,0],[3]]","4","[[1,0,0],[2,0],[3]]","practice","924","","","","","","","",""
"","","","","","single-stim-button","197","463720","0.0-3.0-7.1-0.1","5fc7e4142a10490c47936a64","C3","batch3","","817","","","tol_practice","","","","","","","","","tol_peg_1","817","817","0","[[1,0,0],[0,0],[3]]","5","[[1,0,0],[2,0],[3]]","practice","817","","","","","","","",""
"","","","","","single-stim-button","198","464487","0.0-3.0-7.1-1.1","5fc7e4142a10490c47936a64","C3","batch3","","766","","","tol_practice","","","","","","","","","tol_peg_2","766","766","0","[[1,0,0],[2,0],[3]]","5","[[1,0,0],[2,0],[3]]","practice","766","","","","","","","",""
"","","","","","poldrack-single-stim","199","465489","0.0-3.0-8.0","5fc7e4142a10490c47936a64","C3","batch3","","-1","","","tol_feedback","true","","","","","","","","","1000","1000","500","","","","","","-1","none","true","","0","","",""
"","","","","","html-button-response","200","466560","0.0-3.0-9.0","5fc7e4142a10490c47936a64","C3","batch3","","1070.8999999761581","<div class = centerbox><p class = center-block-text>Great job! You are done with practice trials<br>You are about to start official trials.<br> <br> Problem <strong>1</strong> out of 25 problems</p></div>","0","tol_instruction","","","","","","","","","","","","","","","","","","","","","","","","",""
"","","","","","single-stim-button","201","478981","0.0-3.0-10.0-0.0","5fc7e4142a10490c47936a64","C3","batch3","","11419","","","tol_tohand","","","","","","","","","tol_peg_1","11419","11419","0","[[1,0,0],[3,0],[0]]","1","[[1,3,0],[2,0],[0]]","0","0","","","","","","3","",""
"","","","","","single-stim-button","202","480081","0.0-3.0-10.0-1.0","5fc7e4142a10490c47936a64","C3","batch3","","1100","","","tol_toboard","","","","","","","","","tol_peg_3","1100","1100","0","[[1,0,0],[3,0],[2]]","1","[[1,3,0],[2,0],[0]]","0","0","","","","","","3","",""
"","","","","","single-stim-button","203","480681","0.0-3.0-10.1-0.1","5fc7e4142a10490c47936a64","C3","batch3","","600","","","tol_tohand","","","","","","","","","tol_peg_2","600","600","0","[[1,0,0],[0,0],[2]]","2","[[1,3,0],[2,0],[0]]","0","0","","","","","","3","",""
"","","","","","single-stim-button","204","481469","0.0-3.0-10.1-1.1","5fc7e4142a10490c47936a64","C3","batch3","","787","","","tol_toboard","","","","","","","","","tol_peg_1","787","787","0","[[1,3,0],[0,0],[2]]","2","[[1,3,0],[2,0],[0]]","0","0","","","","","","3","",""
"","","","","","single-stim-button","205","482482","0.0-3.0-10.2-0.2","5fc7e4142a10490c47936a64","C3","batch3","","1012","","","tol_tohand","","","","","","","","","tol_peg_3","1012","1012","0","[[1,3,0],[0,0],[0]]","3","[[1,3,0],[2,0],[0]]","0","0","","","","","","3","",""
"","","","","","single-stim-button","206","483244","0.0-3.0-10.2-1.2","5fc7e4142a10490c47936a64","C3","batch3","","762","","","tol_toboard","","","","","","","","","tol_peg_2","762","762","0","[[1,3,0],[2,0],[0]]","3","[[1,3,0],[2,0],[0]]","0","0","","","","","","3","",""
"","","","","","poldrack-single-stim","207","484246","0.0-3.0-11.0","5fc7e4142a10490c47936a64","C3","batch3","","-1","","","tol_feedback","true","","","","","","","","","1000","1000","500","","","","","","-1","none","true","11419","13031","","",""
"","","","","","html-button-response","208","485184","0.0-3.0-12.0","5fc7e4142a10490c47936a64","C3","batch3","","937.6999999284744","<div class = centerbox><p class = center-block-text>problem <strong>2</strong> out of 25 problems</p></div>","0","tol_trial_num","","","","","","","","","","","","","","","","","","","","","","","","",""
"","","","","","single-stim-button","209","492172","0.0-3.0-13.0-0.0","5fc7e4142a10490c47936a64","C3","batch3","","6986","","","tol_tohand","","","","","","","","","tol_peg_1","6986","6986","0","[[1,0,0],[3,0],[0]]","1","[[2,1,3],[0,0],[0]]","1","0","","","","","","5","",""
"","","","","","single-stim-button","210","493180","0.0-3.0-13.0-1.0","5fc7e4142a10490c47936a64","C3","batch3","","1007","","","tol_toboard","","","","","","","","","tol_peg_2","1007","1007","0","[[1,0,0],[3,2],[0]]","1","[[2,1,3],[0,0],[0]]","1","0","","","","","","5","",""
"","","","","","single-stim-button","211","495894","0.0-3.0-13.1-0.1","5fc7e4142a10490c47936a64","C3","batch3","","2713","","","tol_tohand","","","","","","","","","tol_peg_1","2713","2713","0","[[0,0,0],[3,2],[0]]","2","[[2,1,3],[0,0],[0]]","1","0","","","","","","5","",""
"","","","","","single-stim-button","212","496616","0.0-3.0-13.1-1.1","5fc7e4142a10490c47936a64","C3","batch3","","722","","","tol_toboard","","","","","","","","","tol_peg_3","722","722","0","[[0,0,0],[3,2],[1]]","2","[[2,1,3],[0,0],[0]]","1","0","","","","","","5","",""
"","","","","","single-stim-button","213","497124","0.0-3.0-13.2-0.2","5fc7e4142a10490c47936a64","C3","batch3","","508","","","tol_tohand","","","","","","","","","tol_peg_2","508","508","0","[[0,0,0],[3,0],[1]]","3","[[2,1,3],[0,0],[0]]","1","0","","","","","","5","",""
"","","","","","single-stim-button","214","498043","0.0-3.0-13.2-1.2","5fc7e4142a10490c47936a64","C3","batch3","","918","","","tol_toboard","","","","","","","","","tol_peg_1","918","918","0","[[2,0,0],[3,0],[1]]","3","[[2,1,3],[0,0],[0]]","1","0","","","","","","5","",""
"","","","","","single-stim-button","215","498673","0.0-3.0-13.3-0.3","5fc7e4142a10490c47936a64","C3","batch3","","630","","","tol_tohand","","","","","","","","","tol_peg_3","630","630","0","[[2,0,0],[3,0],[0]]","4","[[2,1,3],[0,0],[0]]","1","0","","","","","","5","",""
"","","","","","single-stim-button","216","499445","0.0-3.0-13.3-1.3","5fc7e4142a10490c47936a64","C3","batch3","","772","","","tol_toboard","","","","","","","","","tol_peg_1","772","772","0","[[2,1,0],[3,0],[0]]","4","[[2,1,3],[0,0],[0]]","1","0","","","","","","5","",""
"","","","","","single-stim-button","217","500202","0.0-3.0-13.4-0.4","5fc7e4142a10490c47936a64","C3","batch3","","756","","","tol_tohand","","","","","","","","","tol_peg_2","756","756","0","[[2,1,0],[0,0],[0]]","5","[[2,1,3],[0,0],[0]]","1","0","","","","","","5","",""
"","","","","","single-stim-button","218","500817","0.0-3.0-13.4-1.4","5fc7e4142a10490c47936a64","C3","batch3","","615","","","tol_toboard","","","","","","","","","tol_peg_1","615","615","0","[[2,1,3],[0,0],[0]]","5","[[2,1,3],[0,0],[0]]","1","0","","","","","","5","",""
"","","","","","poldrack-single-stim","219","501830","0.0-3.0-14.0","5fc7e4142a10490c47936a64","C3","batch3","","-1","","","tol_feedback","true","","","","","","","","","1000","1000","500","","","","","","-1","none","true","6986","11593","","",""
"","","","","","html-button-response","220","502811","0.0-3.0-15.0","5fc7e4142a10490c47936a64","C3","batch3","","979.7000000476837","<div class = centerbox><p class = center-block-text>problem <strong>3</strong> out of 25 problems</p></div>","0","tol_trial_num","","","","","","","","","","","","","","","","","","","","","","","","",""
"","","","","","single-stim-button","221","508122","0.0-3.0-16.0-0.0","5fc7e4142a10490c47936a64","C3","batch3","","5311","","","tol_tohand","","","","","","","","","tol_peg_1","5311","5311","0","[[2,0,0],[0,0],[1]]","1","[[1,2,0],[3,0],[0]]","2","0","","","","","","4","",""
"","","","","","single-stim-button","222","508878","0.0-3.0-16.0-1.0","5fc7e4142a10490c47936a64","C3","batch3","","755","","","tol_toboard","","","","","","","","","tol_peg_2","755","755","0","[[2,0,0],[3,0],[1]]","1","[[1,2,0],[3,0],[0]]","2","0","","","","","","4","",""
"","","","","","single-stim-button","223","511410","0.0-3.0-16.1-0.1","5fc7e4142a10490c47936a64","C3","batch3","","2531","","","tol_tohand","","","","","","","","","tol_peg_1","2531","2531","0","[[0,0,0],[3,0],[1]]","2","[[1,2,0],[3,0],[0]]","2","0","","","","","","4","",""
"","","","","","single-stim-button","224","512408","0.0-3.0-16.1-1.1","5fc7e4142a10490c47936a64","C3","batch3","","998","","","tol_toboard","","","","","","","","","tol_peg_2","998","998","0","[[0,0,0],[3,2],[1]]","2","[[1,2,0],[3,0],[0]]","2","0","","","","","","4","",""
"","","","","","single-stim-button","225","512954","0.0-3.0-16.2-0.2","5fc7e4142a10490c47936a64","C3","batch3","","546","","","tol_tohand","","","","","","","","","tol_peg_3","546","546","0","[[0,0,0],[3,2],[0]]","3","[[1,2,0],[3,0],[0]]","2","0","","","","","","4","",""
"","","","","","single-stim-button","226","513640","0.0-3.0-16.2-1.2","5fc7e4142a10490c47936a64","C3","batch3","","684","","","tol_toboard","","","","","","","","","tol_peg_1","684","684","0","[[1,0,0],[3,2],[0]]","3","[[1,2,0],[3,0],[0]]","2","0","","","","","","4","",""
"","","","","","single-stim-button","227","514211","0.0-3.0-16.3-0.3","5fc7e4142a10490c47936a64","C3","batch3","","571","","","tol_tohand","","","","","","","","","tol_peg_2","571","571","0","[[1,0,0],[3,0],[0]]","4","[[1,2,0],[3,0],[0]]","2","0","","","","","","4","",""
"","","","","","single-stim-button","228","514724","0.0-3.0-16.3-1.3","5fc7e4142a10490c47936a64","C3","batch3","","513","","","tol_toboard","","","","","","","","","tol_peg_1","513","513","0","[[1,2,0],[3,0],[0]]","4","[[1,2,0],[3,0],[0]]","2","0","","","","","","4","",""
"","","","","","poldrack-single-stim","229","515725","0.0-3.0-17.0","5fc7e4142a10490c47936a64","C3","batch3","","-1","","","tol_feedback","true","","","","","","","","","1000","1000","500","","","","","","-1","none","true","5311","8959","","",""
"","","","","","html-button-response","230","516958","0.0-3.0-18.0","5fc7e4142a10490c47936a64","C3","batch3","","1231.6000000238419","<div class = centerbox><p class = center-block-text>problem <strong>4</strong> out of 25 problems</p></div>","0","tol_trial_num","","","","","","","","","","","","","","","","","","","","","","","","",""
"","","","","","single-stim-button","231","520312","0.0-3.0-19.0-0.0","5fc7e4142a10490c47936a64","C3","batch3","","3354","","","tol_tohand","","","","","","","","","tol_peg_2","3354","3354","0","[[3,0,0],[2,0],[0]]","1","[[3,0,0],[1,0],[2]]","3","0","","","","","","3","",""
"","","","","","single-stim-button","232","520908","0.0-3.0-19.0-1.0","5fc7e4142a10490c47936a64","C3","batch3","","595","","","tol_toboard","","","","","","","","","tol_peg_1","595","595","0","[[3,1,0],[2,0],[0]]","1","[[3,0,0],[1,0],[2]]","3","0","","","","","","3","",""
"","","","","","single-stim-button","233","521416","0.0-3.0-19.1-0.1","5fc7e4142a10490c47936a64","C3","batch3","","507","","","tol_tohand","","","","","","","","","tol_peg_2","507","507","0","[[3,1,0],[0,0],[0]]","2","[[3,0,0],[1,0],[2]]","3","0","","","","","","3","",""
"","","","","","single-stim-button","234","522037","0.0-3.0-19.1-1.1","5fc7e4142a10490c47936a64","C3","batch3","","621","","","tol_toboard","","","","","","","","","tol_peg_3","621","621","0","[[3,1,0],[0,0],[2]]","2","[[3,0,0],[1,0],[2]]","3","0","","","","","","3","",""
"","","","","","single-stim-button","235","522668","0.0-3.0-19.2-0.2","5fc7e4142a10490c47936a64","C3","batch3","","629","","","tol_tohand","","","","","","","","","tol_peg_1","629","629","0","[[3,0,0],[0,0],[2]]","3","[[3,0,0],[1,0],[2]]","3","0","","","","","","3","",""
"","","","","","single-stim-button","236","523212","0.0-3.0-19.2-1.2","5fc7e4142a10490c47936a64","C3","batch3","","543","","","tol_toboard","","","","","","","","","tol_peg_2","543","543","0","[[3,0,0],[1,0],[2]]","3","[[3,0,0],[1,0],[2]]","3","0","","","","","","3","",""
"","","","","","poldrack-single-stim","237","524227","0.0-3.0-20.0","5fc7e4142a10490c47936a64","C3","batch3","","-1","","","tol_feedback","true","","","","","","","","","1000","1000","500","","","","","","-1","none","true","3354","4490","","",""
"","","","","","html-button-response","238","525118","0.0-3.0-21.0","5fc7e4142a10490c47936a64","C3","batch3","","889.6000000238419","<div class = centerbox><p class = center-block-text>problem <strong>5</strong> out of 25 problems</p></div>","0","tol_trial_num","","","","","","","","","","","","","","","","","","","","","","","","",""
"","","","","","single-stim-button","239","539650","0.0-3.0-22.0-0.0","5fc7e4142a10490c47936a64","C3","batch3","","14531","","","tol_tohand","","","","","","","","","tol_peg_3","14531","14531","0","[[1,0,0],[2,0],[0]]","1","[[0,0,0],[1,2],[3]]","4","0","","","","","","7","",""
"","","","","","single-stim-button","240","541974","0.0-3.0-22.0-1.0","5fc7e4142a10490c47936a64","C3","batch3","","2322","","","tol_toboard","","","","","","","","","tol_peg_1","2322","2322","0","[[1,3,0],[2,0],[0]]","1","[[0,0,0],[1,2],[3]]","4","0","","","","","","7","",""
"","","","","","single-stim-button","241","550031","0.0-3.0-22.1-0.1","5fc7e4142a10490c47936a64","C3","batch3","","8056","","","tol_tohand","","","","","","","","","tol_peg_2","8056","8056","0","[[1,3,0],[0,0],[0]]","2","[[0,0,0],[1,2],[3]]","4","0","","","","","","7","",""
"","","","","","single-stim-button","242","550684","0.0-3.0-22.1-1.1","5fc7e4142a10490c47936a64","C3","batch3","","652","","","tol_toboard","","","","","","","","","tol_peg_3","652","652","0","[[1,3,0],[0,0],[2]]","2","[[0,0,0],[1,2],[3]]","4","0","","","","","","7","",""
"","","","","","single-stim-button","243","556138","0.0-3.0-22.2-0.2","5fc7e4142a10490c47936a64","C3","batch3","","5454","","","tol_tohand","","","","","","","","","tol_peg_1","5454","5454","0","[[1,0,0],[0,0],[2]]","3","[[0,0,0],[1,2],[3]]","4","0","","","","","","7","",""
"","","","","","single-stim-button","244","558998","0.0-3.0-22.2-1.2","5fc7e4142a10490c47936a64","C3","batch3","","2860","","","tol_toboard","","","","","","","","","tol_peg_2","2860","2860","0","[[1,0,0],[3,0],[2]]","3","[[0,0,0],[1,2],[3]]","4","0","","","","","","7","",""
"","","","","","single-stim-button","245","564158","0.0-3.0-22.3-0.3","5fc7e4142a10490c47936a64","C3","batch3","","5159","","","tol_tohand","","","","","","","","","tol_peg_3","5159","5159","0","[[1,0,0],[3,0],[0]]","4","[[0,0,0],[1,2],[3]]","4","0","","","","","","7","",""
"","","","","","single-stim-button","246","566084","0.0-3.0-22.3-1.3","5fc7e4142a10490c47936a64","C3","batch3","","1924","","","tol_toboard","","","","","","","","","tol_peg_2","1924","1924","0","[[1,0,0],[3,2],[0]]","4","[[0,0,0],[1,2],[3]]","4","0","","","","","","7","",""
"","","","","","single-stim-button","247","566618","0.0-3.0-22.4-0.4","5fc7e4142a10490c47936a64","C3","batch3","","534","","","tol_tohand","","","","","","","","","tol_peg_1","534","534","0","[[0,0,0],[3,2],[0]]","5","[[0,0,0],[1,2],[3]]","4","0","","","","","","7","",""
"","","","","","single-stim-button","248","567284","0.0-3.0-22.4-1.4","5fc7e4142a10490c47936a64","C3","batch3","","665","","","tol_toboard","","","","","","","","","tol_peg_3","665","665","0","[[0,0,0],[3,2],[1]]","5","[[0,0,0],[1,2],[3]]","4","0","","","","","","7","",""
"","","","","","single-stim-button","249","572223","0.0-3.0-22.5-0.5","5fc7e4142a10490c47936a64","C3","batch3","","4938","","","tol_tohand","","","","","","","","","tol_peg_2","4938","4938","0","[[0,0,0],[3,0],[1]]","6","[[0,0,0],[1,2],[3]]","4","0","","","","","","7","",""
"","","","","","single-stim-button","250","572862","0.0-3.0-22.5-1.5","5fc7e4142a10490c47936a64","C3","batch3","","639","","","tol_toboard","","","","","","","","","tol_peg_1","639","639","0","[[2,0,0],[3,0],[1]]","6","[[0,0,0],[1,2],[3]]","4","0","","","","","","7","",""
"","","","","","single-stim-button","251","574720","0.0-3.0-22.6-0.6","5fc7e4142a10490c47936a64","C3","batch3","","1857","","","tol_tohand","","","","","","","","","tol_peg_2","1857","1857","0","[[2,0,0],[0,0],[1]]","7","[[0,0,0],[1,2],[3]]","4","0","","","","","","7","",""
"","","","","","single-stim-button","252","575476","0.0-3.0-22.6-1.6","5fc7e4142a10490c47936a64","C3","batch3","","756","","","tol_toboard","","","","","","","","","tol_peg_1","756","756","0","[[2,3,0],[0,0],[1]]","7","[[0,0,0],[1,2],[3]]","4","0","","","","","","7","",""
"","","","","","single-stim-button","253","576163","0.0-3.0-22.7-0.7","5fc7e4142a10490c47936a64","C3","batch3","","686","","","tol_tohand","","","","","","","","","tol_peg_3","686","686","0","[[2,3,0],[0,0],[0]]","8","[[0,0,0],[1,2],[3]]","4","0","","","","","","7","",""
"","","","","","single-stim-button","254","576869","0.0-3.0-22.7-1.7","5fc7e4142a10490c47936a64","C3","batch3","","706","","","tol_toboard","","","","","","","","","tol_peg_2","706","706","0","[[2,3,0],[1,0],[0]]","8","[[0,0,0],[1,2],[3]]","4","0","","","","","","7","",""
"","","","","","single-stim-button","255","577453","0.0-3.0-22.8-0.8","5fc7e4142a10490c47936a64","C3","batch3","","583","","","tol_tohand","","","","","","","","","tol_peg_1","583","583","0","[[2,0,0],[1,0],[0]]","9","[[0,0,0],[1,2],[3]]","4","0","","","","","","7","",""
"","","","","","single-stim-button","256","578105","0.0-3.0-22.8-1.8","5fc7e4142a10490c47936a64","C3","batch3","","651","","","tol_toboard","","","","","","","","","tol_peg_3","651","651","0","[[2,0,0],[1,0],[3]]","9","[[0,0,0],[1,2],[3]]","4","0","","","","","","7","",""
"","","","","","single-stim-button","257","578749","0.0-3.0-22.9-0.9","5fc7e4142a10490c47936a64","C3","batch3","","644","","","tol_tohand","","","","","","","","","tol_peg_1","644","644","0","[[0,0,0],[1,0],[3]]","10","[[0,0,0],[1,2],[3]]","4","0","","","","","","7","",""
"","","","","","single-stim-button","258","579346","0.0-3.0-22.9-1.9","5fc7e4142a10490c47936a64","C3","batch3","","595","","","tol_toboard","","","","","","","","","tol_peg_2","595","595","0","[[0,0,0],[1,2],[3]]","10","[[0,0,0],[1,2],[3]]","4","0","","","","","","7","",""
"","","","","","poldrack-single-stim","259","580348","0.0-3.0-23.0","5fc7e4142a10490c47936a64","C3","batch3","","-1","","","tol_feedback","true","","","","","","","","","1000","1000","500","","","","","","-1","none","true","14531","42442","","",""
"","","","","","html-button-response","260","581220","0.0-3.0-24.0","5fc7e4142a10490c47936a64","C3","batch3","","871.2999999523163","<div class = centerbox><p class = center-block-text>problem <strong>6</strong> out of 25 problems</p></div>","0","tol_trial_num","","","","","","","","","","","","","","","","","","","","","","","","",""
"","","","","","single-stim-button","261","594335","0.0-3.0-25.0-0.0","5fc7e4142a10490c47936a64","C3","batch3","","13114","","","tol_tohand","","","","","","","","","tol_peg_3","13114","13114","0","[[0,0,0],[1,2],[0]]","1","[[1,0,0],[2,3],[0]]","5","0","","","","","","6","",""
"","","","","","single-stim-button","262","598139","0.0-3.0-25.0-1.0","5fc7e4142a10490c47936a64","C3","batch3","","3803","","","tol_toboard","","","","","","","","","tol_peg_1","3803","3803","0","[[3,0,0],[1,2],[0]]","1","[[1,0,0],[2,3],[0]]","5","0","","","","","","6","",""
"","","","","","single-stim-button","263","598602","0.0-3.0-25.1-0.1","5fc7e4142a10490c47936a64","C3","batch3","","463","","","tol_tohand","","","","","","","","","tol_peg_2","463","463","0","[[3,0,0],[1,0],[0]]","2","[[1,0,0],[2,3],[0]]","5","0","","","","","","6","",""
"","","","","","single-stim-button","264","599064","0.0-3.0-25.1-1.1","5fc7e4142a10490c47936a64","C3","batch3","","461","","","tol_toboard","","","","","","","","","tol_peg_3","461","461","0","[[3,0,0],[1,0],[2]]","2","[[1,0,0],[2,3],[0]]","5","0","","","","","","6","",""
"","","","","","single-stim-button","265","609844","0.0-3.0-25.2-0.2","5fc7e4142a10490c47936a64","C3","batch3","","10780","","","tol_tohand","","","","","","","","","tol_peg_3","10780","10780","0","[[3,0,0],[1,0],[0]]","3","[[1,0,0],[2,3],[0]]","5","0","","","","","","6","",""
"","","","","","single-stim-button","266","611141","0.0-3.0-25.2-1.2","5fc7e4142a10490c47936a64","C3","batch3","","1295","","","tol_toboard","","","","","","","","","tol_peg_2","1295","1295","0","[[3,0,0],[1,2],[0]]","3","[[1,0,0],[2,3],[0]]","5","0","","","","","","6","",""
"","","","","","single-stim-button","267","611690","0.0-3.0-25.3-0.3","5fc7e4142a10490c47936a64","C3","batch3","","549","","","tol_tohand","","","","","","","","","tol_peg_1","549","549","0","[[0,0,0],[1,2],[0]]","4","[[1,0,0],[2,3],[0]]","5","0","","","","","","6","",""
"","","","","","single-stim-button","268","612460","0.0-3.0-25.3-1.3","5fc7e4142a10490c47936a64","C3","batch3","","769","","","tol_toboard","","","","","","","","","tol_peg_3","769","769","0","[[0,0,0],[1,2],[3]]","4","[[1,0,0],[2,3],[0]]","5","0","","","","","","6","",""
"","","","","","single-stim-button","269","617237","0.0-3.0-25.4-0.4","5fc7e4142a10490c47936a64","C3","batch3","","4776","","","tol_tohand","","","","","","","","","tol_peg_2","4776","4776","0","[[0,0,0],[1,0],[3]]","5","[[1,0,0],[2,3],[0]]","5","0","","","","","","6","",""
"","","","","","single-stim-button","270","622049","0.0-3.0-25.4-1.4","5fc7e4142a10490c47936a64","C3","batch3","","4811","","","tol_toboard","","","","","","","","","tol_peg_1","4811","4811","0","[[2,0,0],[1,0],[3]]","5","[[1,0,0],[2,3],[0]]","5","0","","","","","","6","",""
"","","","","","single-stim-button","271","622711","0.0-3.0-25.5-0.5","5fc7e4142a10490c47936a64","C3","batch3","","662","","","tol_tohand","","","","","","","","","tol_peg_3","662","662","0","[[2,0,0],[1,0],[0]]","6","[[1,0,0],[2,3],[0]]","5","0","","","","","","6","",""
"","","","","","single-stim-button","272","623164","0.0-3.0-25.5-1.5","5fc7e4142a10490c47936a64","C3","batch3","","452","","","tol_toboard","","","","","","","","","tol_peg_2","452","452","0","[[2,0,0],[1,3],[0]]","6","[[1,0,0],[2,3],[0]]","5","0","","","","","","6","",""
"","","","","","single-stim-button","273","623689","0.0-3.0-25.6-0.6","5fc7e4142a10490c47936a64","C3","batch3","","524","","","tol_tohand","","","","","","","","","tol_peg_1","524","524","0","[[0,0,0],[1,3],[0]]","7","[[1,0,0],[2,3],[0]]","5","0","","","","","","6","",""
"","","","","","single-stim-button","274","624298","0.0-3.0-25.6-1.6","5fc7e4142a10490c47936a64","C3","batch3","","609","","","tol_toboard","","","","","","","","","tol_peg_3","609","609","0","[[0,0,0],[1,3],[2]]","7","[[1,0,0],[2,3],[0]]","5","0","","","","","","6","",""
"","","","","","single-stim-button","275","628838","0.0-3.0-25.7-0.7","5fc7e4142a10490c47936a64","C3","batch3","","4540","","","tol_tohand","","","","","","","","","tol_peg_3","4540","4540","0","[[0,0,0],[1,3],[0]]","8","[[1,0,0],[2,3],[0]]","5","0","","","","","","6","",""
"","","","","","single-stim-button","276","629644","0.0-3.0-25.7-1.7","5fc7e4142a10490c47936a64","C3","batch3","","805","","","tol_toboard","","","","","","","","","tol_peg_1","805","805","0","[[2,0,0],[1,3],[0]]","8","[[1,0,0],[2,3],[0]]","5","0","","","","","","6","",""
"","","","","","single-stim-button","277","630413","0.0-3.0-25.8-0.8","5fc7e4142a10490c47936a64","C3","batch3","","767","","","tol_tohand","","","","","","","","","tol_peg_2","767","767","0","[[2,0,0],[1,0],[0]]","9","[[1,0,0],[2,3],[0]]","5","0","","","","","","6","",""
"","","","","","single-stim-button","278","630932","0.0-3.0-25.8-1.8","5fc7e4142a10490c47936a64","C3","batch3","","519","","","tol_toboard","","","","","","","","","tol_peg_3","519","519","0","[[2,0,0],[1,0],[3]]","9","[[1,0,0],[2,3],[0]]","5","0","","","","","","6","",""
"","","","","","single-stim-button","279","632597","0.0-3.0-25.9-0.9","5fc7e4142a10490c47936a64","C3","batch3","","1665","","","tol_tohand","","","","","","","","","tol_peg_2","1665","1665","0","[[2,0,0],[0,0],[3]]","10","[[1,0,0],[2,3],[0]]","5","0","","","","","","6","",""
"","","","","","single-stim-button","280","633538","0.0-3.0-25.9-1.9","5fc7e4142a10490c47936a64","C3","batch3","","941","","","tol_toboard","","","","","","","","","tol_peg_1","941","941","0","[[2,1,0],[0,0],[3]]","10","[[1,0,0],[2,3],[0]]","5","0","","","","","","6","",""
"","","","","","single-stim-button","281","634553","0.0-3.0-25.10-0.10","5fc7e4142a10490c47936a64","C3","batch3","","1014","","","tol_tohand","","","","","","","","","tol_peg_1","1014","1014","0","[[2,0,0],[0,0],[3]]","11","[[1,0,0],[2,3],[0]]","5","0","","","","","","6","",""
"","","","","","single-stim-button","282","635124","0.0-3.0-25.10-1.10","5fc7e4142a10490c47936a64","C3","batch3","","569","","","tol_toboard","","","","","","","","","tol_peg_2","569","569","0","[[2,0,0],[1,0],[3]]","11","[[1,0,0],[2,3],[0]]","5","0","","","","","","6","",""
"","","","","","single-stim-button","283","640100","0.0-3.0-25.11-0.11","5fc7e4142a10490c47936a64","C3","batch3","","4975","","","tol_tohand","","","","","","","","","tol_peg_3","4975","4975","0","[[2,0,0],[1,0],[0]]","12","[[1,0,0],[2,3],[0]]","5","0","","","","","","6","",""
"","","","","","single-stim-button","284","641433","0.0-3.0-25.11-1.11","5fc7e4142a10490c47936a64","C3","batch3","","1332","","","tol_toboard","","","","","","","","","tol_peg_2","1332","1332","0","[[2,0,0],[1,3],[0]]","12","[[1,0,0],[2,3],[0]]","5","0","","","","","","6","",""
"","","","","","single-stim-button","285","641876","0.0-3.0-25.12-0.12","5fc7e4142a10490c47936a64","C3","batch3","","443","","","tol_tohand","","","","","","","","","tol_peg_1","443","443","0","[[0,0,0],[1,3],[0]]","13","[[1,0,0],[2,3],[0]]","5","0","","","","","","6","",""
"","","","","","single-stim-button","286","642582","0.0-3.0-25.12-1.12","5fc7e4142a10490c47936a64","C3","batch3","","706","","","tol_toboard","","","","","","","","","tol_peg_3","706","706","0","[[0,0,0],[1,3],[2]]","13","[[1,0,0],[2,3],[0]]","5","0","","","","","","6","",""
"","","","","","single-stim-button","287","651701","0.0-3.0-25.13-0.13","5fc7e4142a10490c47936a64","C3","batch3","","9117","","","tol_tohand","","","","","","","","","tol_peg_2","9117","9117","0","[[0,0,0],[1,0],[2]]","14","[[1,0,0],[2,3],[0]]","5","0","","","","","","6","",""
"","","","","","single-stim-button","288","652519","0.0-3.0-25.13-1.13","5fc7e4142a10490c47936a64","C3","batch3","","817","","","tol_toboard","","","","","","","","","tol_peg_1","817","817","0","[[3,0,0],[1,0],[2]]","14","[[1,0,0],[2,3],[0]]","5","0","","","","","","6","",""
"","","","","","single-stim-button","289","652962","0.0-3.0-25.14-0.14","5fc7e4142a10490c47936a64","C3","batch3","","443","","","tol_tohand","","","","","","","","","tol_peg_2","443","443","0","[[3,0,0],[0,0],[2]]","15","[[1,0,0],[2,3],[0]]","5","0","","","","","","6","",""
"","","","","","single-stim-button","290","653467","0.0-3.0-25.14-1.14","5fc7e4142a10490c47936a64","C3","batch3","","503","","","tol_toboard","","","","","","","","","tol_peg_1","503","503","0","[[3,1,0],[0,0],[2]]","15","[[1,0,0],[2,3],[0]]","5","0","","","","","","6","",""
"","","","","","single-stim-button","291","654212","0.0-3.0-25.15-0.15","5fc7e4142a10490c47936a64","C3","batch3","","745","","","tol_tohand","","","","","","","","","tol_peg_3","745","745","0","[[3,1,0],[0,0],[0]]","16","[[1,0,0],[2,3],[0]]","5","0","","","","","","6","",""
"","","","","","single-stim-button","292","655021","0.0-3.0-25.15-1.15","5fc7e4142a10490c47936a64","C3","batch3","","807","","","tol_toboard","","","","","","","","","tol_peg_2","807","807","0","[[3,1,0],[2,0],[0]]","16","[[1,0,0],[2,3],[0]]","5","0","","","","","","6","",""
"","","","","","single-stim-button","293","655561","0.0-3.0-25.16-0.16","5fc7e4142a10490c47936a64","C3","batch3","","540","","","tol_tohand","","","","","","","","","tol_peg_1","540","540","0","[[3,0,0],[2,0],[0]]","17","[[1,0,0],[2,3],[0]]","5","0","","","","","","6","",""
"","","","","","single-stim-button","294","656281","0.0-3.0-25.16-1.16","5fc7e4142a10490c47936a64","C3","batch3","","720","","","tol_toboard","","","","","","","","","tol_peg_3","720","720","0","[[3,0,0],[2,0],[1]]","17","[[1,0,0],[2,3],[0]]","5","0","","","","","","6","",""
"","","","","","single-stim-button","295","656846","0.0-3.0-25.17-0.17","5fc7e4142a10490c47936a64","C3","batch3","","564","","","tol_tohand","","","","","","","","","tol_peg_1","564","564","0","[[0,0,0],[2,0],[1]]","18","[[1,0,0],[2,3],[0]]","5","0","","","","","","6","",""
"","","","","","single-stim-button","296","657325","0.0-3.0-25.17-1.17","5fc7e4142a10490c47936a64","C3","batch3","","478","","","tol_toboard","","","","","","","","","tol_peg_2","478","478","0","[[0,0,0],[2,3],[1]]","18","[[1,0,0],[2,3],[0]]","5","0","","","","","","6","",""
"","","","","","single-stim-button","297","658372","0.0-3.0-25.18-0.18","5fc7e4142a10490c47936a64","C3","batch3","","1046","","","tol_tohand","","","","","","","","","tol_peg_3","1046","1046","0","[[0,0,0],[2,3],[0]]","19","[[1,0,0],[2,3],[0]]","5","0","","","","","","6","",""
"","","","","","single-stim-button","298","659011","0.0-3.0-25.18-1.18","5fc7e4142a10490c47936a64","C3","batch3","","638","","","tol_toboard","","","","","","","","","tol_peg_1","638","638","0","[[1,0,0],[2,3],[0]]","19","[[1,0,0],[2,3],[0]]","5","0","","","","","","6","",""
"","","","","","poldrack-single-stim","299","660020","0.0-3.0-26.0","5fc7e4142a10490c47936a64","C3","batch3","","-1","","","tol_feedback","true","","","","","","","","","1000","1000","500","","","","","","-1","none","true","13114","56727","","",""
"","","","","","html-button-response","300","660987","0.0-3.0-27.0","5fc7e4142a10490c47936a64","C3","batch3","","966.2000000476837","<div class = centerbox><p class = center-block-text>problem <strong>7</strong> out of 25 problems</p></div>","0","tol_trial_num","","","","","","","","","","","","","","","","","","","","","","","","",""
"","","","","","single-stim-button","301","665050","0.0-3.0-28.0-0.0","5fc7e4142a10490c47936a64","C3","batch3","","4062","","","tol_tohand","","","","","","","","","tol_peg_1","4062","4062","0","[[2,0,0],[0,0],[3]]","1","[[1,2,0],[3,0],[0]]","6","0","","","","","","5","",""
"","","","","","single-stim-button","302","668126","0.0-3.0-28.0-1.0","5fc7e4142a10490c47936a64","C3","batch3","","3075","","","tol_toboard","","","","","","","","","tol_peg_1","3075","3075","0","[[2,1,0],[0,0],[3]]","1","[[1,2,0],[3,0],[0]]","6","0","","","","","","5","",""
"","","","","","single-stim-button","303","669137","0.0-3.0-28.1-0.1","5fc7e4142a10490c47936a64","C3","batch3","","1009","","","tol_tohand","","","","","","","","","tol_peg_3","1009","1009","0","[[2,1,0],[0,0],[0]]","2","[[1,2,0],[3,0],[0]]","6","0","","","","","","5","",""
"","","","","","single-stim-button","304","669787","0.0-3.0-28.1-1.1","5fc7e4142a10490c47936a64","C3","batch3","","649","","","tol_toboard","","","","","","","","","tol_peg_2","649","649","0","[[2,1,0],[3,0],[0]]","2","[[1,2,0],[3,0],[0]]","6","0","","","","","","5","",""
"","","","","","single-stim-button","305","671523","0.0-3.0-28.2-0.2","5fc7e4142a10490c47936a64","C3","batch3","","1735","","","tol_tohand","","","","","","","","","tol_peg_1","1735","1735","0","[[2,0,0],[3,0],[0]]","3","[[1,2,0],[3,0],[0]]","6","0","","","","","","5","",""
"","","","","","single-stim-button","306","672187","0.0-3.0-28.2-1.2","5fc7e4142a10490c47936a64","C3","batch3","","664","","","tol_toboard","","","","","","","","","tol_peg_3","664","664","0","[[2,0,0],[3,0],[1]]","3","[[1,2,0],[3,0],[0]]","6","0","","","","","","5","",""
"","","","","","single-stim-button","307","672825","0.0-3.0-28.3-0.3","5fc7e4142a10490c47936a64","C3","batch3","","636","","","tol_tohand","","","","","","","","","tol_peg_1","636","636","0","[[0,0,0],[3,0],[1]]","4","[[1,2,0],[3,0],[0]]","6","0","","","","","","5","",""
"","","","","","single-stim-button","308","673316","0.0-3.0-28.3-1.3","5fc7e4142a10490c47936a64","C3","batch3","","491","","","tol_toboard","","","","","","","","","tol_peg_2","491","491","0","[[0,0,0],[3,2],[1]]","4","[[1,2,0],[3,0],[0]]","6","0","","","","","","5","",""
"","","","","","single-stim-button","309","673847","0.0-3.0-28.4-0.4","5fc7e4142a10490c47936a64","C3","batch3","","530","","","tol_tohand","","","","","","","","","tol_peg_3","530","530","0","[[0,0,0],[3,2],[0]]","5","[[1,2,0],[3,0],[0]]","6","0","","","","","","5","",""
"","","","","","single-stim-button","310","674380","0.0-3.0-28.4-1.4","5fc7e4142a10490c47936a64","C3","batch3","","533","","","tol_toboard","","","","","","","","","tol_peg_1","533","533","0","[[1,0,0],[3,2],[0]]","5","[[1,2,0],[3,0],[0]]","6","0","","","","","","5","",""
"","","","","","single-stim-button","311","674957","0.0-3.0-28.5-0.5","5fc7e4142a10490c47936a64","C3","batch3","","575","","","tol_tohand","","","","","","","","","tol_peg_2","575","575","0","[[1,0,0],[3,0],[0]]","6","[[1,2,0],[3,0],[0]]","6","0","","","","","","5","",""
"","","","","","single-stim-button","312","675350","0.0-3.0-28.5-1.5","5fc7e4142a10490c47936a64","C3","batch3","","393","","","tol_toboard","","","","","","","","","tol_peg_1","393","393","0","[[1,2,0],[3,0],[0]]","6","[[1,2,0],[3,0],[0]]","6","0","","","","","","5","",""
"","","","","","poldrack-single-stim","313","676351","0.0-3.0-29.0","5fc7e4142a10490c47936a64","C3","batch3","","-1","","","tol_feedback","true","","","","","","","","","1000","1000","500","","","","","","-1","none","true","4062","8547","","",""
"","","","","","html-button-response","314","677028","0.0-3.0-30.0","5fc7e4142a10490c47936a64","C3","batch3","","675.7000000476837","<div class = centerbox><p class = center-block-text>problem <strong>8</strong> out of 25 problems</p></div>","0","tol_trial_num","","","","","","","","","","","","","","","","","","","","","","","","",""
"","","","","","single-stim-button","315","680545","0.0-3.0-31.0-0.0","5fc7e4142a10490c47936a64","C3","batch3","","3517","","","tol_tohand","","","","","","","","","tol_peg_3","3517","3517","0","[[0,0,0],[2,3],[0]]","1","[[1,2,0],[3,0],[0]]","7","0","","","","","","4","",""
"","","","","","single-stim-button","316","681633","0.0-3.0-31.0-1.0","5fc7e4142a10490c47936a64","C3","batch3","","1088","","","tol_toboard","","","","","","","","","tol_peg_1","1088","1088","0","[[1,0,0],[2,3],[0]]","1","[[1,2,0],[3,0],[0]]","7","0","","","","","","4","",""
"","","","","","single-stim-button","317","682099","0.0-3.0-31.1-0.1","5fc7e4142a10490c47936a64","C3","batch3","","465","","","tol_tohand","","","","","","","","","tol_peg_2","465","465","0","[[1,0,0],[2,0],[0]]","2","[[1,2,0],[3,0],[0]]","7","0","","","","","","4","",""
"","","","","","single-stim-button","318","682639","0.0-3.0-31.1-1.1","5fc7e4142a10490c47936a64","C3","batch3","","539","","","tol_toboard","","","","","","","","","tol_peg_3","539","539","0","[[1,0,0],[2,0],[3]]","2","[[1,2,0],[3,0],[0]]","7","0","","","","","","4","",""
"","","","","","single-stim-button","319","683892","0.0-3.0-31.2-0.2","5fc7e4142a10490c47936a64","C3","batch3","","1251","","","tol_tohand","","","","","","","","","tol_peg_2","1251","1251","0","[[1,0,0],[0,0],[3]]","3","[[1,2,0],[3,0],[0]]","7","0","","","","","","4","",""
"","","","","","single-stim-button","320","684359","0.0-3.0-31.2-1.2","5fc7e4142a10490c47936a64","C3","batch3","","466","","","tol_toboard","","","","","","","","","tol_peg_1","466","466","0","[[1,2,0],[0,0],[3]]","3","[[1,2,0],[3,0],[0]]","7","0","","","","","","4","",""
"","","","","","single-stim-button","321","685055","0.0-3.0-31.3-0.3","5fc7e4142a10490c47936a64","C3","batch3","","695","","","tol_tohand","","","","","","","","","tol_peg_3","695","695","0","[[1,2,0],[0,0],[0]]","4","[[1,2,0],[3,0],[0]]","7","0","","","","","","4","",""
"","","","","","single-stim-button","322","685569","0.0-3.0-31.3-1.3","5fc7e4142a10490c47936a64","C3","batch3","","513","","","tol_toboard","","","","","","","","","tol_peg_2","513","513","0","[[1,2,0],[3,0],[0]]","4","[[1,2,0],[3,0],[0]]","7","0","","","","","","4","",""
"","","","","","poldrack-single-stim","323","686572","0.0-3.0-32.0","5fc7e4142a10490c47936a64","C3","batch3","","-1","","","tol_feedback","true","","","","","","","","","1000","1000","500","","","","","","-1","none","true","3517","5928","","",""
"","","","","","html-button-response","324","687557","0.0-3.0-33.0","5fc7e4142a10490c47936a64","C3","batch3","","984.7000000476837","<div class = centerbox><p class = center-block-text>problem <strong>9</strong> out of 25 problems</p></div>","0","tol_trial_num","","","","","","","","","","","","","","","","","","","","","","","","",""
"","","","","","single-stim-button","325","693876","0.0-3.0-34.0-0.0","5fc7e4142a10490c47936a64","C3","batch3","","6318","","","tol_tohand","","","","","","","","","tol_peg_3","6318","6318","0","[[3,2,0],[0,0],[0]]","1","[[2,1,0],[3,0],[0]]","8","0","","","","","","6","",""
"","","","","","single-stim-button","326","694501","0.0-3.0-34.0-1.0","5fc7e4142a10490c47936a64","C3","batch3","","624","","","tol_toboard","","","","","","","","","tol_peg_2","624","624","0","[[3,2,0],[1,0],[0]]","1","[[2,1,0],[3,0],[0]]","8","0","","","","","","6","",""
"","","","","","single-stim-button","327","696240","0.0-3.0-34.1-0.1","5fc7e4142a10490c47936a64","C3","batch3","","1739","","","tol_tohand","","","","","","","","","tol_peg_1","1739","1739","0","[[3,0,0],[1,0],[0]]","2","[[2,1,0],[3,0],[0]]","8","0","","","","","","6","",""
"","","","","","single-stim-button","328","697821","0.0-3.0-34.1-1.1","5fc7e4142a10490c47936a64","C3","batch3","","1580","","","tol_toboard","","","","","","","","","tol_peg_3","1580","1580","0","[[3,0,0],[1,0],[2]]","2","[[2,1,0],[3,0],[0]]","8","0","","","","","","6","",""
"","","","","","single-stim-button","329","698411","0.0-3.0-34.2-0.2","5fc7e4142a10490c47936a64","C3","batch3","","590","","","tol_tohand","","","","","","","","","tol_peg_1","590","590","0","[[0,0,0],[1,0],[2]]","3","[[2,1,0],[3,0],[0]]","8","0","","","","","","6","",""
"","","","","","single-stim-button","330","698961","0.0-3.0-34.2-1.2","5fc7e4142a10490c47936a64","C3","batch3","","550","","","tol_toboard","","","","","","","","","tol_peg_2","550","550","0","[[0,0,0],[1,3],[2]]","3","[[2,1,0],[3,0],[0]]","8","0","","","","","","6","",""
"","","","","","single-stim-button","331","699484","0.0-3.0-34.3-0.3","5fc7e4142a10490c47936a64","C3","batch3","","522","","","tol_tohand","","","","","","","","","tol_peg_3","522","522","0","[[0,0,0],[1,3],[0]]","4","[[2,1,0],[3,0],[0]]","8","0","","","","","","6","",""
"","","","","","single-stim-button","332","700306","0.0-3.0-34.3-1.3","5fc7e4142a10490c47936a64","C3","batch3","","821","","","tol_toboard","","","","","","","","","tol_peg_1","821","821","0","[[2,0,0],[1,3],[0]]","4","[[2,1,0],[3,0],[0]]","8","0","","","","","","6","",""
"","","","","","single-stim-button","333","702073","0.0-3.0-34.4-0.4","5fc7e4142a10490c47936a64","C3","batch3","","1766","","","tol_tohand","","","","","","","","","tol_peg_2","1766","1766","0","[[2,0,0],[1,0],[0]]","5","[[2,1,0],[3,0],[0]]","8","0","","","","","","6","",""
"","","","","","single-stim-button","334","702582","0.0-3.0-34.4-1.4","5fc7e4142a10490c47936a64","C3","batch3","","509","","","tol_toboard","","","","","","","","","tol_peg_3","509","509","0","[[2,0,0],[1,0],[3]]","5","[[2,1,0],[3,0],[0]]","8","0","","","","","","6","",""
"","","","","","single-stim-button","335","703030","0.0-3.0-34.5-0.5","5fc7e4142a10490c47936a64","C3","batch3","","448","","","tol_tohand","","","","","","","","","tol_peg_2","448","448","0","[[2,0,0],[0,0],[3]]","6","[[2,1,0],[3,0],[0]]","8","0","","","","","","6","",""
"","","","","","single-stim-button","336","703932","0.0-3.0-34.5-1.5","5fc7e4142a10490c47936a64","C3","batch3","","902","","","tol_toboard","","","","","","","","","tol_peg_1","902","902","0","[[2,1,0],[0,0],[3]]","6","[[2,1,0],[3,0],[0]]","8","0","","","","","","6","",""
"","","","","","single-stim-button","337","704385","0.0-3.0-34.6-0.6","5fc7e4142a10490c47936a64","C3","batch3","","452","","","tol_tohand","","","","","","","","","tol_peg_3","452","452","0","[[2,1,0],[0,0],[0]]","7","[[2,1,0],[3,0],[0]]","8","0","","","","","","6","",""
"","","","","","single-stim-button","338","704820","0.0-3.0-34.6-1.6","5fc7e4142a10490c47936a64","C3","batch3","","433","","","tol_toboard","","","","","","","","","tol_peg_2","433","433","0","[[2,1,0],[3,0],[0]]","7","[[2,1,0],[3,0],[0]]","8","0","","","","","","6","",""
"","","","","","poldrack-single-stim","339","705821","0.0-3.0-35.0","5fc7e4142a10490c47936a64","C3","batch3","","-1","","","tol_feedback","true","","","","","","","","","1000","1000","500","","","","","","-1","none","true","6318","11835","","",""
"","","","","","html-button-response","340","706623","0.0-3.0-36.0","5fc7e4142a10490c47936a64","C3","batch3","","800.7000000476837","<div class = centerbox><p class = center-block-text>problem <strong>10</strong> out of 25 problems</p></div>","0","tol_trial_num","","","","","","","","","","","","","","","","","","","","","","","","",""
"","","","","","single-stim-button","341","709884","0.0-3.0-37.0-0.0","5fc7e4142a10490c47936a64","C3","batch3","","3260","","","tol_tohand","","","","","","","","","tol_peg_2","3260","3260","0","[[3,0,0],[0,0],[2]]","1","[[3,0,0],[2,1],[0]]","9","0","","","","","","3","",""
"","","","","","single-stim-button","342","710676","0.0-3.0-37.0-1.0","5fc7e4142a10490c47936a64","C3","batch3","","791","","","tol_toboard","","","","","","","","","tol_peg_1","791","791","0","[[3,1,0],[0,0],[2]]","1","[[3,0,0],[2,1],[0]]","9","0","","","","","","3","",""
"","","","","","single-stim-button","343","711343","0.0-3.0-37.1-0.1","5fc7e4142a10490c47936a64","C3","batch3","","667","","","tol_tohand","","","","","","","","","tol_peg_3","667","667","0","[[3,1,0],[0,0],[0]]","2","[[3,0,0],[2,1],[0]]","9","0","","","","","","3","",""
"","","","","","single-stim-button","344","711800","0.0-3.0-37.1-1.1","5fc7e4142a10490c47936a64","C3","batch3","","456","","","tol_toboard","","","","","","","","","tol_peg_2","456","456","0","[[3,1,0],[2,0],[0]]","2","[[3,0,0],[2,1],[0]]","9","0","","","","","","3","",""
"","","","","","single-stim-button","345","712300","0.0-3.0-37.2-0.2","5fc7e4142a10490c47936a64","C3","batch3","","500","","","tol_tohand","","","","","","","","","tol_peg_1","500","500","0","[[3,0,0],[2,0],[0]]","3","[[3,0,0],[2,1],[0]]","9","0","","","","","","3","",""
"","","","","","single-stim-button","346","712674","0.0-3.0-37.2-1.2","5fc7e4142a10490c47936a64","C3","batch3","","373","","","tol_toboard","","","","","","","","","tol_peg_2","373","373","0","[[3,0,0],[2,1],[0]]","3","[[3,0,0],[2,1],[0]]","9","0","","","","","","3","",""
"","","","","","poldrack-single-stim","347","713681","0.0-3.0-38.0","5fc7e4142a10490c47936a64","C3","batch3","","-1","","","tol_feedback","true","","","","","","","","","1000","1000","500","","","","","","-1","none","true","3260","4427","","",""
"","","","","","html-button-response","348","714358","0.0-3.0-39.0","5fc7e4142a10490c47936a64","C3","batch3","","676.2999999523163","<div class = centerbox><p class = center-block-text>problem <strong>11</strong> out of 25 problems</p></div>","0","tol_trial_num","","","","","","","","","","","","","","","","","","","","","","","","",""
