"success","timeout","failed_images","failed_audio","failed_video","trial_type","trial_index","time_elapsed","internal_node_id","subject_id","study_id","session_id","task","rt","stimulus","response","item","answer","correct","spm_correct","spm_rt","view_history","fiar_detect_rt","fiar_detect_correct","total_correct_fiar_detect","post_trial_gap","choices","mouse_click","stim_duration","block_duration","timing_post_trial","current_position","tol_num_moves_made","tol_target","tol_problem_id","tol_rt","key_press","possible_responses","tol_correct","preplanning","tol_rt_per_trial","tol_min_moves"
"true","false","[]","[]","[]","preload","0","4593","0.0-0.0","5fd67cce91f9895969c0edee","B2","batch2","","","","","","","","","","","","","","","","","","","","","","","","","","","","","",""
"true","","","","","fullscreen","1","11645","0.0-1.0-0.0","5fd67cce91f9895969c0edee","B2","batch2","","","","","","","","","","","","","","","","","","","","","","","","","","","","","",""
"true","","","","","fullscreen","2","14804","0.0-2.0-0.0","5fd67cce91f9895969c0edee","B2","batch2","spm_fullscreen","","","","","","","","","","","","","","","","","","","","","","","","","","","","",""
"","","","","","html-button-response","3","22716","0.0-2.0-1.0","5fd67cce91f9895969c0edee","B2","batch2","","7904.199999988079","<p class = block-text><b>Instructions</b> <br>This is a widely used intelligence test in research. <br>In this test, a figure with a missing piece will be presented.<br>Below the figure are alternative pieces to complete the figure, only one of which is correct.<br> Different figures might involve different principles for obtaining the missing piece<br>Your job is to select the most logical piece to complete the figure.</p>","0","","","","","","","","","","","","","","","","","","","","","","","","","",""
"","","","","","html-keyboard-response","4","23524","0.0-2.0-2.0-0.0","5fd67cce91f9895969c0edee","B2","batch2","spm_show_trial_num","null","<p class=block-text>Trial 1 out of 60</p>","null","","","","","","","","","","","","","","","","","","","","","","","","","",""
"","","","","","image-button-response","5","32225","0.0-2.0-2.0-1.0","5fd67cce91f9895969c0edee","B2","batch2","spm_respsonse","8695.200000017881","img/question_1_1.jpeg","3","mat_01","4","1","1","8695.200000017881","","","","","","","","","","","","","","","","","","","","",""
"","","","","","html-keyboard-response","6","33294","0.0-2.0-2.0-0.1","5fd67cce91f9895969c0edee","B2","batch2","spm_show_trial_num","null","<p class=block-text>Trial 2 out of 60</p>","null","","","","","","","","","","","","","","","","","","","","","","","","","",""
"","","","","","image-button-response","7","38974","0.0-2.0-2.0-1.1","5fd67cce91f9895969c0edee","B2","batch2","spm_respsonse","5676.800000011921","img/question_1_2.jpeg","4","mat_02","5","1","1","5676.800000011921","","","","","","","","","","","","","","","","","","","","",""
"","","","","","html-keyboard-response","8","40054","0.0-2.0-2.0-0.2","5fd67cce91f9895969c0edee","B2","batch2","spm_show_trial_num","null","<p class=block-text>Trial 3 out of 60</p>","null","","","","","","","","","","","","","","","","","","","","","","","","","",""
"","","","","","image-button-response","9","43126","0.0-2.0-2.0-1.2","5fd67cce91f9895969c0edee","B2","batch2","spm_respsonse","3068.800000011921","img/question_1_3.jpeg","0","mat_03","1","1","1","3068.800000011921","","","","","","","","","","","","","","","","","","","","",""
"","","","","","html-keyboard-response","10","44201","0.0-2.0-2.0-0.3","5fd67cce91f9895969c0edee","B2","batch2","spm_show_trial_num","null","<p class=block-text>Trial 4 out of 60</p>","null","","","","","","","","","","","","","","","","","","","","","","","","","",""
"","","","","","image-button-response","11","51358","0.0-2.0-2.0-1.3","5fd67cce91f9895969c0edee","B2","batch2","spm_respsonse","7152.699999988079","img/question_1_4.jpeg","1","mat_04","2","1","1","7152.699999988079","","","","","","","","","","","","","","","","","","","","",""
"","","","","","html-keyboard-response","12","52429","0.0-2.0-2.0-0.4","5fd67cce91f9895969c0edee","B2","batch2","spm_show_trial_num","null","<p class=block-text>Trial 5 out of 60</p>","null","","","","","","","","","","","","","","","","","","","","","","","","","",""
"","","","","","image-button-response","13","55866","0.0-2.0-2.0-1.4","5fd67cce91f9895969c0edee","B2","batch2","spm_respsonse","3433","img/question_1_5.jpeg","5","mat_05","6","1","1","3433","","","","","","","","","","","","","","","","","","","","",""
"","","","","","html-keyboard-response","14","56943","0.0-2.0-2.0-0.5","5fd67cce91f9895969c0edee","B2","batch2","spm_show_trial_num","null","<p class=block-text>Trial 6 out of 60</p>","null","","","","","","","","","","","","","","","","","","","","","","","","","",""
"","","","","","image-button-response","15","61504","0.0-2.0-2.0-1.5","5fd67cce91f9895969c0edee","B2","batch2","spm_respsonse","4557.700000017881","img/question_1_6.jpeg","2","mat_06","3","1","1","4557.700000017881","","","","","","","","","","","","","","","","","","","","",""
"","","","","","html-keyboard-response","16","62572","0.0-2.0-2.0-0.6","5fd67cce91f9895969c0edee","B2","batch2","spm_show_trial_num","null","<p class=block-text>Trial 7 out of 60</p>","null","","","","","","","","","","","","","","","","","","","","","","","","","",""
"","","","","","image-button-response","17","73733","0.0-2.0-2.0-1.6","5fd67cce91f9895969c0edee","B2","batch2","spm_respsonse","11158.199999988079","img/question_1_7.jpeg","5","mat_07","6","1","1","11158.199999988079","","","","","","","","","","","","","","","","","","","","",""
"","","","","","html-keyboard-response","18","74813","0.0-2.0-2.0-0.7","5fd67cce91f9895969c0edee","B2","batch2","spm_show_trial_num","null","<p class=block-text>Trial 8 out of 60</p>","null","","","","","","","","","","","","","","","","","","","","","","","","","",""
"","","","","","image-button-response","19","87563","0.0-2.0-2.0-1.7","5fd67cce91f9895969c0edee","B2","batch2","spm_respsonse","12745.90000000596","img/question_1_8.jpeg","1","mat_08","2","1","1","12745.90000000596","","","","","","","","","","","","","","","","","","","","",""
"","","","","","html-keyboard-response","20","88635","0.0-2.0-2.0-0.8","5fd67cce91f9895969c0edee","B2","batch2","spm_show_trial_num","null","<p class=block-text>Trial 9 out of 60</p>","null","","","","","","","","","","","","","","","","","","","","","","","","","",""
"","","","","","image-button-response","21","95349","0.0-2.0-2.0-1.8","5fd67cce91f9895969c0edee","B2","batch2","spm_respsonse","6710.199999988079","img/question_1_9.jpeg","0","mat_09","1","1","1","6710.199999988079","","","","","","","","","","","","","","","","","","","","",""
"","","","","","html-keyboard-response","22","96428","0.0-2.0-2.0-0.9","5fd67cce91f9895969c0edee","B2","batch2","spm_show_trial_num","null","<p class=block-text>Trial 10 out of 60</p>","null","","","","","","","","","","","","","","","","","","","","","","","","","",""
"","","","","","image-button-response","23","103708","0.0-2.0-2.0-1.9","5fd67cce91f9895969c0edee","B2","batch2","spm_respsonse","7276.0999999940395","img/question_1_10.jpeg","2","mat_10","3","1","1","7276.0999999940395","","","","","","","","","","","","","","","","","","","","",""
"","","","","","html-keyboard-response","24","104772","0.0-2.0-2.0-0.10","5fd67cce91f9895969c0edee","B2","batch2","spm_show_trial_num","null","<p class=block-text>Trial 11 out of 60</p>","null","","","","","","","","","","","","","","","","","","","","","","","","","",""
"","","","","","image-button-response","25","117431","0.0-2.0-2.0-1.10","5fd67cce91f9895969c0edee","B2","batch2","spm_respsonse","12654.90000000596","img/question_1_11.jpeg","3","mat_11","4","1","1","12654.90000000596","","","","","","","","","","","","","","","","","","","","",""
"","","","","","html-keyboard-response","26","118512","0.0-2.0-2.0-0.11","5fd67cce91f9895969c0edee","B2","batch2","spm_show_trial_num","null","<p class=block-text>Trial 12 out of 60</p>","null","","","","","","","","","","","","","","","","","","","","","","","","","",""
"","","","","","image-button-response","27","128949","0.0-2.0-2.0-1.11","5fd67cce91f9895969c0edee","B2","batch2","spm_respsonse","10433.59999999404","img/question_1_12.jpeg","4","mat_12","5","1","1","10433.59999999404","","","","","","","","","","","","","","","","","","","","",""
"","","","","","html-keyboard-response","28","130019","0.0-2.0-2.0-0.12","5fd67cce91f9895969c0edee","B2","batch2","spm_show_trial_num","null","<p class=block-text>Trial 13 out of 60</p>","null","","","","","","","","","","","","","","","","","","","","","","","","","",""
"","","","","","image-button-response","29","134470","0.0-2.0-2.0-1.12","5fd67cce91f9895969c0edee","B2","batch2","spm_respsonse","4448.0999999940395","img/question_2_1.jpeg","1","mat_13","2","1","1","4448.0999999940395","","","","","","","","","","","","","","","","","","","","",""
"","","","","","html-keyboard-response","30","135550","0.0-2.0-2.0-0.13","5fd67cce91f9895969c0edee","B2","batch2","spm_show_trial_num","null","<p class=block-text>Trial 14 out of 60</p>","null","","","","","","","","","","","","","","","","","","","","","","","","","",""
"","","","","","image-button-response","31","140650","0.0-2.0-2.0-1.13","5fd67cce91f9895969c0edee","B2","batch2","spm_respsonse","5095.199999988079","img/question_2_2.jpeg","5","mat_14","6","1","1","5095.199999988079","","","","","","","","","","","","","","","","","","","","",""
"","","","","","html-keyboard-response","32","141727","0.0-2.0-2.0-0.14","5fd67cce91f9895969c0edee","B2","batch2","spm_show_trial_num","null","<p class=block-text>Trial 15 out of 60</p>","null","","","","","","","","","","","","","","","","","","","","","","","","","",""
"","","","","","image-button-response","33","148803","0.0-2.0-2.0-1.14","5fd67cce91f9895969c0edee","B2","batch2","spm_respsonse","7071.5999999940395","img/question_2_3.jpeg","0","mat_15","1","1","1","7071.5999999940395","","","","","","","","","","","","","","","","","","","","",""
"","","","","","html-keyboard-response","34","149870","0.0-2.0-2.0-0.15","5fd67cce91f9895969c0edee","B2","batch2","spm_show_trial_num","null","<p class=block-text>Trial 16 out of 60</p>","null","","","","","","","","","","","","","","","","","","","","","","","","","",""
"","","","","","image-button-response","35","173517","0.0-2.0-2.0-1.15","5fd67cce91f9895969c0edee","B2","batch2","spm_respsonse","23643","img/question_2_4.jpeg","1","mat_16","2","1","1","23643","","","","","","","","","","","","","","","","","","","","",""
"","","","","","html-keyboard-response","36","174584","0.0-2.0-2.0-0.16","5fd67cce91f9895969c0edee","B2","batch2","spm_show_trial_num","null","<p class=block-text>Trial 17 out of 60</p>","null","","","","","","","","","","","","","","","","","","","","","","","","","",""
"","","","","","image-button-response","37","179766","0.0-2.0-2.0-1.16","5fd67cce91f9895969c0edee","B2","batch2","spm_respsonse","5178.300000011921","img/question_2_5.jpeg","0","mat_17","1","1","1","5178.300000011921","","","","","","","","","","","","","","","","","","","","",""
"","","","","","html-keyboard-response","38","180831","0.0-2.0-2.0-0.17","5fd67cce91f9895969c0edee","B2","batch2","spm_show_trial_num","null","<p class=block-text>Trial 18 out of 60</p>","null","","","","","","","","","","","","","","","","","","","","","","","","","",""
"","","","","","image-button-response","39","188815","0.0-2.0-2.0-1.17","5fd67cce91f9895969c0edee","B2","batch2","spm_respsonse","7979.9000000059605","img/question_2_6.jpeg","2","mat_18","3","1","1","7979.9000000059605","","","","","","","","","","","","","","","","","","","","",""
"","","","","","html-keyboard-response","40","189891","0.0-2.0-2.0-0.18","5fd67cce91f9895969c0edee","B2","batch2","spm_show_trial_num","null","<p class=block-text>Trial 19 out of 60</p>","null","","","","","","","","","","","","","","","","","","","","","","","","","",""
"","","","","","image-button-response","41","200214","0.0-2.0-2.0-1.18","5fd67cce91f9895969c0edee","B2","batch2","spm_respsonse","10318.699999988079","img/question_2_7.jpeg","4","mat_19","5","1","1","10318.699999988079","","","","","","","","","","","","","","","","","","","","",""
"","","","","","html-keyboard-response","42","201282","0.0-2.0-2.0-0.19","5fd67cce91f9895969c0edee","B2","batch2","spm_show_trial_num","null","<p class=block-text>Trial 20 out of 60</p>","null","","","","","","","","","","","","","","","","","","","","","","","","","",""
"","","","","","image-button-response","43","213503","0.0-2.0-2.0-1.19","5fd67cce91f9895969c0edee","B2","batch2","spm_respsonse","12215.5","img/question_2_8.jpeg","3","mat_20","6","0","0","12215.5","","","","","","","","","","","","","","","","","","","","",""
"","","","","","html-keyboard-response","44","214568","0.0-2.0-2.0-0.20","5fd67cce91f9895969c0edee","B2","batch2","spm_show_trial_num","null","<p class=block-text>Trial 21 out of 60</p>","null","","","","","","","","","","","","","","","","","","","","","","","","","",""
"","","","","","image-button-response","45","226164","0.0-2.0-2.0-1.20","5fd67cce91f9895969c0edee","B2","batch2","spm_respsonse","11590.59999999404","img/question_2_9.jpeg","5","mat_21","4","0","0","11590.59999999404","","","","","","","","","","","","","","","","","","","","",""
"","","","","","html-keyboard-response","46","227228","0.0-2.0-2.0-0.21","5fd67cce91f9895969c0edee","B2","batch2","spm_show_trial_num","null","<p class=block-text>Trial 22 out of 60</p>","null","","","","","","","","","","","","","","","","","","","","","","","","","",""
"","","","","","image-button-response","47","241341","0.0-2.0-2.0-1.21","5fd67cce91f9895969c0edee","B2","batch2","spm_respsonse","14110","img/question_2_10.jpeg","2","mat_22","3","1","1","14110","","","","","","","","","","","","","","","","","","","","",""
"","","","","","html-keyboard-response","48","242415","0.0-2.0-2.0-0.22","5fd67cce91f9895969c0edee","B2","batch2","spm_show_trial_num","null","<p class=block-text>Trial 23 out of 60</p>","null","","","","","","","","","","","","","","","","","","","","","","","","","",""
"","","","","","image-button-response","49","254229","0.0-2.0-2.0-1.22","5fd67cce91f9895969c0edee","B2","batch2","spm_respsonse","11809.59999999404","img/question_2_11.jpeg","3","mat_23","4","1","1","11809.59999999404","","","","","","","","","","","","","","","","","","","","",""
"","","","","","html-keyboard-response","50","255305","0.0-2.0-2.0-0.23","5fd67cce91f9895969c0edee","B2","batch2","spm_show_trial_num","null","<p class=block-text>Trial 24 out of 60</p>","null","","","","","","","","","","","","","","","","","","","","","","","","","",""
"","","","","","image-button-response","51","273093","0.0-2.0-2.0-1.23","5fd67cce91f9895969c0edee","B2","batch2","spm_respsonse","17782.29999998212","img/question_2_12.jpeg","5","mat_24","5","0","0","17782.29999998212","","","","","","","","","","","","","","","","","","","","",""
"","","","","","html-button-response","52","276549","0.0-2.0-3.0","5fd67cce91f9895969c0edee","B2","batch2","attention_check","3198.199999988079","<p class = block-text>Attention check: Please choose 1<br></p>","0","","","true","","","","","","","","","","","","","","","","","","","","","","",""
"","","","","","html-keyboard-response","53","277357","0.0-2.0-4.0-0.0","5fd67cce91f9895969c0edee","B2","batch2","spm_show_trial_num","null","<p class=block-text>Trial 25 out of 60</p>","null","","","","","","","","","","","","","","","","","","","","","","","","","",""
"","","","","","image-button-response","54","282320","0.0-2.0-4.0-1.0","5fd67cce91f9895969c0edee","B2","batch2","spm_respsonse","4959.399999976158","img/question_3_1.jpeg","1","mat_25","8","0","0","4959.399999976158","","","","","","","","","","","","","","","","","","","","",""
"","","","","","html-keyboard-response","55","283385","0.0-2.0-4.0-0.1","5fd67cce91f9895969c0edee","B2","batch2","spm_show_trial_num","null","<p class=block-text>Trial 26 out of 60</p>","null","","","","","","","","","","","","","","","","","","","","","","","","","",""
"","","","","","image-button-response","56","286593","0.0-2.0-4.0-1.1","5fd67cce91f9895969c0edee","B2","batch2","spm_respsonse","3203.5","img/question_3_2.jpeg","1","mat_26","2","1","1","3203.5","","","","","","","","","","","","","","","","","","","","",""
"","","","","","html-keyboard-response","57","287663","0.0-2.0-4.0-0.2","5fd67cce91f9895969c0edee","B2","batch2","spm_show_trial_num","null","<p class=block-text>Trial 27 out of 60</p>","null","","","","","","","","","","","","","","","","","","","","","","","","","",""
"","","","","","image-button-response","58","296963","0.0-2.0-4.0-1.2","5fd67cce91f9895969c0edee","B2","batch2","spm_respsonse","9295.40000000596","img/question_3_3.jpeg","2","mat_27","3","1","1","9295.40000000596","","","","","","","","","","","","","","","","","","","","",""
"","","","","","html-keyboard-response","59","298040","0.0-2.0-4.0-0.3","5fd67cce91f9895969c0edee","B2","batch2","spm_show_trial_num","null","<p class=block-text>Trial 28 out of 60</p>","null","","","","","","","","","","","","","","","","","","","","","","","","","",""
"","","","","","image-button-response","60","306953","0.0-2.0-4.0-1.3","5fd67cce91f9895969c0edee","B2","batch2","spm_respsonse","8909.699999988079","img/question_3_4.jpeg","2","mat_28","8","0","0","8909.699999988079","","","","","","","","","","","","","","","","","","","","",""
"","","","","","html-keyboard-response","61","308031","0.0-2.0-4.0-0.4","5fd67cce91f9895969c0edee","B2","batch2","spm_show_trial_num","null","<p class=block-text>Trial 29 out of 60</p>","null","","","","","","","","","","","","","","","","","","","","","","","","","",""
"","","","","","image-button-response","62","312780","0.0-2.0-4.0-1.4","5fd67cce91f9895969c0edee","B2","batch2","spm_respsonse","4743.699999988079","img/question_3_5.jpeg","6","mat_29","7","1","1","4743.699999988079","","","","","","","","","","","","","","","","","","","","",""
"","","","","","html-keyboard-response","63","313844","0.0-2.0-4.0-0.5","5fd67cce91f9895969c0edee","B2","batch2","spm_show_trial_num","null","<p class=block-text>Trial 30 out of 60</p>","null","","","","","","","","","","","","","","","","","","","","","","","","","",""
"","","","","","image-button-response","64","318826","0.0-2.0-4.0-1.5","5fd67cce91f9895969c0edee","B2","batch2","spm_respsonse","4978","img/question_3_6.jpeg","2","mat_30","4","0","0","4978","","","","","","","","","","","","","","","","","","","","",""
"","","","","","html-keyboard-response","65","319892","0.0-2.0-4.0-0.6","5fd67cce91f9895969c0edee","B2","batch2","spm_show_trial_num","null","<p class=block-text>Trial 31 out of 60</p>","null","","","","","","","","","","","","","","","","","","","","","","","","","",""
"","","","","","image-button-response","66","326375","0.0-2.0-4.0-1.6","5fd67cce91f9895969c0edee","B2","batch2","spm_respsonse","6479.200000017881","img/question_3_7.jpeg","4","mat_31","5","1","1","6479.200000017881","","","","","","","","","","","","","","","","","","","","",""
"","","","","","html-keyboard-response","67","327450","0.0-2.0-4.0-0.7","5fd67cce91f9895969c0edee","B2","batch2","spm_show_trial_num","null","<p class=block-text>Trial 32 out of 60</p>","null","","","","","","","","","","","","","","","","","","","","","","","","","",""
"","","","","","image-button-response","68","332020","0.0-2.0-4.0-1.7","5fd67cce91f9895969c0edee","B2","batch2","spm_respsonse","4565.4000000059605","img/question_3_8.jpeg","5","mat_32","1","0","0","4565.4000000059605","","","","","","","","","","","","","","","","","","","","",""
"","","","","","html-keyboard-response","69","333096","0.0-2.0-4.0-0.8","5fd67cce91f9895969c0edee","B2","batch2","spm_show_trial_num","null","<p class=block-text>Trial 33 out of 60</p>","null","","","","","","","","","","","","","","","","","","","","","","","","","",""
"","","","","","image-button-response","70","340558","0.0-2.0-4.0-1.8","5fd67cce91f9895969c0edee","B2","batch2","spm_respsonse","7457.4000000059605","img/question_3_9.jpeg","6","mat_33","7","1","1","7457.4000000059605","","","","","","","","","","","","","","","","","","","","",""
"","","","","","html-keyboard-response","71","341623","0.0-2.0-4.0-0.9","5fd67cce91f9895969c0edee","B2","batch2","spm_show_trial_num","null","<p class=block-text>Trial 34 out of 60</p>","null","","","","","","","","","","","","","","","","","","","","","","","","","",""
"","","","","","image-button-response","72","383875","0.0-2.0-4.0-1.9","5fd67cce91f9895969c0edee","B2","batch2","spm_respsonse","42245.59999999404","img/question_3_10.jpeg","7","mat_34","6","0","0","42245.59999999404","","","","","","","","","","","","","","","","","","","","",""
"","","","","","html-keyboard-response","73","384937","0.0-2.0-4.0-0.10","5fd67cce91f9895969c0edee","B2","batch2","spm_show_trial_num","null","<p class=block-text>Trial 35 out of 60</p>","null","","","","","","","","","","","","","","","","","","","","","","","","","",""
"","","","","","image-button-response","74","407359","0.0-2.0-4.0-1.10","5fd67cce91f9895969c0edee","B2","batch2","spm_respsonse","22417.90000000596","img/question_3_11.jpeg","7","mat_35","1","0","0","22417.90000000596","","","","","","","","","","","","","","","","","","","","",""
"","","","","","html-keyboard-response","75","408438","0.0-2.0-4.0-0.11","5fd67cce91f9895969c0edee","B2","batch2","spm_show_trial_num","null","<p class=block-text>Trial 36 out of 60</p>","null","","","","","","","","","","","","","","","","","","","","","","","","","",""
"","","","","","image-button-response","76","418937","0.0-2.0-4.0-1.11","5fd67cce91f9895969c0edee","B2","batch2","spm_respsonse","10494.299999982119","img/question_3_12.jpeg","5","mat_36","2","0","0","10494.299999982119","","","","","","","","","","","","","","","","","","","","",""
"","","","","","html-keyboard-response","77","420012","0.0-2.0-4.0-0.12","5fd67cce91f9895969c0edee","B2","batch2","spm_show_trial_num","null","<p class=block-text>Trial 37 out of 60</p>","null","","","","","","","","","","","","","","","","","","","","","","","","","",""
"","","","","","image-button-response","78","424472","0.0-2.0-4.0-1.12","5fd67cce91f9895969c0edee","B2","batch2","spm_respsonse","4454.5","img/question_4_1.jpeg","2","mat_37","3","1","1","4454.5","","","","","","","","","","","","","","","","","","","","",""
"","","","","","html-keyboard-response","79","425543","0.0-2.0-4.0-0.13","5fd67cce91f9895969c0edee","B2","batch2","spm_show_trial_num","null","<p class=block-text>Trial 38 out of 60</p>","null","","","","","","","","","","","","","","","","","","","","","","","","","",""
"","","","","","image-button-response","80","432866","0.0-2.0-4.0-1.13","5fd67cce91f9895969c0edee","B2","batch2","spm_respsonse","7319.5","img/question_4_2.jpeg","3","mat_38","4","1","1","7319.5","","","","","","","","","","","","","","","","","","","","",""
"","","","","","html-keyboard-response","81","433934","0.0-2.0-4.0-0.14","5fd67cce91f9895969c0edee","B2","batch2","spm_show_trial_num","null","<p class=block-text>Trial 39 out of 60</p>","null","","","","","","","","","","","","","","","","","","","","","","","","","",""
"","","","","","image-button-response","82","440006","0.0-2.0-4.0-1.14","5fd67cce91f9895969c0edee","B2","batch2","spm_respsonse","6067.300000011921","img/question_4_3.jpeg","3","mat_39","3","0","0","6067.300000011921","","","","","","","","","","","","","","","","","","","","",""
"","","","","","html-keyboard-response","83","441080","0.0-2.0-4.0-0.15","5fd67cce91f9895969c0edee","B2","batch2","spm_show_trial_num","null","<p class=block-text>Trial 40 out of 60</p>","null","","","","","","","","","","","","","","","","","","","","","","","","","",""
"","","","","","image-button-response","84","452086","0.0-2.0-4.0-1.15","5fd67cce91f9895969c0edee","B2","batch2","spm_respsonse","11002.300000011921","img/question_4_4.jpeg","6","mat_40","7","1","1","11002.300000011921","","","","","","","","","","","","","","","","","","","","",""
"","","","","","html-keyboard-response","85","453153","0.0-2.0-4.0-0.16","5fd67cce91f9895969c0edee","B2","batch2","spm_show_trial_num","null","<p class=block-text>Trial 41 out of 60</p>","null","","","","","","","","","","","","","","","","","","","","","","","","","",""
"","","","","","image-button-response","86","457611","0.0-2.0-4.0-1.16","5fd67cce91f9895969c0edee","B2","batch2","spm_respsonse","4454.799999982119","img/question_4_5.jpeg","7","mat_41","8","1","1","4454.799999982119","","","","","","","","","","","","","","","","","","","","",""
"","","","","","html-keyboard-response","87","458672","0.0-2.0-4.0-0.17","5fd67cce91f9895969c0edee","B2","batch2","spm_show_trial_num","null","<p class=block-text>Trial 42 out of 60</p>","null","","","","","","","","","","","","","","","","","","","","","","","","","",""
"","","","","","image-button-response","88","462509","0.0-2.0-4.0-1.17","5fd67cce91f9895969c0edee","B2","batch2","spm_respsonse","3833.5","img/question_4_6.jpeg","6","mat_42","6","0","0","3833.5","","","","","","","","","","","","","","","","","","","","",""
"","","","","","html-keyboard-response","89","463577","0.0-2.0-4.0-0.18","5fd67cce91f9895969c0edee","B2","batch2","spm_show_trial_num","null","<p class=block-text>Trial 43 out of 60</p>","null","","","","","","","","","","","","","","","","","","","","","","","","","",""
"","","","","","image-button-response","90","475346","0.0-2.0-4.0-1.18","5fd67cce91f9895969c0edee","B2","batch2","spm_respsonse","11765.200000017881","img/question_4_7.jpeg","4","mat_43","5","1","1","11765.200000017881","","","","","","","","","","","","","","","","","","","","",""
"","","","","","html-keyboard-response","91","476418","0.0-2.0-4.0-0.19","5fd67cce91f9895969c0edee","B2","batch2","spm_show_trial_num","null","<p class=block-text>Trial 44 out of 60</p>","null","","","","","","","","","","","","","","","","","","","","","","","","","",""
"","","","","","image-button-response","92","485002","0.0-2.0-4.0-1.19","5fd67cce91f9895969c0edee","B2","batch2","spm_respsonse","8579.90000000596","img/question_4_8.jpeg","3","mat_44","4","1","1","8579.90000000596","","","","","","","","","","","","","","","","","","","","",""
"","","","","","html-keyboard-response","93","486079","0.0-2.0-4.0-0.20","5fd67cce91f9895969c0edee","B2","batch2","spm_show_trial_num","null","<p class=block-text>Trial 45 out of 60</p>","null","","","","","","","","","","","","","","","","","","","","","","","","","",""
"","","","","","image-button-response","94","496326","0.0-2.0-4.0-1.20","5fd67cce91f9895969c0edee","B2","batch2","spm_respsonse","10242.59999999404","img/question_4_9.jpeg","1","mat_45","1","0","0","10242.59999999404","","","","","","","","","","","","","","","","","","","","",""
"","","","","","html-keyboard-response","95","497403","0.0-2.0-4.0-0.21","5fd67cce91f9895969c0edee","B2","batch2","spm_show_trial_num","null","<p class=block-text>Trial 46 out of 60</p>","null","","","","","","","","","","","","","","","","","","","","","","","","","",""
"","","","","","image-button-response","96","506220","0.0-2.0-4.0-1.21","5fd67cce91f9895969c0edee","B2","batch2","spm_respsonse","8812.59999999404","img/question_4_10.jpeg","5","mat_46","2","0","0","8812.59999999404","","","","","","","","","","","","","","","","","","","","",""
"","","","","","html-keyboard-response","97","507295","0.0-2.0-4.0-0.22","5fd67cce91f9895969c0edee","B2","batch2","spm_show_trial_num","null","<p class=block-text>Trial 47 out of 60</p>","null","","","","","","","","","","","","","","","","","","","","","","","","","",""
"","","","","","image-button-response","98","511310","0.0-2.0-4.0-1.22","5fd67cce91f9895969c0edee","B2","batch2","spm_respsonse","4011.2000000178814","img/question_4_11.jpeg","4","mat_47","5","1","1","4011.2000000178814","","","","","","","","","","","","","","","","","","","","",""
"","","","","","html-keyboard-response","99","512374","0.0-2.0-4.0-0.23","5fd67cce91f9895969c0edee","B2","batch2","spm_show_trial_num","null","<p class=block-text>Trial 48 out of 60</p>","null","","","","","","","","","","","","","","","","","","","","","","","","","",""
"","","","","","image-button-response","100","515798","0.0-2.0-4.0-1.23","5fd67cce91f9895969c0edee","B2","batch2","spm_respsonse","3419.199999988079","img/question_4_12.jpeg","5","mat_48","6","1","1","3419.199999988079","","","","","","","","","","","","","","","","","","","","",""
"","","","","","html-keyboard-response","101","516870","0.0-2.0-4.0-0.24","5fd67cce91f9895969c0edee","B2","batch2","spm_show_trial_num","null","<p class=block-text>Trial 49 out of 60</p>","null","","","","","","","","","","","","","","","","","","","","","","","","","",""
"","","","","","image-button-response","102","526336","0.0-2.0-4.0-1.24","5fd67cce91f9895969c0edee","B2","batch2","spm_respsonse","9461.799999982119","img/question_5_1.jpeg","0","mat_49","7","0","0","9461.799999982119","","","","","","","","","","","","","","","","","","","","",""
"","","","","","html-keyboard-response","103","527413","0.0-2.0-4.0-0.25","5fd67cce91f9895969c0edee","B2","batch2","spm_show_trial_num","null","<p class=block-text>Trial 50 out of 60</p>","null","","","","","","","","","","","","","","","","","","","","","","","","","",""
"","","","","","image-button-response","104","531278","0.0-2.0-4.0-1.25","5fd67cce91f9895969c0edee","B2","batch2","spm_respsonse","3860.699999988079","img/question_5_2.jpeg","3","mat_50","6","0","0","3860.699999988079","","","","","","","","","","","","","","","","","","","","",""
"","","","","","html-keyboard-response","105","532343","0.0-2.0-4.0-0.26","5fd67cce91f9895969c0edee","B2","batch2","spm_show_trial_num","null","<p class=block-text>Trial 51 out of 60</p>","null","","","","","","","","","","","","","","","","","","","","","","","","","",""
"","","","","","image-button-response","106","536275","0.0-2.0-4.0-1.26","5fd67cce91f9895969c0edee","B2","batch2","spm_respsonse","3928.800000011921","img/question_5_3.jpeg","2","mat_51","8","0","0","3928.800000011921","","","","","","","","","","","","","","","","","","","","",""
"","","","","","html-keyboard-response","107","537343","0.0-2.0-4.0-0.27","5fd67cce91f9895969c0edee","B2","batch2","spm_show_trial_num","null","<p class=block-text>Trial 52 out of 60</p>","null","","","","","","","","","","","","","","","","","","","","","","","","","",""
"","","","","","image-button-response","108","540912","0.0-2.0-4.0-1.27","5fd67cce91f9895969c0edee","B2","batch2","spm_respsonse","3564.9000000059605","img/question_5_4.jpeg","3","mat_52","2","0","0","3564.9000000059605","","","","","","","","","","","","","","","","","","","","",""
"","","","","","html-keyboard-response","109","541985","0.0-2.0-4.0-0.28","5fd67cce91f9895969c0edee","B2","batch2","spm_show_trial_num","null","<p class=block-text>Trial 53 out of 60</p>","null","","","","","","","","","","","","","","","","","","","","","","","","","",""
"","","","","","image-button-response","110","545858","0.0-2.0-4.0-1.28","5fd67cce91f9895969c0edee","B2","batch2","spm_respsonse","3869.4000000059605","img/question_5_5.jpeg","5","mat_53","1","0","0","3869.4000000059605","","","","","","","","","","","","","","","","","","","","",""
"","","","","","html-keyboard-response","111","546929","0.0-2.0-4.0-0.29","5fd67cce91f9895969c0edee","B2","batch2","spm_show_trial_num","null","<p class=block-text>Trial 54 out of 60</p>","null","","","","","","","","","","","","","","","","","","","","","","","","","",""
"","","","","","image-button-response","112","553749","0.0-2.0-4.0-1.29","5fd67cce91f9895969c0edee","B2","batch2","spm_respsonse","6814.699999988079","img/question_5_6.jpeg","5","mat_54","5","0","0","6814.699999988079","","","","","","","","","","","","","","","","","","","","",""
"","","","","","html-keyboard-response","113","554825","0.0-2.0-4.0-0.30","5fd67cce91f9895969c0edee","B2","batch2","spm_show_trial_num","null","<p class=block-text>Trial 55 out of 60</p>","null","","","","","","","","","","","","","","","","","","","","","","","","","",""
"","","","","","image-button-response","114","558653","0.0-2.0-4.0-1.30","5fd67cce91f9895969c0edee","B2","batch2","spm_respsonse","3823.9000000059605","img/question_5_7.jpeg","6","mat_55","1","0","0","3823.9000000059605","","","","","","","","","","","","","","","","","","","","",""
"","","","","","html-keyboard-response","115","559724","0.0-2.0-4.0-0.31","5fd67cce91f9895969c0edee","B2","batch2","spm_show_trial_num","null","<p class=block-text>Trial 56 out of 60</p>","null","","","","","","","","","","","","","","","","","","","","","","","","","",""
"","","","","","image-button-response","116","564828","0.0-2.0-4.0-1.31","5fd67cce91f9895969c0edee","B2","batch2","spm_respsonse","5100.300000011921","img/question_5_8.jpeg","4","mat_56","6","0","0","5100.300000011921","","","","","","","","","","","","","","","","","","","","",""
"","","","","","html-keyboard-response","117","565902","0.0-2.0-4.0-0.32","5fd67cce91f9895969c0edee","B2","batch2","spm_show_trial_num","null","<p class=block-text>Trial 57 out of 60</p>","null","","","","","","","","","","","","","","","","","","","","","","","","","",""
"","","","","","image-button-response","118","570157","0.0-2.0-4.0-1.32","5fd67cce91f9895969c0edee","B2","batch2","spm_respsonse","4251.200000017881","img/question_5_9.jpeg","4","mat_57","3","0","0","4251.200000017881","","","","","","","","","","","","","","","","","","","","",""
"","","","","","html-keyboard-response","119","571229","0.0-2.0-4.0-0.33","5fd67cce91f9895969c0edee","B2","batch2","spm_show_trial_num","null","<p class=block-text>Trial 58 out of 60</p>","null","","","","","","","","","","","","","","","","","","","","","","","","","",""
"","","","","","image-button-response","120","573630","0.0-2.0-4.0-1.33","5fd67cce91f9895969c0edee","B2","batch2","spm_respsonse","2396.2999999821186","img/question_5_10.jpeg","5","mat_58","2","0","0","2396.2999999821186","","","","","","","","","","","","","","","","","","","","",""
"","","","","","html-keyboard-response","121","574713","0.0-2.0-4.0-0.34","5fd67cce91f9895969c0edee","B2","batch2","spm_show_trial_num","null","<p class=block-text>Trial 59 out of 60</p>","null","","","","","","","","","","","","","","","","","","","","","","","","","",""
"","","","","","image-button-response","122","576989","0.0-2.0-4.0-1.34","5fd67cce91f9895969c0edee","B2","batch2","spm_respsonse","2273.199999988079","img/question_5_11.jpeg","4","mat_59","4","0","0","2273.199999988079","","","","","","","","","","","","","","","","","","","","",""
"","","","","","html-keyboard-response","123","578057","0.0-2.0-4.0-0.35","5fd67cce91f9895969c0edee","B2","batch2","spm_show_trial_num","null","<p class=block-text>Trial 60 out of 60</p>","null","","","","","","","","","","","","","","","","","","","","","","","","","",""
"","","","","","image-button-response","124","579834","0.0-2.0-4.0-1.35","5fd67cce91f9895969c0edee","B2","batch2","spm_respsonse","1773","img/question_5_12.jpeg","4","mat_60","5","1","1","1773","","","","","","","","","","","","","","","","","","","","",""
"","","","","","html-button-response","125","582430","0.0-2.0-5.0","5fd67cce91f9895969c0edee","B2","batch2","spm_goodbye","2335.800000011921","<p class= block-text>This concludes the Standard Progressive Matrix game. Thank you for your responses!<br> When you are ready, click the button continue</p>","0","","","","","","","","","","","","","","","","","","","","","","","","","",""
"true","","","","","fullscreen","126","618847","0.0-3.0-0.0","5fd67cce91f9895969c0edee","B2","batch2","","","","","","","","","","","","","","","","","","","","","","","","","","","","","",""
"","","","","","instructions","127","637649","0.0-3.0-1.0-0.0","5fd67cce91f9895969c0edee","B2","batch2","","18798.70000001788","","","","","","","","[{""page_index"":0,""viewing_time"":10256.600000023842},{""page_index"":1,""viewing_time"":8541.09999999404}]","","","","","","","","","","","","","","","","","","","",""
"","","","","","html-button-response","128","639266","0.0-3.0-1.0-1.0-0.0","5fd67cce91f9895969c0edee","B2","batch2","pattern_enter_quiz","1613.199999988079","<p class=block-text> Let's answer a few questions <br>","0","","","","","","","","","","","","","","","","","","","","","","","","","",""
"","","","","","html-button-response","129","645158","0.0-3.0-1.0-1.0-1.0","5fd67cce91f9895969c0edee","B2","batch2","pattern_quiz","5887.5","<p class = block-text>True or False: You will have as much time as you want to make each choice. <br></p>","1","","","true","","","","","","","","","","","","","","","","","","","","","","",""
"","","","","","html-button-response","130","646731","0.0-3.0-1.0-1.0-2.0","5fd67cce91f9895969c0edee","B2","batch2","pattern_quiz_feedback","1567.5","<p class = block-text>Correct! You should make your choice <strong> as fast as you can</strong>.</p>","0","","","","","","","","","","","","","","","","","","","","","","","","","",""
"","","","","","html-button-response","131","650859","0.0-3.0-1.0-1.0-3.0","5fd67cce91f9895969c0edee","B2","batch2","pattern_quiz","4124","<p class = block-text>True or False: You will look for 4 pieces in black or white color connected in a row either horizontally, vertically or diagonally. <br></p>","0","","","true","","","","","","","","","","","","","","","","","","","","","","",""
"","","","","","html-button-response","132","651877","0.0-3.0-1.0-1.0-4.0","5fd67cce91f9895969c0edee","B2","batch2","pattern_quiz_feedback","1015.7999999821186","<p class = block-text>Correct! </p>","0","","","","","","","","","","","","","","","","","","","","","","","","","",""
"","","","","","html-button-response","133","653352","0.0-3.0-2.0","5fd67cce91f9895969c0edee","B2","batch2","pattern_enter_practice","1466.7000000178814","<p class=block-text> Now that you've understood the game, let's do a few practice trials before we start!<br> <br>","0","","","","","","","","","","","","","","","","","","","","","","","","","",""
"","","","","","image-keyboard-response","134","655352","0.0-3.0-3.0-0.0","5fd67cce91f9895969c0edee","B2","batch2","pattern_practice","1995","stim/prac_yes_16_ver_w1.png","f","","f","true","","","","","","","","","","","","","","","","","","","","","","",""
"","","","","","html-keyboard-response","135","656383","0.0-3.0-3.0-1.0","5fd67cce91f9895969c0edee","B2","batch2","pattern_feedback","null","<p style=""font-size:30px;color:green;"">Correct!</p>","null","","","","","","","","","","","","","","","","","","","","","","","","","",""
"","","","","","image-keyboard-response","136","658252","0.0-3.0-3.0-0.1","5fd67cce91f9895969c0edee","B2","batch2","pattern_practice","1866.699999988079","stim/prac_yes_20_dia_b1.png","j","","f","false","","","","","","","","","","","","","","","","","","","","","","",""
"","","","","","html-keyboard-response","137","659280","0.0-3.0-3.0-1.1","5fd67cce91f9895969c0edee","B2","batch2","pattern_feedback","null","<p style=""font-size:30px;color:red;"">Wrong.</p>","null","","","","","","","","","","","","","","","","","","","","","","","","","",""
"","","","","","image-keyboard-response","138","661576","0.0-3.0-3.0-0.2","5fd67cce91f9895969c0edee","B2","batch2","pattern_practice","2293.7000000178814","stim/prac_no_18_1.png","j","","j","true","","","","","","","","","","","","","","","","","","","","","","",""
"","","","","","html-keyboard-response","139","662593","0.0-3.0-3.0-1.2","5fd67cce91f9895969c0edee","B2","batch2","pattern_feedback","null","<p style=""font-size:30px;color:green;"">Correct!</p>","null","","","","","","","","","","","","","","","","","","","","","","","","","",""
"","","","","","image-keyboard-response","140","665366","0.0-3.0-3.0-0.3","5fd67cce91f9895969c0edee","B2","batch2","pattern_practice","2768.600000023842","stim/prac_no_16_1.png","j","","j","true","","","","","","","","","","","","","","","","","","","","","","",""
"","","","","","html-keyboard-response","141","666377","0.0-3.0-3.0-1.3","5fd67cce91f9895969c0edee","B2","batch2","pattern_feedback","null","<p style=""font-size:30px;color:green;"">Correct!</p>","null","","","","","","","","","","","","","","","","","","","","","","","","","",""
"","","","","","image-keyboard-response","142","667760","0.0-3.0-3.0-0.4","5fd67cce91f9895969c0edee","B2","batch2","pattern_practice","1380.699999988079","stim/prac_yes_18_hor_w1.png","f","","f","true","","","","","","","","","","","","","","","","","","","","","","",""
"","","","","","html-keyboard-response","143","668790","0.0-3.0-3.0-1.4","5fd67cce91f9895969c0edee","B2","batch2","pattern_feedback","null","<p style=""font-size:30px;color:green;"">Correct!</p>","null","","","","","","","","","","","","","","","","","","","","","","","","","",""
"","","","","","html-button-response","144","674441","0.0-3.0-4.0","5fd67cce91f9895969c0edee","B2","batch2","pattern_enter_official_trials","5646.800000011921","<p class=block-text> Good job! You are done with practice trials!<br>
        You responded correctly on 80% of the trials.<br>
        Press the button below to start official trials. Now you won't see any feedback about your response</p>","0","","","","","","","","","","","","","","","","","","","","","","","","","",""
"","","","","","html-keyboard-response","145","675250","0.0-3.0-5.0-0.0","5fd67cce91f9895969c0edee","B2","batch2","pattern_show_trial_num","null","<p class=block-text>Trial 1 out of 78</p>","null","","","","","","","","","","","","","","","","","","","","","","","","","",""
"","","","","","image-keyboard-response","146","676816","0.0-3.0-5.0-1.0","5fd67cce91f9895969c0edee","B2","batch2","pattern_response","1563","stim/yes_36_ver_w1_w.png","f","pattern_58","f","true","","","","1563","true","1","","","","","","","","","","","","","","","","",""
"","","","","","html-keyboard-response","147","678130","0.0-3.0-5.0-0.1","5fd67cce91f9895969c0edee","B2","batch2","pattern_show_trial_num","null","<p class=block-text>Trial 2 out of 78</p>","null","","","","","","","","","","","","","","","","","","","","","","","","","",""
"","","","","","image-keyboard-response","148","679070","0.0-3.0-5.0-1.1","5fd67cce91f9895969c0edee","B2","batch2","pattern_response","938.1000000238419","stim/yes_46_ver_b1_b.png","f","pattern_68","f","true","","","","938.1000000238419","true","2","","","","","","","","","","","","","","","","",""
"","","","","","html-keyboard-response","149","680395","0.0-3.0-5.0-0.2","5fd67cce91f9895969c0edee","B2","batch2","pattern_show_trial_num","null","<p class=block-text>Trial 3 out of 78</p>","null","","","","","","","","","","","","","","","","","","","","","","","","","",""
"","","","","","image-keyboard-response","150","682794","0.0-3.0-5.0-1.2","5fd67cce91f9895969c0edee","B2","batch2","pattern_response","2396.600000023842","stim/no_25_1_b.png","j","pattern_09","j","true","","","","2396.600000023842","true","3","","","","","","","","","","","","","","","","",""
"","","","","","html-keyboard-response","151","684109","0.0-3.0-5.0-0.3","5fd67cce91f9895969c0edee","B2","batch2","pattern_show_trial_num","null","<p class=block-text>Trial 4 out of 78</p>","null","","","","","","","","","","","","","","","","","","","","","","","","","",""
"","","","","","image-keyboard-response","152","688483","0.0-3.0-5.0-1.3","5fd67cce91f9895969c0edee","B2","batch2","pattern_response","4371.199999988079","stim/no_39_1_w.png","j","pattern_21","j","true","","","","4371.199999988079","true","4","","","","","","","","","","","","","","","","",""
"","","","","","html-keyboard-response","153","689805","0.0-3.0-5.0-0.4","5fd67cce91f9895969c0edee","B2","batch2","pattern_show_trial_num","null","<p class=block-text>Trial 5 out of 78</p>","null","","","","","","","","","","","","","","","","","","","","","","","","","",""
"","","","","","image-keyboard-response","154","693273","0.0-3.0-5.0-1.4","5fd67cce91f9895969c0edee","B2","batch2","pattern_response","3465.899999976158","stim/no_28_2.png","j","pattern_11","j","true","","","","3465.899999976158","true","5","","","","","","","","","","","","","","","","",""
"","","","","","html-keyboard-response","155","694608","0.0-3.0-5.0-0.5","5fd67cce91f9895969c0edee","B2","batch2","pattern_show_trial_num","null","<p class=block-text>Trial 6 out of 78</p>","null","","","","","","","","","","","","","","","","","","","","","","","","","",""
"","","","","","image-keyboard-response","156","696131","0.0-3.0-5.0-1.5","5fd67cce91f9895969c0edee","B2","batch2","pattern_response","1520.3999999761581","stim/yes_44_ver_w1_w.png","f","pattern_66","f","true","","","","1520.3999999761581","true","6","","","","","","","","","","","","","","","","",""
"","","","","","html-keyboard-response","157","697449","0.0-3.0-5.0-0.6","5fd67cce91f9895969c0edee","B2","batch2","pattern_show_trial_num","null","<p class=block-text>Trial 7 out of 78</p>","null","","","","","","","","","","","","","","","","","","","","","","","","","",""
"","","","","","image-keyboard-response","158","698618","0.0-3.0-5.0-1.6","5fd67cce91f9895969c0edee","B2","batch2","pattern_response","1166.9000000059605","stim/yes_53_ver_b1_b.png","f","pattern_74","f","true","","","","1166.9000000059605","true","7","","","","","","","","","","","","","","","","",""
"","","","","","html-keyboard-response","159","699947","0.0-3.0-5.0-0.7","5fd67cce91f9895969c0edee","B2","batch2","pattern_show_trial_num","null","<p class=block-text>Trial 8 out of 78</p>","null","","","","","","","","","","","","","","","","","","","","","","","","","",""
"","","","","","image-keyboard-response","160","707261","0.0-3.0-5.0-1.7","5fd67cce91f9895969c0edee","B2","batch2","pattern_response","7312","stim/no_67_1.png","j","pattern_39","j","true","","","","7312","true","8","","","","","","","","","","","","","","","","",""
"","","","","","html-keyboard-response","161","708574","0.0-3.0-5.0-0.8","5fd67cce91f9895969c0edee","B2","batch2","pattern_show_trial_num","null","<p class=block-text>Trial 9 out of 78</p>","null","","","","","","","","","","","","","","","","","","","","","","","","","",""
"","","","","","image-keyboard-response","162","712641","0.0-3.0-5.0-1.8","5fd67cce91f9895969c0edee","B2","batch2","pattern_response","4062.4000000059605","stim/yes_51_dia_b1.png","f","pattern_72","f","true","","","","4062.4000000059605","true","9","","","","","","","","","","","","","","","","",""
"","","","","","html-keyboard-response","163","713969","0.0-3.0-5.0-0.9","5fd67cce91f9895969c0edee","B2","batch2","pattern_show_trial_num","null","<p class=block-text>Trial 10 out of 78</p>","null","","","","","","","","","","","","","","","","","","","","","","","","","",""
"","","","","","image-keyboard-response","164","715538","0.0-3.0-5.0-1.9","5fd67cce91f9895969c0edee","B2","batch2","pattern_response","1566.4000000059605","stim/yes_30_ver_b1_b.png","f","pattern_54","f","true","","","","1566.4000000059605","true","10","","","","","","","","","","","","","","","","",""
"","","","","","html-keyboard-response","165","716852","0.0-3.0-5.0-0.10","5fd67cce91f9895969c0edee","B2","batch2","pattern_show_trial_num","null","<p class=block-text>Trial 11 out of 78</p>","null","","","","","","","","","","","","","","","","","","","","","","","","","",""
"","","","","","image-keyboard-response","166","722298","0.0-3.0-5.0-1.10","5fd67cce91f9895969c0edee","B2","batch2","pattern_response","5443.5999999940395","stim/no_47_1_b.png","j","pattern_27","j","true","","","","5443.5999999940395","true","11","","","","","","","","","","","","","","","","",""
"","","","","","html-keyboard-response","167","723628","0.0-3.0-5.0-0.11","5fd67cce91f9895969c0edee","B2","batch2","pattern_show_trial_num","null","<p class=block-text>Trial 12 out of 78</p>","null","","","","","","","","","","","","","","","","","","","","","","","","","",""
"","","","","","image-keyboard-response","168","725099","0.0-3.0-5.0-1.11","5fd67cce91f9895969c0edee","B2","batch2","pattern_response","1467.199999988079","stim/yes_29_hor_b1_b.png","f","pattern_52","f","true","","","","1467.199999988079","true","12","","","","","","","","","","","","","","","","",""
"","","","","","html-keyboard-response","169","726427","0.0-3.0-5.0-0.12","5fd67cce91f9895969c0edee","B2","batch2","pattern_show_trial_num","null","<p class=block-text>Trial 13 out of 78</p>","null","","","","","","","","","","","","","","","","","","","","","","","","","",""
"","","","","","image-keyboard-response","170","732509","0.0-3.0-5.0-1.12","5fd67cce91f9895969c0edee","B2","batch2","pattern_response","6079.299999982119","stim/no_33_1_b.png","j","pattern_15","j","true","","","","6079.299999982119","true","13","","","","","","","","","","","","","","","","",""
"","","","","","html-keyboard-response","171","733837","0.0-3.0-5.0-0.13","5fd67cce91f9895969c0edee","B2","batch2","pattern_show_trial_num","null","<p class=block-text>Trial 14 out of 78</p>","null","","","","","","","","","","","","","","","","","","","","","","","","","",""
"","","","","","image-keyboard-response","172","740084","0.0-3.0-5.0-1.13","5fd67cce91f9895969c0edee","B2","batch2","pattern_response","6247.5","stim/no_49_2_b.png","j","pattern_29","j","true","","","","6247.5","true","14","","","","","","","","","","","","","","","","",""
"","","","","","html-keyboard-response","173","741396","0.0-3.0-5.0-0.14","5fd67cce91f9895969c0edee","B2","batch2","pattern_show_trial_num","null","<p class=block-text>Trial 15 out of 78</p>","null","","","","","","","","","","","","","","","","","","","","","","","","","",""
"","","","","","image-keyboard-response","174","744165","0.0-3.0-5.0-1.14","5fd67cce91f9895969c0edee","B2","batch2","pattern_response","2765.800000011921","stim/yes_42_dia_w1_w.png","f","pattern_64","f","true","","","","2765.800000011921","true","15","","","","","","","","","","","","","","","","",""
"","","","","","html-keyboard-response","175","745490","0.0-3.0-5.0-0.15","5fd67cce91f9895969c0edee","B2","batch2","pattern_show_trial_num","null","<p class=block-text>Trial 16 out of 78</p>","null","","","","","","","","","","","","","","","","","","","","","","","","","",""
"","","","","","image-keyboard-response","176","746377","0.0-3.0-5.0-1.15","5fd67cce91f9895969c0edee","B2","batch2","pattern_response","883.9000000059605","stim/yes_39_hor_w1_w.png","f","pattern_62","f","true","","","","883.9000000059605","true","16","","","","","","","","","","","","","","","","",""
"","","","","","html-keyboard-response","177","747705","0.0-3.0-5.0-0.16","5fd67cce91f9895969c0edee","B2","batch2","pattern_show_trial_num","null","<p class=block-text>Trial 17 out of 78</p>","null","","","","","","","","","","","","","","","","","","","","","","","","","",""
"","","","","","image-keyboard-response","178","752856","0.0-3.0-5.0-1.16","5fd67cce91f9895969c0edee","B2","batch2","pattern_response","5147.5999999940395","stim/no_36_1_b.png","j","pattern_17","j","true","","","","5147.5999999940395","true","17","","","","","","","","","","","","","","","","",""
"","","","","","html-keyboard-response","179","754168","0.0-3.0-5.0-0.17","5fd67cce91f9895969c0edee","B2","batch2","pattern_show_trial_num","null","<p class=block-text>Trial 18 out of 78</p>","null","","","","","","","","","","","","","","","","","","","","","","","","","",""
"","","","","","image-keyboard-response","180","755338","0.0-3.0-5.0-1.17","5fd67cce91f9895969c0edee","B2","batch2","pattern_response","1167.699999988079","stim/yes_26_dia_w2_w.png","f","pattern_50","f","true","","","","1167.699999988079","true","18","","","","","","","","","","","","","","","","",""
"","","","","","html-keyboard-response","181","756665","0.0-3.0-5.0-0.18","5fd67cce91f9895969c0edee","B2","batch2","pattern_show_trial_num","null","<p class=block-text>Trial 19 out of 78</p>","null","","","","","","","","","","","","","","","","","","","","","","","","","",""
"","","","","","image-keyboard-response","182","762745","0.0-3.0-5.0-1.18","5fd67cce91f9895969c0edee","B2","batch2","pattern_response","6077.200000017881","stim/no_45_1_w.png","j","pattern_25","j","true","","","","6077.200000017881","true","19","","","","","","","","","","","","","","","","",""
"","","","","","html-keyboard-response","183","764060","0.0-3.0-5.0-0.19","5fd67cce91f9895969c0edee","B2","batch2","pattern_show_trial_num","null","<p class=block-text>Trial 20 out of 78</p>","null","","","","","","","","","","","","","","","","","","","","","","","","","",""
"","","","","","image-keyboard-response","184","766291","0.0-3.0-5.0-1.19","5fd67cce91f9895969c0edee","B2","batch2","pattern_response","2228.7000000178814","stim/yes_49_hor_w1_b.png","f","pattern_70","f","true","","","","2228.7000000178814","true","20","","","","","","","","","","","","","","","","",""
"","","","","","html-keyboard-response","185","767607","0.0-3.0-5.0-0.20","5fd67cce91f9895969c0edee","B2","batch2","pattern_show_trial_num","null","<p class=block-text>Trial 21 out of 78</p>","null","","","","","","","","","","","","","","","","","","","","","","","","","",""
"","","","","","image-keyboard-response","186","768717","0.0-3.0-5.0-1.20","5fd67cce91f9895969c0edee","B2","batch2","pattern_response","1107","stim/yes_15_dia_b1u_b.png","f","pattern_44","f","true","","","","1107","true","21","","","","","","","","","","","","","","","","",""
"","","","","","html-keyboard-response","187","770029","0.0-3.0-5.0-0.21","5fd67cce91f9895969c0edee","B2","batch2","pattern_show_trial_num","null","<p class=block-text>Trial 22 out of 78</p>","null","","","","","","","","","","","","","","","","","","","","","","","","","",""
"","","","","","image-keyboard-response","188","775731","0.0-3.0-5.0-1.21","5fd67cce91f9895969c0edee","B2","batch2","pattern_response","5698.700000017881","stim/no_53_1_b.png","j","pattern_33","j","true","","","","5698.700000017881","true","22","","","","","","","","","","","","","","","","",""
"","","","","","html-keyboard-response","189","777050","0.0-3.0-5.0-0.22","5fd67cce91f9895969c0edee","B2","batch2","pattern_show_trial_num","null","<p class=block-text>Trial 23 out of 78</p>","null","","","","","","","","","","","","","","","","","","","","","","","","","",""
"","","","","","image-keyboard-response","190","780694","0.0-3.0-5.0-1.22","5fd67cce91f9895969c0edee","B2","batch2","pattern_response","3642","stim/no_30_1_b.png","j","pattern_13","j","true","","","","3642","true","23","","","","","","","","","","","","","","","","",""
"","","","","","html-keyboard-response","191","782013","0.0-3.0-5.0-0.23","5fd67cce91f9895969c0edee","B2","batch2","pattern_show_trial_num","null","<p class=block-text>Trial 24 out of 78</p>","null","","","","","","","","","","","","","","","","","","","","","","","","","",""
"","","","","","image-keyboard-response","192","782914","0.0-3.0-5.0-1.23","5fd67cce91f9895969c0edee","B2","batch2","pattern_response","897.4000000059605","stim/yes_12_hor_w1_w.png","f","pattern_42","f","true","","","","897.4000000059605","true","24","","","","","","","","","","","","","","","","",""
"","","","","","html-keyboard-response","193","784224","0.0-3.0-5.0-0.24","5fd67cce91f9895969c0edee","B2","batch2","pattern_show_trial_num","null","<p class=block-text>Trial 25 out of 78</p>","null","","","","","","","","","","","","","","","","","","","","","","","","","",""
"","","","","","image-keyboard-response","194","786201","0.0-3.0-5.0-1.24","5fd67cce91f9895969c0edee","B2","batch2","pattern_response","1974.5999999940395","stim/no_18_1_b.png","j","pattern_05","j","true","","","","1974.5999999940395","true","25","","","","","","","","","","","","","","","","",""
"","","","","","html-keyboard-response","195","787525","0.0-3.0-5.0-0.25","5fd67cce91f9895969c0edee","B2","batch2","pattern_show_trial_num","null","<p class=block-text>Trial 26 out of 78</p>","null","","","","","","","","","","","","","","","","","","","","","","","","","",""
"","","","","","image-keyboard-response","196","792523","0.0-3.0-5.0-1.25","5fd67cce91f9895969c0edee","B2","batch2","pattern_response","4996.0999999940395","stim/no_51_1.png","j","pattern_31","j","true","","","","4996.0999999940395","true","26","","","","","","","","","","","","","","","","",""
"","","","","","html-keyboard-response","197","793837","0.0-3.0-5.0-0.26","5fd67cce91f9895969c0edee","B2","batch2","pattern_show_trial_num","null","<p class=block-text>Trial 27 out of 78</p>","null","","","","","","","","","","","","","","","","","","","","","","","","","",""
"","","","","","image-keyboard-response","198","795013","0.0-3.0-5.0-1.26","5fd67cce91f9895969c0edee","B2","batch2","pattern_response","1172.2999999821186","stim/yes_37_hor_w1_w.png","f","pattern_60","f","true","","","","1172.2999999821186","true","27","","","","","","","","","","","","","","","","",""
"","","","","","html-keyboard-response","199","796335","0.0-3.0-5.0-0.27","5fd67cce91f9895969c0edee","B2","batch2","pattern_show_trial_num","null","<p class=block-text>Trial 28 out of 78</p>","null","","","","","","","","","","","","","","","","","","","","","","","","","",""
"","","","","","image-keyboard-response","200","797544","0.0-3.0-5.0-1.27","5fd67cce91f9895969c0edee","B2","batch2","pattern_response","1206.300000011921","stim/yes_70_ver_b1.png","f","pattern_80","f","true","","","","1206.300000011921","true","28","","","","","","","","","","","","","","","","",""
"","","","","","html-keyboard-response","201","798868","0.0-3.0-5.0-0.28","5fd67cce91f9895969c0edee","B2","batch2","pattern_show_trial_num","null","<p class=block-text>Trial 29 out of 78</p>","null","","","","","","","","","","","","","","","","","","","","","","","","","",""
"","","","","","image-keyboard-response","202","804117","0.0-3.0-5.0-1.28","5fd67cce91f9895969c0edee","B2","batch2","pattern_response","5254.299999982119","stim/yes_58_dia_w1_w.png","j","pattern_76","f","false","","","","5254.299999982119","false","28","","","","","","","","","","","","","","","","",""
"","","","","","html-keyboard-response","203","805440","0.0-3.0-5.0-0.29","5fd67cce91f9895969c0edee","B2","batch2","pattern_show_trial_num","null","<p class=block-text>Trial 30 out of 78</p>","null","","","","","","","","","","","","","","","","","","","","","","","","","",""
"","","","","","image-keyboard-response","204","808743","0.0-3.0-5.0-1.29","5fd67cce91f9895969c0edee","B2","batch2","pattern_response","3299.7999999821186","stim/no_37_2_w.png","j","pattern_19","j","true","","","","3299.7999999821186","true","29","","","","","","","","","","","","","","","","",""
"","","","","","html-keyboard-response","205","810066","0.0-3.0-5.0-0.30","5fd67cce91f9895969c0edee","B2","batch2","pattern_show_trial_num","null","<p class=block-text>Trial 31 out of 78</p>","null","","","","","","","","","","","","","","","","","","","","","","","","","",""
"","","","","","image-keyboard-response","206","811428","0.0-3.0-5.0-1.30","5fd67cce91f9895969c0edee","B2","batch2","pattern_response","1358.5999999940395","stim/no_15_1_w.png","j","pattern_03","j","true","","","","1358.5999999940395","true","30","","","","","","","","","","","","","","","","",""
"","","","","","html-keyboard-response","207","812741","0.0-3.0-5.0-0.31","5fd67cce91f9895969c0edee","B2","batch2","pattern_show_trial_num","null","<p class=block-text>Trial 32 out of 78</p>","null","","","","","","","","","","","","","","","","","","","","","","","","","",""
"","","","","","image-keyboard-response","208","813775","0.0-3.0-5.0-1.31","5fd67cce91f9895969c0edee","B2","batch2","pattern_response","1031.4000000059605","stim/yes_17_ver_b1_b.png","f","pattern_46","f","true","","","","1031.4000000059605","true","31","","","","","","","","","","","","","","","","",""
"","","","","","html-keyboard-response","209","815095","0.0-3.0-5.0-0.32","5fd67cce91f9895969c0edee","B2","batch2","pattern_show_trial_num","null","<p class=block-text>Trial 33 out of 78</p>","null","","","","","","","","","","","","","","","","","","","","","","","","","",""
"","","","","","image-keyboard-response","210","823126","0.0-3.0-5.0-1.32","5fd67cce91f9895969c0edee","B2","batch2","pattern_response","8028.5","stim/no_58_1_w.png","j","pattern_35","j","true","","","","8028.5","true","32","","","","","","","","","","","","","","","","",""
"","","","","","html-keyboard-response","211","824438","0.0-3.0-5.0-0.33","5fd67cce91f9895969c0edee","B2","batch2","pattern_show_trial_num","null","<p class=block-text>Trial 34 out of 78</p>","null","","","","","","","","","","","","","","","","","","","","","","","","","",""
"","","","","","image-keyboard-response","212","825562","0.0-3.0-5.0-1.33","5fd67cce91f9895969c0edee","B2","batch2","pattern_response","1120.800000011921","stim/yes_23_ver_b1.png","f","pattern_48","f","true","","","","1120.800000011921","true","33","","","","","","","","","","","","","","","","",""
"","","","","","html-keyboard-response","213","826887","0.0-3.0-5.0-0.34","5fd67cce91f9895969c0edee","B2","batch2","pattern_show_trial_num","null","<p class=block-text>Trial 35 out of 78</p>","null","","","","","","","","","","","","","","","","","","","","","","","","","",""
"","","","","","image-keyboard-response","214","830878","0.0-3.0-5.0-1.34","5fd67cce91f9895969c0edee","B2","batch2","pattern_response","3988.300000011921","stim/no_43_2_b.png","j","pattern_23","j","true","","","","3988.300000011921","true","34","","","","","","","","","","","","","","","","",""
"","","","","","html-keyboard-response","215","832199","0.0-3.0-5.0-0.35","5fd67cce91f9895969c0edee","B2","batch2","pattern_show_trial_num","null","<p class=block-text>Trial 36 out of 78</p>","null","","","","","","","","","","","","","","","","","","","","","","","","","",""
"","","","","","image-keyboard-response","216","834261","0.0-3.0-5.0-1.35","5fd67cce91f9895969c0edee","B2","batch2","pattern_response","2059.5","stim/no_22_1_b.png","j","pattern_07","j","true","","","","2059.5","true","35","","","","","","","","","","","","","","","","",""
"","","","","","html-keyboard-response","217","835581","0.0-3.0-5.0-0.36","5fd67cce91f9895969c0edee","B2","batch2","pattern_show_trial_num","null","<p class=block-text>Trial 37 out of 78</p>","null","","","","","","","","","","","","","","","","","","","","","","","","","",""
"","","","","","image-keyboard-response","218","836686","0.0-3.0-5.0-1.36","5fd67cce91f9895969c0edee","B2","batch2","pattern_response","1103.3999999761581","stim/no_12_1.png","j","pattern_01","j","true","","","","1103.3999999761581","true","36","","","","","","","","","","","","","","","","",""
"","","","","","html-keyboard-response","219","838011","0.0-3.0-5.0-0.37","5fd67cce91f9895969c0edee","B2","batch2","pattern_show_trial_num","null","<p class=block-text>Trial 38 out of 78</p>","null","","","","","","","","","","","","","","","","","","","","","","","","","",""
"","","","","","image-keyboard-response","220","840191","0.0-3.0-5.0-1.37","5fd67cce91f9895969c0edee","B2","batch2","pattern_response","2176.5","stim/yes_33_dia_w1_w.png","f","pattern_56","f","true","","","","2176.5","true","37","","","","","","","","","","","","","","","","",""
"","","","","","html-keyboard-response","221","841509","0.0-3.0-5.0-0.38","5fd67cce91f9895969c0edee","B2","batch2","pattern_show_trial_num","null","<p class=block-text>Trial 39 out of 78</p>","null","","","","","","","","","","","","","","","","","","","","","","","","","",""
"","","","","","image-keyboard-response","222","842797","0.0-3.0-5.0-1.38","5fd67cce91f9895969c0edee","B2","batch2","pattern_response","1284.2999999821186","stim/yes_63_dia_b1.png","f","pattern_78","f","true","","","","1284.2999999821186","true","38","","","","","","","","","","","","","","","","",""
"","","","","","image-keyboard-response","223","845868","0.0-3.0-6.0","5fd67cce91f9895969c0edee","B2","batch2","attention_check","2556.5","stim/empty_board.png","j","","j","true","","","","","","","500","[""f"",""j""]","","","","","","","","","","","","","","",""
"","","","","","html-keyboard-response","224","846675","0.0-3.0-7.0-0.0","5fd67cce91f9895969c0edee","B2","batch2","pattern_show_trial_num","null","<p class=block-text>Trial 40 out of 78</p>","null","","","","","","","","","","","","","","","","","","","","","","","","","",""
"","","","","","image-keyboard-response","225","848116","0.0-3.0-7.0-1.0","5fd67cce91f9895969c0edee","B2","batch2","pattern_response","1436.0999999940395","stim/yes_43_ver_w1_w.png","f","pattern_65","f","true","","","","1436.0999999940395","true","39","","","","","","","","","","","","","","","","",""
"","","","","","html-keyboard-response","226","849436","0.0-3.0-7.0-0.1","5fd67cce91f9895969c0edee","B2","batch2","pattern_show_trial_num","null","<p class=block-text>Trial 41 out of 78</p>","null","","","","","","","","","","","","","","","","","","","","","","","","","",""
"","","","","","image-keyboard-response","227","851599","0.0-3.0-7.0-1.1","5fd67cce91f9895969c0edee","B2","batch2","pattern_response","2159.9000000059605","stim/no_20_1_w.png","j","pattern_06","j","true","","","","2159.9000000059605","true","40","","","","","","","","","","","","","","","","",""
"","","","","","html-keyboard-response","228","852916","0.0-3.0-7.0-0.2","5fd67cce91f9895969c0edee","B2","batch2","pattern_show_trial_num","null","<p class=block-text>Trial 42 out of 78</p>","null","","","","","","","","","","","","","","","","","","","","","","","","","",""
"","","","","","image-keyboard-response","229","855438","0.0-3.0-7.0-1.2","5fd67cce91f9895969c0edee","B2","batch2","pattern_response","2517.4000000059605","stim/yes_55_hor_w1_w.png","f","pattern_75","f","true","","","","2517.4000000059605","true","41","","","","","","","","","","","","","","","","",""
"","","","","","html-keyboard-response","230","856764","0.0-3.0-7.0-0.3","5fd67cce91f9895969c0edee","B2","batch2","pattern_show_trial_num","null","<p class=block-text>Trial 43 out of 78</p>","null","","","","","","","","","","","","","","","","","","","","","","","","","",""
"","","","","","image-keyboard-response","231","857692","0.0-3.0-7.0-1.3","5fd67cce91f9895969c0edee","B2","batch2","pattern_response","925.3000000119209","stim/yes_14_hor_b1_w.png","f","pattern_43","f","true","","","","925.3000000119209","true","42","","","","","","","","","","","","","","","","",""
"","","","","","html-keyboard-response","232","859012","0.0-3.0-7.0-0.4","5fd67cce91f9895969c0edee","B2","batch2","pattern_show_trial_num","null","<p class=block-text>Trial 44 out of 78</p>","null","","","","","","","","","","","","","","","","","","","","","","","","","",""
"","","","","","image-keyboard-response","233","868201","0.0-3.0-7.0-1.4","5fd67cce91f9895969c0edee","B2","batch2","pattern_response","9173.40000000596","stim/no_70_2.png","j","pattern_40","j","true","","","","9173.40000000596","true","43","","","","","","","","","","","","","","","","",""
"","","","","","html-keyboard-response","234","869516","0.0-3.0-7.0-0.5","5fd67cce91f9895969c0edee","B2","batch2","pattern_show_trial_num","null","<p class=block-text>Trial 45 out of 78</p>","null","","","","","","","","","","","","","","","","","","","","","","","","","",""
"","","","","","image-keyboard-response","235","871973","0.0-3.0-7.0-1.5","5fd67cce91f9895969c0edee","B2","batch2","pattern_response","2452.5999999940395","stim/no_23_1.png","j","pattern_08","j","true","","","","2452.5999999940395","true","44","","","","","","","","","","","","","","","","",""
"","","","","","html-keyboard-response","236","873298","0.0-3.0-7.0-0.6","5fd67cce91f9895969c0edee","B2","batch2","pattern_show_trial_num","null","<p class=block-text>Trial 46 out of 78</p>","null","","","","","","","","","","","","","","","","","","","","","","","","","",""
"","","","","","image-keyboard-response","237","877462","0.0-3.0-7.0-1.6","5fd67cce91f9895969c0edee","B2","batch2","pattern_response","4161.800000011921","stim/no_42_1_w.png","j","pattern_22","j","true","","","","4161.800000011921","true","45","","","","","","","","","","","","","","","","",""
"","","","","","html-keyboard-response","238","878777","0.0-3.0-7.0-0.7","5fd67cce91f9895969c0edee","B2","batch2","pattern_show_trial_num","null","<p class=block-text>Trial 47 out of 78</p>","null","","","","","","","","","","","","","","","","","","","","","","","","","",""
"","","","","","image-keyboard-response","239","880077","0.0-3.0-7.0-1.7","5fd67cce91f9895969c0edee","B2","batch2","pattern_response","1297.4000000059605","stim/yes_67_hor_b1.png","f","pattern_79","f","true","","","","1297.4000000059605","true","46","","","","","","","","","","","","","","","","",""
"","","","","","html-keyboard-response","240","881392","0.0-3.0-7.0-0.8","5fd67cce91f9895969c0edee","B2","batch2","pattern_show_trial_num","null","<p class=block-text>Trial 48 out of 78</p>","null","","","","","","","","","","","","","","","","","","","","","","","","","",""
"","","","","","image-keyboard-response","241","885702","0.0-3.0-7.0-1.8","5fd67cce91f9895969c0edee","B2","batch2","pattern_response","4308.200000017881","stim/no_38_1_b.png","j","pattern_20","j","true","","","","4308.200000017881","true","47","","","","","","","","","","","","","","","","",""
"","","","","","html-keyboard-response","242","887020","0.0-3.0-7.0-0.9","5fd67cce91f9895969c0edee","B2","batch2","pattern_show_trial_num","null","<p class=block-text>Trial 49 out of 78</p>","null","","","","","","","","","","","","","","","","","","","","","","","","","",""
"","","","","","image-keyboard-response","243","888135","0.0-3.0-7.0-1.9","5fd67cce91f9895969c0edee","B2","batch2","pattern_response","1112.4000000059605","stim/yes_25_hor_b1_b.png","f","pattern_49","f","true","","","","1112.4000000059605","true","48","","","","","","","","","","","","","","","","",""
"","","","","","html-keyboard-response","244","889451","0.0-3.0-7.0-0.10","5fd67cce91f9895969c0edee","B2","batch2","pattern_show_trial_num","null","<p class=block-text>Trial 50 out of 78</p>","null","","","","","","","","","","","","","","","","","","","","","","","","","",""
"","","","","","image-keyboard-response","245","892386","0.0-3.0-7.0-1.10","5fd67cce91f9895969c0edee","B2","batch2","pattern_response","2932.0999999940395","stim/yes_40_dia_b1_b.png","f","pattern_63","f","true","","","","2932.0999999940395","true","49","","","","","","","","","","","","","","","","",""
"","","","","","html-keyboard-response","246","893715","0.0-3.0-7.0-0.11","5fd67cce91f9895969c0edee","B2","batch2","pattern_show_trial_num","null","<p class=block-text>Trial 51 out of 78</p>","null","","","","","","","","","","","","","","","","","","","","","","","","","",""
"","","","","","image-keyboard-response","247","895134","0.0-3.0-7.0-1.11","5fd67cce91f9895969c0edee","B2","batch2","pattern_response","1416","stim/yes_17_dia_w1.png","f","pattern_45","f","true","","","","1416","true","50","","","","","","","","","","","","","","","","",""
"","","","","","html-keyboard-response","248","896462","0.0-3.0-7.0-0.12","5fd67cce91f9895969c0edee","B2","batch2","pattern_show_trial_num","null","<p class=block-text>Trial 52 out of 78</p>","null","","","","","","","","","","","","","","","","","","","","","","","","","",""
"","","","","","image-keyboard-response","249","898222","0.0-3.0-7.0-1.12","5fd67cce91f9895969c0edee","B2","batch2","pattern_response","1757.300000011921","stim/yes_35_dia_b1.png","f","pattern_57","f","true","","","","1757.300000011921","true","51","","","","","","","","","","","","","","","","",""
"","","","","","html-keyboard-response","250","899543","0.0-3.0-7.0-0.13","5fd67cce91f9895969c0edee","B2","batch2","pattern_show_trial_num","null","<p class=block-text>Trial 53 out of 78</p>","null","","","","","","","","","","","","","","","","","","","","","","","","","",""
"","","","","","image-keyboard-response","251","904759","0.0-3.0-7.0-1.13","5fd67cce91f9895969c0edee","B2","batch2","pattern_response","5212.399999976158","stim/no_52_1.png","j","pattern_32","j","true","","","","5212.399999976158","true","52","","","","","","","","","","","","","","","","",""
"","","","","","html-keyboard-response","252","906088","0.0-3.0-7.0-0.14","5fd67cce91f9895969c0edee","B2","batch2","pattern_show_trial_num","null","<p class=block-text>Trial 54 out of 78</p>","null","","","","","","","","","","","","","","","","","","","","","","","","","",""
"","","","","","image-keyboard-response","253","910108","0.0-3.0-7.0-1.14","5fd67cce91f9895969c0edee","B2","batch2","pattern_response","4016.199999988079","stim/no_50_1.png","f","pattern_30","j","false","","","","4016.199999988079","false","52","","","","","","","","","","","","","","","","",""
"","","","","","html-keyboard-response","254","911435","0.0-3.0-7.0-0.15","5fd67cce91f9895969c0edee","B2","batch2","pattern_show_trial_num","null","<p class=block-text>Trial 55 out of 78</p>","null","","","","","","","","","","","","","","","","","","","","","","","","","",""
"","","","","","image-keyboard-response","255","917397","0.0-3.0-7.0-1.15","5fd67cce91f9895969c0edee","B2","batch2","pattern_response","5959.799999982119","stim/yes_60_ver_b1_b.png","f","pattern_77","f","true","","","","5959.799999982119","true","53","","","","","","","","","","","","","","","","",""
"","","","","","html-keyboard-response","256","918715","0.0-3.0-7.0-0.16","5fd67cce91f9895969c0edee","B2","batch2","pattern_show_trial_num","null","<p class=block-text>Trial 56 out of 78</p>","null","","","","","","","","","","","","","","","","","","","","","","","","","",""
"","","","","","image-keyboard-response","257","925506","0.0-3.0-7.0-1.16","5fd67cce91f9895969c0edee","B2","batch2","pattern_response","6787.800000011921","stim/no_62_1_w.png","j","pattern_36","j","true","","","","6787.800000011921","true","54","","","","","","","","","","","","","","","","",""
"","","","","","html-keyboard-response","258","926825","0.0-3.0-7.0-0.17","5fd67cce91f9895969c0edee","B2","batch2","pattern_show_trial_num","null","<p class=block-text>Trial 57 out of 78</p>","null","","","","","","","","","","","","","","","","","","","","","","","","","",""
"","","","","","image-keyboard-response","259","927883","0.0-3.0-7.0-1.17","5fd67cce91f9895969c0edee","B2","batch2","pattern_response","1055.199999988079","stim/yes_28_ver_b1.png","f","pattern_51","f","true","","","","1055.199999988079","true","55","","","","","","","","","","","","","","","","",""
"","","","","","html-keyboard-response","260","929205","0.0-3.0-7.0-0.18","5fd67cce91f9895969c0edee","B2","batch2","pattern_show_trial_num","null","<p class=block-text>Trial 58 out of 78</p>","null","","","","","","","","","","","","","","","","","","","","","","","","","",""
"","","","","","image-keyboard-response","261","931840","0.0-3.0-7.0-1.18","5fd67cce91f9895969c0edee","B2","batch2","pattern_response","2631.2999999821186","stim/no_32_1_w.png","j","pattern_14","j","true","","","","2631.2999999821186","true","56","","","","","","","","","","","","","","","","",""
"","","","","","html-keyboard-response","262","933151","0.0-3.0-7.0-0.19","5fd67cce91f9895969c0edee","B2","batch2","pattern_show_trial_num","null","<p class=block-text>Trial 59 out of 78</p>","null","","","","","","","","","","","","","","","","","","","","","","","","","",""
"","","","","","image-keyboard-response","263","941114","0.0-3.0-7.0-1.19","5fd67cce91f9895969c0edee","B2","batch2","pattern_response","7960.200000017881","stim/no_65_1_b.png","j","pattern_38","j","true","","","","7960.200000017881","true","57","","","","","","","","","","","","","","","","",""
"","","","","","html-keyboard-response","264","942428","0.0-3.0-7.0-0.20","5fd67cce91f9895969c0edee","B2","batch2","pattern_show_trial_num","null","<p class=block-text>Trial 60 out of 78</p>","null","","","","","","","","","","","","","","","","","","","","","","","","","",""
"","","","","","image-keyboard-response","265","944678","0.0-3.0-7.0-1.20","5fd67cce91f9895969c0edee","B2","batch2","pattern_response","2247.4000000059605","stim/yes_37_dia_w1.png","f","pattern_59","f","true","","","","2247.4000000059605","true","58","","","","","","","","","","","","","","","","",""
"","","","","","html-keyboard-response","266","946008","0.0-3.0-7.0-0.21","5fd67cce91f9895969c0edee","B2","batch2","pattern_show_trial_num","null","<p class=block-text>Trial 61 out of 78</p>","null","","","","","","","","","","","","","","","","","","","","","","","","","",""
"","","","","","image-keyboard-response","267","948258","0.0-3.0-7.0-1.21","5fd67cce91f9895969c0edee","B2","batch2","pattern_response","2247.699999988079","stim/yes_31_hor_b1.png","j","pattern_55","f","false","","","","2247.699999988079","false","58","","","","","","","","","","","","","","","","",""
"","","","","","html-keyboard-response","268","949574","0.0-3.0-7.0-0.22","5fd67cce91f9895969c0edee","B2","batch2","pattern_show_trial_num","null","<p class=block-text>Trial 62 out of 78</p>","null","","","","","","","","","","","","","","","","","","","","","","","","","",""
"","","","","","image-keyboard-response","269","951456","0.0-3.0-7.0-1.22","5fd67cce91f9895969c0edee","B2","batch2","pattern_response","1878.5999999940395","stim/yes_38_hor_b1_b.png","f","pattern_61","f","true","","","","1878.5999999940395","true","59","","","","","","","","","","","","","","","","",""
"","","","","","html-keyboard-response","270","952770","0.0-3.0-7.0-0.23","5fd67cce91f9895969c0edee","B2","batch2","pattern_show_trial_num","null","<p class=block-text>Trial 63 out of 78</p>","null","","","","","","","","","","","","","","","","","","","","","","","","","",""
"","","","","","image-keyboard-response","271","956739","0.0-3.0-7.0-1.23","5fd67cce91f9895969c0edee","B2","batch2","pattern_response","3965.699999988079","stim/no_36_2_w.png","j","pattern_18","j","true","","","","3965.699999988079","true","60","","","","","","","","","","","","","","","","",""
"","","","","","html-keyboard-response","272","958066","0.0-3.0-7.0-0.24","5fd67cce91f9895969c0edee","B2","batch2","pattern_show_trial_num","null","<p class=block-text>Trial 64 out of 78</p>","null","","","","","","","","","","","","","","","","","","","","","","","","","",""
"","","","","","image-keyboard-response","273","959948","0.0-3.0-7.0-1.24","5fd67cce91f9895969c0edee","B2","batch2","pattern_response","1878.5999999940395","stim/no_26_1_w.png","j","pattern_10","j","true","","","","1878.5999999940395","true","61","","","","","","","","","","","","","","","","",""
"","","","","","html-keyboard-response","274","961260","0.0-3.0-7.0-0.25","5fd67cce91f9895969c0edee","B2","batch2","pattern_show_trial_num","null","<p class=block-text>Trial 65 out of 78</p>","null","","","","","","","","","","","","","","","","","","","","","","","","","",""
"","","","","","image-keyboard-response","275","963378","0.0-3.0-7.0-1.25","5fd67cce91f9895969c0edee","B2","batch2","pattern_response","2114.0999999940395","stim/no_17_1_w.png","j","pattern_04","j","true","","","","2114.0999999940395","true","62","","","","","","","","","","","","","","","","",""
"","","","","","html-keyboard-response","276","964696","0.0-3.0-7.0-0.26","5fd67cce91f9895969c0edee","B2","batch2","pattern_show_trial_num","null","<p class=block-text>Trial 66 out of 78</p>","null","","","","","","","","","","","","","","","","","","","","","","","","","",""
"","","","","","image-keyboard-response","277","966219","0.0-3.0-7.0-1.26","5fd67cce91f9895969c0edee","B2","batch2","pattern_response","1520.300000011921","stim/yes_50_dia_w1.png","f","pattern_71","f","true","","","","1520.300000011921","true","63","","","","","","","","","","","","","","","","",""
"","","","","","html-keyboard-response","278","967541","0.0-3.0-7.0-0.27","5fd67cce91f9895969c0edee","B2","batch2","pattern_show_trial_num","null","<p class=block-text>Trial 67 out of 78</p>","null","","","","","","","","","","","","","","","","","","","","","","","","","",""
"","","","","","image-keyboard-response","279","969103","0.0-3.0-7.0-1.27","5fd67cce91f9895969c0edee","B2","batch2","pattern_response","1558.800000011921","stim/yes_45_hor_b2_b.png","f","pattern_67","f","true","","","","1558.800000011921","true","64","","","","","","","","","","","","","","","","",""
"","","","","","html-keyboard-response","280","970422","0.0-3.0-7.0-0.28","5fd67cce91f9895969c0edee","B2","batch2","pattern_show_trial_num","null","<p class=block-text>Trial 68 out of 78</p>","null","","","","","","","","","","","","","","","","","","","","","","","","","",""
"","","","","","image-keyboard-response","281","973769","0.0-3.0-7.0-1.28","5fd67cce91f9895969c0edee","B2","batch2","pattern_response","3343.5999999940395","stim/no_46_1_b.png","j","pattern_26","j","true","","","","3343.5999999940395","true","65","","","","","","","","","","","","","","","","",""
"","","","","","html-keyboard-response","282","975086","0.0-3.0-7.0-0.29","5fd67cce91f9895969c0edee","B2","batch2","pattern_show_trial_num","null","<p class=block-text>Trial 69 out of 78</p>","null","","","","","","","","","","","","","","","","","","","","","","","","","",""
"","","","","","image-keyboard-response","283","978760","0.0-3.0-7.0-1.29","5fd67cce91f9895969c0edee","B2","batch2","pattern_response","3671.9000000059605","stim/no_44_1.png","j","pattern_24","j","true","","","","3671.9000000059605","true","66","","","","","","","","","","","","","","","","",""
"","","","","","html-keyboard-response","284","980084","0.0-3.0-7.0-0.30","5fd67cce91f9895969c0edee","B2","batch2","pattern_show_trial_num","null","<p class=block-text>Trial 70 out of 78</p>","null","","","","","","","","","","","","","","","","","","","","","","","","","",""
"","","","","","image-keyboard-response","285","983092","0.0-3.0-7.0-1.30","5fd67cce91f9895969c0edee","B2","batch2","pattern_response","3005.2000000178814","stim/yes_48_dia_w1_w.png","f","pattern_69","f","true","","","","3005.2000000178814","true","67","","","","","","","","","","","","","","","","",""
"","","","","","html-keyboard-response","286","984411","0.0-3.0-7.0-0.31","5fd67cce91f9895969c0edee","B2","batch2","pattern_show_trial_num","null","<p class=block-text>Trial 71 out of 78</p>","null","","","","","","","","","","","","","","","","","","","","","","","","","",""
"","","","","","image-keyboard-response","287","985411","0.0-3.0-7.0-1.31","5fd67cce91f9895969c0edee","B2","batch2","pattern_response","997.1000000238419","stim/no_13_2_b.png","j","pattern_02","j","true","","","","997.1000000238419","true","68","","","","","","","","","","","","","","","","",""
"","","","","","html-keyboard-response","288","986719","0.0-3.0-7.0-0.32","5fd67cce91f9895969c0edee","B2","batch2","pattern_show_trial_num","null","<p class=block-text>Trial 72 out of 78</p>","null","","","","","","","","","","","","","","","","","","","","","","","","","",""
"","","","","","image-keyboard-response","289","987748","0.0-3.0-7.0-1.32","5fd67cce91f9895969c0edee","B2","batch2","pattern_response","1026.4000000059605","stim/yes_22_ver_w1.png","f","pattern_47","f","true","","","","1026.4000000059605","true","69","","","","","","","","","","","","","","","","",""
"","","","","","html-keyboard-response","290","989074","0.0-3.0-7.0-0.33","5fd67cce91f9895969c0edee","B2","batch2","pattern_show_trial_num","null","<p class=block-text>Trial 73 out of 78</p>","null","","","","","","","","","","","","","","","","","","","","","","","","","",""
"","","","","","image-keyboard-response","291","991278","0.0-3.0-7.0-1.33","5fd67cce91f9895969c0edee","B2","batch2","pattern_response","2201.4000000059605","stim/yes_52_ver_w1.png","f","pattern_73","f","true","","","","2201.4000000059605","true","70","","","","","","","","","","","","","","","","",""
"","","","","","html-keyboard-response","292","992604","0.0-3.0-7.0-0.34","5fd67cce91f9895969c0edee","B2","batch2","pattern_show_trial_num","null","<p class=block-text>Trial 74 out of 78</p>","null","","","","","","","","","","","","","","","","","","","","","","","","","",""
"","","","","","image-keyboard-response","293","995493","0.0-3.0-7.0-1.34","5fd67cce91f9895969c0edee","B2","batch2","pattern_response","2886.100000023842","stim/no_29_1_b.png","j","pattern_12","j","true","","","","2886.100000023842","true","71","","","","","","","","","","","","","","","","",""
"","","","","","html-keyboard-response","294","996803","0.0-3.0-7.0-0.35","5fd67cce91f9895969c0edee","B2","batch2","pattern_show_trial_num","null","<p class=block-text>Trial 75 out of 78</p>","null","","","","","","","","","","","","","","","","","","","","","","","","","",""
"","","","","","image-keyboard-response","295","1000212","0.0-3.0-7.0-1.35","5fd67cce91f9895969c0edee","B2","batch2","pattern_response","3404.300000011921","stim/no_34_1_b.png","j","pattern_16","j","true","","","","3404.300000011921","true","72","","","","","","","","","","","","","","","","",""
"","","","","","html-keyboard-response","296","1001531","0.0-3.0-7.0-0.36","5fd67cce91f9895969c0edee","B2","batch2","pattern_show_trial_num","null","<p class=block-text>Trial 76 out of 78</p>","null","","","","","","","","","","","","","","","","","","","","","","","","","",""
"","","","","","image-keyboard-response","297","1004969","0.0-3.0-7.0-1.36","5fd67cce91f9895969c0edee","B2","batch2","pattern_response","3434.5999999940395","stim/no_48_1_w.png","j","pattern_28","j","true","","","","3434.5999999940395","true","73","","","","","","","","","","","","","","","","",""
"","","","","","html-keyboard-response","298","1006278","0.0-3.0-7.0-0.37","5fd67cce91f9895969c0edee","B2","batch2","pattern_show_trial_num","null","<p class=block-text>Trial 77 out of 78</p>","null","","","","","","","","","","","","","","","","","","","","","","","","","",""
"","","","","","image-keyboard-response","299","1007933","0.0-3.0-7.0-1.37","5fd67cce91f9895969c0edee","B2","batch2","pattern_response","1651.3999999761581","stim/yes_29_ver_w1.png","f","pattern_53","f","true","","","","1651.3999999761581","true","74","","","","","","","","","","","","","","","","",""
"","","","","","html-keyboard-response","300","1009260","0.0-3.0-7.0-0.38","5fd67cce91f9895969c0edee","B2","batch2","pattern_show_trial_num","null","<p class=block-text>Trial 78 out of 78</p>","null","","","","","","","","","","","","","","","","","","","","","","","","","",""
"","","","","","image-keyboard-response","301","1013434","0.0-3.0-7.0-1.38","5fd67cce91f9895969c0edee","B2","batch2","pattern_response","4171.9000000059605","stim/no_55_1_w.png","j","pattern_34","j","true","","","","4171.9000000059605","true","75","","","","","","","","","","","","","","","","",""
"","","","","","html-button-response","302","1017523","0.0-3.0-8.0","5fd67cce91f9895969c0edee","B2","batch2","","3580.9000000059605","<p class = block-text>This concludes the 4-in-a-row detection game.Thank you for your responses!<br>
            You responded correctly on 96% of the trials.<br>
            When you are ready, press ""Continue"" button to continue </p>","0","","","","","","","","","","","","","","","","","","","","","","","","","",""
"true","","","","","fullscreen","303","1021119","0.0-4.0-0.0","5fd67cce91f9895969c0edee","B2","batch2","","","","","","","","","","","","","","","","","","","","","","","","","","","","","",""
"","","","","","instructions","304","1047544","0.0-4.0-1.0-0.0-0.0","5fd67cce91f9895969c0edee","B2","batch2","tol-instructions","26423.80000001192","","","","","","","","[{""page_index"":0,""viewing_time"":7530.0999999940395},{""page_index"":1,""viewing_time"":4585.800000011921},{""page_index"":2,""viewing_time"":2587.5},{""page_index"":3,""viewing_time"":3352.0999999940395},{""page_index"":4,""viewing_time"":3763.7000000178814},{""page_index"":5,""viewing_time"":2402.199999988079},{""page_index"":6,""viewing_time"":2201.699999988079}]","","","","","","","","","","","","","","","","","","","",""
"","","","","","html-button-response","305","1048681","0.0-4.0-1.0-1.0-0.0","5fd67cce91f9895969c0edee","B2","batch2","tol_enter_quiz","1132.699999988079","<p class=block-text> Let's answer a few questions <br>","0","","","","","","","","","","","","","","","","","","","","","","","","","",""
"","","","","","html-button-response","306","1051245","0.0-4.0-1.0-1.0-1.0","5fd67cce91f9895969c0edee","B2","batch2","tol_quiz","2560.7999999821186","<p class = block-text>True or False: You can only move the ball on top of a peg. <br></p>","0","","","true","","","","","","","","","","","","","","","","","","","","","","",""
"","","","","","html-button-response","307","1052700","0.0-4.0-1.0-1.0-2.0","5fd67cce91f9895969c0edee","B2","batch2","tol_quiz_feedback","1452.2000000178814","<p class = block-text>Correct! You can only move the ball on top of a peg.</p>","0","","","","","","","","","","","","","","","","","","","","","","","","","",""
"","","","","","html-button-response","308","1055426","0.0-4.0-1.0-1.0-3.0","5fd67cce91f9895969c0edee","B2","batch2","tol_quiz","2723.5999999940395","<p class = block-text>True or False: You should try to match your board with the target board with fewest moves possible. <br></p>","0","","","true","","","","","","","","","","","","","","","","","","","","","","",""
"","","","","","html-button-response","309","1056266","0.0-4.0-1.0-1.0-4.0","5fd67cce91f9895969c0edee","B2","batch2","tol_quiz_feedback","837.9000000059605","<p class = block-text>Correct! </p>","0","","","","","","","","","","","","","","","","","","","","","","","","","",""
"","","","","","html-button-response","310","1057658","0.0-4.0-2.0","5fd67cce91f9895969c0edee","B2","batch2","","1389.6000000238419","<p class=block-text> Now that you've understood the game, let's practice a few easier examples before we start!<br> <br>","0","","","","","","","","","","","","","","","","","","","","","","","","","",""
"","","","","","single-stim-button","311","1061093","0.0-4.0-3.0-0.0","5fd67cce91f9895969c0edee","B2","batch2","tol_practice","3429","","","","","","","","","","","","","","tol_peg_2","3429","3429","0","[[1,2,0],[0,0],[0]]","1","[[1,2,0],[0,0],[3]]","practice","3429","","","","","",""
"","","","","","single-stim-button","312","1064156","0.0-4.0-3.0-1.0","5fd67cce91f9895969c0edee","B2","batch2","tol_practice","3060","","","","","","","","","","","","","","tol_peg_3","3060","3060","0","[[1,2,0],[0,0],[3]]","1","[[1,2,0],[0,0],[3]]","practice","3060","","","","","",""
"","","","","","poldrack-single-stim","313","1065166","0.0-4.0-4.0","5fd67cce91f9895969c0edee","B2","batch2","tol_feedback","-1","","","","","true","","","","","","","","","","1000","1000","500","","","","","","-1","none","true","","0",""
"","","","","","single-stim-button","314","1069215","0.0-4.0-5.0-0.0","5fd67cce91f9895969c0edee","B2","batch2","tol_practice","4046","","","","","","","","","","","","","","tol_peg_1","4046","4046","0","[[1,0,0],[3,0],[0]]","2","[[0,0,0],[3,1],[2]]","practice","4046","","","","","",""
"","","","","","single-stim-button","315","1071878","0.0-4.0-5.0-1.0","5fd67cce91f9895969c0edee","B2","batch2","tol_practice","2660","","","","","","","","","","","","","","tol_peg_3","2660","2660","0","[[1,0,0],[3,0],[2]]","2","[[0,0,0],[3,1],[2]]","practice","2660","","","","","",""
"","","","","","single-stim-button","316","1072993","0.0-4.0-5.1-0.1","5fd67cce91f9895969c0edee","B2","batch2","tol_practice","1113","","","","","","","","","","","","","","tol_peg_1","1113","1113","0","[[0,0,0],[3,0],[2]]","3","[[0,0,0],[3,1],[2]]","practice","1113","","","","","",""
"","","","","","single-stim-button","317","1074256","0.0-4.0-5.1-1.1","5fd67cce91f9895969c0edee","B2","batch2","tol_practice","1260","","","","","","","","","","","","","","tol_peg_2","1260","1260","0","[[0,0,0],[3,1],[2]]","3","[[0,0,0],[3,1],[2]]","practice","1260","","","","","",""
"","","","","","poldrack-single-stim","318","1075265","0.0-4.0-6.0","5fd67cce91f9895969c0edee","B2","batch2","tol_feedback","-1","","","","","true","","","","","","","","","","1000","1000","500","","","","","","-1","none","true","","0",""
"","","","","","single-stim-button","319","1077202","0.0-4.0-7.0-0.0","5fd67cce91f9895969c0edee","B2","batch2","tol_practice","1935","","","","","","","","","","","","","","tol_peg_2","1935","1935","0","[[1,2,0],[0,0],[0]]","4","[[1,0,0],[2,0],[3]]","practice","1935","","","","","",""
"","","","","","single-stim-button","320","1078566","0.0-4.0-7.0-1.0","5fd67cce91f9895969c0edee","B2","batch2","tol_practice","1361","","","","","","","","","","","","","","tol_peg_3","1361","1361","0","[[1,2,0],[0,0],[3]]","4","[[1,0,0],[2,0],[3]]","practice","1361","","","","","",""
"","","","","","single-stim-button","321","1079540","0.0-4.0-7.1-0.1","5fd67cce91f9895969c0edee","B2","batch2","tol_practice","972","","","","","","","","","","","","","","tol_peg_1","972","972","0","[[1,0,0],[0,0],[3]]","5","[[1,0,0],[2,0],[3]]","practice","972","","","","","",""
"","","","","","single-stim-button","322","1080769","0.0-4.0-7.1-1.1","5fd67cce91f9895969c0edee","B2","batch2","tol_practice","1227","","","","","","","","","","","","","","tol_peg_2","1227","1227","0","[[1,0,0],[2,0],[3]]","5","[[1,0,0],[2,0],[3]]","practice","1227","","","","","",""
"","","","","","poldrack-single-stim","323","1081776","0.0-4.0-8.0","5fd67cce91f9895969c0edee","B2","batch2","tol_feedback","-1","","","","","true","","","","","","","","","","1000","1000","500","","","","","","-1","none","true","","0",""
"","","","","","html-button-response","324","1083863","0.0-4.0-9.0","5fd67cce91f9895969c0edee","B2","batch2","tol_instruction","2085.300000011921","<div class = centerbox><p class = center-block-text>Great job! You are done with practice trials<br>You are about to start official trials.<br> <br> Problem <strong>1</strong> out of 25 problems</p></div>","0","","","","","","","","","","","","","","","","","","","","","","","","","",""
"","","","","","single-stim-button","325","1088602","0.0-4.0-10.0-0.0","5fd67cce91f9895969c0edee","B2","batch2","tol_tohand","3727","","","","","","","","","","","","","","tol_peg_1","3727","3727","0","[[1,0,0],[3,0],[0]]","1","[[1,3,0],[2,0],[0]]","0","0","","","","","","3"
"","","","","","single-stim-button","326","1089698","0.0-4.0-10.0-1.0","5fd67cce91f9895969c0edee","B2","batch2","tol_toboard","1094","","","","","","","","","","","","","","tol_peg_3","1094","1094","0","[[1,0,0],[3,0],[2]]","1","[[1,3,0],[2,0],[0]]","0","0","","","","","","3"
"","","","","","single-stim-button","327","1090587","0.0-4.0-10.1-0.1","5fd67cce91f9895969c0edee","B2","batch2","tol_tohand","887","","","","","","","","","","","","","","tol_peg_2","887","887","0","[[1,0,0],[0,0],[2]]","2","[[1,3,0],[2,0],[0]]","0","0","","","","","","3"
"","","","","","single-stim-button","328","1091583","0.0-4.0-10.1-1.1","5fd67cce91f9895969c0edee","B2","batch2","tol_toboard","994","","","","","","","","","","","","","","tol_peg_1","994","994","0","[[1,3,0],[0,0],[2]]","2","[[1,3,0],[2,0],[0]]","0","0","","","","","","3"
"","","","","","single-stim-button","329","1092664","0.0-4.0-10.2-0.2","5fd67cce91f9895969c0edee","B2","batch2","tol_tohand","1079","","","","","","","","","","","","","","tol_peg_3","1079","1079","0","[[1,3,0],[0,0],[0]]","3","[[1,3,0],[2,0],[0]]","0","0","","","","","","3"
"","","","","","single-stim-button","330","1093666","0.0-4.0-10.2-1.2","5fd67cce91f9895969c0edee","B2","batch2","tol_toboard","1000","","","","","","","","","","","","","","tol_peg_2","1000","1000","0","[[1,3,0],[2,0],[0]]","3","[[1,3,0],[2,0],[0]]","0","0","","","","","","3"
"","","","","","poldrack-single-stim","331","1094680","0.0-4.0-11.0","5fd67cce91f9895969c0edee","B2","batch2","tol_feedback","-1","","","","","true","","","","","","","","","","1000","1000","500","","","","","","-1","none","true","3727","5693",""
"","","","","","html-button-response","332","1095870","0.0-4.0-12.0","5fd67cce91f9895969c0edee","B2","batch2","tol_trial_num","1188.7999999821186","<div class = centerbox><p class = center-block-text>problem <strong>2</strong> out of 25 problems</p></div>","0","","","","","","","","","","","","","","","","","","","","","","","","","",""
"","","","","","single-stim-button","333","1101439","0.0-4.0-13.0-0.0","5fd67cce91f9895969c0edee","B2","batch2","tol_tohand","5567","","","","","","","","","","","","","","tol_peg_1","5567","5567","0","[[1,0,0],[3,0],[0]]","1","[[2,1,3],[0,0],[0]]","1","0","","","","","","5"
"","","","","","single-stim-button","334","1114951","0.0-4.0-13.0-1.0","5fd67cce91f9895969c0edee","B2","batch2","tol_toboard","13509","","","","","","","","","","","","","","tol_peg_2","13509","13509","0","[[1,0,0],[3,2],[0]]","1","[[2,1,3],[0,0],[0]]","1","0","","","","","","5"
"","","","","","single-stim-button","335","1116004","0.0-4.0-13.1-0.1","5fd67cce91f9895969c0edee","B2","batch2","tol_tohand","1050","","","","","","","","","","","","","","tol_peg_1","1050","1050","0","[[0,0,0],[3,2],[0]]","2","[[2,1,3],[0,0],[0]]","1","0","","","","","","5"
"","","","","","single-stim-button","336","1117412","0.0-4.0-13.1-1.1","5fd67cce91f9895969c0edee","B2","batch2","tol_toboard","1405","","","","","","","","","","","","","","tol_peg_3","1405","1405","0","[[0,0,0],[3,2],[1]]","2","[[2,1,3],[0,0],[0]]","1","0","","","","","","5"
"","","","","","single-stim-button","337","1118321","0.0-4.0-13.2-0.2","5fd67cce91f9895969c0edee","B2","batch2","tol_tohand","906","","","","","","","","","","","","","","tol_peg_2","906","906","0","[[0,0,0],[3,0],[1]]","3","[[2,1,3],[0,0],[0]]","1","0","","","","","","5"
"","","","","","single-stim-button","338","1119267","0.0-4.0-13.2-1.2","5fd67cce91f9895969c0edee","B2","batch2","tol_toboard","944","","","","","","","","","","","","","","tol_peg_1","944","944","0","[[2,0,0],[3,0],[1]]","3","[[2,1,3],[0,0],[0]]","1","0","","","","","","5"
"","","","","","single-stim-button","339","1120214","0.0-4.0-13.3-0.3","5fd67cce91f9895969c0edee","B2","batch2","tol_tohand","944","","","","","","","","","","","","","","tol_peg_3","944","944","0","[[2,0,0],[3,0],[0]]","4","[[2,1,3],[0,0],[0]]","1","0","","","","","","5"
"","","","","","single-stim-button","340","1121275","0.0-4.0-13.3-1.3","5fd67cce91f9895969c0edee","B2","batch2","tol_toboard","1057","","","","","","","","","","","","","","tol_peg_1","1057","1057","0","[[2,1,0],[3,0],[0]]","4","[[2,1,3],[0,0],[0]]","1","0","","","","","","5"
"","","","","","single-stim-button","341","1122100","0.0-4.0-13.4-0.4","5fd67cce91f9895969c0edee","B2","batch2","tol_tohand","823","","","","","","","","","","","","","","tol_peg_2","823","823","0","[[2,1,0],[0,0],[0]]","5","[[2,1,3],[0,0],[0]]","1","0","","","","","","5"
"","","","","","single-stim-button","342","1123111","0.0-4.0-13.4-1.4","5fd67cce91f9895969c0edee","B2","batch2","tol_toboard","1007","","","","","","","","","","","","","","tol_peg_1","1007","1007","0","[[2,1,3],[0,0],[0]]","5","[[2,1,3],[0,0],[0]]","1","0","","","","","","5"
"","","","","","poldrack-single-stim","343","1124126","0.0-4.0-14.0","5fd67cce91f9895969c0edee","B2","batch2","tol_feedback","-1","","","","","true","","","","","","","","","","1000","1000","500","","","","","","-1","none","true","5567","9290",""
"","","","","","html-button-response","344","1125724","0.0-4.0-15.0","5fd67cce91f9895969c0edee","B2","batch2","tol_trial_num","1595.800000011921","<div class = centerbox><p class = center-block-text>problem <strong>3</strong> out of 25 problems</p></div>","0","","","","","","","","","","","","","","","","","","","","","","","","","",""
"","","","","","single-stim-button","345","1155435","0.0-4.0-16.0-0.0","5fd67cce91f9895969c0edee","B2","batch2","tol_tohand","29707","","","","","","","","","","","","","","tol_peg_1","29707","29707","0","[[2,0,0],[0,0],[1]]","1","[[1,2,0],[3,0],[0]]","2","0","","","","","","4"
"","","","","","single-stim-button","346","1158996","0.0-4.0-16.0-1.0","5fd67cce91f9895969c0edee","B2","batch2","tol_toboard","3559","","","","","","","","","","","","","","tol_peg_2","3559","3559","0","[[2,0,0],[3,0],[1]]","1","[[1,2,0],[3,0],[0]]","2","0","","","","","","4"
