"success","timeout","failed_images","failed_audio","failed_video","trial_type","trial_index","time_elapsed","internal_node_id","subject_id","study_id","session_id","view_history","rt","task","stimulus","response","correct","mouse_click","stim_duration","block_duration","timing_post_trial","current_position","tol_num_moves_made","tol_target","tol_problem_id","tol_rt","key_press","possible_responses","tol_correct","preplanning","tol_rt_per_trial","tol_min_moves","item","answer","spm_correct","spm_rt","fiar_detect_rt","fiar_detect_correct","total_correct_fiar_detect","post_trial_gap","choices"
"true","false","[]","[]","[]","preload","0","4638","0.0-0.0","5fe146b36a3657bd99f9c179","D2","batch4","","","","","","","","","","","","","","","","","","","","","","","","","","","","","",""
"true","","","","","fullscreen","1","23321","0.0-1.0-0.0","5fe146b36a3657bd99f9c179","D2","batch4","","","","","","","","","","","","","","","","","","","","","","","","","","","","","",""
"true","","","","","fullscreen","2","26984","0.0-2.0-0.0","5fe146b36a3657bd99f9c179","D2","batch4","","","","","","","","","","","","","","","","","","","","","","","","","","","","","",""
"","","","","","instructions","3","116650","0.0-2.0-1.0-0.0-0.0","5fe146b36a3657bd99f9c179","D2","batch4","[{""page_index"":0,""viewing_time"":13720.5},{""page_index"":1,""viewing_time"":10178.799999999988},{""page_index"":2,""viewing_time"":7317.900000000023},{""page_index"":3,""viewing_time"":15835.899999999965},{""page_index"":4,""viewing_time"":14658},{""page_index"":5,""viewing_time"":23620.5},{""page_index"":6,""viewing_time"":4328}]","89660.09999999998","tol-instructions","","","","","","","","","","","","","","","","","","","","","","","","","","",""
"","","","","","html-button-response","4","118628","0.0-2.0-1.0-1.0-0.0","5fe146b36a3657bd99f9c179","D2","batch4","","1977.5999999999767","tol_enter_quiz","<p class=block-text> Let's answer a few questions <br>","0","","","","","","","","","","","","","","","","","","","","","","","","",""
"","","","","","html-button-response","5","126447","0.0-2.0-1.0-1.0-1.0","5fe146b36a3657bd99f9c179","D2","batch4","","7813.600000000035","tol_quiz","<p class = block-text>True or False: You can only move the ball on top of a peg. <br></p>","0","true","","","","","","","","","","","","","","","","","","","","","","","",""
"","","","","","html-button-response","6","128111","0.0-2.0-1.0-1.0-2.0","5fe146b36a3657bd99f9c179","D2","batch4","","1659.899999999965","tol_quiz_feedback","<p class = block-text>Correct! You can only move the ball on top of a peg.</p>","0","","","","","","","","","","","","","","","","","","","","","","","","",""
"","","","","","html-button-response","7","132682","0.0-2.0-1.0-1.0-3.0","5fe146b36a3657bd99f9c179","D2","batch4","","4568.5","tol_quiz","<p class = block-text>True or False: You should try to match your board with the target board with fewest moves possible. <br></p>","0","true","","","","","","","","","","","","","","","","","","","","","","","",""
"","","","","","html-button-response","8","134194","0.0-2.0-1.0-1.0-4.0","5fe146b36a3657bd99f9c179","D2","batch4","","1510.100000000035","tol_quiz_feedback","<p class = block-text>Correct! </p>","0","","","","","","","","","","","","","","","","","","","","","","","","",""
"","","","","","html-button-response","9","137763","0.0-2.0-2.0","5fe146b36a3657bd99f9c179","D2","batch4","","3566.1999999999534","","<p class=block-text> Now that you've understood the game, let's practice a few easier examples before we start!<br> <br>","0","","","","","","","","","","","","","","","","","","","","","","","","",""
"","","","","","single-stim-button","10","141573","0.0-2.0-3.0-0.0","5fe146b36a3657bd99f9c179","D2","batch4","","3804","tol_practice","","","","tol_peg_2","3804","3804","0","[[1,2,0],[0,0],[0]]","1","[[1,2,0],[0,0],[3]]","practice","3804","","","","","","","","","","","","","","",""
"","","","","","single-stim-button","11","144172","0.0-2.0-3.0-1.0","5fe146b36a3657bd99f9c179","D2","batch4","","2595","tol_practice","","","","tol_peg_3","2595","2595","0","[[1,2,0],[0,0],[3]]","1","[[1,2,0],[0,0],[3]]","practice","2595","","","","","","","","","","","","","","",""
"","","","","","poldrack-single-stim","12","145181","0.0-2.0-4.0","5fe146b36a3657bd99f9c179","D2","batch4","","-1","tol_feedback","","","true","","1000","1000","500","","","","","","-1","none","true","","0","","","","","","","","","",""
"","","","","","single-stim-button","13","151233","0.0-2.0-5.0-0.0","5fe146b36a3657bd99f9c179","D2","batch4","","6050","tol_practice","","","","tol_peg_1","6050","6050","0","[[1,0,0],[3,0],[0]]","2","[[0,0,0],[3,1],[2]]","practice","6050","","","","","","","","","","","","","","",""
"","","","","","single-stim-button","14","152432","0.0-2.0-5.0-1.0","5fe146b36a3657bd99f9c179","D2","batch4","","1198","tol_practice","","","","tol_peg_3","1198","1198","0","[[1,0,0],[3,0],[2]]","2","[[0,0,0],[3,1],[2]]","practice","1198","","","","","","","","","","","","","","",""
"","","","","","single-stim-button","15","152907","0.0-2.0-5.1-0.1","5fe146b36a3657bd99f9c179","D2","batch4","","471","tol_practice","","","","tol_peg_3","471","471","0","[[1,0,0],[3,0],[0]]","3","[[0,0,0],[3,1],[2]]","practice","471","","","","","","","","","","","","","","",""
"","","","","","single-stim-button","16","153914","0.0-2.0-5.1-1.1","5fe146b36a3657bd99f9c179","D2","batch4","","1006","tol_practice","","","","tol_peg_3","1006","1006","0","[[1,0,0],[3,0],[2]]","3","[[0,0,0],[3,1],[2]]","practice","1006","","","","","","","","","","","","","","",""
"","","","","","single-stim-button","17","156082","0.0-2.0-5.2-0.2","5fe146b36a3657bd99f9c179","D2","batch4","","2166","tol_practice","","","","tol_peg_1","2166","2166","0","[[0,0,0],[3,0],[2]]","4","[[0,0,0],[3,1],[2]]","practice","2166","","","","","","","","","","","","","","",""
"","","","","","single-stim-button","18","157606","0.0-2.0-5.2-1.2","5fe146b36a3657bd99f9c179","D2","batch4","","1522","tol_practice","","","","tol_peg_2","1522","1522","0","[[0,0,0],[3,1],[2]]","4","[[0,0,0],[3,1],[2]]","practice","1522","","","","","","","","","","","","","","",""
"","","","","","poldrack-single-stim","19","158620","0.0-2.0-6.0","5fe146b36a3657bd99f9c179","D2","batch4","","-1","tol_feedback","","","true","","1000","1000","500","","","","","","-1","none","true","","0","","","","","","","","","",""
"","","","","","single-stim-button","20","162455","0.0-2.0-7.0-0.0","5fe146b36a3657bd99f9c179","D2","batch4","","3833","tol_practice","","","","tol_peg_2","3833","3833","0","[[1,2,0],[0,0],[0]]","5","[[1,0,0],[2,0],[3]]","practice","3833","","","","","","","","","","","","","","",""
"","","","","","single-stim-button","21","163934","0.0-2.0-7.0-1.0","5fe146b36a3657bd99f9c179","D2","batch4","","1477","tol_practice","","","","tol_peg_3","1477","1477","0","[[1,2,0],[0,0],[3]]","5","[[1,0,0],[2,0],[3]]","practice","1477","","","","","","","","","","","","","","",""
"","","","","","single-stim-button","22","165552","0.0-2.0-7.1-0.1","5fe146b36a3657bd99f9c179","D2","batch4","","1614","tol_practice","","","","tol_peg_1","1614","1614","0","[[1,0,0],[0,0],[3]]","6","[[1,0,0],[2,0],[3]]","practice","1614","","","","","","","","","","","","","","",""
"","","","","","single-stim-button","23","166875","0.0-2.0-7.1-1.1","5fe146b36a3657bd99f9c179","D2","batch4","","1321","tol_practice","","","","tol_peg_2","1321","1321","0","[[1,0,0],[2,0],[3]]","6","[[1,0,0],[2,0],[3]]","practice","1321","","","","","","","","","","","","","","",""
"","","","","","poldrack-single-stim","24","167883","0.0-2.0-8.0","5fe146b36a3657bd99f9c179","D2","batch4","","-1","tol_feedback","","","true","","1000","1000","500","","","","","","-1","none","true","","0","","","","","","","","","",""
"","","","","","html-button-response","25","173019","0.0-2.0-9.0","5fe146b36a3657bd99f9c179","D2","batch4","","5132.599999999977","tol_instruction","<div class = centerbox><p class = center-block-text>Great job! You are done with practice trials<br>You are about to start official trials.<br> <br> Problem <strong>1</strong> out of 25 problems</p></div>","0","","","","","","","","","","","","","","","","","","","","","","","","",""
"","","","","","single-stim-button","26","179712","0.0-2.0-10.0-0.0","5fe146b36a3657bd99f9c179","D2","batch4","","5679","tol_tohand","","","","tol_peg_1","5679","5679","0","[[1,0,0],[3,0],[0]]","1","[[1,3,0],[2,0],[0]]","0","0","","","","","","3","","","","","","","","",""
"","","","","","single-stim-button","27","182277","0.0-2.0-10.0-1.0","5fe146b36a3657bd99f9c179","D2","batch4","","2561","tol_toboard","","","","tol_peg_3","2561","2561","0","[[1,0,0],[3,0],[2]]","1","[[1,3,0],[2,0],[0]]","0","0","","","","","","3","","","","","","","","",""
"","","","","","single-stim-button","28","183640","0.0-2.0-10.1-0.1","5fe146b36a3657bd99f9c179","D2","batch4","","1360","tol_tohand","","","","tol_peg_2","1360","1360","0","[[1,0,0],[0,0],[2]]","2","[[1,3,0],[2,0],[0]]","0","0","","","","","","3","","","","","","","","",""
"","","","","","single-stim-button","29","184955","0.0-2.0-10.1-1.1","5fe146b36a3657bd99f9c179","D2","batch4","","1314","tol_toboard","","","","tol_peg_1","1314","1314","0","[[1,3,0],[0,0],[2]]","2","[[1,3,0],[2,0],[0]]","0","0","","","","","","3","","","","","","","","",""
"","","","","","single-stim-button","30","186656","0.0-2.0-10.2-0.2","5fe146b36a3657bd99f9c179","D2","batch4","","1699","tol_tohand","","","","tol_peg_3","1699","1699","0","[[1,3,0],[0,0],[0]]","3","[[1,3,0],[2,0],[0]]","0","0","","","","","","3","","","","","","","","",""
"","","","","","single-stim-button","31","187794","0.0-2.0-10.2-1.2","5fe146b36a3657bd99f9c179","D2","batch4","","1136","tol_toboard","","","","tol_peg_2","1136","1136","0","[[1,3,0],[2,0],[0]]","3","[[1,3,0],[2,0],[0]]","0","0","","","","","","3","","","","","","","","",""
"","","","","","poldrack-single-stim","32","188809","0.0-2.0-11.0","5fe146b36a3657bd99f9c179","D2","batch4","","-1","tol_feedback","","","true","","1000","1000","500","","","","","","-1","none","true","5679","8738","","","","","","","","","",""
"","","","","","html-button-response","33","190762","0.0-2.0-12.0","5fe146b36a3657bd99f9c179","D2","batch4","","1951.0999999999767","tol_trial_num","<div class = centerbox><p class = center-block-text>problem <strong>2</strong> out of 25 problems</p></div>","0","","","","","","","","","","","","","","","","","","","","","","","","",""
"","","","","","single-stim-button","34","198774","0.0-2.0-13.0-0.0","5fe146b36a3657bd99f9c179","D2","batch4","","8009","tol_tohand","","","","tol_peg_1","8009","8009","0","[[1,0,0],[3,0],[0]]","1","[[2,1,3],[0,0],[0]]","1","0","","","","","","5","","","","","","","","",""
"","","","","","single-stim-button","35","216414","0.0-2.0-13.0-1.0","5fe146b36a3657bd99f9c179","D2","batch4","","17638","tol_toboard","","","","tol_peg_2","17638","17638","0","[[1,0,0],[3,2],[0]]","1","[[2,1,3],[0,0],[0]]","1","0","","","","","","5","","","","","","","","",""
"","","","","","single-stim-button","36","218024","0.0-2.0-13.1-0.1","5fe146b36a3657bd99f9c179","D2","batch4","","1608","tol_tohand","","","","tol_peg_1","1608","1608","0","[[0,0,0],[3,2],[0]]","2","[[2,1,3],[0,0],[0]]","1","0","","","","","","5","","","","","","","","",""
"","","","","","single-stim-button","37","220108","0.0-2.0-13.1-1.1","5fe146b36a3657bd99f9c179","D2","batch4","","2082","tol_toboard","","","","tol_peg_3","2082","2082","0","[[0,0,0],[3,2],[1]]","2","[[2,1,3],[0,0],[0]]","1","0","","","","","","5","","","","","","","","",""
"","","","","","single-stim-button","38","221430","0.0-2.0-13.2-0.2","5fe146b36a3657bd99f9c179","D2","batch4","","1320","tol_tohand","","","","tol_peg_2","1320","1320","0","[[0,0,0],[3,0],[1]]","3","[[2,1,3],[0,0],[0]]","1","0","","","","","","5","","","","","","","","",""
"","","","","","single-stim-button","39","222771","0.0-2.0-13.2-1.2","5fe146b36a3657bd99f9c179","D2","batch4","","1339","tol_toboard","","","","tol_peg_1","1339","1339","0","[[2,0,0],[3,0],[1]]","3","[[2,1,3],[0,0],[0]]","1","0","","","","","","5","","","","","","","","",""
"","","","","","single-stim-button","40","224197","0.0-2.0-13.3-0.3","5fe146b36a3657bd99f9c179","D2","batch4","","1424","tol_tohand","","","","tol_peg_3","1424","1424","0","[[2,0,0],[3,0],[0]]","4","[[2,1,3],[0,0],[0]]","1","0","","","","","","5","","","","","","","","",""
"","","","","","single-stim-button","41","225629","0.0-2.0-13.3-1.3","5fe146b36a3657bd99f9c179","D2","batch4","","1431","tol_toboard","","","","tol_peg_1","1431","1431","0","[[2,1,0],[3,0],[0]]","4","[[2,1,3],[0,0],[0]]","1","0","","","","","","5","","","","","","","","",""
"","","","","","single-stim-button","42","226740","0.0-2.0-13.4-0.4","5fe146b36a3657bd99f9c179","D2","batch4","","1095","tol_tohand","","","","tol_peg_2","1095","1095","0","[[2,1,0],[0,0],[0]]","5","[[2,1,3],[0,0],[0]]","1","0","","","","","","5","","","","","","","","",""
"","","","","","single-stim-button","43","227896","0.0-2.0-13.4-1.4","5fe146b36a3657bd99f9c179","D2","batch4","","1155","tol_toboard","","","","tol_peg_1","1155","1155","0","[[2,1,3],[0,0],[0]]","5","[[2,1,3],[0,0],[0]]","1","0","","","","","","5","","","","","","","","",""
"","","","","","poldrack-single-stim","44","228908","0.0-2.0-14.0","5fe146b36a3657bd99f9c179","D2","batch4","","-1","tol_feedback","","","true","","1000","1000","500","","","","","","-1","none","true","8009","13456","","","","","","","","","",""
"","","","","","html-button-response","45","230500","0.0-2.0-15.0","5fe146b36a3657bd99f9c179","D2","batch4","","1589.9000000000233","tol_trial_num","<div class = centerbox><p class = center-block-text>problem <strong>3</strong> out of 25 problems</p></div>","0","","","","","","","","","","","","","","","","","","","","","","","","",""
"","","","","","single-stim-button","46","240837","0.0-2.0-16.0-0.0","5fe146b36a3657bd99f9c179","D2","batch4","","10335","tol_tohand","","","","tol_peg_1","10335","10335","0","[[2,0,0],[0,0],[1]]","1","[[1,2,0],[3,0],[0]]","2","0","","","","","","4","","","","","","","","",""
"","","","","","single-stim-button","47","242943","0.0-2.0-16.0-1.0","5fe146b36a3657bd99f9c179","D2","batch4","","2104","tol_toboard","","","","tol_peg_2","2104","2104","0","[[2,0,0],[3,0],[1]]","1","[[1,2,0],[3,0],[0]]","2","0","","","","","","4","","","","","","","","",""
"","","","","","single-stim-button","48","245296","0.0-2.0-16.1-0.1","5fe146b36a3657bd99f9c179","D2","batch4","","2352","tol_tohand","","","","tol_peg_1","2352","2352","0","[[0,0,0],[3,0],[1]]","2","[[1,2,0],[3,0],[0]]","2","0","","","","","","4","","","","","","","","",""
"","","","","","single-stim-button","49","246554","0.0-2.0-16.1-1.1","5fe146b36a3657bd99f9c179","D2","batch4","","1258","tol_toboard","","","","tol_peg_2","1258","1258","0","[[0,0,0],[3,2],[1]]","2","[[1,2,0],[3,0],[0]]","2","0","","","","","","4","","","","","","","","",""
"","","","","","single-stim-button","50","247621","0.0-2.0-16.2-0.2","5fe146b36a3657bd99f9c179","D2","batch4","","1065","tol_tohand","","","","tol_peg_3","1065","1065","0","[[0,0,0],[3,2],[0]]","3","[[1,2,0],[3,0],[0]]","2","0","","","","","","4","","","","","","","","",""
"","","","","","single-stim-button","51","249299","0.0-2.0-16.2-1.2","5fe146b36a3657bd99f9c179","D2","batch4","","1676","tol_toboard","","","","tol_peg_1","1676","1676","0","[[1,0,0],[3,2],[0]]","3","[[1,2,0],[3,0],[0]]","2","0","","","","","","4","","","","","","","","",""
"","","","","","single-stim-button","52","250824","0.0-2.0-16.3-0.3","5fe146b36a3657bd99f9c179","D2","batch4","","1522","tol_tohand","","","","tol_peg_2","1522","1522","0","[[1,0,0],[3,0],[0]]","4","[[1,2,0],[3,0],[0]]","2","0","","","","","","4","","","","","","","","",""
"","","","","","single-stim-button","53","251931","0.0-2.0-16.3-1.3","5fe146b36a3657bd99f9c179","D2","batch4","","1105","tol_toboard","","","","tol_peg_1","1105","1105","0","[[1,2,0],[3,0],[0]]","4","[[1,2,0],[3,0],[0]]","2","0","","","","","","4","","","","","","","","",""
"","","","","","poldrack-single-stim","54","252949","0.0-2.0-17.0","5fe146b36a3657bd99f9c179","D2","batch4","","-1","tol_feedback","","","true","","1000","1000","500","","","","","","-1","none","true","10335","15274","","","","","","","","","",""
"","","","","","html-button-response","55","254483","0.0-2.0-18.0","5fe146b36a3657bd99f9c179","D2","batch4","","1532.0999999999767","tol_trial_num","<div class = centerbox><p class = center-block-text>problem <strong>4</strong> out of 25 problems</p></div>","0","","","","","","","","","","","","","","","","","","","","","","","","",""
"","","","","","single-stim-button","56","262611","0.0-2.0-19.0-0.0","5fe146b36a3657bd99f9c179","D2","batch4","","8126","tol_tohand","","","","tol_peg_2","8126","8126","0","[[3,0,0],[2,0],[0]]","1","[[3,0,0],[1,0],[2]]","3","0","","","","","","3","","","","","","","","",""
"","","","","","single-stim-button","57","263930","0.0-2.0-19.0-1.0","5fe146b36a3657bd99f9c179","D2","batch4","","1317","tol_toboard","","","","tol_peg_1","1317","1317","0","[[3,1,0],[2,0],[0]]","1","[[3,0,0],[1,0],[2]]","3","0","","","","","","3","","","","","","","","",""
"","","","","","single-stim-button","58","265273","0.0-2.0-19.1-0.1","5fe146b36a3657bd99f9c179","D2","batch4","","1343","tol_tohand","","","","tol_peg_2","1343","1343","0","[[3,1,0],[0,0],[0]]","2","[[3,0,0],[1,0],[2]]","3","0","","","","","","3","","","","","","","","",""
"","","","","","single-stim-button","59","267057","0.0-2.0-19.1-1.1","5fe146b36a3657bd99f9c179","D2","batch4","","1782","tol_toboard","","","","tol_peg_3","1782","1782","0","[[3,1,0],[0,0],[2]]","2","[[3,0,0],[1,0],[2]]","3","0","","","","","","3","","","","","","","","",""
"","","","","","single-stim-button","60","268210","0.0-2.0-19.2-0.2","5fe146b36a3657bd99f9c179","D2","batch4","","1153","tol_tohand","","","","tol_peg_1","1153","1153","0","[[3,0,0],[0,0],[2]]","3","[[3,0,0],[1,0],[2]]","3","0","","","","","","3","","","","","","","","",""
"","","","","","single-stim-button","61","269288","0.0-2.0-19.2-1.2","5fe146b36a3657bd99f9c179","D2","batch4","","1076","tol_toboard","","","","tol_peg_2","1076","1076","0","[[3,0,0],[1,0],[2]]","3","[[3,0,0],[1,0],[2]]","3","0","","","","","","3","","","","","","","","",""
"","","","","","poldrack-single-stim","62","270304","0.0-2.0-20.0","5fe146b36a3657bd99f9c179","D2","batch4","","-1","tol_feedback","","","true","","1000","1000","500","","","","","","-1","none","true","8126","10622","","","","","","","","","",""
"","","","","","html-button-response","63","271590","0.0-2.0-21.0","5fe146b36a3657bd99f9c179","D2","batch4","","1284","tol_trial_num","<div class = centerbox><p class = center-block-text>problem <strong>5</strong> out of 25 problems</p></div>","0","","","","","","","","","","","","","","","","","","","","","","","","",""
"","","","","","single-stim-button","64","283792","0.0-2.0-22.0-0.0","5fe146b36a3657bd99f9c179","D2","batch4","","12200","tol_tohand","","","","tol_peg_1","12200","12200","0","[[0,0,0],[2,0],[3]]","1","[[0,0,0],[1,2],[3]]","4","0","","","","","","7","","","","","","","","",""
"","","","","","single-stim-button","65","285465","0.0-2.0-22.0-1.0","5fe146b36a3657bd99f9c179","D2","batch4","","1671","tol_toboard","","","","tol_peg_2","1671","1671","0","[[0,0,0],[2,1],[3]]","1","[[0,0,0],[1,2],[3]]","4","0","","","","","","7","","","","","","","","",""
"","","","","","single-stim-button","66","286597","0.0-2.0-22.1-0.1","5fe146b36a3657bd99f9c179","D2","batch4","","1132","tol_tohand","","","","tol_peg_2","1132","1132","0","[[0,0,0],[2,0],[3]]","2","[[0,0,0],[1,2],[3]]","4","0","","","","","","7","","","","","","","","",""
"","","","","","single-stim-button","67","298448","0.0-2.0-22.1-1.1","5fe146b36a3657bd99f9c179","D2","batch4","","11850","tol_toboard","","","","tol_peg_1","11850","11850","0","[[1,0,0],[2,0],[3]]","2","[[0,0,0],[1,2],[3]]","4","0","","","","","","7","","","","","","","","",""
"","","","","","single-stim-button","68","310757","0.0-2.0-22.2-0.2","5fe146b36a3657bd99f9c179","D2","batch4","","12307","tol_tohand","","","","tol_peg_1","12307","12307","0","[[0,0,0],[2,0],[3]]","3","[[0,0,0],[1,2],[3]]","4","0","","","","","","7","","","","","","","","",""
"","","","","","single-stim-button","69","312584","0.0-2.0-22.2-1.2","5fe146b36a3657bd99f9c179","D2","batch4","","1824","tol_toboard","","","","tol_peg_2","1824","1824","0","[[0,0,0],[2,1],[3]]","3","[[0,0,0],[1,2],[3]]","4","0","","","","","","7","","","","","","","","",""
"","","","","","single-stim-button","70","313837","0.0-2.0-22.3-0.3","5fe146b36a3657bd99f9c179","D2","batch4","","1251","tol_tohand","","","","tol_peg_3","1251","1251","0","[[0,0,0],[2,1],[0]]","4","[[0,0,0],[1,2],[3]]","4","0","","","","","","7","","","","","","","","",""
"","","","","","single-stim-button","71","315107","0.0-2.0-22.3-1.3","5fe146b36a3657bd99f9c179","D2","batch4","","1268","tol_toboard","","","","tol_peg_1","1268","1268","0","[[3,0,0],[2,1],[0]]","4","[[0,0,0],[1,2],[3]]","4","0","","","","","","7","","","","","","","","",""
"","","","","","single-stim-button","72","316574","0.0-2.0-22.4-0.4","5fe146b36a3657bd99f9c179","D2","batch4","","1463","tol_tohand","","","","tol_peg_2","1463","1463","0","[[3,0,0],[2,0],[0]]","5","[[0,0,0],[1,2],[3]]","4","0","","","","","","7","","","","","","","","",""
"","","","","","single-stim-button","73","317771","0.0-2.0-22.4-1.4","5fe146b36a3657bd99f9c179","D2","batch4","","1195","tol_toboard","","","","tol_peg_3","1195","1195","0","[[3,0,0],[2,0],[1]]","5","[[0,0,0],[1,2],[3]]","4","0","","","","","","7","","","","","","","","",""
"","","","","","single-stim-button","74","319088","0.0-2.0-22.5-0.5","5fe146b36a3657bd99f9c179","D2","batch4","","1315","tol_tohand","","","","tol_peg_2","1315","1315","0","[[3,0,0],[0,0],[1]]","6","[[0,0,0],[1,2],[3]]","4","0","","","","","","7","","","","","","","","",""
"","","","","","single-stim-button","75","320621","0.0-2.0-22.5-1.5","5fe146b36a3657bd99f9c179","D2","batch4","","1531","tol_toboard","","","","tol_peg_1","1531","1531","0","[[3,2,0],[0,0],[1]]","6","[[0,0,0],[1,2],[3]]","4","0","","","","","","7","","","","","","","","",""
"","","","","","single-stim-button","76","323239","0.0-2.0-22.6-0.6","5fe146b36a3657bd99f9c179","D2","batch4","","2617","tol_tohand","","","","tol_peg_3","2617","2617","0","[[3,2,0],[0,0],[0]]","7","[[0,0,0],[1,2],[3]]","4","0","","","","","","7","","","","","","","","",""
"","","","","","single-stim-button","77","324720","0.0-2.0-22.6-1.6","5fe146b36a3657bd99f9c179","D2","batch4","","1478","tol_toboard","","","","tol_peg_2","1478","1478","0","[[3,2,0],[1,0],[0]]","7","[[0,0,0],[1,2],[3]]","4","0","","","","","","7","","","","","","","","",""
"","","","","","single-stim-button","78","325950","0.0-2.0-22.7-0.7","5fe146b36a3657bd99f9c179","D2","batch4","","1228","tol_tohand","","","","tol_peg_1","1228","1228","0","[[3,0,0],[1,0],[0]]","8","[[0,0,0],[1,2],[3]]","4","0","","","","","","7","","","","","","","","",""
"","","","","","single-stim-button","79","327026","0.0-2.0-22.7-1.7","5fe146b36a3657bd99f9c179","D2","batch4","","1075","tol_toboard","","","","tol_peg_2","1075","1075","0","[[3,0,0],[1,2],[0]]","8","[[0,0,0],[1,2],[3]]","4","0","","","","","","7","","","","","","","","",""
"","","","","","single-stim-button","80","328502","0.0-2.0-22.8-0.8","5fe146b36a3657bd99f9c179","D2","batch4","","1474","tol_tohand","","","","tol_peg_1","1474","1474","0","[[0,0,0],[1,2],[0]]","9","[[0,0,0],[1,2],[3]]","4","0","","","","","","7","","","","","","","","",""
"","","","","","single-stim-button","81","329843","0.0-2.0-22.8-1.8","5fe146b36a3657bd99f9c179","D2","batch4","","1339","tol_toboard","","","","tol_peg_3","1339","1339","0","[[0,0,0],[1,2],[3]]","9","[[0,0,0],[1,2],[3]]","4","0","","","","","","7","","","","","","","","",""
"","","","","","poldrack-single-stim","82","330850","0.0-2.0-23.0","5fe146b36a3657bd99f9c179","D2","batch4","","-1","tol_feedback","","","true","","1000","1000","500","","","","","","-1","none","true","12200","34987","","","","","","","","","",""
"","","","","","html-button-response","83","332017","0.0-2.0-24.0","5fe146b36a3657bd99f9c179","D2","batch4","","1165.7000000000698","tol_trial_num","<div class = centerbox><p class = center-block-text>problem <strong>6</strong> out of 25 problems</p></div>","0","","","","","","","","","","","","","","","","","","","","","","","","",""
"","","","","","single-stim-button","84","349641","0.0-2.0-25.0-0.0","5fe146b36a3657bd99f9c179","D2","batch4","","17621","tol_tohand","","","","tol_peg_2","17621","17621","0","[[0,0,0],[1,0],[3]]","1","[[1,0,0],[2,3],[0]]","5","0","","","","","","6","","","","","","","","",""
"","","","","","single-stim-button","85","354587","0.0-2.0-25.0-1.0","5fe146b36a3657bd99f9c179","D2","batch4","","4944","tol_toboard","","","","tol_peg_1","4944","4944","0","[[2,0,0],[1,0],[3]]","1","[[1,0,0],[2,3],[0]]","5","0","","","","","","6","","","","","","","","",""
"","","","","","single-stim-button","86","374308","0.0-2.0-25.1-0.1","5fe146b36a3657bd99f9c179","D2","batch4","","19718","tol_tohand","","","","tol_peg_2","19718","19718","0","[[2,0,0],[0,0],[3]]","2","[[1,0,0],[2,3],[0]]","5","0","","","","","","6","","","","","","","","",""
"","","","","","single-stim-button","87","395861","0.0-2.0-25.1-1.1","5fe146b36a3657bd99f9c179","D2","batch4","","21551","tol_toboard","","","","tol_peg_2","21551","21551","0","[[2,0,0],[1,0],[3]]","2","[[1,0,0],[2,3],[0]]","5","0","","","","","","6","","","","","","","","",""
"","","","","","single-stim-button","88","398096","0.0-2.0-25.2-0.2","5fe146b36a3657bd99f9c179","D2","batch4","","2234","tol_tohand","","","","tol_peg_3","2234","2234","0","[[2,0,0],[1,0],[0]]","3","[[1,0,0],[2,3],[0]]","5","0","","","","","","6","","","","","","","","",""
"","","","","","single-stim-button","89","399456","0.0-2.0-25.2-1.2","5fe146b36a3657bd99f9c179","D2","batch4","","1358","tol_toboard","","","","tol_peg_2","1358","1358","0","[[2,0,0],[1,3],[0]]","3","[[1,0,0],[2,3],[0]]","5","0","","","","","","6","","","","","","","","",""
"","","","","","single-stim-button","90","400607","0.0-2.0-25.3-0.3","5fe146b36a3657bd99f9c179","D2","batch4","","1149","tol_tohand","","","","tol_peg_1","1149","1149","0","[[0,0,0],[1,3],[0]]","4","[[1,0,0],[2,3],[0]]","5","0","","","","","","6","","","","","","","","",""
"","","","","","single-stim-button","91","403229","0.0-2.0-25.3-1.3","5fe146b36a3657bd99f9c179","D2","batch4","","2620","tol_toboard","","","","tol_peg_3","2620","2620","0","[[0,0,0],[1,3],[2]]","4","[[1,0,0],[2,3],[0]]","5","0","","","","","","6","","","","","","","","",""
"","","","","","single-stim-button","92","413844","0.0-2.0-25.4-0.4","5fe146b36a3657bd99f9c179","D2","batch4","","10613","tol_tohand","","","","tol_peg_2","10613","10613","0","[[0,0,0],[1,0],[2]]","5","[[1,0,0],[2,3],[0]]","5","0","","","","","","6","","","","","","","","",""
"","","","","","single-stim-button","93","418349","0.0-2.0-25.4-1.4","5fe146b36a3657bd99f9c179","D2","batch4","","4502","tol_toboard","","","","tol_peg_1","4502","4502","0","[[3,0,0],[1,0],[2]]","5","[[1,0,0],[2,3],[0]]","5","0","","","","","","6","","","","","","","","",""
"","","","","","single-stim-button","94","422332","0.0-2.0-25.5-0.5","5fe146b36a3657bd99f9c179","D2","batch4","","3981","tol_tohand","","","","tol_peg_2","3981","3981","0","[[3,0,0],[0,0],[2]]","6","[[1,0,0],[2,3],[0]]","5","0","","","","","","6","","","","","","","","",""
"","","","","","single-stim-button","95","424783","0.0-2.0-25.5-1.5","5fe146b36a3657bd99f9c179","D2","batch4","","2449","tol_toboard","","","","tol_peg_1","2449","2449","0","[[3,1,0],[0,0],[2]]","6","[[1,0,0],[2,3],[0]]","5","0","","","","","","6","","","","","","","","",""
"","","","","","single-stim-button","96","425997","0.0-2.0-25.6-0.6","5fe146b36a3657bd99f9c179","D2","batch4","","1213","tol_tohand","","","","tol_peg_3","1213","1213","0","[[3,1,0],[0,0],[0]]","7","[[1,0,0],[2,3],[0]]","5","0","","","","","","6","","","","","","","","",""
"","","","","","single-stim-button","97","427283","0.0-2.0-25.6-1.6","5fe146b36a3657bd99f9c179","D2","batch4","","1285","tol_toboard","","","","tol_peg_2","1285","1285","0","[[3,1,0],[2,0],[0]]","7","[[1,0,0],[2,3],[0]]","5","0","","","","","","6","","","","","","","","",""
"","","","","","single-stim-button","98","429243","0.0-2.0-25.7-0.7","5fe146b36a3657bd99f9c179","D2","batch4","","1957","tol_tohand","","","","tol_peg_1","1957","1957","0","[[3,0,0],[2,0],[0]]","8","[[1,0,0],[2,3],[0]]","5","0","","","","","","6","","","","","","","","",""
"","","","","","single-stim-button","99","431134","0.0-2.0-25.7-1.7","5fe146b36a3657bd99f9c179","D2","batch4","","1889","tol_toboard","","","","tol_peg_3","1889","1889","0","[[3,0,0],[2,0],[1]]","8","[[1,0,0],[2,3],[0]]","5","0","","","","","","6","","","","","","","","",""
"","","","","","single-stim-button","100","432349","0.0-2.0-25.8-0.8","5fe146b36a3657bd99f9c179","D2","batch4","","1213","tol_tohand","","","","tol_peg_1","1213","1213","0","[[0,0,0],[2,0],[1]]","9","[[1,0,0],[2,3],[0]]","5","0","","","","","","6","","","","","","","","",""
"","","","","","single-stim-button","101","433717","0.0-2.0-25.8-1.8","5fe146b36a3657bd99f9c179","D2","batch4","","1366","tol_toboard","","","","tol_peg_2","1366","1366","0","[[0,0,0],[2,3],[1]]","9","[[1,0,0],[2,3],[0]]","5","0","","","","","","6","","","","","","","","",""
"","","","","","single-stim-button","102","434828","0.0-2.0-25.9-0.9","5fe146b36a3657bd99f9c179","D2","batch4","","1109","tol_tohand","","","","tol_peg_3","1109","1109","0","[[0,0,0],[2,3],[0]]","10","[[1,0,0],[2,3],[0]]","5","0","","","","","","6","","","","","","","","",""
"","","","","","single-stim-button","103","436483","0.0-2.0-25.9-1.9","5fe146b36a3657bd99f9c179","D2","batch4","","1652","tol_toboard","","","","tol_peg_1","1652","1652","0","[[1,0,0],[2,3],[0]]","10","[[1,0,0],[2,3],[0]]","5","0","","","","","","6","","","","","","","","",""
"","","","","","poldrack-single-stim","104","437502","0.0-2.0-26.0","5fe146b36a3657bd99f9c179","D2","batch4","","-1","tol_feedback","","","true","","1000","1000","500","","","","","","-1","none","true","17621","60808","","","","","","","","","",""
"","","","","","html-button-response","105","439186","0.0-2.0-27.0","5fe146b36a3657bd99f9c179","D2","batch4","","1682.0999999999767","tol_trial_num","<div class = centerbox><p class = center-block-text>problem <strong>7</strong> out of 25 problems</p></div>","0","","","","","","","","","","","","","","","","","","","","","","","","",""
"","","","","","single-stim-button","106","452969","0.0-2.0-28.0-0.0","5fe146b36a3657bd99f9c179","D2","batch4","","13780","tol_tohand","","","","tol_peg_3","13780","13780","0","[[2,1,0],[0,0],[0]]","1","[[1,2,0],[3,0],[0]]","6","0","","","","","","5","","","","","","","","",""
"","","","","","single-stim-button","107","454330","0.0-2.0-28.0-1.0","5fe146b36a3657bd99f9c179","D2","batch4","","1358","tol_toboard","","","","tol_peg_2","1358","1358","0","[[2,1,0],[3,0],[0]]","1","[[1,2,0],[3,0],[0]]","6","0","","","","","","5","","","","","","","","",""
"","","","","","single-stim-button","108","455432","0.0-2.0-28.1-0.1","5fe146b36a3657bd99f9c179","D2","batch4","","1100","tol_tohand","","","","tol_peg_1","1100","1100","0","[[2,0,0],[3,0],[0]]","2","[[1,2,0],[3,0],[0]]","6","0","","","","","","5","","","","","","","","",""
"","","","","","single-stim-button","109","456630","0.0-2.0-28.1-1.1","5fe146b36a3657bd99f9c179","D2","batch4","","1196","tol_toboard","","","","tol_peg_2","1196","1196","0","[[2,0,0],[3,1],[0]]","2","[[1,2,0],[3,0],[0]]","6","0","","","","","","5","","","","","","","","",""
"","","","","","single-stim-button","110","459088","0.0-2.0-28.2-0.2","5fe146b36a3657bd99f9c179","D2","batch4","","2456","tol_tohand","","","","tol_peg_1","2456","2456","0","[[0,0,0],[3,1],[0]]","3","[[1,2,0],[3,0],[0]]","6","0","","","","","","5","","","","","","","","",""
"","","","","","single-stim-button","111","460602","0.0-2.0-28.2-1.2","5fe146b36a3657bd99f9c179","D2","batch4","","1512","tol_toboard","","","","tol_peg_3","1512","1512","0","[[0,0,0],[3,1],[2]]","3","[[1,2,0],[3,0],[0]]","6","0","","","","","","5","","","","","","","","",""
"","","","","","single-stim-button","112","461813","0.0-2.0-28.3-0.3","5fe146b36a3657bd99f9c179","D2","batch4","","1208","tol_tohand","","","","tol_peg_2","1208","1208","0","[[0,0,0],[3,0],[2]]","4","[[1,2,0],[3,0],[0]]","6","0","","","","","","5","","","","","","","","",""
"","","","","","single-stim-button","113","463265","0.0-2.0-28.3-1.3","5fe146b36a3657bd99f9c179","D2","batch4","","1450","tol_toboard","","","","tol_peg_1","1450","1450","0","[[1,0,0],[3,0],[2]]","4","[[1,2,0],[3,0],[0]]","6","0","","","","","","5","","","","","","","","",""
"","","","","","single-stim-button","114","464801","0.0-2.0-28.4-0.4","5fe146b36a3657bd99f9c179","D2","batch4","","1533","tol_tohand","","","","tol_peg_3","1533","1533","0","[[1,0,0],[3,0],[0]]","5","[[1,2,0],[3,0],[0]]","6","0","","","","","","5","","","","","","","","",""
"","","","","","single-stim-button","115","466070","0.0-2.0-28.4-1.4","5fe146b36a3657bd99f9c179","D2","batch4","","1266","tol_toboard","","","","tol_peg_1","1266","1266","0","[[1,2,0],[3,0],[0]]","5","[[1,2,0],[3,0],[0]]","6","0","","","","","","5","","","","","","","","",""
"","","","","","poldrack-single-stim","116","467075","0.0-2.0-29.0","5fe146b36a3657bd99f9c179","D2","batch4","","-1","tol_feedback","","","true","","1000","1000","500","","","","","","-1","none","true","13780","20077","","","","","","","","","",""
"","","","","","html-button-response","117","468464","0.0-2.0-30.0","5fe146b36a3657bd99f9c179","D2","batch4","","1386.2000000000698","tol_trial_num","<div class = centerbox><p class = center-block-text>problem <strong>8</strong> out of 25 problems</p></div>","0","","","","","","","","","","","","","","","","","","","","","","","","",""
"","","","","","single-stim-button","118","474564","0.0-2.0-31.0-0.0","5fe146b36a3657bd99f9c179","D2","batch4","","6096","tol_tohand","","","","tol_peg_3","6096","6096","0","[[0,0,0],[2,3],[0]]","1","[[1,2,0],[3,0],[0]]","7","0","","","","","","4","","","","","","","","",""
"","","","","","single-stim-button","119","476402","0.0-2.0-31.0-1.0","5fe146b36a3657bd99f9c179","D2","batch4","","1836","tol_toboard","","","","tol_peg_1","1836","1836","0","[[1,0,0],[2,3],[0]]","1","[[1,2,0],[3,0],[0]]","7","0","","","","","","4","","","","","","","","",""
"","","","","","single-stim-button","120","480564","0.0-2.0-31.1-0.1","5fe146b36a3657bd99f9c179","D2","batch4","","4159","tol_tohand","","","","tol_peg_2","4159","4159","0","[[1,0,0],[2,0],[0]]","2","[[1,2,0],[3,0],[0]]","7","0","","","","","","4","","","","","","","","",""
"","","","","","single-stim-button","121","481902","0.0-2.0-31.1-1.1","5fe146b36a3657bd99f9c179","D2","batch4","","1336","tol_toboard","","","","tol_peg_3","1336","1336","0","[[1,0,0],[2,0],[3]]","2","[[1,2,0],[3,0],[0]]","7","0","","","","","","4","","","","","","","","",""
"","","","","","single-stim-button","122","482955","0.0-2.0-31.2-0.2","5fe146b36a3657bd99f9c179","D2","batch4","","1051","tol_tohand","","","","tol_peg_2","1051","1051","0","[[1,0,0],[0,0],[3]]","3","[[1,2,0],[3,0],[0]]","7","0","","","","","","4","","","","","","","","",""
"","","","","","single-stim-button","123","484283","0.0-2.0-31.2-1.2","5fe146b36a3657bd99f9c179","D2","batch4","","1325","tol_toboard","","","","tol_peg_1","1325","1325","0","[[1,2,0],[0,0],[3]]","3","[[1,2,0],[3,0],[0]]","7","0","","","","","","4","","","","","","","","",""
"","","","","","single-stim-button","124","485737","0.0-2.0-31.3-0.3","5fe146b36a3657bd99f9c179","D2","batch4","","1452","tol_tohand","","","","tol_peg_3","1452","1452","0","[[1,2,0],[0,0],[0]]","4","[[1,2,0],[3,0],[0]]","7","0","","","","","","4","","","","","","","","",""
"","","","","","single-stim-button","125","487228","0.0-2.0-31.3-1.3","5fe146b36a3657bd99f9c179","D2","batch4","","1489","tol_toboard","","","","tol_peg_2","1489","1489","0","[[1,2,0],[3,0],[0]]","4","[[1,2,0],[3,0],[0]]","7","0","","","","","","4","","","","","","","","",""
"","","","","","poldrack-single-stim","126","488238","0.0-2.0-32.0","5fe146b36a3657bd99f9c179","D2","batch4","","-1","tol_feedback","","","true","","1000","1000","500","","","","","","-1","none","true","6096","12758","","","","","","","","","",""
"","","","","","html-button-response","127","489496","0.0-2.0-33.0","5fe146b36a3657bd99f9c179","D2","batch4","","1255.0999999999767","tol_trial_num","<div class = centerbox><p class = center-block-text>problem <strong>9</strong> out of 25 problems</p></div>","0","","","","","","","","","","","","","","","","","","","","","","","","",""
"","","","","","single-stim-button","128","508221","0.0-2.0-34.0-0.0","5fe146b36a3657bd99f9c179","D2","batch4","","18723","tol_tohand","","","","tol_peg_1","18723","18723","0","[[3,0,0],[0,0],[1]]","1","[[2,1,0],[3,0],[0]]","8","0","","","","","","6","","","","","","","","",""
"","","","","","single-stim-button","129","510958","0.0-2.0-34.0-1.0","5fe146b36a3657bd99f9c179","D2","batch4","","2734","tol_toboard","","","","tol_peg_2","2734","2734","0","[[3,0,0],[2,0],[1]]","1","[[2,1,0],[3,0],[0]]","8","0","","","","","","6","","","","","","","","",""
"","","","","","single-stim-button","130","522656","0.0-2.0-34.1-0.1","5fe146b36a3657bd99f9c179","D2","batch4","","11695","tol_tohand","","","","tol_peg_3","11695","11695","0","[[3,0,0],[2,0],[0]]","2","[[2,1,0],[3,0],[0]]","8","0","","","","","","6","","","","","","","","",""
"","","","","","single-stim-button","131","524242","0.0-2.0-34.1-1.1","5fe146b36a3657bd99f9c179","D2","batch4","","1583","tol_toboard","","","","tol_peg_1","1583","1583","0","[[3,1,0],[2,0],[0]]","2","[[2,1,0],[3,0],[0]]","8","0","","","","","","6","","","","","","","","",""
"","","","","","single-stim-button","132","525491","0.0-2.0-34.2-0.2","5fe146b36a3657bd99f9c179","D2","batch4","","1245","tol_tohand","","","","tol_peg_2","1245","1245","0","[[3,1,0],[0,0],[0]]","3","[[2,1,0],[3,0],[0]]","8","0","","","","","","6","","","","","","","","",""
"","","","","","single-stim-button","133","527376","0.0-2.0-34.2-1.2","5fe146b36a3657bd99f9c179","D2","batch4","","1883","tol_toboard","","","","tol_peg_3","1883","1883","0","[[3,1,0],[0,0],[2]]","3","[[2,1,0],[3,0],[0]]","8","0","","","","","","6","","","","","","","","",""
"","","","","","single-stim-button","134","533026","0.0-2.0-34.3-0.3","5fe146b36a3657bd99f9c179","D2","batch4","","5648","tol_tohand","","","","tol_peg_1","5648","5648","0","[[3,0,0],[0,0],[2]]","4","[[2,1,0],[3,0],[0]]","8","0","","","","","","6","","","","","","","","",""
"","","","","","single-stim-button","135","536410","0.0-2.0-34.3-1.3","5fe146b36a3657bd99f9c179","D2","batch4","","3382","tol_toboard","","","","tol_peg_2","3382","3382","0","[[3,0,0],[1,0],[2]]","4","[[2,1,0],[3,0],[0]]","8","0","","","","","","6","","","","","","","","",""
"","","","","","single-stim-button","136","540122","0.0-2.0-34.4-0.4","5fe146b36a3657bd99f9c179","D2","batch4","","3710","tol_tohand","","","","tol_peg_1","3710","3710","0","[[0,0,0],[1,0],[2]]","5","[[2,1,0],[3,0],[0]]","8","0","","","","","","6","","","","","","","","",""
"","","","","","single-stim-button","137","541551","0.0-2.0-34.4-1.4","5fe146b36a3657bd99f9c179","D2","batch4","","1427","tol_toboard","","","","tol_peg_2","1427","1427","0","[[0,0,0],[1,3],[2]]","5","[[2,1,0],[3,0],[0]]","8","0","","","","","","6","","","","","","","","",""
"","","","","","single-stim-button","138","542870","0.0-2.0-34.5-0.5","5fe146b36a3657bd99f9c179","D2","batch4","","1317","tol_tohand","","","","tol_peg_3","1317","1317","0","[[0,0,0],[1,3],[0]]","6","[[2,1,0],[3,0],[0]]","8","0","","","","","","6","","","","","","","","",""
"","","","","","single-stim-button","139","544318","0.0-2.0-34.5-1.5","5fe146b36a3657bd99f9c179","D2","batch4","","1445","tol_toboard","","","","tol_peg_1","1445","1445","0","[[2,0,0],[1,3],[0]]","6","[[2,1,0],[3,0],[0]]","8","0","","","","","","6","","","","","","","","",""
"","","","","","single-stim-button","140","546002","0.0-2.0-34.6-0.6","5fe146b36a3657bd99f9c179","D2","batch4","","1681","tol_tohand","","","","tol_peg_2","1681","1681","0","[[2,0,0],[1,0],[0]]","7","[[2,1,0],[3,0],[0]]","8","0","","","","","","6","","","","","","","","",""
"","","","","","single-stim-button","141","547104","0.0-2.0-34.6-1.6","5fe146b36a3657bd99f9c179","D2","batch4","","1100","tol_toboard","","","","tol_peg_3","1100","1100","0","[[2,0,0],[1,0],[3]]","7","[[2,1,0],[3,0],[0]]","8","0","","","","","","6","","","","","","","","",""
"","","","","","single-stim-button","142","548198","0.0-2.0-34.7-0.7","5fe146b36a3657bd99f9c179","D2","batch4","","1092","tol_tohand","","","","tol_peg_2","1092","1092","0","[[2,0,0],[0,0],[3]]","8","[[2,1,0],[3,0],[0]]","8","0","","","","","","6","","","","","","","","",""
"","","","","","single-stim-button","143","549510","0.0-2.0-34.7-1.7","5fe146b36a3657bd99f9c179","D2","batch4","","1310","tol_toboard","","","","tol_peg_1","1310","1310","0","[[2,1,0],[0,0],[3]]","8","[[2,1,0],[3,0],[0]]","8","0","","","","","","6","","","","","","","","",""
"","","","","","single-stim-button","144","550839","0.0-2.0-34.8-0.8","5fe146b36a3657bd99f9c179","D2","batch4","","1327","tol_tohand","","","","tol_peg_3","1327","1327","0","[[2,1,0],[0,0],[0]]","9","[[2,1,0],[3,0],[0]]","8","0","","","","","","6","","","","","","","","",""
"","","","","","single-stim-button","145","552241","0.0-2.0-34.8-1.8","5fe146b36a3657bd99f9c179","D2","batch4","","1400","tol_toboard","","","","tol_peg_2","1400","1400","0","[[2,1,0],[3,0],[0]]","9","[[2,1,0],[3,0],[0]]","8","0","","","","","","6","","","","","","","","",""
"","","","","","poldrack-single-stim","146","553246","0.0-2.0-35.0","5fe146b36a3657bd99f9c179","D2","batch4","","-1","tol_feedback","","","true","","1000","1000","500","","","","","","-1","none","true","18723","46438","","","","","","","","","",""
"","","","","","html-button-response","147","554881","0.0-2.0-36.0","5fe146b36a3657bd99f9c179","D2","batch4","","1633.2000000000698","tol_trial_num","<div class = centerbox><p class = center-block-text>problem <strong>10</strong> out of 25 problems</p></div>","0","","","","","","","","","","","","","","","","","","","","","","","","",""
"","","","","","single-stim-button","148","559238","0.0-2.0-37.0-0.0","5fe146b36a3657bd99f9c179","D2","batch4","","4355","tol_tohand","","","","tol_peg_2","4355","4355","0","[[3,0,0],[0,0],[2]]","1","[[3,0,0],[2,1],[0]]","9","0","","","","","","3","","","","","","","","",""
"","","","","","single-stim-button","149","560556","0.0-2.0-37.0-1.0","5fe146b36a3657bd99f9c179","D2","batch4","","1316","tol_toboard","","","","tol_peg_1","1316","1316","0","[[3,1,0],[0,0],[2]]","1","[[3,0,0],[2,1],[0]]","9","0","","","","","","3","","","","","","","","",""
"","","","","","single-stim-button","150","562034","0.0-2.0-37.1-0.1","5fe146b36a3657bd99f9c179","D2","batch4","","1476","tol_tohand","","","","tol_peg_3","1476","1476","0","[[3,1,0],[0,0],[0]]","2","[[3,0,0],[2,1],[0]]","9","0","","","","","","3","","","","","","","","",""
"","","","","","single-stim-button","151","563323","0.0-2.0-37.1-1.1","5fe146b36a3657bd99f9c179","D2","batch4","","1287","tol_toboard","","","","tol_peg_2","1287","1287","0","[[3,1,0],[2,0],[0]]","2","[[3,0,0],[2,1],[0]]","9","0","","","","","","3","","","","","","","","",""
"","","","","","single-stim-button","152","564470","0.0-2.0-37.2-0.2","5fe146b36a3657bd99f9c179","D2","batch4","","1144","tol_tohand","","","","tol_peg_1","1144","1144","0","[[3,0,0],[2,0],[0]]","3","[[3,0,0],[2,1],[0]]","9","0","","","","","","3","","","","","","","","",""
"","","","","","single-stim-button","153","565840","0.0-2.0-37.2-1.2","5fe146b36a3657bd99f9c179","D2","batch4","","1367","tol_toboard","","","","tol_peg_2","1367","1367","0","[[3,0,0],[2,1],[0]]","3","[[3,0,0],[2,1],[0]]","9","0","","","","","","3","","","","","","","","",""
"","","","","","poldrack-single-stim","154","566845","0.0-2.0-38.0","5fe146b36a3657bd99f9c179","D2","batch4","","-1","tol_feedback","","","true","","1000","1000","500","","","","","","-1","none","true","4355","6975","","","","","","","","","",""
"","","","","","html-button-response","155","568092","0.0-2.0-39.0","5fe146b36a3657bd99f9c179","D2","batch4","","1244.4000000000233","tol_trial_num","<div class = centerbox><p class = center-block-text>problem <strong>11</strong> out of 25 problems</p></div>","0","","","","","","","","","","","","","","","","","","","","","","","","",""
"","","","","","single-stim-button","156","578255","0.0-2.0-40.0-0.0","5fe146b36a3657bd99f9c179","D2","batch4","","10162","tol_tohand","","","","tol_peg_1","10162","10162","0","[[1,0,0],[3,0],[0]]","1","[[2,0,0],[1,3],[0]]","10","0","","","","","","6","","","","","","","","",""
"","","","","","single-stim-button","157","578707","0.0-2.0-40.0-1.0","5fe146b36a3657bd99f9c179","D2","batch4","","451","tol_toboard","","","","tol_peg_1","451","451","0","[[1,2,0],[3,0],[0]]","1","[[2,0,0],[1,3],[0]]","10","0","","","","","","6","","","","","","","","",""
"","","","","","single-stim-button","158","581008","0.0-2.0-40.1-0.1","5fe146b36a3657bd99f9c179","D2","batch4","","2299","tol_tohand","","","","tol_peg_1","2299","2299","0","[[1,0,0],[3,0],[0]]","2","[[2,0,0],[1,3],[0]]","10","0","","","","","","6","","","","","","","","",""
"","","","","","single-stim-button","159","582355","0.0-2.0-40.1-1.1","5fe146b36a3657bd99f9c179","D2","batch4","","1345","tol_toboard","","","","tol_peg_3","1345","1345","0","[[1,0,0],[3,0],[2]]","2","[[2,0,0],[1,3],[0]]","10","0","","","","","","6","","","","","","","","",""
"","","","","","single-stim-button","160","585223","0.0-2.0-40.2-0.2","5fe146b36a3657bd99f9c179","D2","batch4","","2865","tol_tohand","","","","tol_peg_1","2865","2865","0","[[0,0,0],[3,0],[2]]","3","[[2,0,0],[1,3],[0]]","10","0","","","","","","6","","","","","","","","",""
"","","","","","single-stim-button","161","586739","0.0-2.0-40.2-1.2","5fe146b36a3657bd99f9c179","D2","batch4","","1514","tol_toboard","","","","tol_peg_2","1514","1514","0","[[0,0,0],[3,1],[2]]","3","[[2,0,0],[1,3],[0]]","10","0","","","","","","6","","","","","","","","",""
"","","","","","single-stim-button","162","587892","0.0-2.0-40.3-0.3","5fe146b36a3657bd99f9c179","D2","batch4","","1150","tol_tohand","","","","tol_peg_3","1150","1150","0","[[0,0,0],[3,1],[0]]","4","[[2,0,0],[1,3],[0]]","10","0","","","","","","6","","","","","","","","",""
"","","","","","single-stim-button","163","589659","0.0-2.0-40.3-1.3","5fe146b36a3657bd99f9c179","D2","batch4","","1765","tol_toboard","","","","tol_peg_1","1765","1765","0","[[2,0,0],[3,1],[0]]","4","[[2,0,0],[1,3],[0]]","10","0","","","","","","6","","","","","","","","",""
"","","","","","single-stim-button","164","594520","0.0-2.0-40.4-0.4","5fe146b36a3657bd99f9c179","D2","batch4","","4858","tol_tohand","","","","tol_peg_2","4858","4858","0","[[2,0,0],[3,0],[0]]","5","[[2,0,0],[1,3],[0]]","10","0","","","","","","6","","","","","","","","",""
"","","","","","single-stim-button","165","595905","0.0-2.0-40.4-1.4","5fe146b36a3657bd99f9c179","D2","batch4","","1383","tol_toboard","","","","tol_peg_1","1383","1383","0","[[2,1,0],[3,0],[0]]","5","[[2,0,0],[1,3],[0]]","10","0","","","","","","6","","","","","","","","",""
"","","","","","single-stim-button","166","597440","0.0-2.0-40.5-0.5","5fe146b36a3657bd99f9c179","D2","batch4","","1532","tol_tohand","","","","tol_peg_2","1532","1532","0","[[2,1,0],[0,0],[0]]","6","[[2,0,0],[1,3],[0]]","10","0","","","","","","6","","","","","","","","",""
"","","","","","single-stim-button","167","598626","0.0-2.0-40.5-1.5","5fe146b36a3657bd99f9c179","D2","batch4","","1183","tol_toboard","","","","tol_peg_3","1183","1183","0","[[2,1,0],[0,0],[3]]","6","[[2,0,0],[1,3],[0]]","10","0","","","","","","6","","","","","","","","",""
"","","","","","single-stim-button","168","599977","0.0-2.0-40.6-0.6","5fe146b36a3657bd99f9c179","D2","batch4","","1349","tol_tohand","","","","tol_peg_1","1349","1349","0","[[2,0,0],[0,0],[3]]","7","[[2,0,0],[1,3],[0]]","10","0","","","","","","6","","","","","","","","",""
"","","","","","single-stim-button","169","601091","0.0-2.0-40.6-1.6","5fe146b36a3657bd99f9c179","D2","batch4","","1112","tol_toboard","","","","tol_peg_2","1112","1112","0","[[2,0,0],[1,0],[3]]","7","[[2,0,0],[1,3],[0]]","10","0","","","","","","6","","","","","","","","",""
"","","","","","single-stim-button","170","602087","0.0-2.0-40.7-0.7","5fe146b36a3657bd99f9c179","D2","batch4","","994","tol_tohand","","","","tol_peg_3","994","994","0","[[2,0,0],[1,0],[0]]","8","[[2,0,0],[1,3],[0]]","10","0","","","","","","6","","","","","","","","",""
"","","","","","single-stim-button","171","603877","0.0-2.0-40.7-1.7","5fe146b36a3657bd99f9c179","D2","batch4","","1787","tol_toboard","","","","tol_peg_2","1787","1787","0","[[2,0,0],[1,3],[0]]","8","[[2,0,0],[1,3],[0]]","10","0","","","","","","6","","","","","","","","",""
"","","","","","poldrack-single-stim","172","604890","0.0-2.0-41.0","5fe146b36a3657bd99f9c179","D2","batch4","","-1","tol_feedback","","","true","","1000","1000","500","","","","","","-1","none","true","10162","25209","","","","","","","","","",""
"","","","","","html-button-response","173","606402","0.0-2.0-42.0","5fe146b36a3657bd99f9c179","D2","batch4","","1510.4000000000233","tol_trial_num","<div class = centerbox><p class = center-block-text>problem <strong>12</strong> out of 25 problems</p></div>","0","","","","","","","","","","","","","","","","","","","","","","","","",""
"","","","","","single-stim-button","174","632456","0.0-2.0-43.0-0.0","5fe146b36a3657bd99f9c179","D2","batch4","","26050","tol_tohand","","","","tol_peg_1","26050","26050","0","[[1,0,0],[3,0],[0]]","1","[[2,3,0],[0,0],[1]]","11","0","","","","","","4","","","","","","","","",""
"","","","","","single-stim-button","175","634641","0.0-2.0-43.0-1.0","5fe146b36a3657bd99f9c179","D2","batch4","","2180","tol_toboard","","","","tol_peg_3","2180","2180","0","[[1,0,0],[3,0],[2]]","1","[[2,3,0],[0,0],[1]]","11","0","","","","","","4","","","","","","","","",""
"","","","","","single-stim-button","176","636579","0.0-2.0-43.1-0.1","5fe146b36a3657bd99f9c179","D2","batch4","","1936","tol_tohand","","","","tol_peg_1","1936","1936","0","[[0,0,0],[3,0],[2]]","2","[[2,3,0],[0,0],[1]]","11","0","","","","","","4","","","","","","","","",""
"","","","","","single-stim-button","177","638980","0.0-2.0-43.1-1.1","5fe146b36a3657bd99f9c179","D2","batch4","","2398","tol_toboard","","","","tol_peg_2","2398","2398","0","[[0,0,0],[3,1],[2]]","2","[[2,3,0],[0,0],[1]]","11","0","","","","","","4","","","","","","","","",""
"","","","","","single-stim-button","178","640511","0.0-2.0-43.2-0.2","5fe146b36a3657bd99f9c179","D2","batch4","","1528","tol_tohand","","","","tol_peg_3","1528","1528","0","[[0,0,0],[3,1],[0]]","3","[[2,3,0],[0,0],[1]]","11","0","","","","","","4","","","","","","","","",""
"","","","","","single-stim-button","179","642225","0.0-2.0-43.2-1.2","5fe146b36a3657bd99f9c179","D2","batch4","","1711","tol_toboard","","","","tol_peg_1","1711","1711","0","[[2,0,0],[3,1],[0]]","3","[[2,3,0],[0,0],[1]]","11","0","","","","","","4","","","","","","","","",""
"","","","","","single-stim-button","180","643427","0.0-2.0-43.3-0.3","5fe146b36a3657bd99f9c179","D2","batch4","","1200","tol_tohand","","","","tol_peg_2","1200","1200","0","[[2,0,0],[3,0],[0]]","4","[[2,3,0],[0,0],[1]]","11","0","","","","","","4","","","","","","","","",""
"","","","","","single-stim-button","181","645297","0.0-2.0-43.3-1.3","5fe146b36a3657bd99f9c179","D2","batch4","","1868","tol_toboard","","","","tol_peg_3","1868","1868","0","[[2,0,0],[3,0],[1]]","4","[[2,3,0],[0,0],[1]]","11","0","","","","","","4","","","","","","","","",""
"","","","","","single-stim-button","182","646345","0.0-2.0-43.4-0.4","5fe146b36a3657bd99f9c179","D2","batch4","","1045","tol_tohand","","","","tol_peg_2","1045","1045","0","[[2,0,0],[0,0],[1]]","5","[[2,3,0],[0,0],[1]]","11","0","","","","","","4","","","","","","","","",""
"","","","","","single-stim-button","183","647594","0.0-2.0-43.4-1.4","5fe146b36a3657bd99f9c179","D2","batch4","","1246","tol_toboard","","","","tol_peg_1","1246","1246","0","[[2,3,0],[0,0],[1]]","5","[[2,3,0],[0,0],[1]]","11","0","","","","","","4","","","","","","","","",""
"","","","","","poldrack-single-stim","184","648605","0.0-2.0-44.0","5fe146b36a3657bd99f9c179","D2","batch4","","-1","tol_feedback","","","true","","1000","1000","500","","","","","","-1","none","true","26050","31759","","","","","","","","","",""
"","","","","","html-button-response","185","649835","0.0-2.0-45.0","5fe146b36a3657bd99f9c179","D2","batch4","","1229.5","tol_trial_num","<div class = centerbox><p class = center-block-text>problem <strong>13</strong> out of 25 problems</p></div>","0","","","","","","","","","","","","","","","","","","","","","","","","",""
"","","","","","single-stim-button","186","655695","0.0-2.0-46.0-0.0","5fe146b36a3657bd99f9c179","D2","batch4","","5858","tol_tohand","","","","tol_peg_1","5858","5858","0","[[1,0,0],[3,0],[0]]","1","[[0,0,0],[2,3],[1]]","12","0","","","","","","4","","","","","","","","",""
"","","","","","single-stim-button","187","677253","0.0-2.0-46.0-1.0","5fe146b36a3657bd99f9c179","D2","batch4","","21555","tol_toboard","","","","tol_peg_2","21555","21555","0","[[1,0,0],[3,2],[0]]","1","[[0,0,0],[2,3],[1]]","12","0","","","","","","4","","","","","","","","",""
"","","","","","single-stim-button","188","678470","0.0-2.0-46.1-0.1","5fe146b36a3657bd99f9c179","D2","batch4","","1214","tol_tohand","","","","tol_peg_1","1214","1214","0","[[0,0,0],[3,2],[0]]","2","[[0,0,0],[2,3],[1]]","12","0","","","","","","4","","","","","","","","",""
"","","","","","single-stim-button","189","680002","0.0-2.0-46.1-1.1","5fe146b36a3657bd99f9c179","D2","batch4","","1530","tol_toboard","","","","tol_peg_3","1530","1530","0","[[0,0,0],[3,2],[1]]","2","[[0,0,0],[2,3],[1]]","12","0","","","","","","4","","","","","","","","",""
"","","","","","single-stim-button","190","681271","0.0-2.0-46.2-0.2","5fe146b36a3657bd99f9c179","D2","batch4","","1266","tol_tohand","","","","tol_peg_2","1266","1266","0","[[0,0,0],[3,0],[1]]","3","[[0,0,0],[2,3],[1]]","12","0","","","","","","4","","","","","","","","",""
"","","","","","single-stim-button","191","690373","0.0-2.0-46.2-1.2","5fe146b36a3657bd99f9c179","D2","batch4","","9100","tol_toboard","","","","tol_peg_1","9100","9100","0","[[2,0,0],[3,0],[1]]","3","[[0,0,0],[2,3],[1]]","12","0","","","","","","4","","","","","","","","",""
"","","","","","single-stim-button","192","693433","0.0-2.0-46.3-0.3","5fe146b36a3657bd99f9c179","D2","batch4","","3057","tol_tohand","","","","tol_peg_3","3057","3057","0","[[2,0,0],[3,0],[0]]","4","[[0,0,0],[2,3],[1]]","12","0","","","","","","4","","","","","","","","",""
"","","","","","single-stim-button","193","701188","0.0-2.0-46.3-1.3","5fe146b36a3657bd99f9c179","D2","batch4","","7752","tol_toboard","","","","tol_peg_2","7752","7752","0","[[2,0,0],[3,1],[0]]","4","[[0,0,0],[2,3],[1]]","12","0","","","","","","4","","","","","","","","",""
"","","","","","single-stim-button","194","705240","0.0-2.0-46.4-0.4","5fe146b36a3657bd99f9c179","D2","batch4","","4050","tol_tohand","","","","tol_peg_1","4050","4050","0","[[0,0,0],[3,1],[0]]","5","[[0,0,0],[2,3],[1]]","12","0","","","","","","4","","","","","","","","",""
"","","","","","single-stim-button","195","707108","0.0-2.0-46.4-1.4","5fe146b36a3657bd99f9c179","D2","batch4","","1865","tol_toboard","","","","tol_peg_3","1865","1865","0","[[0,0,0],[3,1],[2]]","5","[[0,0,0],[2,3],[1]]","12","0","","","","","","4","","","","","","","","",""
"","","","","","single-stim-button","196","715054","0.0-2.0-46.5-0.5","5fe146b36a3657bd99f9c179","D2","batch4","","7942","tol_tohand","","","","tol_peg_2","7942","7942","0","[[0,0,0],[3,0],[2]]","6","[[0,0,0],[2,3],[1]]","12","0","","","","","","4","","","","","","","","",""
"","","","","","single-stim-button","197","716443","0.0-2.0-46.5-1.5","5fe146b36a3657bd99f9c179","D2","batch4","","1387","tol_toboard","","","","tol_peg_1","1387","1387","0","[[1,0,0],[3,0],[2]]","6","[[0,0,0],[2,3],[1]]","12","0","","","","","","4","","","","","","","","",""
"","","","","","single-stim-button","198","717777","0.0-2.0-46.6-0.6","5fe146b36a3657bd99f9c179","D2","batch4","","1332","tol_tohand","","","","tol_peg_2","1332","1332","0","[[1,0,0],[0,0],[2]]","7","[[0,0,0],[2,3],[1]]","12","0","","","","","","4","","","","","","","","",""
"","","","","","single-stim-button","199","719106","0.0-2.0-46.6-1.6","5fe146b36a3657bd99f9c179","D2","batch4","","1327","tol_toboard","","","","tol_peg_1","1327","1327","0","[[1,3,0],[0,0],[2]]","7","[[0,0,0],[2,3],[1]]","12","0","","","","","","4","","","","","","","","",""
"","","","","","single-stim-button","200","720604","0.0-2.0-46.7-0.7","5fe146b36a3657bd99f9c179","D2","batch4","","1496","tol_tohand","","","","tol_peg_3","1496","1496","0","[[1,3,0],[0,0],[0]]","8","[[0,0,0],[2,3],[1]]","12","0","","","","","","4","","","","","","","","",""
"","","","","","single-stim-button","201","721944","0.0-2.0-46.7-1.7","5fe146b36a3657bd99f9c179","D2","batch4","","1337","tol_toboard","","","","tol_peg_2","1337","1337","0","[[1,3,0],[2,0],[0]]","8","[[0,0,0],[2,3],[1]]","12","0","","","","","","4","","","","","","","","",""
"","","","","","single-stim-button","202","723019","0.0-2.0-46.8-0.8","5fe146b36a3657bd99f9c179","D2","batch4","","1070","tol_tohand","","","","tol_peg_1","1070","1070","0","[[1,0,0],[2,0],[0]]","9","[[0,0,0],[2,3],[1]]","12","0","","","","","","4","","","","","","","","",""
"","","","","","single-stim-button","203","724259","0.0-2.0-46.8-1.8","5fe146b36a3657bd99f9c179","D2","batch4","","1238","tol_toboard","","","","tol_peg_2","1238","1238","0","[[1,0,0],[2,3],[0]]","9","[[0,0,0],[2,3],[1]]","12","0","","","","","","4","","","","","","","","",""
"","","","","","single-stim-button","204","725326","0.0-2.0-46.9-0.9","5fe146b36a3657bd99f9c179","D2","batch4","","1064","tol_tohand","","","","tol_peg_1","1064","1064","0","[[0,0,0],[2,3],[0]]","10","[[0,0,0],[2,3],[1]]","12","0","","","","","","4","","","","","","","","",""
"","","","","","single-stim-button","205","726770","0.0-2.0-46.9-1.9","5fe146b36a3657bd99f9c179","D2","batch4","","1442","tol_toboard","","","","tol_peg_3","1442","1442","0","[[0,0,0],[2,3],[1]]","10","[[0,0,0],[2,3],[1]]","12","0","","","","","","4","","","","","","","","",""
"","","","","","poldrack-single-stim","206","727781","0.0-2.0-47.0","5fe146b36a3657bd99f9c179","D2","batch4","","-1","tol_feedback","","","true","","1000","1000","500","","","","","","-1","none","true","5858","28349","","","","","","","","","",""
"","","","","","html-button-response","207","730520","0.0-2.0-48.0","5fe146b36a3657bd99f9c179","D2","batch4","","2736.3000000000466","attention_check","<p class = block-text>How many balls are in your board<br></p>","1","true","","","","","","","","","","","","","","","","","","","","","","","",""
"","","","","","html-button-response","208","732178","0.0-2.0-49.0","5fe146b36a3657bd99f9c179","D2","batch4","","1654.5","tol_trial_num","<div class = centerbox><p class = center-block-text>problem <strong>14</strong> out of 25 problems</p></div>","0","","","","","","","","","","","","","","","","","","","","","","","","",""
"","","","","","single-stim-button","209","738662","0.0-2.0-50.0-0.0","5fe146b36a3657bd99f9c179","D2","batch4","","6482","tol_tohand","","","","tol_peg_1","6482","6482","0","[[2,0,0],[3,0],[0]]","1","[[1,2,0],[3,0],[0]]","13","0","","","","","","4","","","","","","","","",""
"","","","","","single-stim-button","210","740162","0.0-2.0-50.0-1.0","5fe146b36a3657bd99f9c179","D2","batch4","","1498","tol_toboard","","","","tol_peg_3","1498","1498","0","[[2,0,0],[3,0],[1]]","1","[[1,2,0],[3,0],[0]]","13","0","","","","","","4","","","","","","","","",""
"","","","","","single-stim-button","211","741439","0.0-2.0-50.1-0.1","5fe146b36a3657bd99f9c179","D2","batch4","","1275","tol_tohand","","","","tol_peg_1","1275","1275","0","[[0,0,0],[3,0],[1]]","2","[[1,2,0],[3,0],[0]]","13","0","","","","","","4","","","","","","","","",""
"","","","","","single-stim-button","212","743308","0.0-2.0-50.1-1.1","5fe146b36a3657bd99f9c179","D2","batch4","","1867","tol_toboard","","","","tol_peg_2","1867","1867","0","[[0,0,0],[3,2],[1]]","2","[[1,2,0],[3,0],[0]]","13","0","","","","","","4","","","","","","","","",""
"","","","","","single-stim-button","213","746037","0.0-2.0-50.2-0.2","5fe146b36a3657bd99f9c179","D2","batch4","","2726","tol_tohand","","","","tol_peg_3","2726","2726","0","[[0,0,0],[3,2],[0]]","3","[[1,2,0],[3,0],[0]]","13","0","","","","","","4","","","","","","","","",""
"","","","","","single-stim-button","214","747696","0.0-2.0-50.2-1.2","5fe146b36a3657bd99f9c179","D2","batch4","","1656","tol_toboard","","","","tol_peg_1","1656","1656","0","[[1,0,0],[3,2],[0]]","3","[[1,2,0],[3,0],[0]]","13","0","","","","","","4","","","","","","","","",""
"","","","","","single-stim-button","215","749125","0.0-2.0-50.3-0.3","5fe146b36a3657bd99f9c179","D2","batch4","","1426","tol_tohand","","","","tol_peg_2","1426","1426","0","[[1,0,0],[3,0],[0]]","4","[[1,2,0],[3,0],[0]]","13","0","","","","","","4","","","","","","","","",""
"","","","","","single-stim-button","216","750324","0.0-2.0-50.3-1.3","5fe146b36a3657bd99f9c179","D2","batch4","","1197","tol_toboard","","","","tol_peg_1","1197","1197","0","[[1,2,0],[3,0],[0]]","4","[[1,2,0],[3,0],[0]]","13","0","","","","","","4","","","","","","","","",""
"","","","","","poldrack-single-stim","217","751342","0.0-2.0-51.0","5fe146b36a3657bd99f9c179","D2","batch4","","-1","tol_feedback","","","true","","1000","1000","500","","","","","","-1","none","true","6482","11909","","","","","","","","","",""
"","","","","","html-button-response","218","752898","0.0-2.0-52.0","5fe146b36a3657bd99f9c179","D2","batch4","","1553.1000000000931","tol_trial_num","<div class = centerbox><p class = center-block-text>problem <strong>15</strong> out of 25 problems</p></div>","0","","","","","","","","","","","","","","","","","","","","","","","","",""
"","","","","","single-stim-button","219","757210","0.0-2.0-53.0-0.0","5fe146b36a3657bd99f9c179","D2","batch4","","4309","tol_tohand","","","","tol_peg_1","4309","4309","0","[[1,0,0],[3,0],[0]]","1","[[2,0,0],[3,0],[1]]","14","0","","","","","","3","","","","","","","","",""
"","","","","","single-stim-button","220","758493","0.0-2.0-53.0-1.0","5fe146b36a3657bd99f9c179","D2","batch4","","1279","tol_toboard","","","","tol_peg_2","1279","1279","0","[[1,0,0],[3,2],[0]]","1","[[2,0,0],[3,0],[1]]","14","0","","","","","","3","","","","","","","","",""
"","","","","","single-stim-button","221","759570","0.0-2.0-53.1-0.1","5fe146b36a3657bd99f9c179","D2","batch4","","1075","tol_tohand","","","","tol_peg_1","1075","1075","0","[[0,0,0],[3,2],[0]]","2","[[2,0,0],[3,0],[1]]","14","0","","","","","","3","","","","","","","","",""
"","","","","","single-stim-button","222","761193","0.0-2.0-53.1-1.1","5fe146b36a3657bd99f9c179","D2","batch4","","1620","tol_toboard","","","","tol_peg_3","1620","1620","0","[[0,0,0],[3,2],[1]]","2","[[2,0,0],[3,0],[1]]","14","0","","","","","","3","","","","","","","","",""
"","","","","","single-stim-button","223","762462","0.0-2.0-53.2-0.2","5fe146b36a3657bd99f9c179","D2","batch4","","1267","tol_tohand","","","","tol_peg_2","1267","1267","0","[[0,0,0],[3,0],[1]]","3","[[2,0,0],[3,0],[1]]","14","0","","","","","","3","","","","","","","","",""
"","","","","","single-stim-button","224","763882","0.0-2.0-53.2-1.2","5fe146b36a3657bd99f9c179","D2","batch4","","1417","tol_toboard","","","","tol_peg_1","1417","1417","0","[[2,0,0],[3,0],[1]]","3","[[2,0,0],[3,0],[1]]","14","0","","","","","","3","","","","","","","","",""
"","","","","","poldrack-single-stim","225","764897","0.0-2.0-54.0","5fe146b36a3657bd99f9c179","D2","batch4","","-1","tol_feedback","","","true","","1000","1000","500","","","","","","-1","none","true","4309","6651","","","","","","","","","",""
"","","","","","html-button-response","226","766273","0.0-2.0-55.0","5fe146b36a3657bd99f9c179","D2","batch4","","1374.0999999998603","tol_trial_num","<div class = centerbox><p class = center-block-text>problem <strong>16</strong> out of 25 problems</p></div>","0","","","","","","","","","","","","","","","","","","","","","","","","",""
"","","","","","single-stim-button","227","797415","0.0-2.0-56.0-0.0","5fe146b36a3657bd99f9c179","D2","batch4","","31138","tol_tohand","","","","tol_peg_3","31138","31138","0","[[0,0,0],[2,3],[0]]","1","[[2,3,0],[1,0],[0]]","15","0","","","","","","7","","","","","","","","",""
"","","","","","single-stim-button","228","799763","0.0-2.0-56.0-1.0","5fe146b36a3657bd99f9c179","D2","batch4","","2346","tol_toboard","","","","tol_peg_1","2346","2346","0","[[1,0,0],[2,3],[0]]","1","[[2,3,0],[1,0],[0]]","15","0","","","","","","7","","","","","","","","",""
"","","","","","single-stim-button","229","803583","0.0-2.0-56.1-0.1","5fe146b36a3657bd99f9c179","D2","batch4","","3818","tol_tohand","","","","tol_peg_2","3818","3818","0","[[1,0,0],[2,0],[0]]","2","[[2,3,0],[1,0],[0]]","15","0","","","","","","7","","","","","","","","",""
"","","","","","single-stim-button","230","805066","0.0-2.0-56.1-1.1","5fe146b36a3657bd99f9c179","D2","batch4","","1480","tol_toboard","","","","tol_peg_3","1480","1480","0","[[1,0,0],[2,0],[3]]","2","[[2,3,0],[1,0],[0]]","15","0","","","","","","7","","","","","","","","",""
"","","","","","single-stim-button","231","808553","0.0-2.0-56.2-0.2","5fe146b36a3657bd99f9c179","D2","batch4","","3485","tol_tohand","","","","tol_peg_2","3485","3485","0","[[1,0,0],[0,0],[3]]","3","[[2,3,0],[1,0],[0]]","15","0","","","","","","7","","","","","","","","",""
"","","","","","single-stim-button","232","810750","0.0-2.0-56.2-1.2","5fe146b36a3657bd99f9c179","D2","batch4","","2194","tol_toboard","","","","tol_peg_2","2194","2194","0","[[1,0,0],[2,0],[3]]","3","[[2,3,0],[1,0],[0]]","15","0","","","","","","7","","","","","","","","",""
"","","","","","single-stim-button","233","812068","0.0-2.0-56.3-0.3","5fe146b36a3657bd99f9c179","D2","batch4","","1316","tol_tohand","","","","tol_peg_1","1316","1316","0","[[0,0,0],[2,0],[3]]","4","[[2,3,0],[1,0],[0]]","15","0","","","","","","7","","","","","","","","",""
"","","","","","single-stim-button","234","814876","0.0-2.0-56.3-1.3","5fe146b36a3657bd99f9c179","D2","batch4","","2806","tol_toboard","","","","tol_peg_2","2806","2806","0","[[0,0,0],[2,1],[3]]","4","[[2,3,0],[1,0],[0]]","15","0","","","","","","7","","","","","","","","",""
"","","","","","single-stim-button","235","816394","0.0-2.0-56.4-0.4","5fe146b36a3657bd99f9c179","D2","batch4","","1515","tol_tohand","","","","tol_peg_3","1515","1515","0","[[0,0,0],[2,1],[0]]","5","[[2,3,0],[1,0],[0]]","15","0","","","","","","7","","","","","","","","",""
"","","","","","single-stim-button","236","817847","0.0-2.0-56.4-1.4","5fe146b36a3657bd99f9c179","D2","batch4","","1451","tol_toboard","","","","tol_peg_1","1451","1451","0","[[3,0,0],[2,1],[0]]","5","[[2,3,0],[1,0],[0]]","15","0","","","","","","7","","","","","","","","",""
"","","","","","single-stim-button","237","818921","0.0-2.0-56.5-0.5","5fe146b36a3657bd99f9c179","D2","batch4","","1070","tol_tohand","","","","tol_peg_2","1070","1070","0","[[3,0,0],[2,0],[0]]","6","[[2,3,0],[1,0],[0]]","15","0","","","","","","7","","","","","","","","",""
"","","","","","single-stim-button","238","820018","0.0-2.0-56.5-1.5","5fe146b36a3657bd99f9c179","D2","batch4","","1095","tol_toboard","","","","tol_peg_3","1095","1095","0","[[3,0,0],[2,0],[1]]","6","[[2,3,0],[1,0],[0]]","15","0","","","","","","7","","","","","","","","",""
"","","","","","single-stim-button","239","842835","0.0-2.0-56.6-0.6","5fe146b36a3657bd99f9c179","D2","batch4","","22816","tol_tohand","","","","tol_peg_3","22816","22816","0","[[3,0,0],[2,0],[0]]","7","[[2,3,0],[1,0],[0]]","15","0","","","","","","7","","","","","","","","",""
"","","","","","single-stim-button","240","845128","0.0-2.0-56.6-1.6","5fe146b36a3657bd99f9c179","D2","batch4","","2291","tol_toboard","","","","tol_peg_2","2291","2291","0","[[3,0,0],[2,1],[0]]","7","[[2,3,0],[1,0],[0]]","15","0","","","","","","7","","","","","","","","",""
"","","","","","single-stim-button","241","856797","0.0-2.0-56.7-0.7","5fe146b36a3657bd99f9c179","D2","batch4","","11667","tol_tohand","","","","tol_peg_2","11667","11667","0","[[3,0,0],[2,0],[0]]","8","[[2,3,0],[1,0],[0]]","15","0","","","","","","7","","","","","","","","",""
"","","","","","single-stim-button","242","858215","0.0-2.0-56.7-1.7","5fe146b36a3657bd99f9c179","D2","batch4","","1415","tol_toboard","","","","tol_peg_1","1415","1415","0","[[3,1,0],[2,0],[0]]","8","[[2,3,0],[1,0],[0]]","15","0","","","","","","7","","","","","","","","",""
"","","","","","single-stim-button","243","859934","0.0-2.0-56.8-0.8","5fe146b36a3657bd99f9c179","D2","batch4","","1715","tol_tohand","","","","tol_peg_2","1715","1715","0","[[3,1,0],[0,0],[0]]","9","[[2,3,0],[1,0],[0]]","15","0","","","","","","7","","","","","","","","",""
"","","","","","single-stim-button","244","861696","0.0-2.0-56.8-1.8","5fe146b36a3657bd99f9c179","D2","batch4","","1760","tol_toboard","","","","tol_peg_3","1760","1760","0","[[3,1,0],[0,0],[2]]","9","[[2,3,0],[1,0],[0]]","15","0","","","","","","7","","","","","","","","",""
"","","","","","single-stim-button","245","863702","0.0-2.0-56.9-0.9","5fe146b36a3657bd99f9c179","D2","batch4","","2003","tol_tohand","","","","tol_peg_1","2003","2003","0","[[3,0,0],[0,0],[2]]","10","[[2,3,0],[1,0],[0]]","15","0","","","","","","7","","","","","","","","",""
"","","","","","single-stim-button","246","864837","0.0-2.0-56.9-1.9","5fe146b36a3657bd99f9c179","D2","batch4","","1133","tol_toboard","","","","tol_peg_2","1133","1133","0","[[3,0,0],[1,0],[2]]","10","[[2,3,0],[1,0],[0]]","15","0","","","","","","7","","","","","","","","",""
"","","","","","single-stim-button","247","866052","0.0-2.0-56.10-0.10","5fe146b36a3657bd99f9c179","D2","batch4","","1213","tol_tohand","","","","tol_peg_1","1213","1213","0","[[0,0,0],[1,0],[2]]","11","[[2,3,0],[1,0],[0]]","15","0","","","","","","7","","","","","","","","",""
"","","","","","single-stim-button","248","867439","0.0-2.0-56.10-1.10","5fe146b36a3657bd99f9c179","D2","batch4","","1384","tol_toboard","","","","tol_peg_2","1384","1384","0","[[0,0,0],[1,3],[2]]","11","[[2,3,0],[1,0],[0]]","15","0","","","","","","7","","","","","","","","",""
"","","","","","single-stim-button","249","868665","0.0-2.0-56.11-0.11","5fe146b36a3657bd99f9c179","D2","batch4","","1224","tol_tohand","","","","tol_peg_3","1224","1224","0","[[0,0,0],[1,3],[0]]","12","[[2,3,0],[1,0],[0]]","15","0","","","","","","7","","","","","","","","",""
"","","","","","single-stim-button","250","870121","0.0-2.0-56.11-1.11","5fe146b36a3657bd99f9c179","D2","batch4","","1454","tol_toboard","","","","tol_peg_1","1454","1454","0","[[2,0,0],[1,3],[0]]","12","[[2,3,0],[1,0],[0]]","15","0","","","","","","7","","","","","","","","",""
"","","","","","single-stim-button","251","871502","0.0-2.0-56.12-0.12","5fe146b36a3657bd99f9c179","D2","batch4","","1378","tol_tohand","","","","tol_peg_2","1378","1378","0","[[2,0,0],[1,0],[0]]","13","[[2,3,0],[1,0],[0]]","15","0","","","","","","7","","","","","","","","",""
"","","","","","single-stim-button","252","872865","0.0-2.0-56.12-1.12","5fe146b36a3657bd99f9c179","D2","batch4","","1361","tol_toboard","","","","tol_peg_1","1361","1361","0","[[2,3,0],[1,0],[0]]","13","[[2,3,0],[1,0],[0]]","15","0","","","","","","7","","","","","","","","",""
"","","","","","poldrack-single-stim","253","873872","0.0-2.0-57.0","5fe146b36a3657bd99f9c179","D2","batch4","","-1","tol_feedback","","","true","","1000","1000","500","","","","","","-1","none","true","31138","84358","","","","","","","","","",""
"","","","","","html-button-response","254","875081","0.0-2.0-58.0","5fe146b36a3657bd99f9c179","D2","batch4","","1206.2999999998137","tol_trial_num","<div class = centerbox><p class = center-block-text>problem <strong>17</strong> out of 25 problems</p></div>","0","","","","","","","","","","","","","","","","","","","","","","","","",""
"","","","","","single-stim-button","255","884586","0.0-2.0-59.0-0.0","5fe146b36a3657bd99f9c179","D2","batch4","","9502","tol_tohand","","","","tol_peg_2","9502","9502","0","[[1,2,0],[0,0],[0]]","1","[[3,1,0],[2,0],[0]]","16","0","","","","","","5","","","","","","","","",""
"","","","","","single-stim-button","256","886118","0.0-2.0-59.0-1.0","5fe146b36a3657bd99f9c179","D2","batch4","","1528","tol_toboard","","","","tol_peg_3","1528","1528","0","[[1,2,0],[0,0],[3]]","1","[[3,1,0],[2,0],[0]]","16","0","","","","","","5","","","","","","","","",""
"","","","","","single-stim-button","257","890581","0.0-2.0-59.1-0.1","5fe146b36a3657bd99f9c179","D2","batch4","","4460","tol_tohand","","","","tol_peg_1","4460","4460","0","[[1,0,0],[0,0],[3]]","2","[[3,1,0],[2,0],[0]]","16","0","","","","","","5","","","","","","","","",""
"","","","","","single-stim-button","258","891035","0.0-2.0-59.1-1.1","5fe146b36a3657bd99f9c179","D2","batch4","","452","tol_toboard","","","","tol_peg_1","452","452","0","[[1,2,0],[0,0],[3]]","2","[[3,1,0],[2,0],[0]]","16","0","","","","","","5","","","","","","","","",""
"","","","","","single-stim-button","259","892239","0.0-2.0-59.2-0.2","5fe146b36a3657bd99f9c179","D2","batch4","","1201","tol_tohand","","","","tol_peg_1","1201","1201","0","[[1,0,0],[0,0],[3]]","3","[[3,1,0],[2,0],[0]]","16","0","","","","","","5","","","","","","","","",""
"","","","","","single-stim-button","260","893741","0.0-2.0-59.2-1.2","5fe146b36a3657bd99f9c179","D2","batch4","","1500","tol_toboard","","","","tol_peg_2","1500","1500","0","[[1,0,0],[2,0],[3]]","3","[[3,1,0],[2,0],[0]]","16","0","","","","","","5","","","","","","","","",""
"","","","","","single-stim-button","261","894856","0.0-2.0-59.3-0.3","5fe146b36a3657bd99f9c179","D2","batch4","","1113","tol_tohand","","","","tol_peg_1","1113","1113","0","[[0,0,0],[2,0],[3]]","4","[[3,1,0],[2,0],[0]]","16","0","","","","","","5","","","","","","","","",""
"","","","","","single-stim-button","262","896502","0.0-2.0-59.3-1.3","5fe146b36a3657bd99f9c179","D2","batch4","","1643","tol_toboard","","","","tol_peg_2","1643","1643","0","[[0,0,0],[2,1],[3]]","4","[[3,1,0],[2,0],[0]]","16","0","","","","","","5","","","","","","","","",""
"","","","","","single-stim-button","263","897573","0.0-2.0-59.4-0.4","5fe146b36a3657bd99f9c179","D2","batch4","","1069","tol_tohand","","","","tol_peg_3","1069","1069","0","[[0,0,0],[2,1],[0]]","5","[[3,1,0],[2,0],[0]]","16","0","","","","","","5","","","","","","","","",""
"","","","","","single-stim-button","264","899107","0.0-2.0-59.4-1.4","5fe146b36a3657bd99f9c179","D2","batch4","","1532","tol_toboard","","","","tol_peg_1","1532","1532","0","[[3,0,0],[2,1],[0]]","5","[[3,1,0],[2,0],[0]]","16","0","","","","","","5","","","","","","","","",""
"","","","","","single-stim-button","265","900387","0.0-2.0-59.5-0.5","5fe146b36a3657bd99f9c179","D2","batch4","","1278","tol_tohand","","","","tol_peg_2","1278","1278","0","[[3,0,0],[2,0],[0]]","6","[[3,1,0],[2,0],[0]]","16","0","","","","","","5","","","","","","","","",""
"","","","","","single-stim-button","266","901683","0.0-2.0-59.5-1.5","5fe146b36a3657bd99f9c179","D2","batch4","","1294","tol_toboard","","","","tol_peg_1","1294","1294","0","[[3,1,0],[2,0],[0]]","6","[[3,1,0],[2,0],[0]]","16","0","","","","","","5","","","","","","","","",""
"","","","","","poldrack-single-stim","267","902701","0.0-2.0-60.0","5fe146b36a3657bd99f9c179","D2","batch4","","-1","tol_feedback","","","true","","1000","1000","500","","","","","","-1","none","true","9502","18623","","","","","","","","","",""
"","","","","","html-button-response","268","904298","0.0-2.0-61.0","5fe146b36a3657bd99f9c179","D2","batch4","","1594.1000000000931","tol_trial_num","<div class = centerbox><p class = center-block-text>problem <strong>18</strong> out of 25 problems</p></div>","0","","","","","","","","","","","","","","","","","","","","","","","","",""
"","","","","","single-stim-button","269","911026","0.0-2.0-62.0-0.0","5fe146b36a3657bd99f9c179","D2","batch4","","6724","tol_tohand","","","","tol_peg_1","6724","6724","0","[[1,0,0],[3,0],[0]]","1","[[3,0,0],[2,0],[1]]","17","0","","","","","","5","","","","","","","","",""
"","","","","","single-stim-button","270","912769","0.0-2.0-62.0-1.0","5fe146b36a3657bd99f9c179","D2","batch4","","1741","tol_toboard","","","","tol_peg_2","1741","1741","0","[[1,0,0],[3,2],[0]]","1","[[3,0,0],[2,0],[1]]","17","0","","","","","","5","","","","","","","","",""
"","","","","","single-stim-button","271","914117","0.0-2.0-62.1-0.1","5fe146b36a3657bd99f9c179","D2","batch4","","1344","tol_tohand","","","","tol_peg_1","1344","1344","0","[[0,0,0],[3,2],[0]]","2","[[3,0,0],[2,0],[1]]","17","0","","","","","","5","","","","","","","","",""
"","","","","","single-stim-button","272","915655","0.0-2.0-62.1-1.1","5fe146b36a3657bd99f9c179","D2","batch4","","1536","tol_toboard","","","","tol_peg_3","1536","1536","0","[[0,0,0],[3,2],[1]]","2","[[3,0,0],[2,0],[1]]","17","0","","","","","","5","","","","","","","","",""
"","","","","","single-stim-button","273","937146","0.0-2.0-62.2-0.2","5fe146b36a3657bd99f9c179","D2","batch4","","21489","tol_tohand","","","","tol_peg_3","21489","21489","0","[[0,0,0],[3,2],[0]]","3","[[3,0,0],[2,0],[1]]","17","0","","","","","","5","","","","","","","","",""
"","","","","","single-stim-button","274","938809","0.0-2.0-62.2-1.2","5fe146b36a3657bd99f9c179","D2","batch4","","1660","tol_toboard","","","","tol_peg_1","1660","1660","0","[[1,0,0],[3,2],[0]]","3","[[3,0,0],[2,0],[1]]","17","0","","","","","","5","","","","","","","","",""
"","","","","","single-stim-button","275","940457","0.0-2.0-62.3-0.3","5fe146b36a3657bd99f9c179","D2","batch4","","1646","tol_tohand","","","","tol_peg_2","1646","1646","0","[[1,0,0],[3,0],[0]]","4","[[3,0,0],[2,0],[1]]","17","0","","","","","","5","","","","","","","","",""
"","","","","","single-stim-button","276","942602","0.0-2.0-62.3-1.3","5fe146b36a3657bd99f9c179","D2","batch4","","2143","tol_toboard","","","","tol_peg_3","2143","2143","0","[[1,0,0],[3,0],[2]]","4","[[3,0,0],[2,0],[1]]","17","0","","","","","","5","","","","","","","","",""
"","","","","","single-stim-button","277","968581","0.0-2.0-62.4-0.4","5fe146b36a3657bd99f9c179","D2","batch4","","25976","tol_tohand","","","","tol_peg_1","25976","25976","0","[[0,0,0],[3,0],[2]]","5","[[3,0,0],[2,0],[1]]","17","0","","","","","","5","","","","","","","","",""
"","","","","","single-stim-button","278","970165","0.0-2.0-62.4-1.4","5fe146b36a3657bd99f9c179","D2","batch4","","1581","tol_toboard","","","","tol_peg_2","1581","1581","0","[[0,0,0],[3,1],[2]]","5","[[3,0,0],[2,0],[1]]","17","0","","","","","","5","","","","","","","","",""
"","","","","","single-stim-button","279","971482","0.0-2.0-62.5-0.5","5fe146b36a3657bd99f9c179","D2","batch4","","1314","tol_tohand","","","","tol_peg_2","1314","1314","0","[[0,0,0],[3,0],[2]]","6","[[3,0,0],[2,0],[1]]","17","0","","","","","","5","","","","","","","","",""
"","","","","","single-stim-button","280","972966","0.0-2.0-62.5-1.5","5fe146b36a3657bd99f9c179","D2","batch4","","1482","tol_toboard","","","","tol_peg_1","1482","1482","0","[[1,0,0],[3,0],[2]]","6","[[3,0,0],[2,0],[1]]","17","0","","","","","","5","","","","","","","","",""
"","","","","","single-stim-button","281","981608","0.0-2.0-62.6-0.6","5fe146b36a3657bd99f9c179","D2","batch4","","8641","tol_tohand","","","","tol_peg_2","8641","8641","0","[[1,0,0],[0,0],[2]]","7","[[3,0,0],[2,0],[1]]","17","0","","","","","","5","","","","","","","","",""
"","","","","","single-stim-button","282","983295","0.0-2.0-62.6-1.6","5fe146b36a3657bd99f9c179","D2","batch4","","1685","tol_toboard","","","","tol_peg_1","1685","1685","0","[[1,3,0],[0,0],[2]]","7","[[3,0,0],[2,0],[1]]","17","0","","","","","","5","","","","","","","","",""
"","","","","","single-stim-button","283","984610","0.0-2.0-62.7-0.7","5fe146b36a3657bd99f9c179","D2","batch4","","1312","tol_tohand","","","","tol_peg_3","1312","1312","0","[[1,3,0],[0,0],[0]]","8","[[3,0,0],[2,0],[1]]","17","0","","","","","","5","","","","","","","","",""
"","","","","","single-stim-button","284","985784","0.0-2.0-62.7-1.7","5fe146b36a3657bd99f9c179","D2","batch4","","1172","tol_toboard","","","","tol_peg_2","1172","1172","0","[[1,3,0],[2,0],[0]]","8","[[3,0,0],[2,0],[1]]","17","0","","","","","","5","","","","","","","","",""
"","","","","","single-stim-button","285","988727","0.0-2.0-62.8-0.8","5fe146b36a3657bd99f9c179","D2","batch4","","2941","tol_tohand","","","","tol_peg_1","2941","2941","0","[[1,0,0],[2,0],[0]]","9","[[3,0,0],[2,0],[1]]","17","0","","","","","","5","","","","","","","","",""
"","","","","","single-stim-button","286","990836","0.0-2.0-62.8-1.8","5fe146b36a3657bd99f9c179","D2","batch4","","2107","tol_toboard","","","","tol_peg_3","2107","2107","0","[[1,0,0],[2,0],[3]]","9","[[3,0,0],[2,0],[1]]","17","0","","","","","","5","","","","","","","","",""
"","","","","","single-stim-button","287","992002","0.0-2.0-62.9-0.9","5fe146b36a3657bd99f9c179","D2","batch4","","1163","tol_tohand","","","","tol_peg_1","1163","1163","0","[[0,0,0],[2,0],[3]]","10","[[3,0,0],[2,0],[1]]","17","0","","","","","","5","","","","","","","","",""
"","","","","","single-stim-button","288","993598","0.0-2.0-62.9-1.9","5fe146b36a3657bd99f9c179","D2","batch4","","1594","tol_toboard","","","","tol_peg_2","1594","1594","0","[[0,0,0],[2,1],[3]]","10","[[3,0,0],[2,0],[1]]","17","0","","","","","","5","","","","","","","","",""
"","","","","","single-stim-button","289","994796","0.0-2.0-62.10-0.10","5fe146b36a3657bd99f9c179","D2","batch4","","1196","tol_tohand","","","","tol_peg_3","1196","1196","0","[[0,0,0],[2,1],[0]]","11","[[3,0,0],[2,0],[1]]","17","0","","","","","","5","","","","","","","","",""
"","","","","","single-stim-button","290","996388","0.0-2.0-62.10-1.10","5fe146b36a3657bd99f9c179","D2","batch4","","1590","tol_toboard","","","","tol_peg_1","1590","1590","0","[[3,0,0],[2,1],[0]]","11","[[3,0,0],[2,0],[1]]","17","0","","","","","","5","","","","","","","","",""
"","","","","","single-stim-button","291","997579","0.0-2.0-62.11-0.11","5fe146b36a3657bd99f9c179","D2","batch4","","1188","tol_tohand","","","","tol_peg_2","1188","1188","0","[[3,0,0],[2,0],[0]]","12","[[3,0,0],[2,0],[1]]","17","0","","","","","","5","","","","","","","","",""
"","","","","","single-stim-button","292","998952","0.0-2.0-62.11-1.11","5fe146b36a3657bd99f9c179","D2","batch4","","1370","tol_toboard","","","","tol_peg_3","1370","1370","0","[[3,0,0],[2,0],[1]]","12","[[3,0,0],[2,0],[1]]","17","0","","","","","","5","","","","","","","","",""
"","","","","","poldrack-single-stim","293","999971","0.0-2.0-63.0","5fe146b36a3657bd99f9c179","D2","batch4","","-1","tol_feedback","","","true","","1000","1000","500","","","","","","-1","none","true","6724","74934","","","","","","","","","",""
"","","","","","html-button-response","294","1002194","0.0-2.0-64.0","5fe146b36a3657bd99f9c179","D2","batch4","","2220.8000000000466","tol_trial_num","<div class = centerbox><p class = center-block-text>problem <strong>19</strong> out of 25 problems</p></div>","0","","","","","","","","","","","","","","","","","","","","","","","","",""
"","","","","","single-stim-button","295","1008301","0.0-2.0-65.0-0.0","5fe146b36a3657bd99f9c179","D2","batch4","","6104","tol_tohand","","","","tol_peg_2","6104","6104","0","[[1,2,0],[0,0],[0]]","1","[[0,0,0],[1,2],[3]]","18","0","","","","","","7","","","","","","","","",""
"","","","","","single-stim-button","296","1011168","0.0-2.0-65.0-1.0","5fe146b36a3657bd99f9c179","D2","batch4","","2863","tol_toboard","","","","tol_peg_3","2863","2863","0","[[1,2,0],[0,0],[3]]","1","[[0,0,0],[1,2],[3]]","18","0","","","","","","7","","","","","","","","",""
"","","","","","single-stim-button","297","1023536","0.0-2.0-65.1-0.1","5fe146b36a3657bd99f9c179","D2","batch4","","12366","tol_tohand","","","","tol_peg_1","12366","12366","0","[[1,0,0],[0,0],[3]]","2","[[0,0,0],[1,2],[3]]","18","0","","","","","","7","","","","","","","","",""
"","","","","","single-stim-button","298","1025836","0.0-2.0-65.1-1.1","5fe146b36a3657bd99f9c179","D2","batch4","","2298","tol_toboard","","","","tol_peg_2","2298","2298","0","[[1,0,0],[2,0],[3]]","2","[[0,0,0],[1,2],[3]]","18","0","","","","","","7","","","","","","","","",""
"","","","","","single-stim-button","299","1040804","0.0-2.0-65.2-0.2","5fe146b36a3657bd99f9c179","D2","batch4","","14965","tol_tohand","","","","tol_peg_1","14965","14965","0","[[0,0,0],[2,0],[3]]","3","[[0,0,0],[1,2],[3]]","18","0","","","","","","7","","","","","","","","",""
"","","","","","single-stim-button","300","1044003","0.0-2.0-65.2-1.2","5fe146b36a3657bd99f9c179","D2","batch4","","3196","tol_toboard","","","","tol_peg_2","3196","3196","0","[[0,0,0],[2,1],[3]]","3","[[0,0,0],[1,2],[3]]","18","0","","","","","","7","","","","","","","","",""
"","","","","","single-stim-button","301","1045386","0.0-2.0-65.3-0.3","5fe146b36a3657bd99f9c179","D2","batch4","","1381","tol_tohand","","","","tol_peg_3","1381","1381","0","[[0,0,0],[2,1],[0]]","4","[[0,0,0],[1,2],[3]]","18","0","","","","","","7","","","","","","","","",""
"","","","","","single-stim-button","302","1047172","0.0-2.0-65.3-1.3","5fe146b36a3657bd99f9c179","D2","batch4","","1783","tol_toboard","","","","tol_peg_1","1783","1783","0","[[3,0,0],[2,1],[0]]","4","[[0,0,0],[1,2],[3]]","18","0","","","","","","7","","","","","","","","",""
"","","","","","single-stim-button","303","1050072","0.0-2.0-65.4-0.4","5fe146b36a3657bd99f9c179","D2","batch4","","2898","tol_tohand","","","","tol_peg_2","2898","2898","0","[[3,0,0],[2,0],[0]]","5","[[0,0,0],[1,2],[3]]","18","0","","","","","","7","","","","","","","","",""
"","","","","","single-stim-button","304","1052768","0.0-2.0-65.4-1.4","5fe146b36a3657bd99f9c179","D2","batch4","","2694","tol_toboard","","","","tol_peg_3","2694","2694","0","[[3,0,0],[2,0],[1]]","5","[[0,0,0],[1,2],[3]]","18","0","","","","","","7","","","","","","","","",""
"","","","","","single-stim-button","305","1053998","0.0-2.0-65.5-0.5","5fe146b36a3657bd99f9c179","D2","batch4","","1228","tol_tohand","","","","tol_peg_2","1228","1228","0","[[3,0,0],[0,0],[1]]","6","[[0,0,0],[1,2],[3]]","18","0","","","","","","7","","","","","","","","",""
"","","","","","single-stim-button","306","1055556","0.0-2.0-65.5-1.5","5fe146b36a3657bd99f9c179","D2","batch4","","1556","tol_toboard","","","","tol_peg_1","1556","1556","0","[[3,2,0],[0,0],[1]]","6","[[0,0,0],[1,2],[3]]","18","0","","","","","","7","","","","","","","","",""
"","","","","","single-stim-button","307","1057537","0.0-2.0-65.6-0.6","5fe146b36a3657bd99f9c179","D2","batch4","","1979","tol_tohand","","","","tol_peg_3","1979","1979","0","[[3,2,0],[0,0],[0]]","7","[[0,0,0],[1,2],[3]]","18","0","","","","","","7","","","","","","","","",""
"","","","","","single-stim-button","308","1058758","0.0-2.0-65.6-1.6","5fe146b36a3657bd99f9c179","D2","batch4","","1217","tol_toboard","","","","tol_peg_2","1217","1217","0","[[3,2,0],[1,0],[0]]","7","[[0,0,0],[1,2],[3]]","18","0","","","","","","7","","","","","","","","",""
"","","","","","single-stim-button","309","1059836","0.0-2.0-65.7-0.7","5fe146b36a3657bd99f9c179","D2","batch4","","1076","tol_tohand","","","","tol_peg_1","1076","1076","0","[[3,0,0],[1,0],[0]]","8","[[0,0,0],[1,2],[3]]","18","0","","","","","","7","","","","","","","","",""
"","","","","","single-stim-button","310","1061170","0.0-2.0-65.7-1.7","5fe146b36a3657bd99f9c179","D2","batch4","","1330","tol_toboard","","","","tol_peg_2","1330","1330","0","[[3,0,0],[1,2],[0]]","8","[[0,0,0],[1,2],[3]]","18","0","","","","","","7","","","","","","","","",""
"","","","","","single-stim-button","311","1062399","0.0-2.0-65.8-0.8","5fe146b36a3657bd99f9c179","D2","batch4","","1226","tol_tohand","","","","tol_peg_1","1226","1226","0","[[0,0,0],[1,2],[0]]","9","[[0,0,0],[1,2],[3]]","18","0","","","","","","7","","","","","","","","",""
"","","","","","single-stim-button","312","1063624","0.0-2.0-65.8-1.8","5fe146b36a3657bd99f9c179","D2","batch4","","1222","tol_toboard","","","","tol_peg_3","1222","1222","0","[[0,0,0],[1,2],[3]]","9","[[0,0,0],[1,2],[3]]","18","0","","","","","","7","","","","","","","","",""
"","","","","","poldrack-single-stim","313","1064641","0.0-2.0-66.0","5fe146b36a3657bd99f9c179","D2","batch4","","-1","tol_feedback","","","true","","1000","1000","500","","","","","","-1","none","true","6104","43223","","","","","","","","","",""
"","","","","","html-button-response","314","1066266","0.0-2.0-67.0","5fe146b36a3657bd99f9c179","D2","batch4","","1623.0999999998603","tol_trial_num","<div class = centerbox><p class = center-block-text>problem <strong>20</strong> out of 25 problems</p></div>","0","","","","","","","","","","","","","","","","","","","","","","","","",""
"","","","","","single-stim-button","315","1078774","0.0-2.0-68.0-0.0","5fe146b36a3657bd99f9c179","D2","batch4","","12505","tol_tohand","","","","tol_peg_1","12505","12505","0","[[1,0,0],[3,0],[0]]","1","[[2,1,0],[0,0],[3]]","19","0","","","","","","5","","","","","","","","",""
"","","","","","single-stim-button","316","1080129","0.0-2.0-68.0-1.0","5fe146b36a3657bd99f9c179","D2","batch4","","1352","tol_toboard","","","","tol_peg_2","1352","1352","0","[[1,0,0],[3,2],[0]]","1","[[2,1,0],[0,0],[3]]","19","0","","","","","","5","","","","","","","","",""
"","","","","","single-stim-button","317","1081573","0.0-2.0-68.1-0.1","5fe146b36a3657bd99f9c179","D2","batch4","","1442","tol_tohand","","","","tol_peg_1","1442","1442","0","[[0,0,0],[3,2],[0]]","2","[[2,1,0],[0,0],[3]]","19","0","","","","","","5","","","","","","","","",""
"","","","","","single-stim-button","318","1084520","0.0-2.0-68.1-1.1","5fe146b36a3657bd99f9c179","D2","batch4","","2946","tol_toboard","","","","tol_peg_3","2946","2946","0","[[0,0,0],[3,2],[1]]","2","[[2,1,0],[0,0],[3]]","19","0","","","","","","5","","","","","","","","",""
"","","","","","single-stim-button","319","1085789","0.0-2.0-68.2-0.2","5fe146b36a3657bd99f9c179","D2","batch4","","1269","tol_tohand","","","","tol_peg_2","1269","1269","0","[[0,0,0],[3,0],[1]]","3","[[2,1,0],[0,0],[3]]","19","0","","","","","","5","","","","","","","","",""
"","","","","","single-stim-button","320","1087250","0.0-2.0-68.2-1.2","5fe146b36a3657bd99f9c179","D2","batch4","","1460","tol_toboard","","","","tol_peg_1","1460","1460","0","[[2,0,0],[3,0],[1]]","3","[[2,1,0],[0,0],[3]]","19","0","","","","","","5","","","","","","","","",""
"","","","","","single-stim-button","321","1089842","0.0-2.0-68.3-0.3","5fe146b36a3657bd99f9c179","D2","batch4","","2590","tol_tohand","","","","tol_peg_3","2590","2590","0","[[2,0,0],[3,0],[0]]","4","[[2,1,0],[0,0],[3]]","19","0","","","","","","5","","","","","","","","",""
"","","","","","single-stim-button","322","1092223","0.0-2.0-68.3-1.3","5fe146b36a3657bd99f9c179","D2","batch4","","2372","tol_toboard","","","","tol_peg_1","2372","2372","0","[[2,1,0],[3,0],[0]]","4","[[2,1,0],[0,0],[3]]","19","0","","","","","","5","","","","","","","","",""
"","","","","","single-stim-button","323","1093364","0.0-2.0-68.4-0.4","5fe146b36a3657bd99f9c179","D2","batch4","","1141","tol_tohand","","","","tol_peg_2","1141","1141","0","[[2,1,0],[0,0],[0]]","5","[[2,1,0],[0,0],[3]]","19","0","","","","","","5","","","","","","","","",""
"","","","","","single-stim-button","324","1094580","0.0-2.0-68.4-1.4","5fe146b36a3657bd99f9c179","D2","batch4","","1214","tol_toboard","","","","tol_peg_3","1214","1214","0","[[2,1,0],[0,0],[3]]","5","[[2,1,0],[0,0],[3]]","19","0","","","","","","5","","","","","","","","",""
"","","","","","poldrack-single-stim","325","1095595","0.0-2.0-69.0","5fe146b36a3657bd99f9c179","D2","batch4","","-1","tol_feedback","","","true","","1000","1000","500","","","","","","-1","none","true","12505","18947","","","","","","","","","",""
"","","","","","html-button-response","326","1097217","0.0-2.0-70.0","5fe146b36a3657bd99f9c179","D2","batch4","","1620.5","tol_trial_num","<div class = centerbox><p class = center-block-text>problem <strong>21</strong> out of 25 problems</p></div>","0","","","","","","","","","","","","","","","","","","","","","","","","",""
"","","","","","single-stim-button","327","1114459","0.0-2.0-71.0-0.0","5fe146b36a3657bd99f9c179","D2","batch4","","17240","tol_tohand","","","","tol_peg_2","17240","17240","0","[[1,2,0],[0,0],[0]]","1","[[3,2,0],[0,0],[1]]","20","0","","","","","","6","","","","","","","","",""
"","","","","","single-stim-button","328","1116037","0.0-2.0-71.0-1.0","5fe146b36a3657bd99f9c179","D2","batch4","","1576","tol_toboard","","","","tol_peg_3","1576","1576","0","[[1,2,0],[0,0],[3]]","1","[[3,2,0],[0,0],[1]]","20","0","","","","","","6","","","","","","","","",""
"","","","","","single-stim-button","329","1123462","0.0-2.0-71.1-0.1","5fe146b36a3657bd99f9c179","D2","batch4","","7423","tol_tohand","","","","tol_peg_1","7423","7423","0","[[1,0,0],[0,0],[3]]","2","[[3,2,0],[0,0],[1]]","20","0","","","","","","6","","","","","","","","",""
"","","","","","single-stim-button","330","1124922","0.0-2.0-71.1-1.1","5fe146b36a3657bd99f9c179","D2","batch4","","1457","tol_toboard","","","","tol_peg_2","1457","1457","0","[[1,0,0],[2,0],[3]]","2","[[3,2,0],[0,0],[1]]","20","0","","","","","","6","","","","","","","","",""
"","","","","","single-stim-button","331","1126824","0.0-2.0-71.2-0.2","5fe146b36a3657bd99f9c179","D2","batch4","","1900","tol_tohand","","","","tol_peg_1","1900","1900","0","[[0,0,0],[2,0],[3]]","3","[[3,2,0],[0,0],[1]]","20","0","","","","","","6","","","","","","","","",""
"","","","","","single-stim-button","332","1128480","0.0-2.0-71.2-1.2","5fe146b36a3657bd99f9c179","D2","batch4","","1654","tol_toboard","","","","tol_peg_2","1654","1654","0","[[0,0,0],[2,1],[3]]","3","[[3,2,0],[0,0],[1]]","20","0","","","","","","6","","","","","","","","",""
"","","","","","single-stim-button","333","1129765","0.0-2.0-71.3-0.3","5fe146b36a3657bd99f9c179","D2","batch4","","1281","tol_tohand","","","","tol_peg_3","1281","1281","0","[[0,0,0],[2,1],[0]]","4","[[3,2,0],[0,0],[1]]","20","0","","","","","","6","","","","","","","","",""
"","","","","","single-stim-button","334","1131357","0.0-2.0-71.3-1.3","5fe146b36a3657bd99f9c179","D2","batch4","","1590","tol_toboard","","","","tol_peg_1","1590","1590","0","[[3,0,0],[2,1],[0]]","4","[[3,2,0],[0,0],[1]]","20","0","","","","","","6","","","","","","","","",""
"","","","","","single-stim-button","335","1132796","0.0-2.0-71.4-0.4","5fe146b36a3657bd99f9c179","D2","batch4","","1437","tol_tohand","","","","tol_peg_2","1437","1437","0","[[3,0,0],[2,0],[0]]","5","[[3,2,0],[0,0],[1]]","20","0","","","","","","6","","","","","","","","",""
"","","","","","single-stim-button","336","1134147","0.0-2.0-71.4-1.4","5fe146b36a3657bd99f9c179","D2","batch4","","1348","tol_toboard","","","","tol_peg_3","1348","1348","0","[[3,0,0],[2,0],[1]]","5","[[3,2,0],[0,0],[1]]","20","0","","","","","","6","","","","","","","","",""
"","","","","","single-stim-button","337","1135240","0.0-2.0-71.5-0.5","5fe146b36a3657bd99f9c179","D2","batch4","","1090","tol_tohand","","","","tol_peg_2","1090","1090","0","[[3,0,0],[0,0],[1]]","6","[[3,2,0],[0,0],[1]]","20","0","","","","","","6","","","","","","","","",""
"","","","","","single-stim-button","338","1136519","0.0-2.0-71.5-1.5","5fe146b36a3657bd99f9c179","D2","batch4","","1276","tol_toboard","","","","tol_peg_1","1276","1276","0","[[3,2,0],[0,0],[1]]","6","[[3,2,0],[0,0],[1]]","20","0","","","","","","6","","","","","","","","",""
"","","","","","poldrack-single-stim","339","1137531","0.0-2.0-72.0","5fe146b36a3657bd99f9c179","D2","batch4","","-1","tol_feedback","","","true","","1000","1000","500","","","","","","-1","none","true","17240","30371","","","","","","","","","",""
"","","","","","html-button-response","340","1138966","0.0-2.0-73.0","5fe146b36a3657bd99f9c179","D2","batch4","","1432.8000000000466","tol_trial_num","<div class = centerbox><p class = center-block-text>problem <strong>22</strong> out of 25 problems</p></div>","0","","","","","","","","","","","","","","","","","","","","","","","","",""
"","","","","","single-stim-button","341","1170598","0.0-2.0-74.0-0.0","5fe146b36a3657bd99f9c179","D2","batch4","","31628","tol_tohand","","","","tol_peg_1","31628","31628","0","[[0,0,0],[2,3],[0]]","1","[[0,0,0],[1,2],[3]]","21","0","","","","","","6","","","","","","","","",""
"","","","","","single-stim-button","342","1172429","0.0-2.0-74.0-1.0","5fe146b36a3657bd99f9c179","D2","batch4","","1829","tol_toboard","","","","tol_peg_3","1829","1829","0","[[0,0,0],[2,3],[1]]","1","[[0,0,0],[1,2],[3]]","21","0","","","","","","6","","","","","","","","",""
"","","","","","single-stim-button","343","1179388","0.0-2.0-74.1-0.1","5fe146b36a3657bd99f9c179","D2","batch4","","6955","tol_tohand","","","","tol_peg_2","6955","6955","0","[[0,0,0],[2,0],[1]]","2","[[0,0,0],[1,2],[3]]","21","0","","","","","","6","","","","","","","","",""
"","","","","","single-stim-button","344","1180931","0.0-2.0-74.1-1.1","5fe146b36a3657bd99f9c179","D2","batch4","","1541","tol_toboard","","","","tol_peg_1","1541","1541","0","[[3,0,0],[2,0],[1]]","2","[[0,0,0],[1,2],[3]]","21","0","","","","","","6","","","","","","","","",""
"","","","","","single-stim-button","345","1182365","0.0-2.0-74.2-0.2","5fe146b36a3657bd99f9c179","D2","batch4","","1431","tol_tohand","","","","tol_peg_2","1431","1431","0","[[3,0,0],[0,0],[1]]","3","[[0,0,0],[1,2],[3]]","21","0","","","","","","6","","","","","","","","",""
"","","","","","single-stim-button","346","1185027","0.0-2.0-74.2-1.2","5fe146b36a3657bd99f9c179","D2","batch4","","2660","tol_toboard","","","","tol_peg_1","2660","2660","0","[[3,2,0],[0,0],[1]]","3","[[0,0,0],[1,2],[3]]","21","0","","","","","","6","","","","","","","","",""
"","","","","","single-stim-button","347","1186248","0.0-2.0-74.3-0.3","5fe146b36a3657bd99f9c179","D2","batch4","","1218","tol_tohand","","","","tol_peg_3","1218","1218","0","[[3,2,0],[0,0],[0]]","4","[[0,0,0],[1,2],[3]]","21","0","","","","","","6","","","","","","","","",""
"","","","","","single-stim-button","348","1187530","0.0-2.0-74.3-1.3","5fe146b36a3657bd99f9c179","D2","batch4","","1280","tol_toboard","","","","tol_peg_2","1280","1280","0","[[3,2,0],[1,0],[0]]","4","[[0,0,0],[1,2],[3]]","21","0","","","","","","6","","","","","","","","",""
"","","","","","single-stim-button","349","1189934","0.0-2.0-74.4-0.4","5fe146b36a3657bd99f9c179","D2","batch4","","2401","tol_tohand","","","","tol_peg_1","2401","2401","0","[[3,0,0],[1,0],[0]]","5","[[0,0,0],[1,2],[3]]","21","0","","","","","","6","","","","","","","","",""
"","","","","","single-stim-button","350","1190351","0.0-2.0-74.4-1.4","5fe146b36a3657bd99f9c179","D2","batch4","","414","tol_toboard","","","","tol_peg_1","414","414","0","[[3,2,0],[1,0],[0]]","5","[[0,0,0],[1,2],[3]]","21","0","","","","","","6","","","","","","","","",""
"","","","","","single-stim-button","351","1191730","0.0-2.0-74.5-0.5","5fe146b36a3657bd99f9c179","D2","batch4","","1376","tol_tohand","","","","tol_peg_1","1376","1376","0","[[3,0,0],[1,0],[0]]","6","[[0,0,0],[1,2],[3]]","21","0","","","","","","6","","","","","","","","",""
"","","","","","single-stim-button","352","1192982","0.0-2.0-74.5-1.5","5fe146b36a3657bd99f9c179","D2","batch4","","1249","tol_toboard","","","","tol_peg_2","1249","1249","0","[[3,0,0],[1,2],[0]]","6","[[0,0,0],[1,2],[3]]","21","0","","","","","","6","","","","","","","","",""
"","","","","","single-stim-button","353","1194263","0.0-2.0-74.6-0.6","5fe146b36a3657bd99f9c179","D2","batch4","","1278","tol_tohand","","","","tol_peg_1","1278","1278","0","[[0,0,0],[1,2],[0]]","7","[[0,0,0],[1,2],[3]]","21","0","","","","","","6","","","","","","","","",""
