"success","timeout","failed_images","failed_audio","failed_video","trial_type","trial_index","time_elapsed","internal_node_id","subject_id","study_id","session_id","view_history","rt","task","stimulus","response","correct","mouse_click","stim_duration","block_duration","timing_post_trial","current_position","tol_num_moves_made","tol_target","tol_problem_id","tol_rt","key_press","possible_responses","tol_correct","preplanning","tol_rt_per_trial","tol_min_moves","item","answer","spm_correct","spm_rt","fiar_detect_rt","fiar_detect_correct","total_correct_fiar_detect","post_trial_gap","choices"
"true","false","[]","[]","[]","preload","0","2833","0.0-0.0","5fec06ae197628d566cdc782","F1","batch6","","","","","","","","","","","","","","","","","","","","","","","","","","","","","",""
"true","","","","","fullscreen","1","20618","0.0-1.0-0.0","5fec06ae197628d566cdc782","F1","batch6","","","","","","","","","","","","","","","","","","","","","","","","","","","","","",""
"true","","","","","fullscreen","2","23773","0.0-2.0-0.0","5fec06ae197628d566cdc782","F1","batch6","","","","","","","","","","","","","","","","","","","","","","","","","","","","","",""
"","","","","","instructions","3","101235","0.0-2.0-1.0-0.0-0.0","5fec06ae197628d566cdc782","F1","batch6","[{""page_index"":0,""viewing_time"":13984.29999999702},{""page_index"":1,""viewing_time"":9430.10000000149},{""page_index"":2,""viewing_time"":10116.39999999851},{""page_index"":3,""viewing_time"":10817.70000000298},{""page_index"":4,""viewing_time"":9894.599999997765},{""page_index"":5,""viewing_time"":19023.699999999255},{""page_index"":6,""viewing_time"":4188.300000000745}]","77457.09999999776","tol-instructions","","","","","","","","","","","","","","","","","","","","","","","","","","",""
"","","","","","html-button-response","4","102674","0.0-2.0-1.0-1.0-0.0","5fec06ae197628d566cdc782","F1","batch6","","1433","tol_enter_quiz","<p class=block-text> Let's answer a few questions <br>","0","","","","","","","","","","","","","","","","","","","","","","","","",""
"","","","","","html-button-response","5","108934","0.0-2.0-1.0-1.0-1.0","5fec06ae197628d566cdc782","F1","batch6","","6256","tol_quiz","<p class = block-text>True or False: You can only move the ball on top of a peg. <br></p>","0","true","","","","","","","","","","","","","","","","","","","","","","","",""
"","","","","","html-button-response","6","111270","0.0-2.0-1.0-1.0-2.0","5fec06ae197628d566cdc782","F1","batch6","","2328.7999999970198","tol_quiz_feedback","<p class = block-text>Correct! You can only move the ball on top of a peg.</p>","0","","","","","","","","","","","","","","","","","","","","","","","","",""
"","","","","","html-button-response","7","114995","0.0-2.0-1.0-1.0-3.0","5fec06ae197628d566cdc782","F1","batch6","","3720.60000000149","tol_quiz","<p class = block-text>True or False: You should try to match your board with the target board with fewest moves possible. <br></p>","0","true","","","","","","","","","","","","","","","","","","","","","","","",""
"","","","","","html-button-response","8","116070","0.0-2.0-1.0-1.0-4.0","5fec06ae197628d566cdc782","F1","batch6","","1071","tol_quiz_feedback","<p class = block-text>Correct! </p>","0","","","","","","","","","","","","","","","","","","","","","","","","",""
"","","","","","html-button-response","9","118369","0.0-2.0-2.0","5fec06ae197628d566cdc782","F1","batch6","","2292.10000000149","","<p class=block-text> Now that you've understood the game, let's practice a few easier examples before we start!<br> <br>","0","","","","","","","","","","","","","","","","","","","","","","","","",""
"","","","","","single-stim-button","10","123274","0.0-2.0-3.0-0.0","5fec06ae197628d566cdc782","F1","batch6","","4899","tol_practice","","","","tol_peg_2","4899","4899","0","[[1,2,0],[0,0],[0]]","1","[[1,2,0],[0,0],[3]]","practice","4899","","","","","","","","","","","","","","",""
"","","","","","single-stim-button","11","124596","0.0-2.0-3.0-1.0","5fec06ae197628d566cdc782","F1","batch6","","1318","tol_practice","","","","tol_peg_3","1318","1318","0","[[1,2,0],[0,0],[3]]","1","[[1,2,0],[0,0],[3]]","practice","1318","","","","","","","","","","","","","","",""
"","","","","","poldrack-single-stim","12","125604","0.0-2.0-4.0","5fec06ae197628d566cdc782","F1","batch6","","-1","tol_feedback","","","true","","1000","1000","500","","","","","","-1","none","true","","0","","","","","","","","","",""
"","","","","","single-stim-button","13","129389","0.0-2.0-5.0-0.0","5fec06ae197628d566cdc782","F1","batch6","","3774","tol_practice","","","","tol_peg_1","3774","3774","0","[[1,0,0],[3,0],[0]]","2","[[0,0,0],[3,1],[2]]","practice","3774","","","","","","","","","","","","","","",""
"","","","","","single-stim-button","14","130630","0.0-2.0-5.0-1.0","5fec06ae197628d566cdc782","F1","batch6","","1238","tol_practice","","","","tol_peg_3","1238","1238","0","[[1,0,0],[3,0],[2]]","2","[[0,0,0],[3,1],[2]]","practice","1238","","","","","","","","","","","","","","",""
"","","","","","single-stim-button","15","131780","0.0-2.0-5.1-0.1","5fec06ae197628d566cdc782","F1","batch6","","1147","tol_practice","","","","tol_peg_1","1147","1147","0","[[0,0,0],[3,0],[2]]","3","[[0,0,0],[3,1],[2]]","practice","1147","","","","","","","","","","","","","","",""
"","","","","","single-stim-button","16","132719","0.0-2.0-5.1-1.1","5fec06ae197628d566cdc782","F1","batch6","","936","tol_practice","","","","tol_peg_2","936","936","0","[[0,0,0],[3,1],[2]]","3","[[0,0,0],[3,1],[2]]","practice","936","","","","","","","","","","","","","","",""
"","","","","","poldrack-single-stim","17","133728","0.0-2.0-6.0","5fec06ae197628d566cdc782","F1","batch6","","-1","tol_feedback","","","true","","1000","1000","500","","","","","","-1","none","true","","0","","","","","","","","","",""
"","","","","","single-stim-button","18","136821","0.0-2.0-7.0-0.0","5fec06ae197628d566cdc782","F1","batch6","","3088","tol_practice","","","","tol_peg_2","3088","3088","0","[[1,2,0],[0,0],[0]]","4","[[1,0,0],[2,0],[3]]","practice","3088","","","","","","","","","","","","","","",""
"","","","","","single-stim-button","19","137807","0.0-2.0-7.0-1.0","5fec06ae197628d566cdc782","F1","batch6","","981","tol_practice","","","","tol_peg_3","981","981","0","[[1,2,0],[0,0],[3]]","4","[[1,0,0],[2,0],[3]]","practice","981","","","","","","","","","","","","","","",""
"","","","","","single-stim-button","20","147521","0.0-2.0-7.1-0.1","5fec06ae197628d566cdc782","F1","batch6","","9709","tol_practice","","","","tol_peg_3","9709","9709","0","[[1,2,0],[0,0],[0]]","5","[[1,0,0],[2,0],[3]]","practice","9709","","","","","","","","","","","","","","",""
"","","","","","single-stim-button","21","149193","0.0-2.0-7.1-1.1","5fec06ae197628d566cdc782","F1","batch6","","1669","tol_practice","","","","tol_peg_2","1669","1669","0","[[1,2,0],[3,0],[0]]","5","[[1,0,0],[2,0],[3]]","practice","1669","","","","","","","","","","","","","","",""
"","","","","","single-stim-button","22","150106","0.0-2.0-7.2-0.2","5fec06ae197628d566cdc782","F1","batch6","","911","tol_practice","","","","tol_peg_1","911","911","0","[[1,0,0],[3,0],[0]]","6","[[1,0,0],[2,0],[3]]","practice","911","","","","","","","","","","","","","","",""
"","","","","","single-stim-button","23","151482","0.0-2.0-7.2-1.2","5fec06ae197628d566cdc782","F1","batch6","","1374","tol_practice","","","","tol_peg_3","1374","1374","0","[[1,0,0],[3,0],[2]]","6","[[1,0,0],[2,0],[3]]","practice","1374","","","","","","","","","","","","","","",""
"","","","","","single-stim-button","24","156886","0.0-2.0-7.3-0.3","5fec06ae197628d566cdc782","F1","batch6","","5402","tol_practice","","","","tol_peg_2","5402","5402","0","[[1,0,0],[0,0],[2]]","7","[[1,0,0],[2,0],[3]]","practice","5402","","","","","","","","","","","","","","",""
"","","","","","single-stim-button","25","160578","0.0-2.0-7.3-1.3","5fec06ae197628d566cdc782","F1","batch6","","3679","tol_practice","","","","tol_peg_2","3679","3679","0","[[1,0,0],[3,0],[2]]","7","[[1,0,0],[2,0],[3]]","practice","3679","","","","","","","","","","","","","","",""
"","","","","","single-stim-button","26","164012","0.0-2.0-7.4-0.4","5fec06ae197628d566cdc782","F1","batch6","","3432","tol_practice","","","","tol_peg_1","3432","3432","0","[[0,0,0],[3,0],[2]]","8","[[1,0,0],[2,0],[3]]","practice","3432","","","","","","","","","","","","","","",""
"","","","","","single-stim-button","27","167325","0.0-2.0-7.4-1.4","5fec06ae197628d566cdc782","F1","batch6","","3311","tol_practice","","","","tol_peg_2","3311","3311","0","[[0,0,0],[3,1],[2]]","8","[[1,0,0],[2,0],[3]]","practice","3311","","","","","","","","","","","","","","",""
"","","","","","single-stim-button","28","170623","0.0-2.0-7.5-0.5","5fec06ae197628d566cdc782","F1","batch6","","3296","tol_practice","","","","tol_peg_3","3296","3296","0","[[0,0,0],[3,1],[0]]","9","[[1,0,0],[2,0],[3]]","practice","3296","","","","","","","","","","","","","","",""
"","","","","","single-stim-button","29","171813","0.0-2.0-7.5-1.5","5fec06ae197628d566cdc782","F1","batch6","","1187","tol_practice","","","","tol_peg_1","1187","1187","0","[[2,0,0],[3,1],[0]]","9","[[1,0,0],[2,0],[3]]","practice","1187","","","","","","","","","","","","","","",""
"","","","","","single-stim-button","30","174336","0.0-2.0-7.6-0.6","5fec06ae197628d566cdc782","F1","batch6","","2521","tol_practice","","","","tol_peg_2","2521","2521","0","[[2,0,0],[3,0],[0]]","10","[[1,0,0],[2,0],[3]]","practice","2521","","","","","","","","","","","","","","",""
"","","","","","single-stim-button","31","175383","0.0-2.0-7.6-1.6","5fec06ae197628d566cdc782","F1","batch6","","1044","tol_practice","","","","tol_peg_1","1044","1044","0","[[2,1,0],[3,0],[0]]","10","[[1,0,0],[2,0],[3]]","practice","1044","","","","","","","","","","","","","","",""
"","","","","","single-stim-button","32","176455","0.0-2.0-7.7-0.7","5fec06ae197628d566cdc782","F1","batch6","","1067","tol_practice","","","","tol_peg_2","1067","1067","0","[[2,1,0],[0,0],[0]]","11","[[1,0,0],[2,0],[3]]","practice","1067","","","","","","","","","","","","","","",""
"","","","","","single-stim-button","33","177506","0.0-2.0-7.7-1.7","5fec06ae197628d566cdc782","F1","batch6","","1049","tol_practice","","","","tol_peg_3","1049","1049","0","[[2,1,0],[0,0],[3]]","11","[[1,0,0],[2,0],[3]]","practice","1049","","","","","","","","","","","","","","",""
"","","","","","single-stim-button","34","179649","0.0-2.0-7.8-0.8","5fec06ae197628d566cdc782","F1","batch6","","2139","tol_practice","","","","tol_peg_1","2139","2139","0","[[2,0,0],[0,0],[3]]","12","[[1,0,0],[2,0],[3]]","practice","2139","","","","","","","","","","","","","","",""
"","","","","","single-stim-button","35","181124","0.0-2.0-7.8-1.8","5fec06ae197628d566cdc782","F1","batch6","","1471","tol_practice","","","","tol_peg_2","1471","1471","0","[[2,0,0],[1,0],[3]]","12","[[1,0,0],[2,0],[3]]","practice","1471","","","","","","","","","","","","","","",""
"","","","","","single-stim-button","36","182272","0.0-2.0-7.9-0.9","5fec06ae197628d566cdc782","F1","batch6","","1146","tol_practice","","","","tol_peg_1","1146","1146","0","[[0,0,0],[1,0],[3]]","13","[[1,0,0],[2,0],[3]]","practice","1146","","","","","","","","","","","","","","",""
"","","","","","single-stim-button","37","183662","0.0-2.0-7.9-1.9","5fec06ae197628d566cdc782","F1","batch6","","1388","tol_practice","","","","tol_peg_2","1388","1388","0","[[0,0,0],[1,2],[3]]","13","[[1,0,0],[2,0],[3]]","practice","1388","","","","","","","","","","","","","","",""
"","","","","","single-stim-button","38","186554","0.0-2.0-7.10-0.10","5fec06ae197628d566cdc782","F1","batch6","","2890","tol_practice","","","","tol_peg_3","2890","2890","0","[[0,0,0],[1,2],[0]]","14","[[1,0,0],[2,0],[3]]","practice","2890","","","","","","","","","","","","","","",""
"","","","","","single-stim-button","39","187766","0.0-2.0-7.10-1.10","5fec06ae197628d566cdc782","F1","batch6","","1208","tol_practice","","","","tol_peg_1","1208","1208","0","[[3,0,0],[1,2],[0]]","14","[[1,0,0],[2,0],[3]]","practice","1208","","","","","","","","","","","","","","",""
"","","","","","single-stim-button","40","190443","0.0-2.0-7.11-0.11","5fec06ae197628d566cdc782","F1","batch6","","2674","tol_practice","","","","tol_peg_2","2674","2674","0","[[3,0,0],[1,0],[0]]","15","[[1,0,0],[2,0],[3]]","practice","2674","","","","","","","","","","","","","","",""
"","","","","","single-stim-button","41","192035","0.0-2.0-7.11-1.11","5fec06ae197628d566cdc782","F1","batch6","","1589","tol_practice","","","","tol_peg_1","1589","1589","0","[[3,2,0],[1,0],[0]]","15","[[1,0,0],[2,0],[3]]","practice","1589","","","","","","","","","","","","","","",""
"","","","","","single-stim-button","42","194773","0.0-2.0-7.12-0.12","5fec06ae197628d566cdc782","F1","batch6","","2734","tol_practice","","","","tol_peg_2","2734","2734","0","[[3,2,0],[0,0],[0]]","16","[[1,0,0],[2,0],[3]]","practice","2734","","","","","","","","","","","","","","",""
"","","","","","single-stim-button","43","196066","0.0-2.0-7.12-1.12","5fec06ae197628d566cdc782","F1","batch6","","1289","tol_practice","","","","tol_peg_3","1289","1289","0","[[3,2,0],[0,0],[1]]","16","[[1,0,0],[2,0],[3]]","practice","1289","","","","","","","","","","","","","","",""
"","","","","","single-stim-button","44","197392","0.0-2.0-7.13-0.13","5fec06ae197628d566cdc782","F1","batch6","","1322","tol_practice","","","","tol_peg_1","1322","1322","0","[[3,0,0],[0,0],[1]]","17","[[1,0,0],[2,0],[3]]","practice","1322","","","","","","","","","","","","","","",""
"","","","","","single-stim-button","45","198323","0.0-2.0-7.13-1.13","5fec06ae197628d566cdc782","F1","batch6","","928","tol_practice","","","","tol_peg_2","928","928","0","[[3,0,0],[2,0],[1]]","17","[[1,0,0],[2,0],[3]]","practice","928","","","","","","","","","","","","","","",""
"","","","","","single-stim-button","46","199238","0.0-2.0-7.14-0.14","5fec06ae197628d566cdc782","F1","batch6","","912","tol_practice","","","","tol_peg_1","912","912","0","[[0,0,0],[2,0],[1]]","18","[[1,0,0],[2,0],[3]]","practice","912","","","","","","","","","","","","","","",""
"","","","","","single-stim-button","47","200412","0.0-2.0-7.14-1.14","5fec06ae197628d566cdc782","F1","batch6","","1172","tol_practice","","","","tol_peg_2","1172","1172","0","[[0,0,0],[2,3],[1]]","18","[[1,0,0],[2,0],[3]]","practice","1172","","","","","","","","","","","","","","",""
"","","","","","single-stim-button","48","201320","0.0-2.0-7.15-0.15","5fec06ae197628d566cdc782","F1","batch6","","902","tol_practice","","","","tol_peg_3","902","902","0","[[0,0,0],[2,3],[0]]","19","[[1,0,0],[2,0],[3]]","practice","902","","","","","","","","","","","","","","",""
"","","","","","single-stim-button","49","202417","0.0-2.0-7.15-1.15","5fec06ae197628d566cdc782","F1","batch6","","1093","tol_practice","","","","tol_peg_1","1093","1093","0","[[1,0,0],[2,3],[0]]","19","[[1,0,0],[2,0],[3]]","practice","1093","","","","","","","","","","","","","","",""
"","","","","","single-stim-button","50","203366","0.0-2.0-7.16-0.16","5fec06ae197628d566cdc782","F1","batch6","","946","tol_practice","","","","tol_peg_2","946","946","0","[[1,0,0],[2,0],[0]]","20","[[1,0,0],[2,0],[3]]","practice","946","","","","","","","","","","","","","","",""
"","","","","","single-stim-button","51","204241","0.0-2.0-7.16-1.16","5fec06ae197628d566cdc782","F1","batch6","","872","tol_practice","","","","tol_peg_3","872","872","0","[[1,0,0],[2,0],[3]]","20","[[1,0,0],[2,0],[3]]","practice","872","","","","","","","","","","","","","","",""
"","","","","","poldrack-single-stim","52","205248","0.0-2.0-8.0","5fec06ae197628d566cdc782","F1","batch6","","-1","tol_feedback","","","true","","1000","1000","500","","","","","","-1","none","true","","0","","","","","","","","","",""
"","","","","","html-button-response","53","207513","0.0-2.0-9.0","5fec06ae197628d566cdc782","F1","batch6","","2257.89999999851","tol_instruction","<div class = centerbox><p class = center-block-text>Great job! You are done with practice trials<br>You are about to start official trials.<br> <br> Problem <strong>1</strong> out of 25 problems</p></div>","0","","","","","","","","","","","","","","","","","","","","","","","","",""
"","","","","","single-stim-button","54","215340","0.0-2.0-10.0-0.0","5fec06ae197628d566cdc782","F1","batch6","","6818","tol_tohand","","","","tol_peg_1","6818","6818","0","[[1,0,0],[3,0],[0]]","1","[[1,3,0],[2,0],[0]]","0","0","","","","","","3","","","","","","","","",""
"","","","","","single-stim-button","55","216348","0.0-2.0-10.0-1.0","5fec06ae197628d566cdc782","F1","batch6","","1004","tol_toboard","","","","tol_peg_3","1004","1004","0","[[1,0,0],[3,0],[2]]","1","[[1,3,0],[2,0],[0]]","0","0","","","","","","3","","","","","","","","",""
"","","","","","single-stim-button","56","217223","0.0-2.0-10.1-0.1","5fec06ae197628d566cdc782","F1","batch6","","873","tol_tohand","","","","tol_peg_2","873","873","0","[[1,0,0],[0,0],[2]]","2","[[1,3,0],[2,0],[0]]","0","0","","","","","","3","","","","","","","","",""
"","","","","","single-stim-button","57","218316","0.0-2.0-10.1-1.1","5fec06ae197628d566cdc782","F1","batch6","","1090","tol_toboard","","","","tol_peg_1","1090","1090","0","[[1,3,0],[0,0],[2]]","2","[[1,3,0],[2,0],[0]]","0","0","","","","","","3","","","","","","","","",""
"","","","","","single-stim-button","58","219394","0.0-2.0-10.2-0.2","5fec06ae197628d566cdc782","F1","batch6","","1074","tol_tohand","","","","tol_peg_3","1074","1074","0","[[1,3,0],[0,0],[0]]","3","[[1,3,0],[2,0],[0]]","0","0","","","","","","3","","","","","","","","",""
"","","","","","single-stim-button","59","220487","0.0-2.0-10.2-1.2","5fec06ae197628d566cdc782","F1","batch6","","1089","tol_toboard","","","","tol_peg_2","1089","1089","0","[[1,3,0],[2,0],[0]]","3","[[1,3,0],[2,0],[0]]","0","0","","","","","","3","","","","","","","","",""
"","","","","","poldrack-single-stim","60","221490","0.0-2.0-11.0","5fec06ae197628d566cdc782","F1","batch6","","-1","tol_feedback","","","true","","1000","1000","500","","","","","","-1","none","true","6818","8765","","","","","","","","","",""
"","","","","","html-button-response","61","222631","0.0-2.0-12.0","5fec06ae197628d566cdc782","F1","batch6","","1136","tol_trial_num","<div class = centerbox><p class = center-block-text>problem <strong>2</strong> out of 25 problems</p></div>","0","","","","","","","","","","","","","","","","","","","","","","","","",""
"","","","","","single-stim-button","62","228154","0.0-2.0-13.0-0.0","5fec06ae197628d566cdc782","F1","batch6","","5518","tol_tohand","","","","tol_peg_1","5518","5518","0","[[1,0,0],[3,0],[0]]","1","[[2,1,3],[0,0],[0]]","1","0","","","","","","5","","","","","","","","",""
"","","","","","single-stim-button","63","229201","0.0-2.0-13.0-1.0","5fec06ae197628d566cdc782","F1","batch6","","1045","tol_toboard","","","","tol_peg_2","1045","1045","0","[[1,0,0],[3,2],[0]]","1","[[2,1,3],[0,0],[0]]","1","0","","","","","","5","","","","","","","","",""
"","","","","","single-stim-button","64","230141","0.0-2.0-13.1-0.1","5fec06ae197628d566cdc782","F1","batch6","","938","tol_tohand","","","","tol_peg_1","938","938","0","[[0,0,0],[3,2],[0]]","2","[[2,1,3],[0,0],[0]]","1","0","","","","","","5","","","","","","","","",""
"","","","","","single-stim-button","65","231270","0.0-2.0-13.1-1.1","5fec06ae197628d566cdc782","F1","batch6","","1127","tol_toboard","","","","tol_peg_3","1127","1127","0","[[0,0,0],[3,2],[1]]","2","[[2,1,3],[0,0],[0]]","1","0","","","","","","5","","","","","","","","",""
"","","","","","single-stim-button","66","233613","0.0-2.0-13.2-0.2","5fec06ae197628d566cdc782","F1","batch6","","2340","tol_tohand","","","","tol_peg_2","2340","2340","0","[[0,0,0],[3,0],[1]]","3","[[2,1,3],[0,0],[0]]","1","0","","","","","","5","","","","","","","","",""
"","","","","","single-stim-button","67","234558","0.0-2.0-13.2-1.2","5fec06ae197628d566cdc782","F1","batch6","","942","tol_toboard","","","","tol_peg_1","942","942","0","[[2,0,0],[3,0],[1]]","3","[[2,1,3],[0,0],[0]]","1","0","","","","","","5","","","","","","","","",""
"","","","","","single-stim-button","68","236174","0.0-2.0-13.3-0.3","5fec06ae197628d566cdc782","F1","batch6","","1613","tol_tohand","","","","tol_peg_3","1613","1613","0","[[2,0,0],[3,0],[0]]","4","[[2,1,3],[0,0],[0]]","1","0","","","","","","5","","","","","","","","",""
"","","","","","single-stim-button","69","237270","0.0-2.0-13.3-1.3","5fec06ae197628d566cdc782","F1","batch6","","1093","tol_toboard","","","","tol_peg_1","1093","1093","0","[[2,1,0],[3,0],[0]]","4","[[2,1,3],[0,0],[0]]","1","0","","","","","","5","","","","","","","","",""
"","","","","","single-stim-button","70","238138","0.0-2.0-13.4-0.4","5fec06ae197628d566cdc782","F1","batch6","","863","tol_tohand","","","","tol_peg_2","863","863","0","[[2,1,0],[0,0],[0]]","5","[[2,1,3],[0,0],[0]]","1","0","","","","","","5","","","","","","","","",""
"","","","","","single-stim-button","71","239169","0.0-2.0-13.4-1.4","5fec06ae197628d566cdc782","F1","batch6","","1027","tol_toboard","","","","tol_peg_1","1027","1027","0","[[2,1,3],[0,0],[0]]","5","[[2,1,3],[0,0],[0]]","1","0","","","","","","5","","","","","","","","",""
"","","","","","poldrack-single-stim","72","240175","0.0-2.0-14.0","5fec06ae197628d566cdc782","F1","batch6","","-1","tol_feedback","","","true","","1000","1000","500","","","","","","-1","none","true","5518","11272","","","","","","","","","",""
"","","","","","html-button-response","73","241587","0.0-2.0-15.0","5fec06ae197628d566cdc782","F1","batch6","","1404.199999999255","tol_trial_num","<div class = centerbox><p class = center-block-text>problem <strong>3</strong> out of 25 problems</p></div>","0","","","","","","","","","","","","","","","","","","","","","","","","",""
"","","","","","single-stim-button","74","245800","0.0-2.0-16.0-0.0","5fec06ae197628d566cdc782","F1","batch6","","4208","tol_tohand","","","","tol_peg_1","4208","4208","0","[[2,0,0],[0,0],[1]]","1","[[1,2,0],[3,0],[0]]","2","0","","","","","","4","","","","","","","","",""
"","","","","","single-stim-button","75","246737","0.0-2.0-16.0-1.0","5fec06ae197628d566cdc782","F1","batch6","","935","tol_toboard","","","","tol_peg_2","935","935","0","[[2,0,0],[3,0],[1]]","1","[[1,2,0],[3,0],[0]]","2","0","","","","","","4","","","","","","","","",""
"","","","","","single-stim-button","76","247902","0.0-2.0-16.1-0.1","5fec06ae197628d566cdc782","F1","batch6","","1161","tol_tohand","","","","tol_peg_1","1161","1161","0","[[0,0,0],[3,0],[1]]","2","[[1,2,0],[3,0],[0]]","2","0","","","","","","4","","","","","","","","",""
"","","","","","single-stim-button","77","248849","0.0-2.0-16.1-1.1","5fec06ae197628d566cdc782","F1","batch6","","942","tol_toboard","","","","tol_peg_2","942","942","0","[[0,0,0],[3,2],[1]]","2","[[1,2,0],[3,0],[0]]","2","0","","","","","","4","","","","","","","","",""
"","","","","","single-stim-button","78","249771","0.0-2.0-16.2-0.2","5fec06ae197628d566cdc782","F1","batch6","","918","tol_tohand","","","","tol_peg_3","918","918","0","[[0,0,0],[3,2],[0]]","3","[[1,2,0],[3,0],[0]]","2","0","","","","","","4","","","","","","","","",""
"","","","","","single-stim-button","79","251214","0.0-2.0-16.2-1.2","5fec06ae197628d566cdc782","F1","batch6","","1441","tol_toboard","","","","tol_peg_1","1441","1441","0","[[1,0,0],[3,2],[0]]","3","[[1,2,0],[3,0],[0]]","2","0","","","","","","4","","","","","","","","",""
"","","","","","single-stim-button","80","252028","0.0-2.0-16.3-0.3","5fec06ae197628d566cdc782","F1","batch6","","811","tol_tohand","","","","tol_peg_2","811","811","0","[[1,0,0],[3,0],[0]]","4","[[1,2,0],[3,0],[0]]","2","0","","","","","","4","","","","","","","","",""
"","","","","","single-stim-button","81","253208","0.0-2.0-16.3-1.3","5fec06ae197628d566cdc782","F1","batch6","","1176","tol_toboard","","","","tol_peg_1","1176","1176","0","[[1,2,0],[3,0],[0]]","4","[[1,2,0],[3,0],[0]]","2","0","","","","","","4","","","","","","","","",""
"","","","","","poldrack-single-stim","82","254214","0.0-2.0-17.0","5fec06ae197628d566cdc782","F1","batch6","","-1","tol_feedback","","","true","","1000","1000","500","","","","","","-1","none","true","4208","7098","","","","","","","","","",""
"","","","","","html-button-response","83","255475","0.0-2.0-18.0","5fec06ae197628d566cdc782","F1","batch6","","1255.300000000745","tol_trial_num","<div class = centerbox><p class = center-block-text>problem <strong>4</strong> out of 25 problems</p></div>","0","","","","","","","","","","","","","","","","","","","","","","","","",""
"","","","","","single-stim-button","84","261076","0.0-2.0-19.0-0.0","5fec06ae197628d566cdc782","F1","batch6","","5596","tol_tohand","","","","tol_peg_2","5596","5596","0","[[3,0,0],[2,0],[0]]","1","[[3,0,0],[1,0],[2]]","3","0","","","","","","3","","","","","","","","",""
"","","","","","single-stim-button","85","262511","0.0-2.0-19.0-1.0","5fec06ae197628d566cdc782","F1","batch6","","1431","tol_toboard","","","","tol_peg_1","1431","1431","0","[[3,1,0],[2,0],[0]]","1","[[3,0,0],[1,0],[2]]","3","0","","","","","","3","","","","","","","","",""
"","","","","","single-stim-button","86","264232","0.0-2.0-19.1-0.1","5fec06ae197628d566cdc782","F1","batch6","","1714","tol_tohand","","","","tol_peg_2","1714","1714","0","[[3,1,0],[0,0],[0]]","2","[[3,0,0],[1,0],[2]]","3","0","","","","","","3","","","","","","","","",""
"","","","","","single-stim-button","87","265362","0.0-2.0-19.1-1.1","5fec06ae197628d566cdc782","F1","batch6","","1127","tol_toboard","","","","tol_peg_3","1127","1127","0","[[3,1,0],[0,0],[2]]","2","[[3,0,0],[1,0],[2]]","3","0","","","","","","3","","","","","","","","",""
"","","","","","single-stim-button","88","266396","0.0-2.0-19.2-0.2","5fec06ae197628d566cdc782","F1","batch6","","1031","tol_tohand","","","","tol_peg_1","1031","1031","0","[[3,0,0],[0,0],[2]]","3","[[3,0,0],[1,0],[2]]","3","0","","","","","","3","","","","","","","","",""
"","","","","","single-stim-button","89","267411","0.0-2.0-19.2-1.2","5fec06ae197628d566cdc782","F1","batch6","","1011","tol_toboard","","","","tol_peg_2","1011","1011","0","[[3,0,0],[1,0],[2]]","3","[[3,0,0],[1,0],[2]]","3","0","","","","","","3","","","","","","","","",""
"","","","","","poldrack-single-stim","90","268417","0.0-2.0-20.0","5fec06ae197628d566cdc782","F1","batch6","","-1","tol_feedback","","","true","","1000","1000","500","","","","","","-1","none","true","5596","8341","","","","","","","","","",""
"","","","","","html-button-response","91","269484","0.0-2.0-21.0","5fec06ae197628d566cdc782","F1","batch6","","1061.199999999255","tol_trial_num","<div class = centerbox><p class = center-block-text>problem <strong>5</strong> out of 25 problems</p></div>","0","","","","","","","","","","","","","","","","","","","","","","","","",""
"","","","","","single-stim-button","92","278985","0.0-2.0-22.0-0.0","5fec06ae197628d566cdc782","F1","batch6","","9498","tol_tohand","","","","tol_peg_3","9498","9498","0","[[1,0,0],[2,0],[0]]","1","[[0,0,0],[1,2],[3]]","4","0","","","","","","7","","","","","","","","",""
"","","","","","single-stim-button","93","279995","0.0-2.0-22.0-1.0","5fec06ae197628d566cdc782","F1","batch6","","1007","tol_toboard","","","","tol_peg_1","1007","1007","0","[[1,3,0],[2,0],[0]]","1","[[0,0,0],[1,2],[3]]","4","0","","","","","","7","","","","","","","","",""
"","","","","","single-stim-button","94","280965","0.0-2.0-22.1-0.1","5fec06ae197628d566cdc782","F1","batch6","","968","tol_tohand","","","","tol_peg_2","968","968","0","[[1,3,0],[0,0],[0]]","2","[[0,0,0],[1,2],[3]]","4","0","","","","","","7","","","","","","","","",""
"","","","","","single-stim-button","95","283316","0.0-2.0-22.1-1.1","5fec06ae197628d566cdc782","F1","batch6","","2349","tol_toboard","","","","tol_peg_3","2349","2349","0","[[1,3,0],[0,0],[2]]","2","[[0,0,0],[1,2],[3]]","4","0","","","","","","7","","","","","","","","",""
"","","","","","single-stim-button","96","285065","0.0-2.0-22.2-0.2","5fec06ae197628d566cdc782","F1","batch6","","1746","tol_tohand","","","","tol_peg_1","1746","1746","0","[[1,0,0],[0,0],[2]]","3","[[0,0,0],[1,2],[3]]","4","0","","","","","","7","","","","","","","","",""
"","","","","","single-stim-button","97","286622","0.0-2.0-22.2-1.2","5fec06ae197628d566cdc782","F1","batch6","","1554","tol_toboard","","","","tol_peg_2","1554","1554","0","[[1,0,0],[3,0],[2]]","3","[[0,0,0],[1,2],[3]]","4","0","","","","","","7","","","","","","","","",""
"","","","","","single-stim-button","98","287672","0.0-2.0-22.3-0.3","5fec06ae197628d566cdc782","F1","batch6","","1045","tol_tohand","","","","tol_peg_1","1045","1045","0","[[0,0,0],[3,0],[2]]","4","[[0,0,0],[1,2],[3]]","4","0","","","","","","7","","","","","","","","",""
"","","","","","single-stim-button","99","288814","0.0-2.0-22.3-1.3","5fec06ae197628d566cdc782","F1","batch6","","1139","tol_toboard","","","","tol_peg_2","1139","1139","0","[[0,0,0],[3,1],[2]]","4","[[0,0,0],[1,2],[3]]","4","0","","","","","","7","","","","","","","","",""
"","","","","","single-stim-button","100","290860","0.0-2.0-22.4-0.4","5fec06ae197628d566cdc782","F1","batch6","","2043","tol_tohand","","","","tol_peg_3","2043","2043","0","[[0,0,0],[3,1],[0]]","5","[[0,0,0],[1,2],[3]]","4","0","","","","","","7","","","","","","","","",""
"","","","","","single-stim-button","101","291880","0.0-2.0-22.4-1.4","5fec06ae197628d566cdc782","F1","batch6","","1016","tol_toboard","","","","tol_peg_1","1016","1016","0","[[2,0,0],[3,1],[0]]","5","[[0,0,0],[1,2],[3]]","4","0","","","","","","7","","","","","","","","",""
"","","","","","single-stim-button","102","292904","0.0-2.0-22.5-0.5","5fec06ae197628d566cdc782","F1","batch6","","1021","tol_tohand","","","","tol_peg_2","1021","1021","0","[[2,0,0],[3,0],[0]]","6","[[0,0,0],[1,2],[3]]","4","0","","","","","","7","","","","","","","","",""
"","","","","","single-stim-button","103","294100","0.0-2.0-22.5-1.5","5fec06ae197628d566cdc782","F1","batch6","","1194","tol_toboard","","","","tol_peg_1","1194","1194","0","[[2,1,0],[3,0],[0]]","6","[[0,0,0],[1,2],[3]]","4","0","","","","","","7","","","","","","","","",""
"","","","","","single-stim-button","104","295098","0.0-2.0-22.6-0.6","5fec06ae197628d566cdc782","F1","batch6","","996","tol_tohand","","","","tol_peg_2","996","996","0","[[2,1,0],[0,0],[0]]","7","[[0,0,0],[1,2],[3]]","4","0","","","","","","7","","","","","","","","",""
"","","","","","single-stim-button","105","296049","0.0-2.0-22.6-1.6","5fec06ae197628d566cdc782","F1","batch6","","948","tol_toboard","","","","tol_peg_3","948","948","0","[[2,1,0],[0,0],[3]]","7","[[0,0,0],[1,2],[3]]","4","0","","","","","","7","","","","","","","","",""
"","","","","","single-stim-button","106","296890","0.0-2.0-22.7-0.7","5fec06ae197628d566cdc782","F1","batch6","","837","tol_tohand","","","","tol_peg_1","837","837","0","[[2,0,0],[0,0],[3]]","8","[[0,0,0],[1,2],[3]]","4","0","","","","","","7","","","","","","","","",""
"","","","","","single-stim-button","107","297810","0.0-2.0-22.7-1.7","5fec06ae197628d566cdc782","F1","batch6","","918","tol_toboard","","","","tol_peg_2","918","918","0","[[2,0,0],[1,0],[3]]","8","[[0,0,0],[1,2],[3]]","4","0","","","","","","7","","","","","","","","",""
"","","","","","single-stim-button","108","298587","0.0-2.0-22.8-0.8","5fec06ae197628d566cdc782","F1","batch6","","774","tol_tohand","","","","tol_peg_1","774","774","0","[[0,0,0],[1,0],[3]]","9","[[0,0,0],[1,2],[3]]","4","0","","","","","","7","","","","","","","","",""
"","","","","","single-stim-button","109","299807","0.0-2.0-22.8-1.8","5fec06ae197628d566cdc782","F1","batch6","","1218","tol_toboard","","","","tol_peg_2","1218","1218","0","[[0,0,0],[1,2],[3]]","9","[[0,0,0],[1,2],[3]]","4","0","","","","","","7","","","","","","","","",""
"","","","","","poldrack-single-stim","110","300815","0.0-2.0-23.0","5fec06ae197628d566cdc782","F1","batch6","","-1","tol_feedback","","","true","","1000","1000","500","","","","","","-1","none","true","9498","18928","","","","","","","","","",""
"","","","","","html-button-response","111","302065","0.0-2.0-24.0","5fec06ae197628d566cdc782","F1","batch6","","1241.199999999255","tol_trial_num","<div class = centerbox><p class = center-block-text>problem <strong>6</strong> out of 25 problems</p></div>","0","","","","","","","","","","","","","","","","","","","","","","","","",""
"","","","","","single-stim-button","112","311740","0.0-2.0-25.0-0.0","5fec06ae197628d566cdc782","F1","batch6","","9670","tol_tohand","","","","tol_peg_3","9670","9670","0","[[0,0,0],[1,2],[0]]","1","[[1,0,0],[2,3],[0]]","5","0","","","","","","6","","","","","","","","",""
"","","","","","single-stim-button","113","315009","0.0-2.0-25.0-1.0","5fec06ae197628d566cdc782","F1","batch6","","3267","tol_toboard","","","","tol_peg_1","3267","3267","0","[[3,0,0],[1,2],[0]]","1","[[1,0,0],[2,3],[0]]","5","0","","","","","","6","","","","","","","","",""
"","","","","","single-stim-button","114","316610","0.0-2.0-25.1-0.1","5fec06ae197628d566cdc782","F1","batch6","","1598","tol_tohand","","","","tol_peg_2","1598","1598","0","[[3,0,0],[1,0],[0]]","2","[[1,0,0],[2,3],[0]]","5","0","","","","","","6","","","","","","","","",""
"","","","","","single-stim-button","115","318423","0.0-2.0-25.1-1.1","5fec06ae197628d566cdc782","F1","batch6","","1809","tol_toboard","","","","tol_peg_1","1809","1809","0","[[3,2,0],[1,0],[0]]","2","[[1,0,0],[2,3],[0]]","5","0","","","","","","6","","","","","","","","",""
"","","","","","single-stim-button","116","320143","0.0-2.0-25.2-0.2","5fec06ae197628d566cdc782","F1","batch6","","1717","tol_tohand","","","","tol_peg_2","1717","1717","0","[[3,2,0],[0,0],[0]]","3","[[1,0,0],[2,3],[0]]","5","0","","","","","","6","","","","","","","","",""
"","","","","","single-stim-button","117","321069","0.0-2.0-25.2-1.2","5fec06ae197628d566cdc782","F1","batch6","","921","tol_toboard","","","","tol_peg_3","921","921","0","[[3,2,0],[0,0],[1]]","3","[[1,0,0],[2,3],[0]]","5","0","","","","","","6","","","","","","","","",""
"","","","","","single-stim-button","118","322121","0.0-2.0-25.3-0.3","5fec06ae197628d566cdc782","F1","batch6","","1049","tol_tohand","","","","tol_peg_1","1049","1049","0","[[3,0,0],[0,0],[1]]","4","[[1,0,0],[2,3],[0]]","5","0","","","","","","6","","","","","","","","",""
"","","","","","single-stim-button","119","323091","0.0-2.0-25.3-1.3","5fec06ae197628d566cdc782","F1","batch6","","965","tol_toboard","","","","tol_peg_2","965","965","0","[[3,0,0],[2,0],[1]]","4","[[1,0,0],[2,3],[0]]","5","0","","","","","","6","","","","","","","","",""
"","","","","","single-stim-button","120","324130","0.0-2.0-25.4-0.4","5fec06ae197628d566cdc782","F1","batch6","","1034","tol_tohand","","","","tol_peg_1","1034","1034","0","[[0,0,0],[2,0],[1]]","5","[[1,0,0],[2,3],[0]]","5","0","","","","","","6","","","","","","","","",""
"","","","","","single-stim-button","121","325293","0.0-2.0-25.4-1.4","5fec06ae197628d566cdc782","F1","batch6","","1161","tol_toboard","","","","tol_peg_2","1161","1161","0","[[0,0,0],[2,3],[1]]","5","[[1,0,0],[2,3],[0]]","5","0","","","","","","6","","","","","","","","",""
"","","","","","single-stim-button","122","326198","0.0-2.0-25.5-0.5","5fec06ae197628d566cdc782","F1","batch6","","902","tol_tohand","","","","tol_peg_3","902","902","0","[[0,0,0],[2,3],[0]]","6","[[1,0,0],[2,3],[0]]","5","0","","","","","","6","","","","","","","","",""
"","","","","","single-stim-button","123","327483","0.0-2.0-25.5-1.5","5fec06ae197628d566cdc782","F1","batch6","","1280","tol_toboard","","","","tol_peg_1","1280","1280","0","[[1,0,0],[2,3],[0]]","6","[[1,0,0],[2,3],[0]]","5","0","","","","","","6","","","","","","","","",""
"","","","","","poldrack-single-stim","124","328492","0.0-2.0-26.0","5fec06ae197628d566cdc782","F1","batch6","","-1","tol_feedback","","","true","","1000","1000","500","","","","","","-1","none","true","9670","15970","","","","","","","","","",""
"","","","","","html-button-response","125","330042","0.0-2.0-27.0","5fec06ae197628d566cdc782","F1","batch6","","1541.8999999985099","tol_trial_num","<div class = centerbox><p class = center-block-text>problem <strong>7</strong> out of 25 problems</p></div>","0","","","","","","","","","","","","","","","","","","","","","","","","",""
"","","","","","single-stim-button","126","334161","0.0-2.0-28.0-0.0","5fec06ae197628d566cdc782","F1","batch6","","4113","tol_tohand","","","","tol_peg_1","4113","4113","0","[[2,0,0],[0,0],[3]]","1","[[1,2,0],[3,0],[0]]","6","0","","","","","","5","","","","","","","","",""
"","","","","","single-stim-button","127","336857","0.0-2.0-28.0-1.0","5fec06ae197628d566cdc782","F1","batch6","","2693","tol_toboard","","","","tol_peg_2","2693","2693","0","[[2,0,0],[1,0],[3]]","1","[[1,2,0],[3,0],[0]]","6","0","","","","","","5","","","","","","","","",""
"","","","","","single-stim-button","128","338116","0.0-2.0-28.1-0.1","5fec06ae197628d566cdc782","F1","batch6","","1257","tol_tohand","","","","tol_peg_1","1257","1257","0","[[0,0,0],[1,0],[3]]","2","[[1,2,0],[3,0],[0]]","6","0","","","","","","5","","","","","","","","",""
"","","","","","single-stim-button","129","339152","0.0-2.0-28.1-1.1","5fec06ae197628d566cdc782","F1","batch6","","1032","tol_toboard","","","","tol_peg_2","1032","1032","0","[[0,0,0],[1,2],[3]]","2","[[1,2,0],[3,0],[0]]","6","0","","","","","","5","","","","","","","","",""
"","","","","","single-stim-button","130","341012","0.0-2.0-28.2-0.2","5fec06ae197628d566cdc782","F1","batch6","","1854","tol_tohand","","","","tol_peg_3","1854","1854","0","[[0,0,0],[1,2],[0]]","3","[[1,2,0],[3,0],[0]]","6","0","","","","","","5","","","","","","","","",""
"","","","","","single-stim-button","131","342451","0.0-2.0-28.2-1.2","5fec06ae197628d566cdc782","F1","batch6","","1436","tol_toboard","","","","tol_peg_1","1436","1436","0","[[3,0,0],[1,2],[0]]","3","[[1,2,0],[3,0],[0]]","6","0","","","","","","5","","","","","","","","",""
"","","","","","single-stim-button","132","343483","0.0-2.0-28.3-0.3","5fec06ae197628d566cdc782","F1","batch6","","1029","tol_tohand","","","","tol_peg_2","1029","1029","0","[[3,0,0],[1,0],[0]]","4","[[1,2,0],[3,0],[0]]","6","0","","","","","","5","","","","","","","","",""
"","","","","","single-stim-button","133","344802","0.0-2.0-28.3-1.3","5fec06ae197628d566cdc782","F1","batch6","","1316","tol_toboard","","","","tol_peg_3","1316","1316","0","[[3,0,0],[1,0],[2]]","4","[[1,2,0],[3,0],[0]]","6","0","","","","","","5","","","","","","","","",""
"","","","","","single-stim-button","134","354431","0.0-2.0-28.4-0.4","5fec06ae197628d566cdc782","F1","batch6","","9627","tol_tohand","","","","tol_peg_1","9627","9627","0","[[0,0,0],[1,0],[2]]","5","[[1,2,0],[3,0],[0]]","6","0","","","","","","5","","","","","","","","",""
"","","","","","single-stim-button","135","355328","0.0-2.0-28.4-1.4","5fec06ae197628d566cdc782","F1","batch6","","894","tol_toboard","","","","tol_peg_2","894","894","0","[[0,0,0],[1,3],[2]]","5","[[1,2,0],[3,0],[0]]","6","0","","","","","","5","","","","","","","","",""
"","","","","","single-stim-button","136","356716","0.0-2.0-28.5-0.5","5fec06ae197628d566cdc782","F1","batch6","","1385","tol_tohand","","","","tol_peg_3","1385","1385","0","[[0,0,0],[1,3],[0]]","6","[[1,2,0],[3,0],[0]]","6","0","","","","","","5","","","","","","","","",""
"","","","","","single-stim-button","137","357826","0.0-2.0-28.5-1.5","5fec06ae197628d566cdc782","F1","batch6","","1107","tol_toboard","","","","tol_peg_1","1107","1107","0","[[2,0,0],[1,3],[0]]","6","[[1,2,0],[3,0],[0]]","6","0","","","","","","5","","","","","","","","",""
"","","","","","single-stim-button","138","366170","0.0-2.0-28.6-0.6","5fec06ae197628d566cdc782","F1","batch6","","8342","tol_tohand","","","","tol_peg_2","8342","8342","0","[[2,0,0],[1,0],[0]]","7","[[1,2,0],[3,0],[0]]","6","0","","","","","","5","","","","","","","","",""
"","","","","","single-stim-button","139","367185","0.0-2.0-28.6-1.6","5fec06ae197628d566cdc782","F1","batch6","","1013","tol_toboard","","","","tol_peg_3","1013","1013","0","[[2,0,0],[1,0],[3]]","7","[[1,2,0],[3,0],[0]]","6","0","","","","","","5","","","","","","","","",""
"","","","","","single-stim-button","140","368660","0.0-2.0-28.7-0.7","5fec06ae197628d566cdc782","F1","batch6","","1473","tol_tohand","","","","tol_peg_2","1473","1473","0","[[2,0,0],[0,0],[3]]","8","[[1,2,0],[3,0],[0]]","6","0","","","","","","5","","","","","","","","",""
"","","","","","single-stim-button","141","370581","0.0-2.0-28.7-1.7","5fec06ae197628d566cdc782","F1","batch6","","1916","tol_toboard","","","","tol_peg_1","1916","1916","0","[[2,1,0],[0,0],[3]]","8","[[1,2,0],[3,0],[0]]","6","0","","","","","","5","","","","","","","","",""
"","","","","","single-stim-button","142","376760","0.0-2.0-28.8-0.8","5fec06ae197628d566cdc782","F1","batch6","","6175","tol_tohand","","","","tol_peg_1","6175","6175","0","[[2,0,0],[0,0],[3]]","9","[[1,2,0],[3,0],[0]]","6","0","","","","","","5","","","","","","","","",""
"","","","","","single-stim-button","143","381935","0.0-2.0-28.8-1.8","5fec06ae197628d566cdc782","F1","batch6","","5172","tol_toboard","","","","tol_peg_2","5172","5172","0","[[2,0,0],[1,0],[3]]","9","[[1,2,0],[3,0],[0]]","6","0","","","","","","5","","","","","","","","",""
"","","","","","single-stim-button","144","385024","0.0-2.0-28.9-0.9","5fec06ae197628d566cdc782","F1","batch6","","3085","tol_tohand","","","","tol_peg_2","3085","3085","0","[[2,0,0],[0,0],[3]]","10","[[1,2,0],[3,0],[0]]","6","0","","","","","","5","","","","","","","","",""
"","","","","","single-stim-button","145","385980","0.0-2.0-28.9-1.9","5fec06ae197628d566cdc782","F1","batch6","","951","tol_toboard","","","","tol_peg_1","951","951","0","[[2,1,0],[0,0],[3]]","10","[[1,2,0],[3,0],[0]]","6","0","","","","","","5","","","","","","","","",""
"","","","","","single-stim-button","146","386888","0.0-2.0-28.10-0.10","5fec06ae197628d566cdc782","F1","batch6","","906","tol_tohand","","","","tol_peg_3","906","906","0","[[2,1,0],[0,0],[0]]","11","[[1,2,0],[3,0],[0]]","6","0","","","","","","5","","","","","","","","",""
"","","","","","single-stim-button","147","389670","0.0-2.0-28.10-1.10","5fec06ae197628d566cdc782","F1","batch6","","2779","tol_toboard","","","","tol_peg_1","2779","2779","0","[[2,1,3],[0,0],[0]]","11","[[1,2,0],[3,0],[0]]","6","0","","","","","","5","","","","","","","","",""
"","","","","","single-stim-button","148","391619","0.0-2.0-28.11-0.11","5fec06ae197628d566cdc782","F1","batch6","","1944","tol_tohand","","","","tol_peg_1","1944","1944","0","[[2,1,0],[0,0],[0]]","12","[[1,2,0],[3,0],[0]]","6","0","","","","","","5","","","","","","","","",""
"","","","","","single-stim-button","149","393100","0.0-2.0-28.11-1.11","5fec06ae197628d566cdc782","F1","batch6","","1476","tol_toboard","","","","tol_peg_2","1476","1476","0","[[2,1,0],[3,0],[0]]","12","[[1,2,0],[3,0],[0]]","6","0","","","","","","5","","","","","","","","",""
"","","","","","single-stim-button","150","394452","0.0-2.0-28.12-0.12","5fec06ae197628d566cdc782","F1","batch6","","1349","tol_tohand","","","","tol_peg_1","1349","1349","0","[[2,0,0],[3,0],[0]]","13","[[1,2,0],[3,0],[0]]","6","0","","","","","","5","","","","","","","","",""
"","","","","","single-stim-button","151","395762","0.0-2.0-28.12-1.12","5fec06ae197628d566cdc782","F1","batch6","","1307","tol_toboard","","","","tol_peg_3","1307","1307","0","[[2,0,0],[3,0],[1]]","13","[[1,2,0],[3,0],[0]]","6","0","","","","","","5","","","","","","","","",""
"","","","","","single-stim-button","152","396692","0.0-2.0-28.13-0.13","5fec06ae197628d566cdc782","F1","batch6","","928","tol_tohand","","","","tol_peg_1","928","928","0","[[0,0,0],[3,0],[1]]","14","[[1,2,0],[3,0],[0]]","6","0","","","","","","5","","","","","","","","",""
"","","","","","single-stim-button","153","397749","0.0-2.0-28.13-1.13","5fec06ae197628d566cdc782","F1","batch6","","1054","tol_toboard","","","","tol_peg_2","1054","1054","0","[[0,0,0],[3,2],[1]]","14","[[1,2,0],[3,0],[0]]","6","0","","","","","","5","","","","","","","","",""
"","","","","","single-stim-button","154","398741","0.0-2.0-28.14-0.14","5fec06ae197628d566cdc782","F1","batch6","","989","tol_tohand","","","","tol_peg_3","989","989","0","[[0,0,0],[3,2],[0]]","15","[[1,2,0],[3,0],[0]]","6","0","","","","","","5","","","","","","","","",""
"","","","","","single-stim-button","155","399812","0.0-2.0-28.14-1.14","5fec06ae197628d566cdc782","F1","batch6","","1069","tol_toboard","","","","tol_peg_1","1069","1069","0","[[1,0,0],[3,2],[0]]","15","[[1,2,0],[3,0],[0]]","6","0","","","","","","5","","","","","","","","",""
"","","","","","single-stim-button","156","400618","0.0-2.0-28.15-0.15","5fec06ae197628d566cdc782","F1","batch6","","803","tol_tohand","","","","tol_peg_2","803","803","0","[[1,0,0],[3,0],[0]]","16","[[1,2,0],[3,0],[0]]","6","0","","","","","","5","","","","","","","","",""
"","","","","","single-stim-button","157","401491","0.0-2.0-28.15-1.15","5fec06ae197628d566cdc782","F1","batch6","","871","tol_toboard","","","","tol_peg_1","871","871","0","[[1,2,0],[3,0],[0]]","16","[[1,2,0],[3,0],[0]]","6","0","","","","","","5","","","","","","","","",""
"","","","","","poldrack-single-stim","158","402501","0.0-2.0-29.0","5fec06ae197628d566cdc782","F1","batch6","","-1","tol_feedback","","","true","","1000","1000","500","","","","","","-1","none","true","4113","45259","","","","","","","","","",""
"","","","","","html-button-response","159","404011","0.0-2.0-30.0","5fec06ae197628d566cdc782","F1","batch6","","1504","tol_trial_num","<div class = centerbox><p class = center-block-text>problem <strong>8</strong> out of 25 problems</p></div>","0","","","","","","","","","","","","","","","","","","","","","","","","",""
"","","","","","single-stim-button","160","408591","0.0-2.0-31.0-0.0","5fec06ae197628d566cdc782","F1","batch6","","4577","tol_tohand","","","","tol_peg_3","4577","4577","0","[[0,0,0],[2,3],[0]]","1","[[1,2,0],[3,0],[0]]","7","0","","","","","","4","","","","","","","","",""
"","","","","","single-stim-button","161","409945","0.0-2.0-31.0-1.0","5fec06ae197628d566cdc782","F1","batch6","","1353","tol_toboard","","","","tol_peg_1","1353","1353","0","[[1,0,0],[2,3],[0]]","1","[[1,2,0],[3,0],[0]]","7","0","","","","","","4","","","","","","","","",""
"","","","","","single-stim-button","162","410821","0.0-2.0-31.1-0.1","5fec06ae197628d566cdc782","F1","batch6","","874","tol_tohand","","","","tol_peg_2","874","874","0","[[1,0,0],[2,0],[0]]","2","[[1,2,0],[3,0],[0]]","7","0","","","","","","4","","","","","","","","",""
"","","","","","single-stim-button","163","411752","0.0-2.0-31.1-1.1","5fec06ae197628d566cdc782","F1","batch6","","928","tol_toboard","","","","tol_peg_3","928","928","0","[[1,0,0],[2,0],[3]]","2","[[1,2,0],[3,0],[0]]","7","0","","","","","","4","","","","","","","","",""
"","","","","","single-stim-button","164","412718","0.0-2.0-31.2-0.2","5fec06ae197628d566cdc782","F1","batch6","","963","tol_tohand","","","","tol_peg_2","963","963","0","[[1,0,0],[0,0],[3]]","3","[[1,2,0],[3,0],[0]]","7","0","","","","","","4","","","","","","","","",""
"","","","","","single-stim-button","165","413741","0.0-2.0-31.2-1.2","5fec06ae197628d566cdc782","F1","batch6","","1021","tol_toboard","","","","tol_peg_1","1021","1021","0","[[1,2,0],[0,0],[3]]","3","[[1,2,0],[3,0],[0]]","7","0","","","","","","4","","","","","","","","",""
"","","","","","single-stim-button","166","414734","0.0-2.0-31.3-0.3","5fec06ae197628d566cdc782","F1","batch6","","989","tol_tohand","","","","tol_peg_3","989","989","0","[[1,2,0],[0,0],[0]]","4","[[1,2,0],[3,0],[0]]","7","0","","","","","","4","","","","","","","","",""
"","","","","","single-stim-button","167","415649","0.0-2.0-31.3-1.3","5fec06ae197628d566cdc782","F1","batch6","","913","tol_toboard","","","","tol_peg_2","913","913","0","[[1,2,0],[3,0],[0]]","4","[[1,2,0],[3,0],[0]]","7","0","","","","","","4","","","","","","","","",""
"","","","","","poldrack-single-stim","168","416655","0.0-2.0-32.0","5fec06ae197628d566cdc782","F1","batch6","","-1","tol_feedback","","","true","","1000","1000","500","","","","","","-1","none","true","4577","7403","","","","","","","","","",""
"","","","","","html-button-response","169","417932","0.0-2.0-33.0","5fec06ae197628d566cdc782","F1","batch6","","1270.800000000745","tol_trial_num","<div class = centerbox><p class = center-block-text>problem <strong>9</strong> out of 25 problems</p></div>","0","","","","","","","","","","","","","","","","","","","","","","","","",""
"","","","","","single-stim-button","170","423387","0.0-2.0-34.0-0.0","5fec06ae197628d566cdc782","F1","batch6","","5452","tol_tohand","","","","tol_peg_1","5452","5452","0","[[3,0,0],[0,0],[1]]","1","[[2,1,0],[3,0],[0]]","8","0","","","","","","6","","","","","","","","",""
"","","","","","single-stim-button","171","438386","0.0-2.0-34.0-1.0","5fec06ae197628d566cdc782","F1","batch6","","14995","tol_toboard","","","","tol_peg_1","14995","14995","0","[[3,2,0],[0,0],[1]]","1","[[2,1,0],[3,0],[0]]","8","0","","","","","","6","","","","","","","","",""
"","","","","","single-stim-button","172","439567","0.0-2.0-34.1-0.1","5fec06ae197628d566cdc782","F1","batch6","","1179","tol_tohand","","","","tol_peg_3","1179","1179","0","[[3,2,0],[0,0],[0]]","2","[[2,1,0],[3,0],[0]]","8","0","","","","","","6","","","","","","","","",""
"","","","","","single-stim-button","173","440571","0.0-2.0-34.1-1.1","5fec06ae197628d566cdc782","F1","batch6","","1000","tol_toboard","","","","tol_peg_2","1000","1000","0","[[3,2,0],[1,0],[0]]","2","[[2,1,0],[3,0],[0]]","8","0","","","","","","6","","","","","","","","",""
"","","","","","single-stim-button","174","441946","0.0-2.0-34.2-0.2","5fec06ae197628d566cdc782","F1","batch6","","1373","tol_tohand","","","","tol_peg_1","1373","1373","0","[[3,0,0],[1,0],[0]]","3","[[2,1,0],[3,0],[0]]","8","0","","","","","","6","","","","","","","","",""
"","","","","","single-stim-button","175","445228","0.0-2.0-34.2-1.2","5fec06ae197628d566cdc782","F1","batch6","","3280","tol_toboard","","","","tol_peg_2","3280","3280","0","[[3,0,0],[1,2],[0]]","3","[[2,1,0],[3,0],[0]]","8","0","","","","","","6","","","","","","","","",""
"","","","","","single-stim-button","176","446385","0.0-2.0-34.3-0.3","5fec06ae197628d566cdc782","F1","batch6","","1155","tol_tohand","","","","tol_peg_1","1155","1155","0","[[0,0,0],[1,2],[0]]","4","[[2,1,0],[3,0],[0]]","8","0","","","","","","6","","","","","","","","",""
"","","","","","single-stim-button","177","447369","0.0-2.0-34.3-1.3","5fec06ae197628d566cdc782","F1","batch6","","979","tol_toboard","","","","tol_peg_3","979","979","0","[[0,0,0],[1,2],[3]]","4","[[2,1,0],[3,0],[0]]","8","0","","","","","","6","","","","","","","","",""
"","","","","","single-stim-button","178","448358","0.0-2.0-34.4-0.4","5fec06ae197628d566cdc782","F1","batch6","","987","tol_tohand","","","","tol_peg_2","987","987","0","[[0,0,0],[1,0],[3]]","5","[[2,1,0],[3,0],[0]]","8","0","","","","","","6","","","","","","","","",""
"","","","","","single-stim-button","179","450669","0.0-2.0-34.4-1.4","5fec06ae197628d566cdc782","F1","batch6","","2307","tol_toboard","","","","tol_peg_1","2307","2307","0","[[2,0,0],[1,0],[3]]","5","[[2,1,0],[3,0],[0]]","8","0","","","","","","6","","","","","","","","",""
"","","","","","single-stim-button","180","451453","0.0-2.0-34.5-0.5","5fec06ae197628d566cdc782","F1","batch6","","781","tol_tohand","","","","tol_peg_2","781","781","0","[[2,0,0],[0,0],[3]]","6","[[2,1,0],[3,0],[0]]","8","0","","","","","","6","","","","","","","","",""
"","","","","","single-stim-button","181","453145","0.0-2.0-34.5-1.5","5fec06ae197628d566cdc782","F1","batch6","","1690","tol_toboard","","","","tol_peg_1","1690","1690","0","[[2,1,0],[0,0],[3]]","6","[[2,1,0],[3,0],[0]]","8","0","","","","","","6","","","","","","","","",""
"","","","","","single-stim-button","182","454287","0.0-2.0-34.6-0.6","5fec06ae197628d566cdc782","F1","batch6","","1140","tol_tohand","","","","tol_peg_3","1140","1140","0","[[2,1,0],[0,0],[0]]","7","[[2,1,0],[3,0],[0]]","8","0","","","","","","6","","","","","","","","",""
"","","","","","single-stim-button","183","455258","0.0-2.0-34.6-1.6","5fec06ae197628d566cdc782","F1","batch6","","968","tol_toboard","","","","tol_peg_2","968","968","0","[[2,1,0],[3,0],[0]]","7","[[2,1,0],[3,0],[0]]","8","0","","","","","","6","","","","","","","","",""
"","","","","","poldrack-single-stim","184","456265","0.0-2.0-35.0","5fec06ae197628d566cdc782","F1","batch6","","-1","tol_feedback","","","true","","1000","1000","500","","","","","","-1","none","true","5452","12067","","","","","","","","","",""
"","","","","","html-button-response","185","457791","0.0-2.0-36.0","5fec06ae197628d566cdc782","F1","batch6","","1517.5","tol_trial_num","<div class = centerbox><p class = center-block-text>problem <strong>10</strong> out of 25 problems</p></div>","0","","","","","","","","","","","","","","","","","","","","","","","","",""
"","","","","","single-stim-button","186","483861","0.0-2.0-37.0-0.0","5fec06ae197628d566cdc782","F1","batch6","","26065","tol_tohand","","","","tol_peg_3","26065","26065","0","[[3,0,0],[1,0],[0]]","1","[[3,0,0],[2,1],[0]]","9","0","","","","","","3","","","","","","","","",""
"","","","","","single-stim-button","187","485095","0.0-2.0-37.0-1.0","5fec06ae197628d566cdc782","F1","batch6","","1231","tol_toboard","","","","tol_peg_1","1231","1231","0","[[3,2,0],[1,0],[0]]","1","[[3,0,0],[2,1],[0]]","9","0","","","","","","3","","","","","","","","",""
"","","","","","single-stim-button","188","486051","0.0-2.0-37.1-0.1","5fec06ae197628d566cdc782","F1","batch6","","954","tol_tohand","","","","tol_peg_2","954","954","0","[[3,2,0],[0,0],[0]]","2","[[3,0,0],[2,1],[0]]","9","0","","","","","","3","","","","","","","","",""
"","","","","","single-stim-button","189","487179","0.0-2.0-37.1-1.1","5fec06ae197628d566cdc782","F1","batch6","","1124","tol_toboard","","","","tol_peg_3","1124","1124","0","[[3,2,0],[0,0],[1]]","2","[[3,0,0],[2,1],[0]]","9","0","","","","","","3","","","","","","","","",""
"","","","","","single-stim-button","190","488335","0.0-2.0-37.2-0.2","5fec06ae197628d566cdc782","F1","batch6","","1153","tol_tohand","","","","tol_peg_1","1153","1153","0","[[3,0,0],[0,0],[1]]","3","[[3,0,0],[2,1],[0]]","9","0","","","","","","3","","","","","","","","",""
"","","","","","single-stim-button","191","489418","0.0-2.0-37.2-1.2","5fec06ae197628d566cdc782","F1","batch6","","1080","tol_toboard","","","","tol_peg_2","1080","1080","0","[[3,0,0],[2,0],[1]]","3","[[3,0,0],[2,1],[0]]","9","0","","","","","","3","","","","","","","","",""
"","","","","","single-stim-button","192","490551","0.0-2.0-37.3-0.3","5fec06ae197628d566cdc782","F1","batch6","","1131","tol_tohand","","","","tol_peg_3","1131","1131","0","[[3,0,0],[2,0],[0]]","4","[[3,0,0],[2,1],[0]]","9","0","","","","","","3","","","","","","","","",""
"","","","","","single-stim-button","193","491656","0.0-2.0-37.3-1.3","5fec06ae197628d566cdc782","F1","batch6","","1103","tol_toboard","","","","tol_peg_2","1103","1103","0","[[3,0,0],[2,1],[0]]","4","[[3,0,0],[2,1],[0]]","9","0","","","","","","3","","","","","","","","",""
"","","","","","poldrack-single-stim","194","492661","0.0-2.0-38.0","5fec06ae197628d566cdc782","F1","batch6","","-1","tol_feedback","","","true","","1000","1000","500","","","","","","-1","none","true","26065","29303","","","","","","","","","",""
"","","","","","html-button-response","195","493450","0.0-2.0-39.0","5fec06ae197628d566cdc782","F1","batch6","","786.9000000022352","tol_trial_num","<div class = centerbox><p class = center-block-text>problem <strong>11</strong> out of 25 problems</p></div>","0","","","","","","","","","","","","","","","","","","","","","","","","",""
"","","","","","single-stim-button","196","499716","0.0-2.0-40.0-0.0","5fec06ae197628d566cdc782","F1","batch6","","6262","tol_tohand","","","","tol_peg_1","6262","6262","0","[[1,0,0],[3,0],[0]]","1","[[2,0,0],[1,3],[0]]","10","0","","","","","","6","","","","","","","","",""
"","","","","","single-stim-button","197","503576","0.0-2.0-40.0-1.0","5fec06ae197628d566cdc782","F1","batch6","","3856","tol_toboard","","","","tol_peg_3","3856","3856","0","[[1,0,0],[3,0],[2]]","1","[[2,0,0],[1,3],[0]]","10","0","","","","","","6","","","","","","","","",""
"","","","","","single-stim-button","198","505573","0.0-2.0-40.1-0.1","5fec06ae197628d566cdc782","F1","batch6","","1995","tol_tohand","","","","tol_peg_1","1995","1995","0","[[0,0,0],[3,0],[2]]","2","[[2,0,0],[1,3],[0]]","10","0","","","","","","6","","","","","","","","",""
"","","","","","single-stim-button","199","506771","0.0-2.0-40.1-1.1","5fec06ae197628d566cdc782","F1","batch6","","1195","tol_toboard","","","","tol_peg_2","1195","1195","0","[[0,0,0],[3,1],[2]]","2","[[2,0,0],[1,3],[0]]","10","0","","","","","","6","","","","","","","","",""
"","","","","","single-stim-button","200","507817","0.0-2.0-40.2-0.2","5fec06ae197628d566cdc782","F1","batch6","","1042","tol_tohand","","","","tol_peg_3","1042","1042","0","[[0,0,0],[3,1],[0]]","3","[[2,0,0],[1,3],[0]]","10","0","","","","","","6","","","","","","","","",""
"","","","","","single-stim-button","201","508927","0.0-2.0-40.2-1.2","5fec06ae197628d566cdc782","F1","batch6","","1107","tol_toboard","","","","tol_peg_1","1107","1107","0","[[2,0,0],[3,1],[0]]","3","[[2,0,0],[1,3],[0]]","10","0","","","","","","6","","","","","","","","",""
"","","","","","single-stim-button","202","509961","0.0-2.0-40.3-0.3","5fec06ae197628d566cdc782","F1","batch6","","1031","tol_tohand","","","","tol_peg_2","1031","1031","0","[[2,0,0],[3,0],[0]]","4","[[2,0,0],[1,3],[0]]","10","0","","","","","","6","","","","","","","","",""
"","","","","","single-stim-button","203","510990","0.0-2.0-40.3-1.3","5fec06ae197628d566cdc782","F1","batch6","","1026","tol_toboard","","","","tol_peg_3","1026","1026","0","[[2,0,0],[3,0],[1]]","4","[[2,0,0],[1,3],[0]]","10","0","","","","","","6","","","","","","","","",""
"","","","","","single-stim-button","204","512655","0.0-2.0-40.4-0.4","5fec06ae197628d566cdc782","F1","batch6","","1663","tol_tohand","","","","tol_peg_2","1663","1663","0","[[2,0,0],[0,0],[1]]","5","[[2,0,0],[1,3],[0]]","10","0","","","","","","6","","","","","","","","",""
"","","","","","single-stim-button","205","514045","0.0-2.0-40.4-1.4","5fec06ae197628d566cdc782","F1","batch6","","1386","tol_toboard","","","","tol_peg_1","1386","1386","0","[[2,3,0],[0,0],[1]]","5","[[2,0,0],[1,3],[0]]","10","0","","","","","","6","","","","","","","","",""
"","","","","","single-stim-button","206","515166","0.0-2.0-40.5-0.5","5fec06ae197628d566cdc782","F1","batch6","","1117","tol_tohand","","","","tol_peg_3","1117","1117","0","[[2,3,0],[0,0],[0]]","6","[[2,0,0],[1,3],[0]]","10","0","","","","","","6","","","","","","","","",""
"","","","","","single-stim-button","207","516430","0.0-2.0-40.5-1.5","5fec06ae197628d566cdc782","F1","batch6","","1262","tol_toboard","","","","tol_peg_2","1262","1262","0","[[2,3,0],[1,0],[0]]","6","[[2,0,0],[1,3],[0]]","10","0","","","","","","6","","","","","","","","",""
"","","","","","single-stim-button","208","517604","0.0-2.0-40.6-0.6","5fec06ae197628d566cdc782","F1","batch6","","1171","tol_tohand","","","","tol_peg_1","1171","1171","0","[[2,0,0],[1,0],[0]]","7","[[2,0,0],[1,3],[0]]","10","0","","","","","","6","","","","","","","","",""
"","","","","","single-stim-button","209","518630","0.0-2.0-40.6-1.6","5fec06ae197628d566cdc782","F1","batch6","","1021","tol_toboard","","","","tol_peg_2","1021","1021","0","[[2,0,0],[1,3],[0]]","7","[[2,0,0],[1,3],[0]]","10","0","","","","","","6","","","","","","","","",""
"","","","","","poldrack-single-stim","210","519635","0.0-2.0-41.0","5fec06ae197628d566cdc782","F1","batch6","","-1","tol_feedback","","","true","","1000","1000","500","","","","","","-1","none","true","6262","14281","","","","","","","","","",""
"","","","","","html-button-response","211","520709","0.0-2.0-42.0","5fec06ae197628d566cdc782","F1","batch6","","1070.0999999977648","tol_trial_num","<div class = centerbox><p class = center-block-text>problem <strong>12</strong> out of 25 problems</p></div>","0","","","","","","","","","","","","","","","","","","","","","","","","",""
"","","","","","single-stim-button","212","525286","0.0-2.0-43.0-0.0","5fec06ae197628d566cdc782","F1","batch6","","4571","tol_tohand","","","","tol_peg_1","4571","4571","0","[[1,0,0],[3,0],[0]]","1","[[2,3,0],[0,0],[1]]","11","0","","","","","","4","","","","","","","","",""
"","","","","","single-stim-button","213","526172","0.0-2.0-43.0-1.0","5fec06ae197628d566cdc782","F1","batch6","","883","tol_toboard","","","","tol_peg_2","883","883","0","[[1,0,0],[3,2],[0]]","1","[[2,3,0],[0,0],[1]]","11","0","","","","","","4","","","","","","","","",""
"","","","","","single-stim-button","214","530355","0.0-2.0-43.1-0.1","5fec06ae197628d566cdc782","F1","batch6","","4178","tol_tohand","","","","tol_peg_1","4178","4178","0","[[0,0,0],[3,2],[0]]","2","[[2,3,0],[0,0],[1]]","11","0","","","","","","4","","","","","","","","",""
"","","","","","single-stim-button","215","531705","0.0-2.0-43.1-1.1","5fec06ae197628d566cdc782","F1","batch6","","1346","tol_toboard","","","","tol_peg_3","1346","1346","0","[[0,0,0],[3,2],[1]]","2","[[2,3,0],[0,0],[1]]","11","0","","","","","","4","","","","","","","","",""
"","","","","","single-stim-button","216","533316","0.0-2.0-43.2-0.2","5fec06ae197628d566cdc782","F1","batch6","","1606","tol_tohand","","","","tol_peg_2","1606","1606","0","[[0,0,0],[3,0],[1]]","3","[[2,3,0],[0,0],[1]]","11","0","","","","","","4","","","","","","","","",""
"","","","","","single-stim-button","217","534640","0.0-2.0-43.2-1.2","5fec06ae197628d566cdc782","F1","batch6","","1322","tol_toboard","","","","tol_peg_1","1322","1322","0","[[2,0,0],[3,0],[1]]","3","[[2,3,0],[0,0],[1]]","11","0","","","","","","4","","","","","","","","",""
"","","","","","single-stim-button","218","535414","0.0-2.0-43.3-0.3","5fec06ae197628d566cdc782","F1","batch6","","770","tol_tohand","","","","tol_peg_2","770","770","0","[[2,0,0],[0,0],[1]]","4","[[2,3,0],[0,0],[1]]","11","0","","","","","","4","","","","","","","","",""
"","","","","","single-stim-button","219","536665","0.0-2.0-43.3-1.3","5fec06ae197628d566cdc782","F1","batch6","","1249","tol_toboard","","","","tol_peg_1","1249","1249","0","[[2,3,0],[0,0],[1]]","4","[[2,3,0],[0,0],[1]]","11","0","","","","","","4","","","","","","","","",""
"","","","","","poldrack-single-stim","220","537672","0.0-2.0-44.0","5fec06ae197628d566cdc782","F1","batch6","","-1","tol_feedback","","","true","","1000","1000","500","","","","","","-1","none","true","4571","11125","","","","","","","","","",""
"","","","","","html-button-response","221","538713","0.0-2.0-45.0","5fec06ae197628d566cdc782","F1","batch6","","1036.5","tol_trial_num","<div class = centerbox><p class = center-block-text>problem <strong>13</strong> out of 25 problems</p></div>","0","","","","","","","","","","","","","","","","","","","","","","","","",""
"","","","","","single-stim-button","222","551513","0.0-2.0-46.0-0.0","5fec06ae197628d566cdc782","F1","batch6","","12796","tol_tohand","","","","tol_peg_2","12796","12796","0","[[1,2,0],[0,0],[0]]","1","[[0,0,0],[2,3],[1]]","12","0","","","","","","4","","","","","","","","",""
"","","","","","single-stim-button","223","552931","0.0-2.0-46.0-1.0","5fec06ae197628d566cdc782","F1","batch6","","1413","tol_toboard","","","","tol_peg_3","1413","1413","0","[[1,2,0],[0,0],[3]]","1","[[0,0,0],[2,3],[1]]","12","0","","","","","","4","","","","","","","","",""
"","","","","","single-stim-button","224","553821","0.0-2.0-46.1-0.1","5fec06ae197628d566cdc782","F1","batch6","","888","tol_tohand","","","","tol_peg_1","888","888","0","[[1,0,0],[0,0],[3]]","2","[[0,0,0],[2,3],[1]]","12","0","","","","","","4","","","","","","","","",""
"","","","","","single-stim-button","225","554704","0.0-2.0-46.1-1.1","5fec06ae197628d566cdc782","F1","batch6","","881","tol_toboard","","","","tol_peg_2","881","881","0","[[1,0,0],[2,0],[3]]","2","[[0,0,0],[2,3],[1]]","12","0","","","","","","4","","","","","","","","",""
"","","","","","single-stim-button","226","557107","0.0-2.0-46.2-0.2","5fec06ae197628d566cdc782","F1","batch6","","2400","tol_tohand","","","","tol_peg_3","2400","2400","0","[[1,0,0],[2,0],[0]]","3","[[0,0,0],[2,3],[1]]","12","0","","","","","","4","","","","","","","","",""
"","","","","","single-stim-button","227","558232","0.0-2.0-46.2-1.2","5fec06ae197628d566cdc782","F1","batch6","","1122","tol_toboard","","","","tol_peg_2","1122","1122","0","[[1,0,0],[2,3],[0]]","3","[[0,0,0],[2,3],[1]]","12","0","","","","","","4","","","","","","","","",""
"","","","","","single-stim-button","228","559034","0.0-2.0-46.3-0.3","5fec06ae197628d566cdc782","F1","batch6","","799","tol_tohand","","","","tol_peg_1","799","799","0","[[0,0,0],[2,3],[0]]","4","[[0,0,0],[2,3],[1]]","12","0","","","","","","4","","","","","","","","",""
"","","","","","single-stim-button","229","560610","0.0-2.0-46.3-1.3","5fec06ae197628d566cdc782","F1","batch6","","1572","tol_toboard","","","","tol_peg_3","1572","1572","0","[[0,0,0],[2,3],[1]]","4","[[0,0,0],[2,3],[1]]","12","0","","","","","","4","","","","","","","","",""
"","","","","","poldrack-single-stim","230","561614","0.0-2.0-47.0","5fec06ae197628d566cdc782","F1","batch6","","-1","tol_feedback","","","true","","1000","1000","500","","","","","","-1","none","true","12796","16883","","","","","","","","","",""
"","","","","","html-button-response","231","565871","0.0-2.0-48.0","5fec06ae197628d566cdc782","F1","batch6","","4252.89999999851","attention_check","<p class = block-text>How many balls are in your board<br></p>","1","true","","","","","","","","","","","","","","","","","","","","","","","",""
"","","","","","html-button-response","232","567675","0.0-2.0-49.0","5fec06ae197628d566cdc782","F1","batch6","","1800","tol_trial_num","<div class = centerbox><p class = center-block-text>problem <strong>14</strong> out of 25 problems</p></div>","0","","","","","","","","","","","","","","","","","","","","","","","","",""
"","","","","","single-stim-button","233","575142","0.0-2.0-50.0-0.0","5fec06ae197628d566cdc782","F1","batch6","","7463","tol_tohand","","","","tol_peg_1","7463","7463","0","[[2,0,0],[3,0],[0]]","1","[[1,2,0],[3,0],[0]]","13","0","","","","","","4","","","","","","","","",""
"","","","","","single-stim-button","234","577098","0.0-2.0-50.0-1.0","5fec06ae197628d566cdc782","F1","batch6","","1953","tol_toboard","","","","tol_peg_2","1953","1953","0","[[2,0,0],[3,1],[0]]","1","[[1,2,0],[3,0],[0]]","13","0","","","","","","4","","","","","","","","",""
"","","","","","single-stim-button","235","578134","0.0-2.0-50.1-0.1","5fec06ae197628d566cdc782","F1","batch6","","1032","tol_tohand","","","","tol_peg_1","1032","1032","0","[[0,0,0],[3,1],[0]]","2","[[1,2,0],[3,0],[0]]","13","0","","","","","","4","","","","","","","","",""
"","","","","","single-stim-button","236","579214","0.0-2.0-50.1-1.1","5fec06ae197628d566cdc782","F1","batch6","","1076","tol_toboard","","","","tol_peg_3","1076","1076","0","[[0,0,0],[3,1],[2]]","2","[[1,2,0],[3,0],[0]]","13","0","","","","","","4","","","","","","","","",""
"","","","","","single-stim-button","237","580232","0.0-2.0-50.2-0.2","5fec06ae197628d566cdc782","F1","batch6","","1014","tol_tohand","","","","tol_peg_2","1014","1014","0","[[0,0,0],[3,0],[2]]","3","[[1,2,0],[3,0],[0]]","13","0","","","","","","4","","","","","","","","",""
"","","","","","single-stim-button","238","581292","0.0-2.0-50.2-1.2","5fec06ae197628d566cdc782","F1","batch6","","1056","tol_toboard","","","","tol_peg_1","1056","1056","0","[[1,0,0],[3,0],[2]]","3","[[1,2,0],[3,0],[0]]","13","0","","","","","","4","","","","","","","","",""
"","","","","","single-stim-button","239","582301","0.0-2.0-50.3-0.3","5fec06ae197628d566cdc782","F1","batch6","","1006","tol_tohand","","","","tol_peg_3","1006","1006","0","[[1,0,0],[3,0],[0]]","4","[[1,2,0],[3,0],[0]]","13","0","","","","","","4","","","","","","","","",""
"","","","","","single-stim-button","240","583385","0.0-2.0-50.3-1.3","5fec06ae197628d566cdc782","F1","batch6","","1081","tol_toboard","","","","tol_peg_1","1081","1081","0","[[1,2,0],[3,0],[0]]","4","[[1,2,0],[3,0],[0]]","13","0","","","","","","4","","","","","","","","",""
"","","","","","poldrack-single-stim","241","584392","0.0-2.0-51.0","5fec06ae197628d566cdc782","F1","batch6","","-1","tol_feedback","","","true","","1000","1000","500","","","","","","-1","none","true","7463","10515","","","","","","","","","",""
"","","","","","html-button-response","242","585601","0.0-2.0-52.0","5fec06ae197628d566cdc782","F1","batch6","","1202.5999999977648","tol_trial_num","<div class = centerbox><p class = center-block-text>problem <strong>15</strong> out of 25 problems</p></div>","0","","","","","","","","","","","","","","","","","","","","","","","","",""
"","","","","","single-stim-button","243","590643","0.0-2.0-53.0-0.0","5fec06ae197628d566cdc782","F1","batch6","","5037","tol_tohand","","","","tol_peg_1","5037","5037","0","[[1,0,0],[3,0],[0]]","1","[[2,0,0],[3,0],[1]]","14","0","","","","","","3","","","","","","","","",""
"","","","","","single-stim-button","244","591620","0.0-2.0-53.0-1.0","5fec06ae197628d566cdc782","F1","batch6","","972","tol_toboard","","","","tol_peg_2","972","972","0","[[1,0,0],[3,2],[0]]","1","[[2,0,0],[3,0],[1]]","14","0","","","","","","3","","","","","","","","",""
"","","","","","single-stim-button","245","592572","0.0-2.0-53.1-0.1","5fec06ae197628d566cdc782","F1","batch6","","948","tol_tohand","","","","tol_peg_1","948","948","0","[[0,0,0],[3,2],[0]]","2","[[2,0,0],[3,0],[1]]","14","0","","","","","","3","","","","","","","","",""
"","","","","","single-stim-button","246","593512","0.0-2.0-53.1-1.1","5fec06ae197628d566cdc782","F1","batch6","","937","tol_toboard","","","","tol_peg_3","937","937","0","[[0,0,0],[3,2],[1]]","2","[[2,0,0],[3,0],[1]]","14","0","","","","","","3","","","","","","","","",""
"","","","","","single-stim-button","247","594443","0.0-2.0-53.2-0.2","5fec06ae197628d566cdc782","F1","batch6","","928","tol_tohand","","","","tol_peg_2","928","928","0","[[0,0,0],[3,0],[1]]","3","[[2,0,0],[3,0],[1]]","14","0","","","","","","3","","","","","","","","",""
"","","","","","single-stim-button","248","595618","0.0-2.0-53.2-1.2","5fec06ae197628d566cdc782","F1","batch6","","1170","tol_toboard","","","","tol_peg_1","1170","1170","0","[[2,0,0],[3,0],[1]]","3","[[2,0,0],[3,0],[1]]","14","0","","","","","","3","","","","","","","","",""
"","","","","","poldrack-single-stim","249","596623","0.0-2.0-54.0","5fec06ae197628d566cdc782","F1","batch6","","-1","tol_feedback","","","true","","1000","1000","500","","","","","","-1","none","true","5037","6913","","","","","","","","","",""
"","","","","","html-button-response","250","597548","0.0-2.0-55.0","5fec06ae197628d566cdc782","F1","batch6","","919","tol_trial_num","<div class = centerbox><p class = center-block-text>problem <strong>16</strong> out of 25 problems</p></div>","0","","","","","","","","","","","","","","","","","","","","","","","","",""
"","","","","","single-stim-button","251","607257","0.0-2.0-56.0-0.0","5fec06ae197628d566cdc782","F1","batch6","","9704","tol_tohand","","","","tol_peg_3","9704","9704","0","[[0,0,0],[2,3],[0]]","1","[[2,3,0],[1,0],[0]]","15","0","","","","","","7","","","","","","","","",""
"","","","","","single-stim-button","252","608511","0.0-2.0-56.0-1.0","5fec06ae197628d566cdc782","F1","batch6","","1250","tol_toboard","","","","tol_peg_1","1250","1250","0","[[1,0,0],[2,3],[0]]","1","[[2,3,0],[1,0],[0]]","15","0","","","","","","7","","","","","","","","",""
"","","","","","single-stim-button","253","609856","0.0-2.0-56.1-0.1","5fec06ae197628d566cdc782","F1","batch6","","1341","tol_tohand","","","","tol_peg_2","1341","1341","0","[[1,0,0],[2,0],[0]]","2","[[2,3,0],[1,0],[0]]","15","0","","","","","","7","","","","","","","","",""
"","","","","","single-stim-button","254","610721","0.0-2.0-56.1-1.1","5fec06ae197628d566cdc782","F1","batch6","","861","tol_toboard","","","","tol_peg_1","861","861","0","[[1,3,0],[2,0],[0]]","2","[[2,3,0],[1,0],[0]]","15","0","","","","","","7","","","","","","","","",""
"","","","","","single-stim-button","255","611693","0.0-2.0-56.2-0.2","5fec06ae197628d566cdc782","F1","batch6","","967","tol_tohand","","","","tol_peg_2","967","967","0","[[1,3,0],[0,0],[0]]","3","[[2,3,0],[1,0],[0]]","15","0","","","","","","7","","","","","","","","",""
"","","","","","single-stim-button","256","612961","0.0-2.0-56.2-1.2","5fec06ae197628d566cdc782","F1","batch6","","1264","tol_toboard","","","","tol_peg_3","1264","1264","0","[[1,3,0],[0,0],[2]]","3","[[2,3,0],[1,0],[0]]","15","0","","","","","","7","","","","","","","","",""
"","","","","","single-stim-button","257","618089","0.0-2.0-56.3-0.3","5fec06ae197628d566cdc782","F1","batch6","","5123","tol_tohand","","","","tol_peg_1","5123","5123","0","[[1,0,0],[0,0],[2]]","4","[[2,3,0],[1,0],[0]]","15","0","","","","","","7","","","","","","","","",""
"","","","","","single-stim-button","258","619096","0.0-2.0-56.3-1.3","5fec06ae197628d566cdc782","F1","batch6","","1004","tol_toboard","","","","tol_peg_2","1004","1004","0","[[1,0,0],[3,0],[2]]","4","[[2,3,0],[1,0],[0]]","15","0","","","","","","7","","","","","","","","",""
"","","","","","single-stim-button","259","619938","0.0-2.0-56.4-0.4","5fec06ae197628d566cdc782","F1","batch6","","839","tol_tohand","","","","tol_peg_1","839","839","0","[[0,0,0],[3,0],[2]]","5","[[2,3,0],[1,0],[0]]","15","0","","","","","","7","","","","","","","","",""
"","","","","","single-stim-button","260","621073","0.0-2.0-56.4-1.4","5fec06ae197628d566cdc782","F1","batch6","","1130","tol_toboard","","","","tol_peg_2","1130","1130","0","[[0,0,0],[3,1],[2]]","5","[[2,3,0],[1,0],[0]]","15","0","","","","","","7","","","","","","","","",""
"","","","","","single-stim-button","261","622112","0.0-2.0-56.5-0.5","5fec06ae197628d566cdc782","F1","batch6","","1037","tol_tohand","","","","tol_peg_3","1037","1037","0","[[0,0,0],[3,1],[0]]","6","[[2,3,0],[1,0],[0]]","15","0","","","","","","7","","","","","","","","",""
"","","","","","single-stim-button","262","623084","0.0-2.0-56.5-1.5","5fec06ae197628d566cdc782","F1","batch6","","968","tol_toboard","","","","tol_peg_1","968","968","0","[[2,0,0],[3,1],[0]]","6","[[2,3,0],[1,0],[0]]","15","0","","","","","","7","","","","","","","","",""
"","","","","","single-stim-button","263","624085","0.0-2.0-56.6-0.6","5fec06ae197628d566cdc782","F1","batch6","","998","tol_tohand","","","","tol_peg_2","998","998","0","[[2,0,0],[3,0],[0]]","7","[[2,3,0],[1,0],[0]]","15","0","","","","","","7","","","","","","","","",""
"","","","","","single-stim-button","264","625039","0.0-2.0-56.6-1.6","5fec06ae197628d566cdc782","F1","batch6","","952","tol_toboard","","","","tol_peg_3","952","952","0","[[2,0,0],[3,0],[1]]","7","[[2,3,0],[1,0],[0]]","15","0","","","","","","7","","","","","","","","",""
"","","","","","single-stim-button","265","625796","0.0-2.0-56.7-0.7","5fec06ae197628d566cdc782","F1","batch6","","755","tol_tohand","","","","tol_peg_2","755","755","0","[[2,0,0],[0,0],[1]]","8","[[2,3,0],[1,0],[0]]","15","0","","","","","","7","","","","","","","","",""
"","","","","","single-stim-button","266","626701","0.0-2.0-56.7-1.7","5fec06ae197628d566cdc782","F1","batch6","","903","tol_toboard","","","","tol_peg_1","903","903","0","[[2,3,0],[0,0],[1]]","8","[[2,3,0],[1,0],[0]]","15","0","","","","","","7","","","","","","","","",""
"","","","","","single-stim-button","267","628082","0.0-2.0-56.8-0.8","5fec06ae197628d566cdc782","F1","batch6","","1378","tol_tohand","","","","tol_peg_3","1378","1378","0","[[2,3,0],[0,0],[0]]","9","[[2,3,0],[1,0],[0]]","15","0","","","","","","7","","","","","","","","",""
"","","","","","single-stim-button","268","629110","0.0-2.0-56.8-1.8","5fec06ae197628d566cdc782","F1","batch6","","1024","tol_toboard","","","","tol_peg_2","1024","1024","0","[[2,3,0],[1,0],[0]]","9","[[2,3,0],[1,0],[0]]","15","0","","","","","","7","","","","","","","","",""
"","","","","","poldrack-single-stim","269","630118","0.0-2.0-57.0","5fec06ae197628d566cdc782","F1","batch6","","-1","tol_feedback","","","true","","1000","1000","500","","","","","","-1","none","true","9704","22142","","","","","","","","","",""
"","","","","","html-button-response","270","630899","0.0-2.0-58.0","5fec06ae197628d566cdc782","F1","batch6","","772.9000000022352","tol_trial_num","<div class = centerbox><p class = center-block-text>problem <strong>17</strong> out of 25 problems</p></div>","0","","","","","","","","","","","","","","","","","","","","","","","","",""
"","","","","","single-stim-button","271","633923","0.0-2.0-59.0-0.0","5fec06ae197628d566cdc782","F1","batch6","","3019","tol_tohand","","","","tol_peg_1","3019","3019","0","[[1,0,0],[3,0],[0]]","1","[[3,1,0],[2,0],[0]]","16","0","","","","","","5","","","","","","","","",""
"","","","","","single-stim-button","272","636711","0.0-2.0-59.0-1.0","5fec06ae197628d566cdc782","F1","batch6","","2785","tol_toboard","","","","tol_peg_3","2785","2785","0","[[1,0,0],[3,0],[2]]","1","[[3,1,0],[2,0],[0]]","16","0","","","","","","5","","","","","","","","",""
"","","","","","single-stim-button","273","639932","0.0-2.0-59.1-0.1","5fec06ae197628d566cdc782","F1","batch6","","3217","tol_tohand","","","","tol_peg_1","3217","3217","0","[[0,0,0],[3,0],[2]]","2","[[3,1,0],[2,0],[0]]","16","0","","","","","","5","","","","","","","","",""
"","","","","","single-stim-button","274","641319","0.0-2.0-59.1-1.1","5fec06ae197628d566cdc782","F1","batch6","","1385","tol_toboard","","","","tol_peg_2","1385","1385","0","[[0,0,0],[3,1],[2]]","2","[[3,1,0],[2,0],[0]]","16","0","","","","","","5","","","","","","","","",""
"","","","","","single-stim-button","275","647879","0.0-2.0-59.2-0.2","5fec06ae197628d566cdc782","F1","batch6","","6555","tol_tohand","","","","tol_peg_3","6555","6555","0","[[0,0,0],[3,1],[0]]","3","[[3,1,0],[2,0],[0]]","16","0","","","","","","5","","","","","","","","",""
"","","","","","single-stim-button","276","649117","0.0-2.0-59.2-1.2","5fec06ae197628d566cdc782","F1","batch6","","1235","tol_toboard","","","","tol_peg_1","1235","1235","0","[[2,0,0],[3,1],[0]]","3","[[3,1,0],[2,0],[0]]","16","0","","","","","","5","","","","","","","","",""
"","","","","","single-stim-button","277","651810","0.0-2.0-59.3-0.3","5fec06ae197628d566cdc782","F1","batch6","","2691","tol_tohand","","","","tol_peg_2","2691","2691","0","[[2,0,0],[3,0],[0]]","4","[[3,1,0],[2,0],[0]]","16","0","","","","","","5","","","","","","","","",""
"","","","","","single-stim-button","278","652734","0.0-2.0-59.3-1.3","5fec06ae197628d566cdc782","F1","batch6","","921","tol_toboard","","","","tol_peg_3","921","921","0","[[2,0,0],[3,0],[1]]","4","[[3,1,0],[2,0],[0]]","16","0","","","","","","5","","","","","","","","",""
"","","","","","single-stim-button","279","654588","0.0-2.0-59.4-0.4","5fec06ae197628d566cdc782","F1","batch6","","1852","tol_tohand","","","","tol_peg_2","1852","1852","0","[[2,0,0],[0,0],[1]]","5","[[3,1,0],[2,0],[0]]","16","0","","","","","","5","","","","","","","","",""
"","","","","","single-stim-button","280","660475","0.0-2.0-59.4-1.4","5fec06ae197628d566cdc782","F1","batch6","","5883","tol_toboard","","","","tol_peg_2","5883","5883","0","[[2,0,0],[3,0],[1]]","5","[[3,1,0],[2,0],[0]]","16","0","","","","","","5","","","","","","","","",""
"","","","","","single-stim-button","281","661502","0.0-2.0-59.5-0.5","5fec06ae197628d566cdc782","F1","batch6","","1022","tol_tohand","","","","tol_peg_3","1022","1022","0","[[2,0,0],[3,0],[0]]","6","[[3,1,0],[2,0],[0]]","16","0","","","","","","5","","","","","","","","",""
"","","","","","single-stim-button","282","662565","0.0-2.0-59.5-1.5","5fec06ae197628d566cdc782","F1","batch6","","1060","tol_toboard","","","","tol_peg_1","1060","1060","0","[[2,1,0],[3,0],[0]]","6","[[3,1,0],[2,0],[0]]","16","0","","","","","","5","","","","","","","","",""
"","","","","","single-stim-button","283","663936","0.0-2.0-59.6-0.6","5fec06ae197628d566cdc782","F1","batch6","","1369","tol_tohand","","","","tol_peg_2","1369","1369","0","[[2,1,0],[0,0],[0]]","7","[[3,1,0],[2,0],[0]]","16","0","","","","","","5","","","","","","","","",""
"","","","","","single-stim-button","284","665683","0.0-2.0-59.6-1.6","5fec06ae197628d566cdc782","F1","batch6","","1743","tol_toboard","","","","tol_peg_3","1743","1743","0","[[2,1,0],[0,0],[3]]","7","[[3,1,0],[2,0],[0]]","16","0","","","","","","5","","","","","","","","",""
"","","","","","single-stim-button","285","666591","0.0-2.0-59.7-0.7","5fec06ae197628d566cdc782","F1","batch6","","905","tol_tohand","","","","tol_peg_1","905","905","0","[[2,0,0],[0,0],[3]]","8","[[3,1,0],[2,0],[0]]","16","0","","","","","","5","","","","","","","","",""
"","","","","","single-stim-button","286","667575","0.0-2.0-59.7-1.7","5fec06ae197628d566cdc782","F1","batch6","","972","tol_toboard","","","","tol_peg_2","972","972","0","[[2,0,0],[1,0],[3]]","8","[[3,1,0],[2,0],[0]]","16","0","","","","","","5","","","","","","","","",""
"","","","","","single-stim-button","287","668345","0.0-2.0-59.8-0.8","5fec06ae197628d566cdc782","F1","batch6","","767","tol_tohand","","","","tol_peg_1","767","767","0","[[0,0,0],[1,0],[3]]","9","[[3,1,0],[2,0],[0]]","16","0","","","","","","5","","","","","","","","",""
"","","","","","single-stim-button","288","669395","0.0-2.0-59.8-1.8","5fec06ae197628d566cdc782","F1","batch6","","1047","tol_toboard","","","","tol_peg_2","1047","1047","0","[[0,0,0],[1,2],[3]]","9","[[3,1,0],[2,0],[0]]","16","0","","","","","","5","","","","","","","","",""
"","","","","","single-stim-button","289","670332","0.0-2.0-59.9-0.9","5fec06ae197628d566cdc782","F1","batch6","","934","tol_tohand","","","","tol_peg_3","934","934","0","[[0,0,0],[1,2],[0]]","10","[[3,1,0],[2,0],[0]]","16","0","","","","","","5","","","","","","","","",""
"","","","","","single-stim-button","290","671449","0.0-2.0-59.9-1.9","5fec06ae197628d566cdc782","F1","batch6","","1114","tol_toboard","","","","tol_peg_1","1114","1114","0","[[3,0,0],[1,2],[0]]","10","[[3,1,0],[2,0],[0]]","16","0","","","","","","5","","","","","","","","",""
"","","","","","single-stim-button","291","672200","0.0-2.0-59.10-0.10","5fec06ae197628d566cdc782","F1","batch6","","748","tol_tohand","","","","tol_peg_2","748","748","0","[[3,0,0],[1,0],[0]]","11","[[3,1,0],[2,0],[0]]","16","0","","","","","","5","","","","","","","","",""
"","","","","","single-stim-button","292","673022","0.0-2.0-59.10-1.10","5fec06ae197628d566cdc782","F1","batch6","","818","tol_toboard","","","","tol_peg_3","818","818","0","[[3,0,0],[1,0],[2]]","11","[[3,1,0],[2,0],[0]]","16","0","","","","","","5","","","","","","","","",""
"","","","","","single-stim-button","293","673864","0.0-2.0-59.11-0.11","5fec06ae197628d566cdc782","F1","batch6","","835","tol_tohand","","","","tol_peg_2","835","835","0","[[3,0,0],[0,0],[2]]","12","[[3,1,0],[2,0],[0]]","16","0","","","","","","5","","","","","","","","",""
"","","","","","single-stim-button","294","675564","0.0-2.0-59.11-1.11","5fec06ae197628d566cdc782","F1","batch6","","1698","tol_toboard","","","","tol_peg_1","1698","1698","0","[[3,1,0],[0,0],[2]]","12","[[3,1,0],[2,0],[0]]","16","0","","","","","","5","","","","","","","","",""
"","","","","","single-stim-button","295","679442","0.0-2.0-59.12-0.12","5fec06ae197628d566cdc782","F1","batch6","","3876","tol_tohand","","","","tol_peg_3","3876","3876","0","[[3,1,0],[0,0],[0]]","13","[[3,1,0],[2,0],[0]]","16","0","","","","","","5","","","","","","","","",""
"","","","","","single-stim-button","296","680361","0.0-2.0-59.12-1.12","5fec06ae197628d566cdc782","F1","batch6","","916","tol_toboard","","","","tol_peg_2","916","916","0","[[3,1,0],[2,0],[0]]","13","[[3,1,0],[2,0],[0]]","16","0","","","","","","5","","","","","","","","",""
"","","","","","poldrack-single-stim","297","681368","0.0-2.0-60.0","5fec06ae197628d566cdc782","F1","batch6","","-1","tol_feedback","","","true","","1000","1000","500","","","","","","-1","none","true","3019","27790","","","","","","","","","",""
"","","","","","html-button-response","298","682369","0.0-2.0-61.0","5fec06ae197628d566cdc782","F1","batch6","","996.8000000007451","tol_trial_num","<div class = centerbox><p class = center-block-text>problem <strong>18</strong> out of 25 problems</p></div>","0","","","","","","","","","","","","","","","","","","","","","","","","",""
"","","","","","single-stim-button","299","686748","0.0-2.0-62.0-0.0","5fec06ae197628d566cdc782","F1","batch6","","4377","tol_tohand","","","","tol_peg_2","4377","4377","0","[[1,2,0],[0,0],[0]]","1","[[3,0,0],[2,0],[1]]","17","0","","","","","","5","","","","","","","","",""
"","","","","","single-stim-button","300","692122","0.0-2.0-62.0-1.0","5fec06ae197628d566cdc782","F1","batch6","","5370","tol_toboard","","","","tol_peg_3","5370","5370","0","[[1,2,0],[0,0],[3]]","1","[[3,0,0],[2,0],[1]]","17","0","","","","","","5","","","","","","","","",""
"","","","","","single-stim-button","301","692953","0.0-2.0-62.1-0.1","5fec06ae197628d566cdc782","F1","batch6","","827","tol_tohand","","","","tol_peg_1","827","827","0","[[1,0,0],[0,0],[3]]","2","[[3,0,0],[2,0],[1]]","17","0","","","","","","5","","","","","","","","",""
"","","","","","single-stim-button","302","693775","0.0-2.0-62.1-1.1","5fec06ae197628d566cdc782","F1","batch6","","820","tol_toboard","","","","tol_peg_2","820","820","0","[[1,0,0],[2,0],[3]]","2","[[3,0,0],[2,0],[1]]","17","0","","","","","","5","","","","","","","","",""
"","","","","","single-stim-button","303","694559","0.0-2.0-62.2-0.2","5fec06ae197628d566cdc782","F1","batch6","","782","tol_tohand","","","","tol_peg_1","782","782","0","[[0,0,0],[2,0],[3]]","3","[[3,0,0],[2,0],[1]]","17","0","","","","","","5","","","","","","","","",""
"","","","","","single-stim-button","304","695494","0.0-2.0-62.2-1.2","5fec06ae197628d566cdc782","F1","batch6","","932","tol_toboard","","","","tol_peg_2","932","932","0","[[0,0,0],[2,1],[3]]","3","[[3,0,0],[2,0],[1]]","17","0","","","","","","5","","","","","","","","",""
"","","","","","single-stim-button","305","696533","0.0-2.0-62.3-0.3","5fec06ae197628d566cdc782","F1","batch6","","1035","tol_tohand","","","","tol_peg_3","1035","1035","0","[[0,0,0],[2,1],[0]]","4","[[3,0,0],[2,0],[1]]","17","0","","","","","","5","","","","","","","","",""
"","","","","","single-stim-button","306","697695","0.0-2.0-62.3-1.3","5fec06ae197628d566cdc782","F1","batch6","","1160","tol_toboard","","","","tol_peg_1","1160","1160","0","[[3,0,0],[2,1],[0]]","4","[[3,0,0],[2,0],[1]]","17","0","","","","","","5","","","","","","","","",""
"","","","","","single-stim-button","307","698518","0.0-2.0-62.4-0.4","5fec06ae197628d566cdc782","F1","batch6","","819","tol_tohand","","","","tol_peg_2","819","819","0","[[3,0,0],[2,0],[0]]","5","[[3,0,0],[2,0],[1]]","17","0","","","","","","5","","","","","","","","",""
"","","","","","single-stim-button","308","699433","0.0-2.0-62.4-1.4","5fec06ae197628d566cdc782","F1","batch6","","912","tol_toboard","","","","tol_peg_3","912","912","0","[[3,0,0],[2,0],[1]]","5","[[3,0,0],[2,0],[1]]","17","0","","","","","","5","","","","","","","","",""
"","","","","","poldrack-single-stim","309","700437","0.0-2.0-63.0","5fec06ae197628d566cdc782","F1","batch6","","-1","tol_feedback","","","true","","1000","1000","500","","","","","","-1","none","true","4377","7840","","","","","","","","","",""
"","","","","","html-button-response","310","701321","0.0-2.0-64.0","5fec06ae197628d566cdc782","F1","batch6","","879.6000000014901","tol_trial_num","<div class = centerbox><p class = center-block-text>problem <strong>19</strong> out of 25 problems</p></div>","0","","","","","","","","","","","","","","","","","","","","","","","","",""
"","","","","","single-stim-button","311","704115","0.0-2.0-65.0-0.0","5fec06ae197628d566cdc782","F1","batch6","","2789","tol_tohand","","","","tol_peg_2","2789","2789","0","[[1,2,0],[0,0],[0]]","1","[[0,0,0],[1,2],[3]]","18","0","","","","","","7","","","","","","","","",""
"","","","","","single-stim-button","312","705178","0.0-2.0-65.0-1.0","5fec06ae197628d566cdc782","F1","batch6","","1051","tol_toboard","","","","tol_peg_3","1051","1051","0","[[1,2,0],[0,0],[3]]","1","[[0,0,0],[1,2],[3]]","18","0","","","","","","7","","","","","","","","",""
"","","","","","single-stim-button","313","710969","0.0-2.0-65.1-0.1","5fec06ae197628d566cdc782","F1","batch6","","5786","tol_tohand","","","","tol_peg_3","5786","5786","0","[[1,2,0],[0,0],[0]]","2","[[0,0,0],[1,2],[3]]","18","0","","","","","","7","","","","","","","","",""
"","","","","","single-stim-button","314","711880","0.0-2.0-65.1-1.1","5fec06ae197628d566cdc782","F1","batch6","","908","tol_toboard","","","","tol_peg_2","908","908","0","[[1,2,0],[3,0],[0]]","2","[[0,0,0],[1,2],[3]]","18","0","","","","","","7","","","","","","","","",""
"","","","","","single-stim-button","315","712761","0.0-2.0-65.2-0.2","5fec06ae197628d566cdc782","F1","batch6","","878","tol_tohand","","","","tol_peg_1","878","878","0","[[1,0,0],[3,0],[0]]","3","[[0,0,0],[1,2],[3]]","18","0","","","","","","7","","","","","","","","",""
"","","","","","single-stim-button","316","714073","0.0-2.0-65.2-1.2","5fec06ae197628d566cdc782","F1","batch6","","1309","tol_toboard","","","","tol_peg_3","1309","1309","0","[[1,0,0],[3,0],[2]]","3","[[0,0,0],[1,2],[3]]","18","0","","","","","","7","","","","","","","","",""
"","","","","","single-stim-button","317","722036","0.0-2.0-65.3-0.3","5fec06ae197628d566cdc782","F1","batch6","","7958","tol_tohand","","","","tol_peg_1","7958","7958","0","[[0,0,0],[3,0],[2]]","4","[[0,0,0],[1,2],[3]]","18","0","","","","","","7","","","","","","","","",""
"","","","","","single-stim-button","318","723212","0.0-2.0-65.3-1.3","5fec06ae197628d566cdc782","F1","batch6","","1173","tol_toboard","","","","tol_peg_2","1173","1173","0","[[0,0,0],[3,1],[2]]","4","[[0,0,0],[1,2],[3]]","18","0","","","","","","7","","","","","","","","",""
"","","","","","single-stim-button","319","725195","0.0-2.0-65.4-0.4","5fec06ae197628d566cdc782","F1","batch6","","1979","tol_tohand","","","","tol_peg_3","1979","1979","0","[[0,0,0],[3,1],[0]]","5","[[0,0,0],[1,2],[3]]","18","0","","","","","","7","","","","","","","","",""
"","","","","","single-stim-button","320","726528","0.0-2.0-65.4-1.4","5fec06ae197628d566cdc782","F1","batch6","","1331","tol_toboard","","","","tol_peg_1","1331","1331","0","[[2,0,0],[3,1],[0]]","5","[[0,0,0],[1,2],[3]]","18","0","","","","","","7","","","","","","","","",""
"","","","","","single-stim-button","321","728324","0.0-2.0-65.5-0.5","5fec06ae197628d566cdc782","F1","batch6","","1793","tol_tohand","","","","tol_peg_2","1793","1793","0","[[2,0,0],[3,0],[0]]","6","[[0,0,0],[1,2],[3]]","18","0","","","","","","7","","","","","","","","",""
"","","","","","single-stim-button","322","729935","0.0-2.0-65.5-1.5","5fec06ae197628d566cdc782","F1","batch6","","1608","tol_toboard","","","","tol_peg_1","1608","1608","0","[[2,1,0],[3,0],[0]]","6","[[0,0,0],[1,2],[3]]","18","0","","","","","","7","","","","","","","","",""
"","","","","","single-stim-button","323","730918","0.0-2.0-65.6-0.6","5fec06ae197628d566cdc782","F1","batch6","","980","tol_tohand","","","","tol_peg_2","980","980","0","[[2,1,0],[0,0],[0]]","7","[[0,0,0],[1,2],[3]]","18","0","","","","","","7","","","","","","","","",""
"","","","","","single-stim-button","324","732239","0.0-2.0-65.6-1.6","5fec06ae197628d566cdc782","F1","batch6","","1318","tol_toboard","","","","tol_peg_3","1318","1318","0","[[2,1,0],[0,0],[3]]","7","[[0,0,0],[1,2],[3]]","18","0","","","","","","7","","","","","","","","",""
"","","","","","single-stim-button","325","733401","0.0-2.0-65.7-0.7","5fec06ae197628d566cdc782","F1","batch6","","1156","tol_tohand","","","","tol_peg_1","1156","1156","0","[[2,0,0],[0,0],[3]]","8","[[0,0,0],[1,2],[3]]","18","0","","","","","","7","","","","","","","","",""
"","","","","","single-stim-button","326","734529","0.0-2.0-65.7-1.7","5fec06ae197628d566cdc782","F1","batch6","","1126","tol_toboard","","","","tol_peg_2","1126","1126","0","[[2,0,0],[1,0],[3]]","8","[[0,0,0],[1,2],[3]]","18","0","","","","","","7","","","","","","","","",""
"","","","","","single-stim-button","327","735965","0.0-2.0-65.8-0.8","5fec06ae197628d566cdc782","F1","batch6","","1433","tol_tohand","","","","tol_peg_1","1433","1433","0","[[0,0,0],[1,0],[3]]","9","[[0,0,0],[1,2],[3]]","18","0","","","","","","7","","","","","","","","",""
"","","","","","single-stim-button","328","737219","0.0-2.0-65.8-1.8","5fec06ae197628d566cdc782","F1","batch6","","1251","tol_toboard","","","","tol_peg_2","1251","1251","0","[[0,0,0],[1,2],[3]]","9","[[0,0,0],[1,2],[3]]","18","0","","","","","","7","","","","","","","","",""
"","","","","","poldrack-single-stim","329","738223","0.0-2.0-66.0","5fec06ae197628d566cdc782","F1","batch6","","-1","tol_feedback","","","true","","1000","1000","500","","","","","","-1","none","true","2789","24752","","","","","","","","","",""
"","","","","","html-button-response","330","742394","0.0-2.0-67.0","5fec06ae197628d566cdc782","F1","batch6","","4165.900000002235","tol_trial_num","<div class = centerbox><p class = center-block-text>problem <strong>20</strong> out of 25 problems</p></div>","0","","","","","","","","","","","","","","","","","","","","","","","","",""
"","","","","","single-stim-button","331","746037","0.0-2.0-68.0-0.0","5fec06ae197628d566cdc782","F1","batch6","","3637","tol_tohand","","","","tol_peg_1","3637","3637","0","[[1,0,0],[3,0],[0]]","1","[[2,1,0],[0,0],[3]]","19","0","","","","","","5","","","","","","","","",""
"","","","","","single-stim-button","332","747243","0.0-2.0-68.0-1.0","5fec06ae197628d566cdc782","F1","batch6","","1204","tol_toboard","","","","tol_peg_3","1204","1204","0","[[1,0,0],[3,0],[2]]","1","[[2,1,0],[0,0],[3]]","19","0","","","","","","5","","","","","","","","",""
"","","","","","single-stim-button","333","748358","0.0-2.0-68.1-0.1","5fec06ae197628d566cdc782","F1","batch6","","1112","tol_tohand","","","","tol_peg_1","1112","1112","0","[[0,0,0],[3,0],[2]]","2","[[2,1,0],[0,0],[3]]","19","0","","","","","","5","","","","","","","","",""
"","","","","","single-stim-button","334","749450","0.0-2.0-68.1-1.1","5fec06ae197628d566cdc782","F1","batch6","","1089","tol_toboard","","","","tol_peg_2","1089","1089","0","[[0,0,0],[3,1],[2]]","2","[[2,1,0],[0,0],[3]]","19","0","","","","","","5","","","","","","","","",""
"","","","","","single-stim-button","335","750219","0.0-2.0-68.2-0.2","5fec06ae197628d566cdc782","F1","batch6","","768","tol_tohand","","","","tol_peg_3","768","768","0","[[0,0,0],[3,1],[0]]","3","[[2,1,0],[0,0],[3]]","19","0","","","","","","5","","","","","","","","",""
"","","","","","single-stim-button","336","751182","0.0-2.0-68.2-1.2","5fec06ae197628d566cdc782","F1","batch6","","960","tol_toboard","","","","tol_peg_1","960","960","0","[[2,0,0],[3,1],[0]]","3","[[2,1,0],[0,0],[3]]","19","0","","","","","","5","","","","","","","","",""
"","","","","","single-stim-button","337","752134","0.0-2.0-68.3-0.3","5fec06ae197628d566cdc782","F1","batch6","","949","tol_tohand","","","","tol_peg_2","949","949","0","[[2,0,0],[3,0],[0]]","4","[[2,1,0],[0,0],[3]]","19","0","","","","","","5","","","","","","","","",""
"","","","","","single-stim-button","338","753095","0.0-2.0-68.3-1.3","5fec06ae197628d566cdc782","F1","batch6","","956","tol_toboard","","","","tol_peg_1","956","956","0","[[2,1,0],[3,0],[0]]","4","[[2,1,0],[0,0],[3]]","19","0","","","","","","5","","","","","","","","",""
"","","","","","single-stim-button","339","754131","0.0-2.0-68.4-0.4","5fec06ae197628d566cdc782","F1","batch6","","1034","tol_tohand","","","","tol_peg_2","1034","1034","0","[[2,1,0],[0,0],[0]]","5","[[2,1,0],[0,0],[3]]","19","0","","","","","","5","","","","","","","","",""
"","","","","","single-stim-button","340","755315","0.0-2.0-68.4-1.4","5fec06ae197628d566cdc782","F1","batch6","","1180","tol_toboard","","","","tol_peg_3","1180","1180","0","[[2,1,0],[0,0],[3]]","5","[[2,1,0],[0,0],[3]]","19","0","","","","","","5","","","","","","","","",""
"","","","","","poldrack-single-stim","341","756323","0.0-2.0-69.0","5fec06ae197628d566cdc782","F1","batch6","","-1","tol_feedback","","","true","","1000","1000","500","","","","","","-1","none","true","3637","7500","","","","","","","","","",""
"","","","","","html-button-response","342","757392","0.0-2.0-70.0","5fec06ae197628d566cdc782","F1","batch6","","1062.6000000014901","tol_trial_num","<div class = centerbox><p class = center-block-text>problem <strong>21</strong> out of 25 problems</p></div>","0","","","","","","","","","","","","","","","","","","","","","","","","",""
"","","","","","single-stim-button","343","767058","0.0-2.0-71.0-0.0","5fec06ae197628d566cdc782","F1","batch6","","9661","tol_tohand","","","","tol_peg_2","9661","9661","0","[[1,2,0],[0,0],[0]]","1","[[3,2,0],[0,0],[1]]","20","0","","","","","","6","","","","","","","","",""
"","","","","","single-stim-button","344","768362","0.0-2.0-71.0-1.0","5fec06ae197628d566cdc782","F1","batch6","","1300","tol_toboard","","","","tol_peg_3","1300","1300","0","[[1,2,0],[0,0],[3]]","1","[[3,2,0],[0,0],[1]]","20","0","","","","","","6","","","","","","","","",""
"","","","","","single-stim-button","345","769219","0.0-2.0-71.1-0.1","5fec06ae197628d566cdc782","F1","batch6","","854","tol_tohand","","","","tol_peg_1","854","854","0","[[1,0,0],[0,0],[3]]","2","[[3,2,0],[0,0],[1]]","20","0","","","","","","6","","","","","","","","",""
"","","","","","single-stim-button","346","770300","0.0-2.0-71.1-1.1","5fec06ae197628d566cdc782","F1","batch6","","1078","tol_toboard","","","","tol_peg_2","1078","1078","0","[[1,0,0],[2,0],[3]]","2","[[3,2,0],[0,0],[1]]","20","0","","","","","","6","","","","","","","","",""
"","","","","","single-stim-button","347","771701","0.0-2.0-71.2-0.2","5fec06ae197628d566cdc782","F1","batch6","","1398","tol_tohand","","","","tol_peg_1","1398","1398","0","[[0,0,0],[2,0],[3]]","3","[[3,2,0],[0,0],[1]]","20","0","","","","","","6","","","","","","","","",""
"","","","","","single-stim-button","348","772717","0.0-2.0-71.2-1.2","5fec06ae197628d566cdc782","F1","batch6","","1013","tol_toboard","","","","tol_peg_2","1013","1013","0","[[0,0,0],[2,1],[3]]","3","[[3,2,0],[0,0],[1]]","20","0","","","","","","6","","","","","","","","",""
"","","","","","single-stim-button","349","773653","0.0-2.0-71.3-0.3","5fec06ae197628d566cdc782","F1","batch6","","932","tol_tohand","","","","tol_peg_3","932","932","0","[[0,0,0],[2,1],[0]]","4","[[3,2,0],[0,0],[1]]","20","0","","","","","","6","","","","","","","","",""
"","","","","","single-stim-button","350","774947","0.0-2.0-71.3-1.3","5fec06ae197628d566cdc782","F1","batch6","","1292","tol_toboard","","","","tol_peg_1","1292","1292","0","[[3,0,0],[2,1],[0]]","4","[[3,2,0],[0,0],[1]]","20","0","","","","","","6","","","","","","","","",""
"","","","","","single-stim-button","351","775729","0.0-2.0-71.4-0.4","5fec06ae197628d566cdc782","F1","batch6","","778","tol_tohand","","","","tol_peg_2","778","778","0","[[3,0,0],[2,0],[0]]","5","[[3,2,0],[0,0],[1]]","20","0","","","","","","6","","","","","","","","",""
"","","","","","single-stim-button","352","776753","0.0-2.0-71.4-1.4","5fec06ae197628d566cdc782","F1","batch6","","1021","tol_toboard","","","","tol_peg_3","1021","1021","0","[[3,0,0],[2,0],[1]]","5","[[3,2,0],[0,0],[1]]","20","0","","","","","","6","","","","","","","","",""
"","","","","","single-stim-button","353","777599","0.0-2.0-71.5-0.5","5fec06ae197628d566cdc782","F1","batch6","","843","tol_tohand","","","","tol_peg_2","843","843","0","[[3,0,0],[0,0],[1]]","6","[[3,2,0],[0,0],[1]]","20","0","","","","","","6","","","","","","","","",""
"","","","","","single-stim-button","354","778482","0.0-2.0-71.5-1.5","5fec06ae197628d566cdc782","F1","batch6","","877","tol_toboard","","","","tol_peg_1","877","877","0","[[3,2,0],[0,0],[1]]","6","[[3,2,0],[0,0],[1]]","20","0","","","","","","6","","","","","","","","",""
