"success","timeout","failed_images","failed_audio","failed_video","trial_type","trial_index","time_elapsed","internal_node_id","subject_id","study_id","session_id","task","rt","stimulus","response","item","answer","correct","spm_correct","spm_rt","view_history","mouse_click","stim_duration","block_duration","timing_post_trial","current_position","tol_num_moves_made","tol_target","tol_problem_id","tol_rt","key_press","possible_responses","tol_correct","preplanning","tol_rt_per_trial","tol_min_moves","fiar_detect_rt","fiar_detect_correct","total_correct_fiar_detect","post_trial_gap","choices"
"true","false","[]","[]","[]","preload","0","736","0.0-0.0","5fedbca4fd62fbfeac20c702","D2","batch4","","","","","","","","","","","","","","","","","","","","","","","","","","","","","",""
"true","","","","","fullscreen","1","6591","0.0-1.0-0.0","5fedbca4fd62fbfeac20c702","D2","batch4","","","","","","","","","","","","","","","","","","","","","","","","","","","","","",""
"true","","","","","fullscreen","2","8775","0.0-2.0-0.0","5fedbca4fd62fbfeac20c702","D2","batch4","spm_fullscreen","","","","","","","","","","","","","","","","","","","","","","","","","","","","",""
"","","","","","html-button-response","3","16857","0.0-2.0-1.0","5fedbca4fd62fbfeac20c702","D2","batch4","","8081.29999999702","<p class = block-text><b>Instructions</b> <br>This is a widely used intelligence test in research. <br>In this test, a figure with a missing piece will be presented.<br>Below the figure are alternative pieces to complete the figure, only one of which is correct.<br> Different figures might involve different principles for obtaining the missing piece<br>Your job is to select the most logical piece to complete the figure.</p>","0","","","","","","","","","","","","","","","","","","","","","","","","","",""
"","","","","","html-keyboard-response","4","17665","0.0-2.0-2.0-0.0","5fedbca4fd62fbfeac20c702","D2","batch4","spm_show_trial_num","null","<p class=block-text>Trial 1 out of 60</p>","null","","","","","","","","","","","","","","","","","","","","","","","","","",""
"","","","","","image-button-response","5","23618","0.0-2.0-2.0-1.0","5fedbca4fd62fbfeac20c702","D2","batch4","spm_respsonse","5949.5","img/question_1_1.jpeg","3","mat_01","4","1","1","5949.5","","","","","","","","","","","","","","","","","","","","",""
"","","","","","html-keyboard-response","6","24670","0.0-2.0-2.0-0.1","5fedbca4fd62fbfeac20c702","D2","batch4","spm_show_trial_num","null","<p class=block-text>Trial 2 out of 60</p>","null","","","","","","","","","","","","","","","","","","","","","","","","","",""
"","","","","","image-button-response","7","26893","0.0-2.0-2.0-1.1","5fedbca4fd62fbfeac20c702","D2","batch4","spm_respsonse","2222.2999999970198","img/question_1_2.jpeg","4","mat_02","5","1","1","2222.2999999970198","","","","","","","","","","","","","","","","","","","","",""
"","","","","","html-keyboard-response","8","27952","0.0-2.0-2.0-0.2","5fedbca4fd62fbfeac20c702","D2","batch4","spm_show_trial_num","null","<p class=block-text>Trial 3 out of 60</p>","null","","","","","","","","","","","","","","","","","","","","","","","","","",""
"","","","","","image-button-response","9","29507","0.0-2.0-2.0-1.2","5fedbca4fd62fbfeac20c702","D2","batch4","spm_respsonse","1553.5","img/question_1_3.jpeg","0","mat_03","1","1","1","1553.5","","","","","","","","","","","","","","","","","","","","",""
"","","","","","html-keyboard-response","10","30561","0.0-2.0-2.0-0.3","5fedbca4fd62fbfeac20c702","D2","batch4","spm_show_trial_num","null","<p class=block-text>Trial 4 out of 60</p>","null","","","","","","","","","","","","","","","","","","","","","","","","","",""
"","","","","","image-button-response","11","34012","0.0-2.0-2.0-1.3","5fedbca4fd62fbfeac20c702","D2","batch4","spm_respsonse","3450.0999999940395","img/question_1_4.jpeg","1","mat_04","2","1","1","3450.0999999940395","","","","","","","","","","","","","","","","","","","","",""
"","","","","","html-keyboard-response","12","35088","0.0-2.0-2.0-0.4","5fedbca4fd62fbfeac20c702","D2","batch4","spm_show_trial_num","null","<p class=block-text>Trial 5 out of 60</p>","null","","","","","","","","","","","","","","","","","","","","","","","","","",""
"","","","","","image-button-response","13","37801","0.0-2.0-2.0-1.4","5fedbca4fd62fbfeac20c702","D2","batch4","spm_respsonse","2711.7999999970198","img/question_1_5.jpeg","5","mat_05","6","1","1","2711.7999999970198","","","","","","","","","","","","","","","","","","","","",""
"","","","","","html-keyboard-response","14","38861","0.0-2.0-2.0-0.5","5fedbca4fd62fbfeac20c702","D2","batch4","spm_show_trial_num","null","<p class=block-text>Trial 6 out of 60</p>","null","","","","","","","","","","","","","","","","","","","","","","","","","",""
"","","","","","image-button-response","15","42531","0.0-2.0-2.0-1.5","5fedbca4fd62fbfeac20c702","D2","batch4","spm_respsonse","3669.2000000029802","img/question_1_6.jpeg","2","mat_06","3","1","1","3669.2000000029802","","","","","","","","","","","","","","","","","","","","",""
"","","","","","html-keyboard-response","16","43593","0.0-2.0-2.0-0.6","5fedbca4fd62fbfeac20c702","D2","batch4","spm_show_trial_num","null","<p class=block-text>Trial 7 out of 60</p>","null","","","","","","","","","","","","","","","","","","","","","","","","","",""
"","","","","","image-button-response","17","46118","0.0-2.0-2.0-1.6","5fedbca4fd62fbfeac20c702","D2","batch4","spm_respsonse","2523.5","img/question_1_7.jpeg","5","mat_07","6","1","1","2523.5","","","","","","","","","","","","","","","","","","","","",""
"","","","","","html-keyboard-response","18","47170","0.0-2.0-2.0-0.7","5fedbca4fd62fbfeac20c702","D2","batch4","spm_show_trial_num","null","<p class=block-text>Trial 8 out of 60</p>","null","","","","","","","","","","","","","","","","","","","","","","","","","",""
"","","","","","image-button-response","19","50646","0.0-2.0-2.0-1.7","5fedbca4fd62fbfeac20c702","D2","batch4","spm_respsonse","3475.0999999940395","img/question_1_8.jpeg","1","mat_08","2","1","1","3475.0999999940395","","","","","","","","","","","","","","","","","","","","",""
"","","","","","html-keyboard-response","20","51702","0.0-2.0-2.0-0.8","5fedbca4fd62fbfeac20c702","D2","batch4","spm_show_trial_num","null","<p class=block-text>Trial 9 out of 60</p>","null","","","","","","","","","","","","","","","","","","","","","","","","","",""
"","","","","","image-button-response","21","53757","0.0-2.0-2.0-1.8","5fedbca4fd62fbfeac20c702","D2","batch4","spm_respsonse","2053.9000000059605","img/question_1_9.jpeg","0","mat_09","1","1","1","2053.9000000059605","","","","","","","","","","","","","","","","","","","","",""
"","","","","","html-keyboard-response","22","54815","0.0-2.0-2.0-0.9","5fedbca4fd62fbfeac20c702","D2","batch4","spm_show_trial_num","null","<p class=block-text>Trial 10 out of 60</p>","null","","","","","","","","","","","","","","","","","","","","","","","","","",""
"","","","","","image-button-response","23","57250","0.0-2.0-2.0-1.9","5fedbca4fd62fbfeac20c702","D2","batch4","spm_respsonse","2434.0999999940395","img/question_1_10.jpeg","2","mat_10","3","1","1","2434.0999999940395","","","","","","","","","","","","","","","","","","","","",""
"","","","","","html-keyboard-response","24","58323","0.0-2.0-2.0-0.10","5fedbca4fd62fbfeac20c702","D2","batch4","spm_show_trial_num","null","<p class=block-text>Trial 11 out of 60</p>","null","","","","","","","","","","","","","","","","","","","","","","","","","",""
"","","","","","image-button-response","25","63561","0.0-2.0-2.0-1.10","5fedbca4fd62fbfeac20c702","D2","batch4","spm_respsonse","5236.79999999702","img/question_1_11.jpeg","3","mat_11","4","1","1","5236.79999999702","","","","","","","","","","","","","","","","","","","","",""
"","","","","","html-keyboard-response","26","64613","0.0-2.0-2.0-0.11","5fedbca4fd62fbfeac20c702","D2","batch4","spm_show_trial_num","null","<p class=block-text>Trial 12 out of 60</p>","null","","","","","","","","","","","","","","","","","","","","","","","","","",""
"","","","","","image-button-response","27","72463","0.0-2.0-2.0-1.11","5fedbca4fd62fbfeac20c702","D2","batch4","spm_respsonse","7849.600000008941","img/question_1_12.jpeg","1","mat_12","5","0","0","7849.600000008941","","","","","","","","","","","","","","","","","","","","",""
"","","","","","html-keyboard-response","28","73515","0.0-2.0-2.0-0.12","5fedbca4fd62fbfeac20c702","D2","batch4","spm_show_trial_num","null","<p class=block-text>Trial 13 out of 60</p>","null","","","","","","","","","","","","","","","","","","","","","","","","","",""
"","","","","","image-button-response","29","75090","0.0-2.0-2.0-1.12","5fedbca4fd62fbfeac20c702","D2","batch4","spm_respsonse","1574.2999999970198","img/question_2_1.jpeg","1","mat_13","2","1","1","1574.2999999970198","","","","","","","","","","","","","","","","","","","","",""
"","","","","","html-keyboard-response","30","76161","0.0-2.0-2.0-0.13","5fedbca4fd62fbfeac20c702","D2","batch4","spm_show_trial_num","null","<p class=block-text>Trial 14 out of 60</p>","null","","","","","","","","","","","","","","","","","","","","","","","","","",""
"","","","","","image-button-response","31","79876","0.0-2.0-2.0-1.13","5fedbca4fd62fbfeac20c702","D2","batch4","spm_respsonse","3714.1000000089407","img/question_2_2.jpeg","5","mat_14","6","1","1","3714.1000000089407","","","","","","","","","","","","","","","","","","","","",""
"","","","","","html-keyboard-response","32","80929","0.0-2.0-2.0-0.14","5fedbca4fd62fbfeac20c702","D2","batch4","spm_show_trial_num","null","<p class=block-text>Trial 15 out of 60</p>","null","","","","","","","","","","","","","","","","","","","","","","","","","",""
"","","","","","image-button-response","33","82994","0.0-2.0-2.0-1.14","5fedbca4fd62fbfeac20c702","D2","batch4","spm_respsonse","2063.9000000059605","img/question_2_3.jpeg","0","mat_15","1","1","1","2063.9000000059605","","","","","","","","","","","","","","","","","","","","",""
"","","","","","html-keyboard-response","34","84055","0.0-2.0-2.0-0.15","5fedbca4fd62fbfeac20c702","D2","batch4","spm_show_trial_num","null","<p class=block-text>Trial 16 out of 60</p>","null","","","","","","","","","","","","","","","","","","","","","","","","","",""
"","","","","","image-button-response","35","86022","0.0-2.0-2.0-1.15","5fedbca4fd62fbfeac20c702","D2","batch4","spm_respsonse","1966.7999999970198","img/question_2_4.jpeg","1","mat_16","2","1","1","1966.7999999970198","","","","","","","","","","","","","","","","","","","","",""
"","","","","","html-keyboard-response","36","87085","0.0-2.0-2.0-0.16","5fedbca4fd62fbfeac20c702","D2","batch4","spm_show_trial_num","null","<p class=block-text>Trial 17 out of 60</p>","null","","","","","","","","","","","","","","","","","","","","","","","","","",""
"","","","","","image-button-response","37","89714","0.0-2.0-2.0-1.16","5fedbca4fd62fbfeac20c702","D2","batch4","spm_respsonse","2628.3999999910593","img/question_2_5.jpeg","0","mat_17","1","1","1","2628.3999999910593","","","","","","","","","","","","","","","","","","","","",""
"","","","","","html-keyboard-response","38","90773","0.0-2.0-2.0-0.17","5fedbca4fd62fbfeac20c702","D2","batch4","spm_show_trial_num","null","<p class=block-text>Trial 18 out of 60</p>","null","","","","","","","","","","","","","","","","","","","","","","","","","",""
"","","","","","image-button-response","39","95435","0.0-2.0-2.0-1.17","5fedbca4fd62fbfeac20c702","D2","batch4","spm_respsonse","4661.199999988079","img/question_2_6.jpeg","2","mat_18","3","1","1","4661.199999988079","","","","","","","","","","","","","","","","","","","","",""
"","","","","","html-keyboard-response","40","96490","0.0-2.0-2.0-0.18","5fedbca4fd62fbfeac20c702","D2","batch4","spm_show_trial_num","null","<p class=block-text>Trial 19 out of 60</p>","null","","","","","","","","","","","","","","","","","","","","","","","","","",""
"","","","","","image-button-response","41","101041","0.0-2.0-2.0-1.18","5fedbca4fd62fbfeac20c702","D2","batch4","spm_respsonse","4550.399999991059","img/question_2_7.jpeg","4","mat_19","5","1","1","4550.399999991059","","","","","","","","","","","","","","","","","","","","",""
"","","","","","html-keyboard-response","42","102097","0.0-2.0-2.0-0.19","5fedbca4fd62fbfeac20c702","D2","batch4","spm_show_trial_num","null","<p class=block-text>Trial 20 out of 60</p>","null","","","","","","","","","","","","","","","","","","","","","","","","","",""
"","","","","","image-button-response","43","107831","0.0-2.0-2.0-1.19","5fedbca4fd62fbfeac20c702","D2","batch4","spm_respsonse","5733.29999999702","img/question_2_8.jpeg","5","mat_20","6","1","1","5733.29999999702","","","","","","","","","","","","","","","","","","","","",""
"","","","","","html-keyboard-response","44","108887","0.0-2.0-2.0-0.20","5fedbca4fd62fbfeac20c702","D2","batch4","spm_show_trial_num","null","<p class=block-text>Trial 21 out of 60</p>","null","","","","","","","","","","","","","","","","","","","","","","","","","",""
"","","","","","image-button-response","45","112831","0.0-2.0-2.0-1.20","5fedbca4fd62fbfeac20c702","D2","batch4","spm_respsonse","3943.6000000089407","img/question_2_9.jpeg","3","mat_21","4","1","1","3943.6000000089407","","","","","","","","","","","","","","","","","","","","",""
"","","","","","html-keyboard-response","46","113904","0.0-2.0-2.0-0.21","5fedbca4fd62fbfeac20c702","D2","batch4","spm_show_trial_num","null","<p class=block-text>Trial 22 out of 60</p>","null","","","","","","","","","","","","","","","","","","","","","","","","","",""
"","","","","","image-button-response","47","116179","0.0-2.0-2.0-1.21","5fedbca4fd62fbfeac20c702","D2","batch4","spm_respsonse","2274.5999999940395","img/question_2_10.jpeg","1","mat_22","3","0","0","2274.5999999940395","","","","","","","","","","","","","","","","","","","","",""
"","","","","","html-keyboard-response","48","117250","0.0-2.0-2.0-0.22","5fedbca4fd62fbfeac20c702","D2","batch4","spm_show_trial_num","null","<p class=block-text>Trial 23 out of 60</p>","null","","","","","","","","","","","","","","","","","","","","","","","","","",""
"","","","","","image-button-response","49","120934","0.0-2.0-2.0-1.22","5fedbca4fd62fbfeac20c702","D2","batch4","spm_respsonse","3683.8999999910593","img/question_2_11.jpeg","3","mat_23","4","1","1","3683.8999999910593","","","","","","","","","","","","","","","","","","","","",""
"","","","","","html-keyboard-response","50","121997","0.0-2.0-2.0-0.23","5fedbca4fd62fbfeac20c702","D2","batch4","spm_show_trial_num","null","<p class=block-text>Trial 24 out of 60</p>","null","","","","","","","","","","","","","","","","","","","","","","","","","",""
"","","","","","image-button-response","51","126949","0.0-2.0-2.0-1.23","5fedbca4fd62fbfeac20c702","D2","batch4","spm_respsonse","4952","img/question_2_12.jpeg","1","mat_24","5","0","0","4952","","","","","","","","","","","","","","","","","","","","",""
"","","","","","html-button-response","52","128936","0.0-2.0-3.0","5fedbca4fd62fbfeac20c702","D2","batch4","attention_check","1729.6000000089407","<p class = block-text>Attention check: Please choose 1<br></p>","0","","","true","","","","","","","","","","","","","","","","","","","","","","",""
"","","","","","html-keyboard-response","53","129742","0.0-2.0-4.0-0.0","5fedbca4fd62fbfeac20c702","D2","batch4","spm_show_trial_num","null","<p class=block-text>Trial 25 out of 60</p>","null","","","","","","","","","","","","","","","","","","","","","","","","","",""
"","","","","","image-button-response","54","132562","0.0-2.0-4.0-1.0","5fedbca4fd62fbfeac20c702","D2","batch4","spm_respsonse","2819","img/question_3_1.jpeg","7","mat_25","8","1","1","2819","","","","","","","","","","","","","","","","","","","","",""
"","","","","","html-keyboard-response","55","133613","0.0-2.0-4.0-0.1","5fedbca4fd62fbfeac20c702","D2","batch4","spm_show_trial_num","null","<p class=block-text>Trial 26 out of 60</p>","null","","","","","","","","","","","","","","","","","","","","","","","","","",""
"","","","","","image-button-response","56","137990","0.0-2.0-4.0-1.1","5fedbca4fd62fbfeac20c702","D2","batch4","spm_respsonse","4376.800000011921","img/question_3_2.jpeg","1","mat_26","2","1","1","4376.800000011921","","","","","","","","","","","","","","","","","","","","",""
"","","","","","html-keyboard-response","57","139057","0.0-2.0-4.0-0.2","5fedbca4fd62fbfeac20c702","D2","batch4","spm_show_trial_num","null","<p class=block-text>Trial 27 out of 60</p>","null","","","","","","","","","","","","","","","","","","","","","","","","","",""
"","","","","","image-button-response","58","143448","0.0-2.0-4.0-1.2","5fedbca4fd62fbfeac20c702","D2","batch4","spm_respsonse","4390.0999999940395","img/question_3_3.jpeg","2","mat_27","3","1","1","4390.0999999940395","","","","","","","","","","","","","","","","","","","","",""
"","","","","","html-keyboard-response","59","144502","0.0-2.0-4.0-0.3","5fedbca4fd62fbfeac20c702","D2","batch4","spm_show_trial_num","null","<p class=block-text>Trial 28 out of 60</p>","null","","","","","","","","","","","","","","","","","","","","","","","","","",""
"","","","","","image-button-response","60","150682","0.0-2.0-4.0-1.3","5fedbca4fd62fbfeac20c702","D2","batch4","spm_respsonse","6178.70000000298","img/question_3_4.jpeg","7","mat_28","8","1","1","6178.70000000298","","","","","","","","","","","","","","","","","","","","",""
"","","","","","html-keyboard-response","61","151740","0.0-2.0-4.0-0.4","5fedbca4fd62fbfeac20c702","D2","batch4","spm_show_trial_num","null","<p class=block-text>Trial 29 out of 60</p>","null","","","","","","","","","","","","","","","","","","","","","","","","","",""
"","","","","","image-button-response","62","154707","0.0-2.0-4.0-1.4","5fedbca4fd62fbfeac20c702","D2","batch4","spm_respsonse","2966","img/question_3_5.jpeg","6","mat_29","7","1","1","2966","","","","","","","","","","","","","","","","","","","","",""
"","","","","","html-keyboard-response","63","155759","0.0-2.0-4.0-0.5","5fedbca4fd62fbfeac20c702","D2","batch4","spm_show_trial_num","null","<p class=block-text>Trial 30 out of 60</p>","null","","","","","","","","","","","","","","","","","","","","","","","","","",""
"","","","","","image-button-response","64","164487","0.0-2.0-4.0-1.5","5fedbca4fd62fbfeac20c702","D2","batch4","spm_respsonse","8726.90000000596","img/question_3_6.jpeg","7","mat_30","4","0","0","8726.90000000596","","","","","","","","","","","","","","","","","","","","",""
"","","","","","html-keyboard-response","65","165540","0.0-2.0-4.0-0.6","5fedbca4fd62fbfeac20c702","D2","batch4","spm_show_trial_num","null","<p class=block-text>Trial 31 out of 60</p>","null","","","","","","","","","","","","","","","","","","","","","","","","","",""
"","","","","","image-button-response","66","169915","0.0-2.0-4.0-1.6","5fedbca4fd62fbfeac20c702","D2","batch4","spm_respsonse","4374.20000000298","img/question_3_7.jpeg","4","mat_31","5","1","1","4374.20000000298","","","","","","","","","","","","","","","","","","","","",""
"","","","","","html-keyboard-response","67","170968","0.0-2.0-4.0-0.7","5fedbca4fd62fbfeac20c702","D2","batch4","spm_show_trial_num","null","<p class=block-text>Trial 32 out of 60</p>","null","","","","","","","","","","","","","","","","","","","","","","","","","",""
"","","","","","image-button-response","68","180750","0.0-2.0-4.0-1.7","5fedbca4fd62fbfeac20c702","D2","batch4","spm_respsonse","9781.60000000894","img/question_3_8.jpeg","6","mat_32","1","0","0","9781.60000000894","","","","","","","","","","","","","","","","","","","","",""
"","","","","","html-keyboard-response","69","181802","0.0-2.0-4.0-0.8","5fedbca4fd62fbfeac20c702","D2","batch4","spm_show_trial_num","null","<p class=block-text>Trial 33 out of 60</p>","null","","","","","","","","","","","","","","","","","","","","","","","","","",""
"","","","","","image-button-response","70","191049","0.0-2.0-4.0-1.8","5fedbca4fd62fbfeac20c702","D2","batch4","spm_respsonse","9246.29999999702","img/question_3_9.jpeg","6","mat_33","7","1","1","9246.29999999702","","","","","","","","","","","","","","","","","","","","",""
"","","","","","html-keyboard-response","71","192100","0.0-2.0-4.0-0.9","5fedbca4fd62fbfeac20c702","D2","batch4","spm_show_trial_num","null","<p class=block-text>Trial 34 out of 60</p>","null","","","","","","","","","","","","","","","","","","","","","","","","","",""
"","","","","","image-button-response","72","196904","0.0-2.0-4.0-1.9","5fedbca4fd62fbfeac20c702","D2","batch4","spm_respsonse","4802.9000000059605","img/question_3_10.jpeg","7","mat_34","6","0","0","4802.9000000059605","","","","","","","","","","","","","","","","","","","","",""
"","","","","","html-keyboard-response","73","197968","0.0-2.0-4.0-0.10","5fedbca4fd62fbfeac20c702","D2","batch4","spm_show_trial_num","null","<p class=block-text>Trial 35 out of 60</p>","null","","","","","","","","","","","","","","","","","","","","","","","","","",""
"","","","","","image-button-response","74","202944","0.0-2.0-4.0-1.10","5fedbca4fd62fbfeac20c702","D2","batch4","spm_respsonse","4974.9000000059605","img/question_3_11.jpeg","3","mat_35","1","0","0","4974.9000000059605","","","","","","","","","","","","","","","","","","","","",""
"","","","","","html-keyboard-response","75","204007","0.0-2.0-4.0-0.11","5fedbca4fd62fbfeac20c702","D2","batch4","spm_show_trial_num","null","<p class=block-text>Trial 36 out of 60</p>","null","","","","","","","","","","","","","","","","","","","","","","","","","",""
"","","","","","image-button-response","76","214753","0.0-2.0-4.0-1.11","5fedbca4fd62fbfeac20c702","D2","batch4","spm_respsonse","10744.90000000596","img/question_3_12.jpeg","7","mat_36","2","0","0","10744.90000000596","","","","","","","","","","","","","","","","","","","","",""
"","","","","","html-keyboard-response","77","215805","0.0-2.0-4.0-0.12","5fedbca4fd62fbfeac20c702","D2","batch4","spm_show_trial_num","null","<p class=block-text>Trial 37 out of 60</p>","null","","","","","","","","","","","","","","","","","","","","","","","","","",""
"","","","","","image-button-response","78","217915","0.0-2.0-4.0-1.12","5fedbca4fd62fbfeac20c702","D2","batch4","spm_respsonse","2109","img/question_4_1.jpeg","2","mat_37","3","1","1","2109","","","","","","","","","","","","","","","","","","","","",""
"","","","","","html-keyboard-response","79","218969","0.0-2.0-4.0-0.13","5fedbca4fd62fbfeac20c702","D2","batch4","spm_show_trial_num","null","<p class=block-text>Trial 38 out of 60</p>","null","","","","","","","","","","","","","","","","","","","","","","","","","",""
"","","","","","image-button-response","80","224006","0.0-2.0-4.0-1.13","5fedbca4fd62fbfeac20c702","D2","batch4","spm_respsonse","5036.4000000059605","img/question_4_2.jpeg","3","mat_38","4","1","1","5036.4000000059605","","","","","","","","","","","","","","","","","","","","",""
"","","","","","html-keyboard-response","81","225073","0.0-2.0-4.0-0.14","5fedbca4fd62fbfeac20c702","D2","batch4","spm_show_trial_num","null","<p class=block-text>Trial 39 out of 60</p>","null","","","","","","","","","","","","","","","","","","","","","","","","","",""
"","","","","","image-button-response","82","228779","0.0-2.0-4.0-1.14","5fedbca4fd62fbfeac20c702","D2","batch4","spm_respsonse","3705.0999999940395","img/question_4_3.jpeg","2","mat_39","3","1","1","3705.0999999940395","","","","","","","","","","","","","","","","","","","","",""
"","","","","","html-keyboard-response","83","229836","0.0-2.0-4.0-0.15","5fedbca4fd62fbfeac20c702","D2","batch4","spm_show_trial_num","null","<p class=block-text>Trial 40 out of 60</p>","null","","","","","","","","","","","","","","","","","","","","","","","","","",""
"","","","","","image-button-response","84","233971","0.0-2.0-4.0-1.15","5fedbca4fd62fbfeac20c702","D2","batch4","spm_respsonse","4134.100000008941","img/question_4_4.jpeg","6","mat_40","7","1","1","4134.100000008941","","","","","","","","","","","","","","","","","","","","",""
"","","","","","html-keyboard-response","85","235023","0.0-2.0-4.0-0.16","5fedbca4fd62fbfeac20c702","D2","batch4","spm_show_trial_num","null","<p class=block-text>Trial 41 out of 60</p>","null","","","","","","","","","","","","","","","","","","","","","","","","","",""
"","","","","","image-button-response","86","240050","0.0-2.0-4.0-1.16","5fedbca4fd62fbfeac20c702","D2","batch4","spm_respsonse","5025.9000000059605","img/question_4_5.jpeg","7","mat_41","8","1","1","5025.9000000059605","","","","","","","","","","","","","","","","","","","","",""
"","","","","","html-keyboard-response","87","241102","0.0-2.0-4.0-0.17","5fedbca4fd62fbfeac20c702","D2","batch4","spm_show_trial_num","null","<p class=block-text>Trial 42 out of 60</p>","null","","","","","","","","","","","","","","","","","","","","","","","","","",""
"","","","","","image-button-response","88","248461","0.0-2.0-4.0-1.17","5fedbca4fd62fbfeac20c702","D2","batch4","spm_respsonse","7357.70000000298","img/question_4_6.jpeg","6","mat_42","6","0","0","7357.70000000298","","","","","","","","","","","","","","","","","","","","",""
"","","","","","html-keyboard-response","89","249521","0.0-2.0-4.0-0.18","5fedbca4fd62fbfeac20c702","D2","batch4","spm_show_trial_num","null","<p class=block-text>Trial 43 out of 60</p>","null","","","","","","","","","","","","","","","","","","","","","","","","","",""
"","","","","","image-button-response","90","255278","0.0-2.0-4.0-1.18","5fedbca4fd62fbfeac20c702","D2","batch4","spm_respsonse","5756.5","img/question_4_7.jpeg","1","mat_43","5","0","0","5756.5","","","","","","","","","","","","","","","","","","","","",""
"","","","","","html-keyboard-response","91","256338","0.0-2.0-4.0-0.19","5fedbca4fd62fbfeac20c702","D2","batch4","spm_show_trial_num","null","<p class=block-text>Trial 44 out of 60</p>","null","","","","","","","","","","","","","","","","","","","","","","","","","",""
"","","","","","image-button-response","92","263473","0.0-2.0-4.0-1.19","5fedbca4fd62fbfeac20c702","D2","batch4","spm_respsonse","7134.0999999940395","img/question_4_8.jpeg","4","mat_44","4","0","0","7134.0999999940395","","","","","","","","","","","","","","","","","","","","",""
"","","","","","html-keyboard-response","93","264526","0.0-2.0-4.0-0.20","5fedbca4fd62fbfeac20c702","D2","batch4","spm_show_trial_num","null","<p class=block-text>Trial 45 out of 60</p>","null","","","","","","","","","","","","","","","","","","","","","","","","","",""
"","","","","","image-button-response","94","278649","0.0-2.0-4.0-1.20","5fedbca4fd62fbfeac20c702","D2","batch4","spm_respsonse","14122","img/question_4_9.jpeg","0","mat_45","1","1","1","14122","","","","","","","","","","","","","","","","","","","","",""
"","","","","","html-keyboard-response","95","279701","0.0-2.0-4.0-0.21","5fedbca4fd62fbfeac20c702","D2","batch4","spm_show_trial_num","null","<p class=block-text>Trial 46 out of 60</p>","null","","","","","","","","","","","","","","","","","","","","","","","","","",""
"","","","","","image-button-response","96","286855","0.0-2.0-4.0-1.21","5fedbca4fd62fbfeac20c702","D2","batch4","spm_respsonse","7153.100000008941","img/question_4_10.jpeg","2","mat_46","2","0","0","7153.100000008941","","","","","","","","","","","","","","","","","","","","",""
"","","","","","html-keyboard-response","97","287919","0.0-2.0-4.0-0.22","5fedbca4fd62fbfeac20c702","D2","batch4","spm_show_trial_num","null","<p class=block-text>Trial 47 out of 60</p>","null","","","","","","","","","","","","","","","","","","","","","","","","","",""
"","","","","","image-button-response","98","297586","0.0-2.0-4.0-1.22","5fedbca4fd62fbfeac20c702","D2","batch4","spm_respsonse","9666.20000000298","img/question_4_11.jpeg","4","mat_47","5","1","1","9666.20000000298","","","","","","","","","","","","","","","","","","","","",""
"","","","","","html-keyboard-response","99","298639","0.0-2.0-4.0-0.23","5fedbca4fd62fbfeac20c702","D2","batch4","spm_show_trial_num","null","<p class=block-text>Trial 48 out of 60</p>","null","","","","","","","","","","","","","","","","","","","","","","","","","",""
"","","","","","image-button-response","100","303494","0.0-2.0-4.0-1.23","5fedbca4fd62fbfeac20c702","D2","batch4","spm_respsonse","4854.70000000298","img/question_4_12.jpeg","6","mat_48","6","0","0","4854.70000000298","","","","","","","","","","","","","","","","","","","","",""
"","","","","","html-keyboard-response","101","304545","0.0-2.0-4.0-0.24","5fedbca4fd62fbfeac20c702","D2","batch4","spm_show_trial_num","null","<p class=block-text>Trial 49 out of 60</p>","null","","","","","","","","","","","","","","","","","","","","","","","","","",""
"","","","","","image-button-response","102","311836","0.0-2.0-4.0-1.24","5fedbca4fd62fbfeac20c702","D2","batch4","spm_respsonse","7290.29999999702","img/question_5_1.jpeg","4","mat_49","7","0","0","7290.29999999702","","","","","","","","","","","","","","","","","","","","",""
"","","","","","html-keyboard-response","103","312888","0.0-2.0-4.0-0.25","5fedbca4fd62fbfeac20c702","D2","batch4","spm_show_trial_num","null","<p class=block-text>Trial 50 out of 60</p>","null","","","","","","","","","","","","","","","","","","","","","","","","","",""
"","","","","","image-button-response","104","316693","0.0-2.0-4.0-1.25","5fedbca4fd62fbfeac20c702","D2","batch4","spm_respsonse","3804.7000000029802","img/question_5_2.jpeg","2","mat_50","6","0","0","3804.7000000029802","","","","","","","","","","","","","","","","","","","","",""
"","","","","","html-keyboard-response","105","317759","0.0-2.0-4.0-0.26","5fedbca4fd62fbfeac20c702","D2","batch4","spm_show_trial_num","null","<p class=block-text>Trial 51 out of 60</p>","null","","","","","","","","","","","","","","","","","","","","","","","","","",""
"","","","","","image-button-response","106","329384","0.0-2.0-4.0-1.26","5fedbca4fd62fbfeac20c702","D2","batch4","spm_respsonse","11624.20000000298","img/question_5_3.jpeg","0","mat_51","8","0","0","11624.20000000298","","","","","","","","","","","","","","","","","","","","",""
"","","","","","html-keyboard-response","107","330436","0.0-2.0-4.0-0.27","5fedbca4fd62fbfeac20c702","D2","batch4","spm_show_trial_num","null","<p class=block-text>Trial 52 out of 60</p>","null","","","","","","","","","","","","","","","","","","","","","","","","","",""
"","","","","","image-button-response","108","336151","0.0-2.0-4.0-1.27","5fedbca4fd62fbfeac20c702","D2","batch4","spm_respsonse","5714.199999988079","img/question_5_4.jpeg","2","mat_52","2","0","0","5714.199999988079","","","","","","","","","","","","","","","","","","","","",""
"","","","","","html-keyboard-response","109","337204","0.0-2.0-4.0-0.28","5fedbca4fd62fbfeac20c702","D2","batch4","spm_show_trial_num","null","<p class=block-text>Trial 53 out of 60</p>","null","","","","","","","","","","","","","","","","","","","","","","","","","",""
"","","","","","image-button-response","110","344010","0.0-2.0-4.0-1.28","5fedbca4fd62fbfeac20c702","D2","batch4","spm_respsonse","6805.29999999702","img/question_5_5.jpeg","5","mat_53","1","0","0","6805.29999999702","","","","","","","","","","","","","","","","","","","","",""
"","","","","","html-keyboard-response","111","345069","0.0-2.0-4.0-0.29","5fedbca4fd62fbfeac20c702","D2","batch4","spm_show_trial_num","null","<p class=block-text>Trial 54 out of 60</p>","null","","","","","","","","","","","","","","","","","","","","","","","","","",""
"","","","","","image-button-response","112","351114","0.0-2.0-4.0-1.29","5fedbca4fd62fbfeac20c702","D2","batch4","spm_respsonse","6043.800000011921","img/question_5_6.jpeg","3","mat_54","5","0","0","6043.800000011921","","","","","","","","","","","","","","","","","","","","",""
"","","","","","html-keyboard-response","113","352166","0.0-2.0-4.0-0.30","5fedbca4fd62fbfeac20c702","D2","batch4","spm_show_trial_num","null","<p class=block-text>Trial 55 out of 60</p>","null","","","","","","","","","","","","","","","","","","","","","","","","","",""
"","","","","","image-button-response","114","368196","0.0-2.0-4.0-1.30","5fedbca4fd62fbfeac20c702","D2","batch4","spm_respsonse","16028.800000011921","img/question_5_7.jpeg","3","mat_55","1","0","0","16028.800000011921","","","","","","","","","","","","","","","","","","","","",""
"","","","","","html-keyboard-response","115","369248","0.0-2.0-4.0-0.31","5fedbca4fd62fbfeac20c702","D2","batch4","spm_show_trial_num","null","<p class=block-text>Trial 56 out of 60</p>","null","","","","","","","","","","","","","","","","","","","","","","","","","",""
"","","","","","image-button-response","116","379202","0.0-2.0-4.0-1.31","5fedbca4fd62fbfeac20c702","D2","batch4","spm_respsonse","9954","img/question_5_8.jpeg","0","mat_56","6","0","0","9954","","","","","","","","","","","","","","","","","","","","",""
"","","","","","html-keyboard-response","117","380255","0.0-2.0-4.0-0.32","5fedbca4fd62fbfeac20c702","D2","batch4","spm_show_trial_num","null","<p class=block-text>Trial 57 out of 60</p>","null","","","","","","","","","","","","","","","","","","","","","","","","","",""
"","","","","","image-button-response","118","384443","0.0-2.0-4.0-1.32","5fedbca4fd62fbfeac20c702","D2","batch4","spm_respsonse","4187.29999999702","img/question_5_9.jpeg","6","mat_57","3","0","0","4187.29999999702","","","","","","","","","","","","","","","","","","","","",""
"","","","","","html-keyboard-response","119","385493","0.0-2.0-4.0-0.33","5fedbca4fd62fbfeac20c702","D2","batch4","spm_show_trial_num","null","<p class=block-text>Trial 58 out of 60</p>","null","","","","","","","","","","","","","","","","","","","","","","","","","",""
"","","","","","image-button-response","120","388073","0.0-2.0-4.0-1.33","5fedbca4fd62fbfeac20c702","D2","batch4","spm_respsonse","2578.4000000059605","img/question_5_10.jpeg","4","mat_58","2","0","0","2578.4000000059605","","","","","","","","","","","","","","","","","","","","",""
"","","","","","html-keyboard-response","121","389128","0.0-2.0-4.0-0.34","5fedbca4fd62fbfeac20c702","D2","batch4","spm_show_trial_num","null","<p class=block-text>Trial 59 out of 60</p>","null","","","","","","","","","","","","","","","","","","","","","","","","","",""
"","","","","","image-button-response","122","394044","0.0-2.0-4.0-1.34","5fedbca4fd62fbfeac20c702","D2","batch4","spm_respsonse","4914.9000000059605","img/question_5_11.jpeg","6","mat_59","4","0","0","4914.9000000059605","","","","","","","","","","","","","","","","","","","","",""
"","","","","","html-keyboard-response","123","395116","0.0-2.0-4.0-0.35","5fedbca4fd62fbfeac20c702","D2","batch4","spm_show_trial_num","null","<p class=block-text>Trial 60 out of 60</p>","null","","","","","","","","","","","","","","","","","","","","","","","","","",""
"","","","","","image-button-response","124","401383","0.0-2.0-4.0-1.35","5fedbca4fd62fbfeac20c702","D2","batch4","spm_respsonse","6266.100000008941","img/question_5_12.jpeg","2","mat_60","5","0","0","6266.100000008941","","","","","","","","","","","","","","","","","","","","",""
"","","","","","html-button-response","125","402718","0.0-2.0-5.0","5fedbca4fd62fbfeac20c702","D2","batch4","spm_goodbye","1084.199999988079","<p class= block-text>This concludes the Standard Progressive Matrix game. Thank you for your responses!<br> When you are ready, click the button continue</p>","0","","","","","","","","","","","","","","","","","","","","","","","","","",""
"true","","","","","fullscreen","126","404733","0.0-3.0-0.0","5fedbca4fd62fbfeac20c702","D2","batch4","","","","","","","","","","","","","","","","","","","","","","","","","","","","","",""
"","","","","","instructions","127","439315","0.0-3.0-1.0-0.0-0.0","5fedbca4fd62fbfeac20c702","D2","batch4","tol-instructions","34581.29999999702","","","","","","","","[{""page_index"":0,""viewing_time"":10219.09999999404},{""page_index"":1,""viewing_time"":3660.9000000059605},{""page_index"":2,""viewing_time"":2807.0999999940395},{""page_index"":3,""viewing_time"":5357},{""page_index"":4,""viewing_time"":2376.7999999970198},{""page_index"":5,""viewing_time"":7614.4000000059605},{""page_index"":6,""viewing_time"":2545.7999999970198}]","","","","","","","","","","","","","","","","","","","",""
"","","","","","html-button-response","128","440185","0.0-3.0-1.0-1.0-0.0","5fedbca4fd62fbfeac20c702","D2","batch4","tol_enter_quiz","869.3000000119209","<p class=block-text> Let's answer a few questions <br>","0","","","","","","","","","","","","","","","","","","","","","","","","","",""
"","","","","","html-button-response","129","443558","0.0-3.0-1.0-1.0-1.0","5fedbca4fd62fbfeac20c702","D2","batch4","tol_quiz","3372.5","<p class = block-text>True or False: You can only move the ball on top of a peg. <br></p>","0","","","true","","","","","","","","","","","","","","","","","","","","","","",""
"","","","","","html-button-response","130","444352","0.0-3.0-1.0-1.0-2.0","5fedbca4fd62fbfeac20c702","D2","batch4","tol_quiz_feedback","793.2999999970198","<p class = block-text>Correct! You can only move the ball on top of a peg.</p>","0","","","","","","","","","","","","","","","","","","","","","","","","","",""
"","","","","","html-button-response","131","446500","0.0-3.0-1.0-1.0-3.0","5fedbca4fd62fbfeac20c702","D2","batch4","tol_quiz","2147.2000000029802","<p class = block-text>True or False: You should try to match your board with the target board with fewest moves possible. <br></p>","0","","","true","","","","","","","","","","","","","","","","","","","","","","",""
"","","","","","html-button-response","132","446941","0.0-3.0-1.0-1.0-4.0","5fedbca4fd62fbfeac20c702","D2","batch4","tol_quiz_feedback","440.5","<p class = block-text>Correct! </p>","0","","","","","","","","","","","","","","","","","","","","","","","","","",""
"","","","","","html-button-response","133","447544","0.0-3.0-2.0","5fedbca4fd62fbfeac20c702","D2","batch4","","602","<p class=block-text> Now that you've understood the game, let's practice a few easier examples before we start!<br> <br>","0","","","","","","","","","","","","","","","","","","","","","","","","","",""
"","","","","","single-stim-button","134","449147","0.0-3.0-3.0-0.0","5fedbca4fd62fbfeac20c702","D2","batch4","tol_practice","1602","","","","","","","","","tol_peg_2","1602","1602","0","[[1,2,0],[0,0],[0]]","1","[[1,2,0],[0,0],[3]]","practice","1602","","","","","","","","","","",""
"","","","","","single-stim-button","135","449866","0.0-3.0-3.0-1.0","5fedbca4fd62fbfeac20c702","D2","batch4","tol_practice","719","","","","","","","","","tol_peg_3","719","719","0","[[1,2,0],[0,0],[3]]","1","[[1,2,0],[0,0],[3]]","practice","719","","","","","","","","","","",""
"","","","","","poldrack-single-stim","136","450867","0.0-3.0-4.0","5fedbca4fd62fbfeac20c702","D2","batch4","tol_feedback","-1","","","","","true","","","","","1000","1000","500","","","","","","-1","none","true","","0","","","","","",""
"","","","","","single-stim-button","137","454600","0.0-3.0-5.0-0.0","5fedbca4fd62fbfeac20c702","D2","batch4","tol_practice","3733","","","","","","","","","tol_peg_1","3733","3733","0","[[1,0,0],[3,0],[0]]","2","[[0,0,0],[3,1],[2]]","practice","3733","","","","","","","","","","",""
"","","","","","single-stim-button","138","455052","0.0-3.0-5.0-1.0","5fedbca4fd62fbfeac20c702","D2","batch4","tol_practice","452","","","","","","","","","tol_peg_3","452","452","0","[[1,0,0],[3,0],[2]]","2","[[0,0,0],[3,1],[2]]","practice","452","","","","","","","","","","",""
"","","","","","single-stim-button","139","455390","0.0-3.0-5.1-0.1","5fedbca4fd62fbfeac20c702","D2","batch4","tol_practice","338","","","","","","","","","tol_peg_1","338","338","0","[[0,0,0],[3,0],[2]]","3","[[0,0,0],[3,1],[2]]","practice","338","","","","","","","","","","",""
"","","","","","single-stim-button","140","455919","0.0-3.0-5.1-1.1","5fedbca4fd62fbfeac20c702","D2","batch4","tol_practice","529","","","","","","","","","tol_peg_2","529","529","0","[[0,0,0],[3,1],[2]]","3","[[0,0,0],[3,1],[2]]","practice","529","","","","","","","","","","",""
"","","","","","poldrack-single-stim","141","456920","0.0-3.0-6.0","5fedbca4fd62fbfeac20c702","D2","batch4","tol_feedback","-1","","","","","true","","","","","1000","1000","500","","","","","","-1","none","true","","0","","","","","",""
"","","","","","single-stim-button","142","459171","0.0-3.0-7.0-0.0","5fedbca4fd62fbfeac20c702","D2","batch4","tol_practice","2251","","","","","","","","","tol_peg_2","2251","2251","0","[[1,2,0],[0,0],[0]]","4","[[1,0,0],[2,0],[3]]","practice","2251","","","","","","","","","","",""
"","","","","","single-stim-button","143","459525","0.0-3.0-7.0-1.0","5fedbca4fd62fbfeac20c702","D2","batch4","tol_practice","354","","","","","","","","","tol_peg_3","354","354","0","[[1,2,0],[0,0],[3]]","4","[[1,0,0],[2,0],[3]]","practice","354","","","","","","","","","","",""
"","","","","","single-stim-button","144","459978","0.0-3.0-7.1-0.1","5fedbca4fd62fbfeac20c702","D2","batch4","tol_practice","453","","","","","","","","","tol_peg_1","453","453","0","[[1,0,0],[0,0],[3]]","5","[[1,0,0],[2,0],[3]]","practice","453","","","","","","","","","","",""
"","","","","","single-stim-button","145","460494","0.0-3.0-7.1-1.1","5fedbca4fd62fbfeac20c702","D2","batch4","tol_practice","516","","","","","","","","","tol_peg_2","516","516","0","[[1,0,0],[2,0],[3]]","5","[[1,0,0],[2,0],[3]]","practice","516","","","","","","","","","","",""
"","","","","","poldrack-single-stim","146","461508","0.0-3.0-8.0","5fedbca4fd62fbfeac20c702","D2","batch4","tol_feedback","-1","","","","","true","","","","","1000","1000","500","","","","","","-1","none","true","","0","","","","","",""
"","","","","","html-button-response","147","462527","0.0-3.0-9.0","5fedbca4fd62fbfeac20c702","D2","batch4","tol_instruction","1018.0999999940395","<div class = centerbox><p class = center-block-text>Great job! You are done with practice trials<br>You are about to start official trials.<br> <br> Problem <strong>1</strong> out of 25 problems</p></div>","0","","","","","","","","","","","","","","","","","","","","","","","","","",""
"","","","","","single-stim-button","148","468447","0.0-3.0-10.0-0.0","5fedbca4fd62fbfeac20c702","D2","batch4","tol_tohand","4919","","","","","","","","","tol_peg_1","4919","4919","0","[[1,0,0],[3,0],[0]]","1","[[1,3,0],[2,0],[0]]","0","0","","","","","","3","","","","",""
"","","","","","single-stim-button","149","468905","0.0-3.0-10.0-1.0","5fedbca4fd62fbfeac20c702","D2","batch4","tol_toboard","458","","","","","","","","","tol_peg_3","458","458","0","[[1,0,0],[3,0],[2]]","1","[[1,3,0],[2,0],[0]]","0","0","","","","","","3","","","","",""
"","","","","","single-stim-button","150","469279","0.0-3.0-10.1-0.1","5fedbca4fd62fbfeac20c702","D2","batch4","tol_tohand","374","","","","","","","","","tol_peg_2","374","374","0","[[1,0,0],[0,0],[2]]","2","[[1,3,0],[2,0],[0]]","0","0","","","","","","3","","","","",""
"","","","","","single-stim-button","151","469857","0.0-3.0-10.1-1.1","5fedbca4fd62fbfeac20c702","D2","batch4","tol_toboard","578","","","","","","","","","tol_peg_1","578","578","0","[[1,3,0],[0,0],[2]]","2","[[1,3,0],[2,0],[0]]","0","0","","","","","","3","","","","",""
"","","","","","single-stim-button","152","470282","0.0-3.0-10.2-0.2","5fedbca4fd62fbfeac20c702","D2","batch4","tol_tohand","425","","","","","","","","","tol_peg_3","425","425","0","[[1,3,0],[0,0],[0]]","3","[[1,3,0],[2,0],[0]]","0","0","","","","","","3","","","","",""
"","","","","","single-stim-button","153","470584","0.0-3.0-10.2-1.2","5fedbca4fd62fbfeac20c702","D2","batch4","tol_toboard","302","","","","","","","","","tol_peg_2","302","302","0","[[1,3,0],[2,0],[0]]","3","[[1,3,0],[2,0],[0]]","0","0","","","","","","3","","","","",""
"","","","","","poldrack-single-stim","154","471590","0.0-3.0-11.0","5fedbca4fd62fbfeac20c702","D2","batch4","tol_feedback","-1","","","","","true","","","","","1000","1000","500","","","","","","-1","none","true","4919","5718","","","","","",""
"","","","","","html-button-response","155","472200","0.0-3.0-12.0","5fedbca4fd62fbfeac20c702","D2","batch4","tol_trial_num","608.7999999970198","<div class = centerbox><p class = center-block-text>problem <strong>2</strong> out of 25 problems</p></div>","0","","","","","","","","","","","","","","","","","","","","","","","","","",""
"","","","","","single-stim-button","156","474100","0.0-3.0-13.0-0.0","5fedbca4fd62fbfeac20c702","D2","batch4","tol_tohand","1900","","","","","","","","","tol_peg_2","1900","1900","0","[[1,2,0],[0,0],[0]]","1","[[2,1,3],[0,0],[0]]","1","0","","","","","","5","","","","",""
"","","","","","single-stim-button","157","478141","0.0-3.0-13.0-1.0","5fedbca4fd62fbfeac20c702","D2","batch4","tol_toboard","4041","","","","","","","","","tol_peg_2","4041","4041","0","[[1,2,0],[3,0],[0]]","1","[[2,1,3],[0,0],[0]]","1","0","","","","","","5","","","","",""
"","","","","","single-stim-button","158","479193","0.0-3.0-13.1-0.1","5fedbca4fd62fbfeac20c702","D2","batch4","tol_tohand","1052","","","","","","","","","tol_peg_1","1052","1052","0","[[1,0,0],[3,0],[0]]","2","[[2,1,3],[0,0],[0]]","1","0","","","","","","5","","","","",""
"","","","","","single-stim-button","159","480460","0.0-3.0-13.1-1.1","5fedbca4fd62fbfeac20c702","D2","batch4","tol_toboard","1267","","","","","","","","","tol_peg_3","1267","1267","0","[[1,0,0],[3,0],[2]]","2","[[2,1,3],[0,0],[0]]","1","0","","","","","","5","","","","",""
"","","","","","single-stim-button","160","484039","0.0-3.0-13.2-0.2","5fedbca4fd62fbfeac20c702","D2","batch4","tol_tohand","3579","","","","","","","","","tol_peg_1","3579","3579","0","[[0,0,0],[3,0],[2]]","3","[[2,1,3],[0,0],[0]]","1","0","","","","","","5","","","","",""
"","","","","","single-stim-button","161","484452","0.0-3.0-13.2-1.2","5fedbca4fd62fbfeac20c702","D2","batch4","tol_toboard","413","","","","","","","","","tol_peg_2","413","413","0","[[0,0,0],[3,1],[2]]","3","[[2,1,3],[0,0],[0]]","1","0","","","","","","5","","","","",""
"","","","","","single-stim-button","162","484808","0.0-3.0-13.3-0.3","5fedbca4fd62fbfeac20c702","D2","batch4","tol_tohand","356","","","","","","","","","tol_peg_3","356","356","0","[[0,0,0],[3,1],[0]]","4","[[2,1,3],[0,0],[0]]","1","0","","","","","","5","","","","",""
"","","","","","single-stim-button","163","485461","0.0-3.0-13.3-1.3","5fedbca4fd62fbfeac20c702","D2","batch4","tol_toboard","653","","","","","","","","","tol_peg_1","653","653","0","[[2,0,0],[3,1],[0]]","4","[[2,1,3],[0,0],[0]]","1","0","","","","","","5","","","","",""
"","","","","","single-stim-button","164","485879","0.0-3.0-13.4-0.4","5fedbca4fd62fbfeac20c702","D2","batch4","tol_tohand","418","","","","","","","","","tol_peg_2","418","418","0","[[2,0,0],[3,0],[0]]","5","[[2,1,3],[0,0],[0]]","1","0","","","","","","5","","","","",""
"","","","","","single-stim-button","165","486169","0.0-3.0-13.4-1.4","5fedbca4fd62fbfeac20c702","D2","batch4","tol_toboard","290","","","","","","","","","tol_peg_1","290","290","0","[[2,1,0],[3,0],[0]]","5","[[2,1,3],[0,0],[0]]","1","0","","","","","","5","","","","",""
"","","","","","single-stim-button","166","486527","0.0-3.0-13.5-0.5","5fedbca4fd62fbfeac20c702","D2","batch4","tol_tohand","358","","","","","","","","","tol_peg_2","358","358","0","[[2,1,0],[0,0],[0]]","6","[[2,1,3],[0,0],[0]]","1","0","","","","","","5","","","","",""
"","","","","","single-stim-button","167","486848","0.0-3.0-13.5-1.5","5fedbca4fd62fbfeac20c702","D2","batch4","tol_toboard","321","","","","","","","","","tol_peg_1","321","321","0","[[2,1,3],[0,0],[0]]","6","[[2,1,3],[0,0],[0]]","1","0","","","","","","5","","","","",""
"","","","","","poldrack-single-stim","168","487850","0.0-3.0-14.0","5fedbca4fd62fbfeac20c702","D2","batch4","tol_feedback","-1","","","","","true","","","","","1000","1000","500","","","","","","-1","none","true","1900","7663","","","","","",""
"","","","","","html-button-response","169","488476","0.0-3.0-15.0","5fedbca4fd62fbfeac20c702","D2","batch4","tol_trial_num","626.3000000119209","<div class = centerbox><p class = center-block-text>problem <strong>3</strong> out of 25 problems</p></div>","0","","","","","","","","","","","","","","","","","","","","","","","","","",""
"","","","","","single-stim-button","170","490528","0.0-3.0-16.0-0.0","5fedbca4fd62fbfeac20c702","D2","batch4","tol_tohand","2050","","","","","","","","","tol_peg_1","2050","2050","0","[[2,0,0],[0,0],[1]]","1","[[1,2,0],[3,0],[0]]","2","0","","","","","","4","","","","",""
"","","","","","single-stim-button","171","491150","0.0-3.0-16.0-1.0","5fedbca4fd62fbfeac20c702","D2","batch4","tol_toboard","622","","","","","","","","","tol_peg_2","622","622","0","[[2,0,0],[3,0],[1]]","1","[[1,2,0],[3,0],[0]]","2","0","","","","","","4","","","","",""
"","","","","","single-stim-button","172","492350","0.0-3.0-16.1-0.1","5fedbca4fd62fbfeac20c702","D2","batch4","tol_tohand","1198","","","","","","","","","tol_peg_1","1198","1198","0","[[0,0,0],[3,0],[1]]","2","[[1,2,0],[3,0],[0]]","2","0","","","","","","4","","","","",""
"","","","","","single-stim-button","173","493016","0.0-3.0-16.1-1.1","5fedbca4fd62fbfeac20c702","D2","batch4","tol_toboard","665","","","","","","","","","tol_peg_2","665","665","0","[[0,0,0],[3,2],[1]]","2","[[1,2,0],[3,0],[0]]","2","0","","","","","","4","","","","",""
"","","","","","single-stim-button","174","493304","0.0-3.0-16.2-0.2","5fedbca4fd62fbfeac20c702","D2","batch4","tol_tohand","288","","","","","","","","","tol_peg_3","288","288","0","[[0,0,0],[3,2],[0]]","3","[[1,2,0],[3,0],[0]]","2","0","","","","","","4","","","","",""
"","","","","","single-stim-button","175","493788","0.0-3.0-16.2-1.2","5fedbca4fd62fbfeac20c702","D2","batch4","tol_toboard","483","","","","","","","","","tol_peg_1","483","483","0","[[1,0,0],[3,2],[0]]","3","[[1,2,0],[3,0],[0]]","2","0","","","","","","4","","","","",""
"","","","","","single-stim-button","176","494178","0.0-3.0-16.3-0.3","5fedbca4fd62fbfeac20c702","D2","batch4","tol_tohand","390","","","","","","","","","tol_peg_2","390","390","0","[[1,0,0],[3,0],[0]]","4","[[1,2,0],[3,0],[0]]","2","0","","","","","","4","","","","",""
"","","","","","single-stim-button","177","494467","0.0-3.0-16.3-1.3","5fedbca4fd62fbfeac20c702","D2","batch4","tol_toboard","288","","","","","","","","","tol_peg_1","288","288","0","[[1,2,0],[3,0],[0]]","4","[[1,2,0],[3,0],[0]]","2","0","","","","","","4","","","","",""
"","","","","","poldrack-single-stim","178","495469","0.0-3.0-17.0","5fedbca4fd62fbfeac20c702","D2","batch4","tol_feedback","-1","","","","","true","","","","","1000","1000","500","","","","","","-1","none","true","2050","3926","","","","","",""
"","","","","","html-button-response","179","496026","0.0-3.0-18.0","5fedbca4fd62fbfeac20c702","D2","batch4","tol_trial_num","557.4000000059605","<div class = centerbox><p class = center-block-text>problem <strong>4</strong> out of 25 problems</p></div>","0","","","","","","","","","","","","","","","","","","","","","","","","","",""
"","","","","","single-stim-button","180","499217","0.0-3.0-19.0-0.0","5fedbca4fd62fbfeac20c702","D2","batch4","tol_tohand","3190","","","","","","","","","tol_peg_2","3190","3190","0","[[3,0,0],[2,0],[0]]","1","[[3,0,0],[1,0],[2]]","3","0","","","","","","3","","","","",""
"","","","","","single-stim-button","181","499620","0.0-3.0-19.0-1.0","5fedbca4fd62fbfeac20c702","D2","batch4","tol_toboard","401","","","","","","","","","tol_peg_1","401","401","0","[[3,1,0],[2,0],[0]]","1","[[3,0,0],[1,0],[2]]","3","0","","","","","","3","","","","",""
"","","","","","single-stim-button","182","499962","0.0-3.0-19.1-0.1","5fedbca4fd62fbfeac20c702","D2","batch4","tol_tohand","341","","","","","","","","","tol_peg_2","341","341","0","[[3,1,0],[0,0],[0]]","2","[[3,0,0],[1,0],[2]]","3","0","","","","","","3","","","","",""
"","","","","","single-stim-button","183","500327","0.0-3.0-19.1-1.1","5fedbca4fd62fbfeac20c702","D2","batch4","tol_toboard","364","","","","","","","","","tol_peg_3","364","364","0","[[3,1,0],[0,0],[2]]","2","[[3,0,0],[1,0],[2]]","3","0","","","","","","3","","","","",""
"","","","","","single-stim-button","184","500714","0.0-3.0-19.2-0.2","5fedbca4fd62fbfeac20c702","D2","batch4","tol_tohand","386","","","","","","","","","tol_peg_1","386","386","0","[[3,0,0],[0,0],[2]]","3","[[3,0,0],[1,0],[2]]","3","0","","","","","","3","","","","",""
"","","","","","single-stim-button","185","501012","0.0-3.0-19.2-1.2","5fedbca4fd62fbfeac20c702","D2","batch4","tol_toboard","297","","","","","","","","","tol_peg_2","297","297","0","[[3,0,0],[1,0],[2]]","3","[[3,0,0],[1,0],[2]]","3","0","","","","","","3","","","","",""
"","","","","","poldrack-single-stim","186","502013","0.0-3.0-20.0","5fedbca4fd62fbfeac20c702","D2","batch4","tol_feedback","-1","","","","","true","","","","","1000","1000","500","","","","","","-1","none","true","3190","3917","","","","","",""
"","","","","","html-button-response","187","502848","0.0-3.0-21.0","5fedbca4fd62fbfeac20c702","D2","batch4","tol_trial_num","835.3000000119209","<div class = centerbox><p class = center-block-text>problem <strong>5</strong> out of 25 problems</p></div>","0","","","","","","","","","","","","","","","","","","","","","","","","","",""
"","","","","","single-stim-button","188","504518","0.0-3.0-22.0-0.0","5fedbca4fd62fbfeac20c702","D2","batch4","tol_tohand","1668","","","","","","","","","tol_peg_2","1668","1668","0","[[1,0,0],[0,0],[3]]","1","[[0,0,0],[1,2],[3]]","4","0","","","","","","7","","","","",""
"","","","","","single-stim-button","189","505825","0.0-3.0-22.0-1.0","5fedbca4fd62fbfeac20c702","D2","batch4","tol_toboard","1306","","","","","","","","","tol_peg_1","1306","1306","0","[[1,2,0],[0,0],[3]]","1","[[0,0,0],[1,2],[3]]","4","0","","","","","","7","","","","",""
"","","","","","single-stim-button","190","510829","0.0-3.0-22.1-0.1","5fedbca4fd62fbfeac20c702","D2","batch4","tol_tohand","5003","","","","","","","","","tol_peg_3","5003","5003","0","[[1,2,0],[0,0],[0]]","2","[[0,0,0],[1,2],[3]]","4","0","","","","","","7","","","","",""
"","","","","","single-stim-button","191","511900","0.0-3.0-22.1-1.1","5fedbca4fd62fbfeac20c702","D2","batch4","tol_toboard","1070","","","","","","","","","tol_peg_3","1070","1070","0","[[1,2,0],[0,0],[3]]","2","[[0,0,0],[1,2],[3]]","4","0","","","","","","7","","","","",""
"","","","","","single-stim-button","192","512684","0.0-3.0-22.2-0.2","5fedbca4fd62fbfeac20c702","D2","batch4","tol_tohand","784","","","","","","","","","tol_peg_1","784","784","0","[[1,0,0],[0,0],[3]]","3","[[0,0,0],[1,2],[3]]","4","0","","","","","","7","","","","",""
"","","","","","single-stim-button","193","513009","0.0-3.0-22.2-1.2","5fedbca4fd62fbfeac20c702","D2","batch4","tol_toboard","325","","","","","","","","","tol_peg_2","325","325","0","[[1,0,0],[2,0],[3]]","3","[[0,0,0],[1,2],[3]]","4","0","","","","","","7","","","","",""
"","","","","","single-stim-button","194","513906","0.0-3.0-22.3-0.3","5fedbca4fd62fbfeac20c702","D2","batch4","tol_tohand","895","","","","","","","","","tol_peg_3","895","895","0","[[1,0,0],[2,0],[0]]","4","[[0,0,0],[1,2],[3]]","4","0","","","","","","7","","","","",""
"","","","","","single-stim-button","195","514439","0.0-3.0-22.3-1.3","5fedbca4fd62fbfeac20c702","D2","batch4","tol_toboard","533","","","","","","","","","tol_peg_1","533","533","0","[[1,3,0],[2,0],[0]]","4","[[0,0,0],[1,2],[3]]","4","0","","","","","","7","","","","",""
"","","","","","single-stim-button","196","515625","0.0-3.0-22.4-0.4","5fedbca4fd62fbfeac20c702","D2","batch4","tol_tohand","1184","","","","","","","","","tol_peg_2","1184","1184","0","[[1,3,0],[0,0],[0]]","5","[[0,0,0],[1,2],[3]]","4","0","","","","","","7","","","","",""
"","","","","","single-stim-button","197","515962","0.0-3.0-22.4-1.4","5fedbca4fd62fbfeac20c702","D2","batch4","tol_toboard","337","","","","","","","","","tol_peg_3","337","337","0","[[1,3,0],[0,0],[2]]","5","[[0,0,0],[1,2],[3]]","4","0","","","","","","7","","","","",""
"","","","","","single-stim-button","198","518702","0.0-3.0-22.5-0.5","5fedbca4fd62fbfeac20c702","D2","batch4","tol_tohand","2739","","","","","","","","","tol_peg_3","2739","2739","0","[[1,3,0],[0,0],[0]]","6","[[0,0,0],[1,2],[3]]","4","0","","","","","","7","","","","",""
"","","","","","single-stim-button","199","520661","0.0-3.0-22.5-1.5","5fedbca4fd62fbfeac20c702","D2","batch4","tol_toboard","1959","","","","","","","","","tol_peg_2","1959","1959","0","[[1,3,0],[2,0],[0]]","6","[[0,0,0],[1,2],[3]]","4","0","","","","","","7","","","","",""
"","","","","","single-stim-button","200","522216","0.0-3.0-22.6-0.6","5fedbca4fd62fbfeac20c702","D2","batch4","tol_tohand","1554","","","","","","","","","tol_peg_1","1554","1554","0","[[1,0,0],[2,0],[0]]","7","[[0,0,0],[1,2],[3]]","4","0","","","","","","7","","","","",""
"","","","","","single-stim-button","201","523416","0.0-3.0-22.6-1.6","5fedbca4fd62fbfeac20c702","D2","batch4","tol_toboard","1199","","","","","","","","","tol_peg_2","1199","1199","0","[[1,0,0],[2,3],[0]]","7","[[0,0,0],[1,2],[3]]","4","0","","","","","","7","","","","",""
"","","","","","single-stim-button","202","523798","0.0-3.0-22.7-0.7","5fedbca4fd62fbfeac20c702","D2","batch4","tol_tohand","381","","","","","","","","","tol_peg_1","381","381","0","[[0,0,0],[2,3],[0]]","8","[[0,0,0],[1,2],[3]]","4","0","","","","","","7","","","","",""
"","","","","","single-stim-button","203","524183","0.0-3.0-22.7-1.7","5fedbca4fd62fbfeac20c702","D2","batch4","tol_toboard","385","","","","","","","","","tol_peg_3","385","385","0","[[0,0,0],[2,3],[1]]","8","[[0,0,0],[1,2],[3]]","4","0","","","","","","7","","","","",""
"","","","","","single-stim-button","204","524803","0.0-3.0-22.8-0.8","5fedbca4fd62fbfeac20c702","D2","batch4","tol_tohand","619","","","","","","","","","tol_peg_2","619","619","0","[[0,0,0],[2,0],[1]]","9","[[0,0,0],[1,2],[3]]","4","0","","","","","","7","","","","",""
"","","","","","single-stim-button","205","526131","0.0-3.0-22.8-1.8","5fedbca4fd62fbfeac20c702","D2","batch4","tol_toboard","1327","","","","","","","","","tol_peg_1","1327","1327","0","[[3,0,0],[2,0],[1]]","9","[[0,0,0],[1,2],[3]]","4","0","","","","","","7","","","","",""
"","","","","","single-stim-button","206","527668","0.0-3.0-22.9-0.9","5fedbca4fd62fbfeac20c702","D2","batch4","tol_tohand","1536","","","","","","","","","tol_peg_2","1536","1536","0","[[3,0,0],[0,0],[1]]","10","[[0,0,0],[1,2],[3]]","4","0","","","","","","7","","","","",""
"","","","","","single-stim-button","207","527973","0.0-3.0-22.9-1.9","5fedbca4fd62fbfeac20c702","D2","batch4","tol_toboard","304","","","","","","","","","tol_peg_1","304","304","0","[[3,2,0],[0,0],[1]]","10","[[0,0,0],[1,2],[3]]","4","0","","","","","","7","","","","",""
"","","","","","single-stim-button","208","528371","0.0-3.0-22.10-0.10","5fedbca4fd62fbfeac20c702","D2","batch4","tol_tohand","397","","","","","","","","","tol_peg_3","397","397","0","[[3,2,0],[0,0],[0]]","11","[[0,0,0],[1,2],[3]]","4","0","","","","","","7","","","","",""
"","","","","","single-stim-button","209","529321","0.0-3.0-22.10-1.10","5fedbca4fd62fbfeac20c702","D2","batch4","tol_toboard","950","","","","","","","","","tol_peg_2","950","950","0","[[3,2,0],[1,0],[0]]","11","[[0,0,0],[1,2],[3]]","4","0","","","","","","7","","","","",""
"","","","","","single-stim-button","210","529891","0.0-3.0-22.11-0.11","5fedbca4fd62fbfeac20c702","D2","batch4","tol_tohand","569","","","","","","","","","tol_peg_1","569","569","0","[[3,0,0],[1,0],[0]]","12","[[0,0,0],[1,2],[3]]","4","0","","","","","","7","","","","",""
"","","","","","single-stim-button","211","530175","0.0-3.0-22.11-1.11","5fedbca4fd62fbfeac20c702","D2","batch4","tol_toboard","283","","","","","","","","","tol_peg_2","283","283","0","[[3,0,0],[1,2],[0]]","12","[[0,0,0],[1,2],[3]]","4","0","","","","","","7","","","","",""
"","","","","","single-stim-button","212","530567","0.0-3.0-22.12-0.12","5fedbca4fd62fbfeac20c702","D2","batch4","tol_tohand","391","","","","","","","","","tol_peg_1","391","391","0","[[0,0,0],[1,2],[0]]","13","[[0,0,0],[1,2],[3]]","4","0","","","","","","7","","","","",""
"","","","","","single-stim-button","213","530921","0.0-3.0-22.12-1.12","5fedbca4fd62fbfeac20c702","D2","batch4","tol_toboard","353","","","","","","","","","tol_peg_3","353","353","0","[[0,0,0],[1,2],[3]]","13","[[0,0,0],[1,2],[3]]","4","0","","","","","","7","","","","",""
"","","","","","poldrack-single-stim","214","531923","0.0-3.0-23.0","5fedbca4fd62fbfeac20c702","D2","batch4","tol_feedback","-1","","","","","true","","","","","1000","1000","500","","","","","","-1","none","true","1668","17720","","","","","",""
"","","","","","html-button-response","215","532486","0.0-3.0-24.0","5fedbca4fd62fbfeac20c702","D2","batch4","tol_trial_num","563","<div class = centerbox><p class = center-block-text>problem <strong>6</strong> out of 25 problems</p></div>","0","","","","","","","","","","","","","","","","","","","","","","","","","",""
"","","","","","single-stim-button","216","539688","0.0-3.0-25.0-0.0","5fedbca4fd62fbfeac20c702","D2","batch4","tol_tohand","7201","","","","","","","","","tol_peg_3","7201","7201","0","[[0,0,0],[1,2],[0]]","1","[[1,0,0],[2,3],[0]]","5","0","","","","","","6","","","","",""
"","","","","","single-stim-button","217","540393","0.0-3.0-25.0-1.0","5fedbca4fd62fbfeac20c702","D2","batch4","tol_toboard","704","","","","","","","","","tol_peg_1","704","704","0","[[3,0,0],[1,2],[0]]","1","[[1,0,0],[2,3],[0]]","5","0","","","","","","6","","","","",""
"","","","","","single-stim-button","218","548431","0.0-3.0-25.1-0.1","5fedbca4fd62fbfeac20c702","D2","batch4","tol_tohand","8038","","","","","","","","","tol_peg_1","8038","8038","0","[[0,0,0],[1,2],[0]]","2","[[1,0,0],[2,3],[0]]","5","0","","","","","","6","","","","",""
"","","","","","single-stim-button","219","549059","0.0-3.0-25.1-1.1","5fedbca4fd62fbfeac20c702","D2","batch4","tol_toboard","628","","","","","","","","","tol_peg_3","628","628","0","[[0,0,0],[1,2],[3]]","2","[[1,0,0],[2,3],[0]]","5","0","","","","","","6","","","","",""
"","","","","","single-stim-button","220","550214","0.0-3.0-25.2-0.2","5fedbca4fd62fbfeac20c702","D2","batch4","tol_tohand","1153","","","","","","","","","tol_peg_2","1153","1153","0","[[0,0,0],[1,0],[3]]","3","[[1,0,0],[2,3],[0]]","5","0","","","","","","6","","","","",""
"","","","","","single-stim-button","221","551024","0.0-3.0-25.2-1.2","5fedbca4fd62fbfeac20c702","D2","batch4","tol_toboard","809","","","","","","","","","tol_peg_1","809","809","0","[[2,0,0],[1,0],[3]]","3","[[1,0,0],[2,3],[0]]","5","0","","","","","","6","","","","",""
"","","","","","single-stim-button","222","554347","0.0-3.0-25.3-0.3","5fedbca4fd62fbfeac20c702","D2","batch4","tol_tohand","3322","","","","","","","","","tol_peg_1","3322","3322","0","[[0,0,0],[1,0],[3]]","4","[[1,0,0],[2,3],[0]]","5","0","","","","","","6","","","","",""
"","","","","","single-stim-button","223","556019","0.0-3.0-25.3-1.3","5fedbca4fd62fbfeac20c702","D2","batch4","tol_toboard","1671","","","","","","","","","tol_peg_2","1671","1671","0","[[0,0,0],[1,2],[3]]","4","[[1,0,0],[2,3],[0]]","5","0","","","","","","6","","","","",""
"","","","","","single-stim-button","224","558861","0.0-3.0-25.4-0.4","5fedbca4fd62fbfeac20c702","D2","batch4","tol_tohand","2841","","","","","","","","","tol_peg_3","2841","2841","0","[[0,0,0],[1,2],[0]]","5","[[1,0,0],[2,3],[0]]","5","0","","","","","","6","","","","",""
"","","","","","single-stim-button","225","560305","0.0-3.0-25.4-1.4","5fedbca4fd62fbfeac20c702","D2","batch4","tol_toboard","1444","","","","","","","","","tol_peg_1","1444","1444","0","[[3,0,0],[1,2],[0]]","5","[[1,0,0],[2,3],[0]]","5","0","","","","","","6","","","","",""
"","","","","","single-stim-button","226","563055","0.0-3.0-25.5-0.5","5fedbca4fd62fbfeac20c702","D2","batch4","tol_tohand","2748","","","","","","","","","tol_peg_2","2748","2748","0","[[3,0,0],[1,0],[0]]","6","[[1,0,0],[2,3],[0]]","5","0","","","","","","6","","","","",""
"","","","","","single-stim-button","227","563394","0.0-3.0-25.5-1.5","5fedbca4fd62fbfeac20c702","D2","batch4","tol_toboard","338","","","","","","","","","tol_peg_1","338","338","0","[[3,2,0],[1,0],[0]]","6","[[1,0,0],[2,3],[0]]","5","0","","","","","","6","","","","",""
"","","","","","single-stim-button","228","563820","0.0-3.0-25.6-0.6","5fedbca4fd62fbfeac20c702","D2","batch4","tol_tohand","426","","","","","","","","","tol_peg_2","426","426","0","[[3,2,0],[0,0],[0]]","7","[[1,0,0],[2,3],[0]]","5","0","","","","","","6","","","","",""
"","","","","","single-stim-button","229","564183","0.0-3.0-25.6-1.6","5fedbca4fd62fbfeac20c702","D2","batch4","tol_toboard","362","","","","","","","","","tol_peg_3","362","362","0","[[3,2,0],[0,0],[1]]","7","[[1,0,0],[2,3],[0]]","5","0","","","","","","6","","","","",""
"","","","","","single-stim-button","230","564839","0.0-3.0-25.7-0.7","5fedbca4fd62fbfeac20c702","D2","batch4","tol_tohand","655","","","","","","","","","tol_peg_1","655","655","0","[[3,0,0],[0,0],[1]]","8","[[1,0,0],[2,3],[0]]","5","0","","","","","","6","","","","",""
"","","","","","single-stim-button","231","565179","0.0-3.0-25.7-1.7","5fedbca4fd62fbfeac20c702","D2","batch4","tol_toboard","339","","","","","","","","","tol_peg_2","339","339","0","[[3,0,0],[2,0],[1]]","8","[[1,0,0],[2,3],[0]]","5","0","","","","","","6","","","","",""
"","","","","","single-stim-button","232","566376","0.0-3.0-25.8-0.8","5fedbca4fd62fbfeac20c702","D2","batch4","tol_tohand","1197","","","","","","","","","tol_peg_1","1197","1197","0","[[0,0,0],[2,0],[1]]","9","[[1,0,0],[2,3],[0]]","5","0","","","","","","6","","","","",""
"","","","","","single-stim-button","233","566756","0.0-3.0-25.8-1.8","5fedbca4fd62fbfeac20c702","D2","batch4","tol_toboard","378","","","","","","","","","tol_peg_2","378","378","0","[[0,0,0],[2,3],[1]]","9","[[1,0,0],[2,3],[0]]","5","0","","","","","","6","","","","",""
"","","","","","single-stim-button","234","567085","0.0-3.0-25.9-0.9","5fedbca4fd62fbfeac20c702","D2","batch4","tol_tohand","328","","","","","","","","","tol_peg_3","328","328","0","[[0,0,0],[2,3],[0]]","10","[[1,0,0],[2,3],[0]]","5","0","","","","","","6","","","","",""
"","","","","","single-stim-button","235","567457","0.0-3.0-25.9-1.9","5fedbca4fd62fbfeac20c702","D2","batch4","tol_toboard","372","","","","","","","","","tol_peg_1","372","372","0","[[1,0,0],[2,3],[0]]","10","[[1,0,0],[2,3],[0]]","5","0","","","","","","6","","","","",""
"","","","","","poldrack-single-stim","236","568458","0.0-3.0-26.0","5fedbca4fd62fbfeac20c702","D2","batch4","tol_feedback","-1","","","","","true","","","","","1000","1000","500","","","","","","-1","none","true","7201","27909","","","","","",""
"","","","","","html-button-response","237","568992","0.0-3.0-27.0","5fedbca4fd62fbfeac20c702","D2","batch4","tol_trial_num","533.7000000029802","<div class = centerbox><p class = center-block-text>problem <strong>7</strong> out of 25 problems</p></div>","0","","","","","","","","","","","","","","","","","","","","","","","","","",""
"","","","","","single-stim-button","238","580056","0.0-3.0-28.0-0.0","5fedbca4fd62fbfeac20c702","D2","batch4","tol_tohand","11062","","","","","","","","","tol_peg_3","11062","11062","0","[[2,1,0],[0,0],[0]]","1","[[1,2,0],[3,0],[0]]","6","0","","","","","","5","","","","",""
"","","","","","single-stim-button","239","580507","0.0-3.0-28.0-1.0","5fedbca4fd62fbfeac20c702","D2","batch4","tol_toboard","450","","","","","","","","","tol_peg_2","450","450","0","[[2,1,0],[3,0],[0]]","1","[[1,2,0],[3,0],[0]]","6","0","","","","","","5","","","","",""
"","","","","","single-stim-button","240","581680","0.0-3.0-28.1-0.1","5fedbca4fd62fbfeac20c702","D2","batch4","tol_tohand","1172","","","","","","","","","tol_peg_1","1172","1172","0","[[2,0,0],[3,0],[0]]","2","[[1,2,0],[3,0],[0]]","6","0","","","","","","5","","","","",""
"","","","","","single-stim-button","241","585099","0.0-3.0-28.1-1.1","5fedbca4fd62fbfeac20c702","D2","batch4","tol_toboard","3419","","","","","","","","","tol_peg_1","3419","3419","0","[[2,1,0],[3,0],[0]]","2","[[1,2,0],[3,0],[0]]","6","0","","","","","","5","","","","",""
"","","","","","single-stim-button","242","585436","0.0-3.0-28.2-0.2","5fedbca4fd62fbfeac20c702","D2","batch4","tol_tohand","336","","","","","","","","","tol_peg_2","336","336","0","[[2,1,0],[0,0],[0]]","3","[[1,2,0],[3,0],[0]]","6","0","","","","","","5","","","","",""
"","","","","","single-stim-button","243","585738","0.0-3.0-28.2-1.2","5fedbca4fd62fbfeac20c702","D2","batch4","tol_toboard","300","","","","","","","","","tol_peg_3","300","300","0","[[2,1,0],[0,0],[3]]","3","[[1,2,0],[3,0],[0]]","6","0","","","","","","5","","","","",""
"","","","","","single-stim-button","244","586205","0.0-3.0-28.3-0.3","5fedbca4fd62fbfeac20c702","D2","batch4","tol_tohand","467","","","","","","","","","tol_peg_1","467","467","0","[[2,0,0],[0,0],[3]]","4","[[1,2,0],[3,0],[0]]","6","0","","","","","","5","","","","",""
"","","","","","single-stim-button","245","586489","0.0-3.0-28.3-1.3","5fedbca4fd62fbfeac20c702","D2","batch4","tol_toboard","283","","","","","","","","","tol_peg_2","283","283","0","[[2,0,0],[1,0],[3]]","4","[[1,2,0],[3,0],[0]]","6","0","","","","","","5","","","","",""
"","","","","","single-stim-button","246","587743","0.0-3.0-28.4-0.4","5fedbca4fd62fbfeac20c702","D2","batch4","tol_tohand","1254","","","","","","","","","tol_peg_1","1254","1254","0","[[0,0,0],[1,0],[3]]","5","[[1,2,0],[3,0],[0]]","6","0","","","","","","5","","","","",""
"","","","","","single-stim-button","247","591398","0.0-3.0-28.4-1.4","5fedbca4fd62fbfeac20c702","D2","batch4","tol_toboard","3654","","","","","","","","","tol_peg_2","3654","3654","0","[[0,0,0],[1,2],[3]]","5","[[1,2,0],[3,0],[0]]","6","0","","","","","","5","","","","",""
"","","","","","single-stim-button","248","591916","0.0-3.0-28.5-0.5","5fedbca4fd62fbfeac20c702","D2","batch4","tol_tohand","517","","","","","","","","","tol_peg_3","517","517","0","[[0,0,0],[1,2],[0]]","6","[[1,2,0],[3,0],[0]]","6","0","","","","","","5","","","","",""
"","","","","","single-stim-button","249","592428","0.0-3.0-28.5-1.5","5fedbca4fd62fbfeac20c702","D2","batch4","tol_toboard","512","","","","","","","","","tol_peg_1","512","512","0","[[3,0,0],[1,2],[0]]","6","[[1,2,0],[3,0],[0]]","6","0","","","","","","5","","","","",""
"","","","","","single-stim-button","250","592997","0.0-3.0-28.6-0.6","5fedbca4fd62fbfeac20c702","D2","batch4","tol_tohand","567","","","","","","","","","tol_peg_2","567","567","0","[[3,0,0],[1,0],[0]]","7","[[1,2,0],[3,0],[0]]","6","0","","","","","","5","","","","",""
"","","","","","single-stim-button","251","593715","0.0-3.0-28.6-1.6","5fedbca4fd62fbfeac20c702","D2","batch4","tol_toboard","718","","","","","","","","","tol_peg_3","718","718","0","[[3,0,0],[1,0],[2]]","7","[[1,2,0],[3,0],[0]]","6","0","","","","","","5","","","","",""
"","","","","","single-stim-button","252","596232","0.0-3.0-28.7-0.7","5fedbca4fd62fbfeac20c702","D2","batch4","tol_tohand","2516","","","","","","","","","tol_peg_1","2516","2516","0","[[0,0,0],[1,0],[2]]","8","[[1,2,0],[3,0],[0]]","6","0","","","","","","5","","","","",""
"","","","","","single-stim-button","253","596883","0.0-3.0-28.7-1.7","5fedbca4fd62fbfeac20c702","D2","batch4","tol_toboard","650","","","","","","","","","tol_peg_2","650","650","0","[[0,0,0],[1,3],[2]]","8","[[1,2,0],[3,0],[0]]","6","0","","","","","","5","","","","",""
"","","","","","single-stim-button","254","597774","0.0-3.0-28.8-0.8","5fedbca4fd62fbfeac20c702","D2","batch4","tol_tohand","891","","","","","","","","","tol_peg_2","891","891","0","[[0,0,0],[1,0],[2]]","9","[[1,2,0],[3,0],[0]]","6","0","","","","","","5","","","","",""
"","","","","","single-stim-button","255","598801","0.0-3.0-28.8-1.8","5fedbca4fd62fbfeac20c702","D2","batch4","tol_toboard","1025","","","","","","","","","tol_peg_2","1025","1025","0","[[0,0,0],[1,3],[2]]","9","[[1,2,0],[3,0],[0]]","6","0","","","","","","5","","","","",""
"","","","","","single-stim-button","256","599166","0.0-3.0-28.9-0.9","5fedbca4fd62fbfeac20c702","D2","batch4","tol_tohand","365","","","","","","","","","tol_peg_3","365","365","0","[[0,0,0],[1,3],[0]]","10","[[1,2,0],[3,0],[0]]","6","0","","","","","","5","","","","",""
"","","","","","single-stim-button","257","599684","0.0-3.0-28.9-1.9","5fedbca4fd62fbfeac20c702","D2","batch4","tol_toboard","517","","","","","","","","","tol_peg_1","517","517","0","[[2,0,0],[1,3],[0]]","10","[[1,2,0],[3,0],[0]]","6","0","","","","","","5","","","","",""
"","","","","","single-stim-button","258","600253","0.0-3.0-28.10-0.10","5fedbca4fd62fbfeac20c702","D2","batch4","tol_tohand","569","","","","","","","","","tol_peg_2","569","569","0","[[2,0,0],[1,0],[0]]","11","[[1,2,0],[3,0],[0]]","6","0","","","","","","5","","","","",""
"","","","","","single-stim-button","259","600582","0.0-3.0-28.10-1.10","5fedbca4fd62fbfeac20c702","D2","batch4","tol_toboard","328","","","","","","","","","tol_peg_3","328","328","0","[[2,0,0],[1,0],[3]]","11","[[1,2,0],[3,0],[0]]","6","0","","","","","","5","","","","",""
"","","","","","single-stim-button","260","602942","0.0-3.0-28.11-0.11","5fedbca4fd62fbfeac20c702","D2","batch4","tol_tohand","2360","","","","","","","","","tol_peg_2","2360","2360","0","[[2,0,0],[0,0],[3]]","12","[[1,2,0],[3,0],[0]]","6","0","","","","","","5","","","","",""
"","","","","","single-stim-button","261","606622","0.0-3.0-28.11-1.11","5fedbca4fd62fbfeac20c702","D2","batch4","tol_toboard","3680","","","","","","","","","tol_peg_2","3680","3680","0","[[2,0,0],[1,0],[3]]","12","[[1,2,0],[3,0],[0]]","6","0","","","","","","5","","","","",""
"","","","","","single-stim-button","262","608512","0.0-3.0-28.12-0.12","5fedbca4fd62fbfeac20c702","D2","batch4","tol_tohand","1889","","","","","","","","","tol_peg_1","1889","1889","0","[[0,0,0],[1,0],[3]]","13","[[1,2,0],[3,0],[0]]","6","0","","","","","","5","","","","",""
"","","","","","single-stim-button","263","608876","0.0-3.0-28.12-1.12","5fedbca4fd62fbfeac20c702","D2","batch4","tol_toboard","364","","","","","","","","","tol_peg_2","364","364","0","[[0,0,0],[1,2],[3]]","13","[[1,2,0],[3,0],[0]]","6","0","","","","","","5","","","","",""
"","","","","","single-stim-button","264","609993","0.0-3.0-28.13-0.13","5fedbca4fd62fbfeac20c702","D2","batch4","tol_tohand","1117","","","","","","","","","tol_peg_2","1117","1117","0","[[0,0,0],[1,0],[3]]","14","[[1,2,0],[3,0],[0]]","6","0","","","","","","5","","","","",""
"","","","","","single-stim-button","265","611073","0.0-3.0-28.13-1.13","5fedbca4fd62fbfeac20c702","D2","batch4","tol_toboard","1080","","","","","","","","","tol_peg_1","1080","1080","0","[[2,0,0],[1,0],[3]]","14","[[1,2,0],[3,0],[0]]","6","0","","","","","","5","","","","",""
"","","","","","single-stim-button","266","611761","0.0-3.0-28.14-0.14","5fedbca4fd62fbfeac20c702","D2","batch4","tol_tohand","688","","","","","","","","","tol_peg_2","688","688","0","[[2,0,0],[0,0],[3]]","15","[[1,2,0],[3,0],[0]]","6","0","","","","","","5","","","","",""
"","","","","","single-stim-button","267","612285","0.0-3.0-28.14-1.14","5fedbca4fd62fbfeac20c702","D2","batch4","tol_toboard","524","","","","","","","","","tol_peg_1","524","524","0","[[2,1,0],[0,0],[3]]","15","[[1,2,0],[3,0],[0]]","6","0","","","","","","5","","","","",""
"","","","","","single-stim-button","268","612758","0.0-3.0-28.15-0.15","5fedbca4fd62fbfeac20c702","D2","batch4","tol_tohand","473","","","","","","","","","tol_peg_3","473","473","0","[[2,1,0],[0,0],[0]]","16","[[1,2,0],[3,0],[0]]","6","0","","","","","","5","","","","",""
"","","","","","single-stim-button","269","613110","0.0-3.0-28.15-1.15","5fedbca4fd62fbfeac20c702","D2","batch4","tol_toboard","352","","","","","","","","","tol_peg_2","352","352","0","[[2,1,0],[3,0],[0]]","16","[[1,2,0],[3,0],[0]]","6","0","","","","","","5","","","","",""
"","","","","","single-stim-button","270","613558","0.0-3.0-28.16-0.16","5fedbca4fd62fbfeac20c702","D2","batch4","tol_tohand","448","","","","","","","","","tol_peg_1","448","448","0","[[2,0,0],[3,0],[0]]","17","[[1,2,0],[3,0],[0]]","6","0","","","","","","5","","","","",""
"","","","","","single-stim-button","271","614906","0.0-3.0-28.16-1.16","5fedbca4fd62fbfeac20c702","D2","batch4","tol_toboard","1348","","","","","","","","","tol_peg_3","1348","1348","0","[[2,0,0],[3,0],[1]]","17","[[1,2,0],[3,0],[0]]","6","0","","","","","","5","","","","",""
"","","","","","single-stim-button","272","615479","0.0-3.0-28.17-0.17","5fedbca4fd62fbfeac20c702","D2","batch4","tol_tohand","573","","","","","","","","","tol_peg_1","573","573","0","[[0,0,0],[3,0],[1]]","18","[[1,2,0],[3,0],[0]]","6","0","","","","","","5","","","","",""
"","","","","","single-stim-button","273","615751","0.0-3.0-28.17-1.17","5fedbca4fd62fbfeac20c702","D2","batch4","tol_toboard","272","","","","","","","","","tol_peg_2","272","272","0","[[0,0,0],[3,2],[1]]","18","[[1,2,0],[3,0],[0]]","6","0","","","","","","5","","","","",""
"","","","","","single-stim-button","274","617135","0.0-3.0-28.18-0.18","5fedbca4fd62fbfeac20c702","D2","batch4","tol_tohand","1384","","","","","","","","","tol_peg_3","1384","1384","0","[[0,0,0],[3,2],[0]]","19","[[1,2,0],[3,0],[0]]","6","0","","","","","","5","","","","",""
"","","","","","single-stim-button","275","617651","0.0-3.0-28.18-1.18","5fedbca4fd62fbfeac20c702","D2","batch4","tol_toboard","516","","","","","","","","","tol_peg_1","516","516","0","[[1,0,0],[3,2],[0]]","19","[[1,2,0],[3,0],[0]]","6","0","","","","","","5","","","","",""
"","","","","","single-stim-button","276","617961","0.0-3.0-28.19-0.19","5fedbca4fd62fbfeac20c702","D2","batch4","tol_tohand","310","","","","","","","","","tol_peg_2","310","310","0","[[1,0,0],[3,0],[0]]","20","[[1,2,0],[3,0],[0]]","6","0","","","","","","5","","","","",""
"","","","","","single-stim-button","277","618243","0.0-3.0-28.19-1.19","5fedbca4fd62fbfeac20c702","D2","batch4","tol_toboard","282","","","","","","","","","tol_peg_1","282","282","0","[[1,2,0],[3,0],[0]]","20","[[1,2,0],[3,0],[0]]","6","0","","","","","","5","","","","",""
"","","","","","poldrack-single-stim","278","619244","0.0-3.0-29.0","5fedbca4fd62fbfeac20c702","D2","batch4","tol_feedback","-1","","","","","true","","","","","1000","1000","500","","","","","","-1","none","true","11062","28958","","","","","",""
"","","","","","html-button-response","279","619663","0.0-3.0-30.0","5fedbca4fd62fbfeac20c702","D2","batch4","tol_trial_num","418","<div class = centerbox><p class = center-block-text>problem <strong>8</strong> out of 25 problems</p></div>","0","","","","","","","","","","","","","","","","","","","","","","","","","",""
"","","","","","single-stim-button","280","622174","0.0-3.0-31.0-0.0","5fedbca4fd62fbfeac20c702","D2","batch4","tol_tohand","2511","","","","","","","","","tol_peg_3","2511","2511","0","[[0,0,0],[2,3],[0]]","1","[[1,2,0],[3,0],[0]]","7","0","","","","","","4","","","","",""
"","","","","","single-stim-button","281","625202","0.0-3.0-31.0-1.0","5fedbca4fd62fbfeac20c702","D2","batch4","tol_toboard","3028","","","","","","","","","tol_peg_3","3028","3028","0","[[0,0,0],[2,3],[1]]","1","[[1,2,0],[3,0],[0]]","7","0","","","","","","4","","","","",""
"","","","","","single-stim-button","282","625781","0.0-3.0-31.1-0.1","5fedbca4fd62fbfeac20c702","D2","batch4","tol_tohand","579","","","","","","","","","tol_peg_2","579","579","0","[[0,0,0],[2,0],[1]]","2","[[1,2,0],[3,0],[0]]","7","0","","","","","","4","","","","",""
"","","","","","single-stim-button","283","626260","0.0-3.0-31.1-1.1","5fedbca4fd62fbfeac20c702","D2","batch4","tol_toboard","479","","","","","","","","","tol_peg_1","479","479","0","[[3,0,0],[2,0],[1]]","2","[[1,2,0],[3,0],[0]]","7","0","","","","","","4","","","","",""
"","","","","","single-stim-button","284","626920","0.0-3.0-31.2-0.2","5fedbca4fd62fbfeac20c702","D2","batch4","tol_tohand","660","","","","","","","","","tol_peg_3","660","660","0","[[3,0,0],[2,0],[0]]","3","[[1,2,0],[3,0],[0]]","7","0","","","","","","4","","","","",""
"","","","","","single-stim-button","285","628819","0.0-3.0-31.2-1.2","5fedbca4fd62fbfeac20c702","D2","batch4","tol_toboard","1899","","","","","","","","","tol_peg_1","1899","1899","0","[[3,1,0],[2,0],[0]]","3","[[1,2,0],[3,0],[0]]","7","0","","","","","","4","","","","",""
"","","","","","single-stim-button","286","629372","0.0-3.0-31.3-0.3","5fedbca4fd62fbfeac20c702","D2","batch4","tol_tohand","553","","","","","","","","","tol_peg_2","553","553","0","[[3,1,0],[0,0],[0]]","4","[[1,2,0],[3,0],[0]]","7","0","","","","","","4","","","","",""
"","","","","","single-stim-button","287","629739","0.0-3.0-31.3-1.3","5fedbca4fd62fbfeac20c702","D2","batch4","tol_toboard","367","","","","","","","","","tol_peg_3","367","367","0","[[3,1,0],[0,0],[2]]","4","[[1,2,0],[3,0],[0]]","7","0","","","","","","4","","","","",""
"","","","","","single-stim-button","288","631755","0.0-3.0-31.4-0.4","5fedbca4fd62fbfeac20c702","D2","batch4","tol_tohand","2016","","","","","","","","","tol_peg_1","2016","2016","0","[[3,0,0],[0,0],[2]]","5","[[1,2,0],[3,0],[0]]","7","0","","","","","","4","","","","",""
"","","","","","single-stim-button","289","635109","0.0-3.0-31.4-1.4","5fedbca4fd62fbfeac20c702","D2","batch4","tol_toboard","3354","","","","","","","","","tol_peg_1","3354","3354","0","[[3,1,0],[0,0],[2]]","5","[[1,2,0],[3,0],[0]]","7","0","","","","","","4","","","","",""
"","","","","","single-stim-button","290","635476","0.0-3.0-31.5-0.5","5fedbca4fd62fbfeac20c702","D2","batch4","tol_tohand","367","","","","","","","","","tol_peg_3","367","367","0","[[3,1,0],[0,0],[0]]","6","[[1,2,0],[3,0],[0]]","7","0","","","","","","4","","","","",""
"","","","","","single-stim-button","291","635908","0.0-3.0-31.5-1.5","5fedbca4fd62fbfeac20c702","D2","batch4","tol_toboard","432","","","","","","","","","tol_peg_2","432","432","0","[[3,1,0],[2,0],[0]]","6","[[1,2,0],[3,0],[0]]","7","0","","","","","","4","","","","",""
"","","","","","single-stim-button","292","636403","0.0-3.0-31.6-0.6","5fedbca4fd62fbfeac20c702","D2","batch4","tol_tohand","495","","","","","","","","","tol_peg_1","495","495","0","[[3,0,0],[2,0],[0]]","7","[[1,2,0],[3,0],[0]]","7","0","","","","","","4","","","","",""
"","","","","","single-stim-button","293","636882","0.0-3.0-31.6-1.6","5fedbca4fd62fbfeac20c702","D2","batch4","tol_toboard","479","","","","","","","","","tol_peg_3","479","479","0","[[3,0,0],[2,0],[1]]","7","[[1,2,0],[3,0],[0]]","7","0","","","","","","4","","","","",""
"","","","","","single-stim-button","294","642489","0.0-3.0-31.7-0.7","5fedbca4fd62fbfeac20c702","D2","batch4","tol_tohand","5607","","","","","","","","","tol_peg_3","5607","5607","0","[[3,0,0],[2,0],[0]]","8","[[1,2,0],[3,0],[0]]","7","0","","","","","","4","","","","",""
"","","","","","single-stim-button","295","642804","0.0-3.0-31.7-1.7","5fedbca4fd62fbfeac20c702","D2","batch4","tol_toboard","315","","","","","","","","","tol_peg_1","315","315","0","[[3,1,0],[2,0],[0]]","8","[[1,2,0],[3,0],[0]]","7","0","","","","","","4","","","","",""
"","","","","","single-stim-button","296","647438","0.0-3.0-31.8-0.8","5fedbca4fd62fbfeac20c702","D2","batch4","tol_tohand","4634","","","","","","","","","tol_peg_1","4634","4634","0","[[3,0,0],[2,0],[0]]","9","[[1,2,0],[3,0],[0]]","7","0","","","","","","4","","","","",""
"","","","","","single-stim-button","297","647721","0.0-3.0-31.8-1.8","5fedbca4fd62fbfeac20c702","D2","batch4","tol_toboard","283","","","","","","","","","tol_peg_2","283","283","0","[[3,0,0],[2,1],[0]]","9","[[1,2,0],[3,0],[0]]","7","0","","","","","","4","","","","",""
"","","","","","single-stim-button","298","648030","0.0-3.0-31.9-0.9","5fedbca4fd62fbfeac20c702","D2","batch4","tol_tohand","309","","","","","","","","","tol_peg_1","309","309","0","[[0,0,0],[2,1],[0]]","10","[[1,2,0],[3,0],[0]]","7","0","","","","","","4","","","","",""
"","","","","","single-stim-button","299","648830","0.0-3.0-31.9-1.9","5fedbca4fd62fbfeac20c702","D2","batch4","tol_toboard","800","","","","","","","","","tol_peg_3","800","800","0","[[0,0,0],[2,1],[3]]","10","[[1,2,0],[3,0],[0]]","7","0","","","","","","4","","","","",""
"","","","","","single-stim-button","300","649249","0.0-3.0-31.10-0.10","5fedbca4fd62fbfeac20c702","D2","batch4","tol_tohand","419","","","","","","","","","tol_peg_2","419","419","0","[[0,0,0],[2,0],[3]]","11","[[1,2,0],[3,0],[0]]","7","0","","","","","","4","","","","",""
"","","","","","single-stim-button","301","649569","0.0-3.0-31.10-1.10","5fedbca4fd62fbfeac20c702","D2","batch4","tol_toboard","320","","","","","","","","","tol_peg_1","320","320","0","[[1,0,0],[2,0],[3]]","11","[[1,2,0],[3,0],[0]]","7","0","","","","","","4","","","","",""
"","","","","","single-stim-button","302","649861","0.0-3.0-31.11-0.11","5fedbca4fd62fbfeac20c702","D2","batch4","tol_tohand","292","","","","","","","","","tol_peg_2","292","292","0","[[1,0,0],[0,0],[3]]","12","[[1,2,0],[3,0],[0]]","7","0","","","","","","4","","","","",""
"","","","","","single-stim-button","303","650240","0.0-3.0-31.11-1.11","5fedbca4fd62fbfeac20c702","D2","batch4","tol_toboard","379","","","","","","","","","tol_peg_1","379","379","0","[[1,2,0],[0,0],[3]]","12","[[1,2,0],[3,0],[0]]","7","0","","","","","","4","","","","",""
"","","","","","single-stim-button","304","650627","0.0-3.0-31.12-0.12","5fedbca4fd62fbfeac20c702","D2","batch4","tol_tohand","387","","","","","","","","","tol_peg_3","387","387","0","[[1,2,0],[0,0],[0]]","13","[[1,2,0],[3,0],[0]]","7","0","","","","","","4","","","","",""
"","","","","","single-stim-button","305","650888","0.0-3.0-31.12-1.12","5fedbca4fd62fbfeac20c702","D2","batch4","tol_toboard","261","","","","","","","","","tol_peg_2","261","261","0","[[1,2,0],[3,0],[0]]","13","[[1,2,0],[3,0],[0]]","7","0","","","","","","4","","","","",""
"","","","","","poldrack-single-stim","306","651889","0.0-3.0-32.0","5fedbca4fd62fbfeac20c702","D2","batch4","tol_feedback","-1","","","","","true","","","","","1000","1000","500","","","","","","-1","none","true","2511","18829","","","","","",""
"","","","","","html-button-response","307","652355","0.0-3.0-33.0","5fedbca4fd62fbfeac20c702","D2","batch4","tol_trial_num","465.59999999403954","<div class = centerbox><p class = center-block-text>problem <strong>9</strong> out of 25 problems</p></div>","0","","","","","","","","","","","","","","","","","","","","","","","","","",""
"","","","","","single-stim-button","308","657707","0.0-3.0-34.0-0.0","5fedbca4fd62fbfeac20c702","D2","batch4","tol_tohand","5352","","","","","","","","","tol_peg_1","5352","5352","0","[[3,0,0],[0,0],[1]]","1","[[2,1,0],[3,0],[0]]","8","0","","","","","","6","","","","",""
"","","","","","single-stim-button","309","659426","0.0-3.0-34.0-1.0","5fedbca4fd62fbfeac20c702","D2","batch4","tol_toboard","1718","","","","","","","","","tol_peg_2","1718","1718","0","[[3,0,0],[2,0],[1]]","1","[[2,1,0],[3,0],[0]]","8","0","","","","","","6","","","","",""
"","","","","","single-stim-button","310","670521","0.0-3.0-34.1-0.1","5fedbca4fd62fbfeac20c702","D2","batch4","tol_tohand","11095","","","","","","","","","tol_peg_2","11095","11095","0","[[3,0,0],[0,0],[1]]","2","[[2,1,0],[3,0],[0]]","8","0","","","","","","6","","","","",""
"","","","","","single-stim-button","311","670954","0.0-3.0-34.1-1.1","5fedbca4fd62fbfeac20c702","D2","batch4","tol_toboard","432","","","","","","","","","tol_peg_1","432","432","0","[[3,2,0],[0,0],[1]]","2","[[2,1,0],[3,0],[0]]","8","0","","","","","","6","","","","",""
"","","","","","single-stim-button","312","671311","0.0-3.0-34.2-0.2","5fedbca4fd62fbfeac20c702","D2","batch4","tol_tohand","355","","","","","","","","","tol_peg_3","355","355","0","[[3,2,0],[0,0],[0]]","3","[[2,1,0],[3,0],[0]]","8","0","","","","","","6","","","","",""
"","","","","","single-stim-button","313","671599","0.0-3.0-34.2-1.2","5fedbca4fd62fbfeac20c702","D2","batch4","tol_toboard","288","","","","","","","","","tol_peg_2","288","288","0","[[3,2,0],[1,0],[0]]","3","[[2,1,0],[3,0],[0]]","8","0","","","","","","6","","","","",""
"","","","","","single-stim-button","314","674306","0.0-3.0-34.3-0.3","5fedbca4fd62fbfeac20c702","D2","batch4","tol_tohand","2705","","","","","","","","","tol_peg_1","2705","2705","0","[[3,0,0],[1,0],[0]]","4","[[2,1,0],[3,0],[0]]","8","0","","","","","","6","","","","",""
"","","","","","single-stim-button","315","675114","0.0-3.0-34.3-1.3","5fedbca4fd62fbfeac20c702","D2","batch4","tol_toboard","808","","","","","","","","","tol_peg_3","808","808","0","[[3,0,0],[1,0],[2]]","4","[[2,1,0],[3,0],[0]]","8","0","","","","","","6","","","","",""
"","","","","","single-stim-button","316","676989","0.0-3.0-34.4-0.4","5fedbca4fd62fbfeac20c702","D2","batch4","tol_tohand","1874","","","","","","","","","tol_peg_1","1874","1874","0","[[0,0,0],[1,0],[2]]","5","[[2,1,0],[3,0],[0]]","8","0","","","","","","6","","","","",""
"","","","","","single-stim-button","317","677403","0.0-3.0-34.4-1.4","5fedbca4fd62fbfeac20c702","D2","batch4","tol_toboard","413","","","","","","","","","tol_peg_2","413","413","0","[[0,0,0],[1,3],[2]]","5","[[2,1,0],[3,0],[0]]","8","0","","","","","","6","","","","",""
"","","","","","single-stim-button","318","677718","0.0-3.0-34.5-0.5","5fedbca4fd62fbfeac20c702","D2","batch4","tol_tohand","314","","","","","","","","","tol_peg_3","314","314","0","[[0,0,0],[1,3],[0]]","6","[[2,1,0],[3,0],[0]]","8","0","","","","","","6","","","","",""
"","","","","","single-stim-button","319","678096","0.0-3.0-34.5-1.5","5fedbca4fd62fbfeac20c702","D2","batch4","tol_toboard","377","","","","","","","","","tol_peg_1","377","377","0","[[2,0,0],[1,3],[0]]","6","[[2,1,0],[3,0],[0]]","8","0","","","","","","6","","","","",""
"","","","","","single-stim-button","320","678971","0.0-3.0-34.6-0.6","5fedbca4fd62fbfeac20c702","D2","batch4","tol_tohand","874","","","","","","","","","tol_peg_2","874","874","0","[[2,0,0],[1,0],[0]]","7","[[2,1,0],[3,0],[0]]","8","0","","","","","","6","","","","",""
"","","","","","single-stim-button","321","679274","0.0-3.0-34.6-1.6","5fedbca4fd62fbfeac20c702","D2","batch4","tol_toboard","302","","","","","","","","","tol_peg_3","302","302","0","[[2,0,0],[1,0],[3]]","7","[[2,1,0],[3,0],[0]]","8","0","","","","","","6","","","","",""
"","","","","","single-stim-button","322","679818","0.0-3.0-34.7-0.7","5fedbca4fd62fbfeac20c702","D2","batch4","tol_tohand","543","","","","","","","","","tol_peg_2","543","543","0","[[2,0,0],[0,0],[3]]","8","[[2,1,0],[3,0],[0]]","8","0","","","","","","6","","","","",""
"","","","","","single-stim-button","323","680107","0.0-3.0-34.7-1.7","5fedbca4fd62fbfeac20c702","D2","batch4","tol_toboard","289","","","","","","","","","tol_peg_1","289","289","0","[[2,1,0],[0,0],[3]]","8","[[2,1,0],[3,0],[0]]","8","0","","","","","","6","","","","",""
"","","","","","single-stim-button","324","680419","0.0-3.0-34.8-0.8","5fedbca4fd62fbfeac20c702","D2","batch4","tol_tohand","311","","","","","","","","","tol_peg_3","311","311","0","[[2,1,0],[0,0],[0]]","9","[[2,1,0],[3,0],[0]]","8","0","","","","","","6","","","","",""
"","","","","","single-stim-button","325","680701","0.0-3.0-34.8-1.8","5fedbca4fd62fbfeac20c702","D2","batch4","tol_toboard","281","","","","","","","","","tol_peg_2","281","281","0","[[2,1,0],[3,0],[0]]","9","[[2,1,0],[3,0],[0]]","8","0","","","","","","6","","","","",""
"","","","","","poldrack-single-stim","326","681703","0.0-3.0-35.0","5fedbca4fd62fbfeac20c702","D2","batch4","tol_feedback","-1","","","","","true","","","","","1000","1000","500","","","","","","-1","none","true","5352","23423","","","","","",""
"","","","","","html-button-response","327","682535","0.0-3.0-36.0","5fedbca4fd62fbfeac20c702","D2","batch4","tol_trial_num","832.3000000119209","<div class = centerbox><p class = center-block-text>problem <strong>10</strong> out of 25 problems</p></div>","0","","","","","","","","","","","","","","","","","","","","","","","","","",""
"","","","","","single-stim-button","328","685209","0.0-3.0-37.0-0.0","5fedbca4fd62fbfeac20c702","D2","batch4","tol_tohand","2673","","","","","","","","","tol_peg_3","2673","2673","0","[[3,0,0],[1,0],[0]]","1","[[3,0,0],[2,1],[0]]","9","0","","","","","","3","","","","",""
"","","","","","single-stim-button","329","685722","0.0-3.0-37.0-1.0","5fedbca4fd62fbfeac20c702","D2","batch4","tol_toboard","512","","","","","","","","","tol_peg_2","512","512","0","[[3,0,0],[1,2],[0]]","1","[[3,0,0],[2,1],[0]]","9","0","","","","","","3","","","","",""
"","","","","","single-stim-button","330","687919","0.0-3.0-37.1-0.1","5fedbca4fd62fbfeac20c702","D2","batch4","tol_tohand","2196","","","","","","","","","tol_peg_2","2196","2196","0","[[3,0,0],[1,0],[0]]","2","[[3,0,0],[2,1],[0]]","9","0","","","","","","3","","","","",""
"","","","","","single-stim-button","331","688203","0.0-3.0-37.1-1.1","5fedbca4fd62fbfeac20c702","D2","batch4","tol_toboard","282","","","","","","","","","tol_peg_3","282","282","0","[[3,0,0],[1,0],[2]]","2","[[3,0,0],[2,1],[0]]","9","0","","","","","","3","","","","",""
"","","","","","single-stim-button","332","689114","0.0-3.0-37.2-0.2","5fedbca4fd62fbfeac20c702","D2","batch4","tol_tohand","911","","","","","","","","","tol_peg_2","911","911","0","[[3,0,0],[0,0],[2]]","3","[[3,0,0],[2,1],[0]]","9","0","","","","","","3","","","","",""
"","","","","","single-stim-button","333","689415","0.0-3.0-37.2-1.2","5fedbca4fd62fbfeac20c702","D2","batch4","tol_toboard","300","","","","","","","","","tol_peg_1","300","300","0","[[3,1,0],[0,0],[2]]","3","[[3,0,0],[2,1],[0]]","9","0","","","","","","3","","","","",""
"","","","","","single-stim-button","334","689865","0.0-3.0-37.3-0.3","5fedbca4fd62fbfeac20c702","D2","batch4","tol_tohand","449","","","","","","","","","tol_peg_3","449","449","0","[[3,1,0],[0,0],[0]]","4","[[3,0,0],[2,1],[0]]","9","0","","","","","","3","","","","",""
"","","","","","single-stim-button","335","690264","0.0-3.0-37.3-1.3","5fedbca4fd62fbfeac20c702","D2","batch4","tol_toboard","398","","","","","","","","","tol_peg_2","398","398","0","[[3,1,0],[2,0],[0]]","4","[[3,0,0],[2,1],[0]]","9","0","","","","","","3","","","","",""
"","","","","","single-stim-button","336","690561","0.0-3.0-37.4-0.4","5fedbca4fd62fbfeac20c702","D2","batch4","tol_tohand","296","","","","","","","","","tol_peg_1","296","296","0","[[3,0,0],[2,0],[0]]","5","[[3,0,0],[2,1],[0]]","9","0","","","","","","3","","","","",""
"","","","","","single-stim-button","337","690802","0.0-3.0-37.4-1.4","5fedbca4fd62fbfeac20c702","D2","batch4","tol_toboard","240","","","","","","","","","tol_peg_2","240","240","0","[[3,0,0],[2,1],[0]]","5","[[3,0,0],[2,1],[0]]","9","0","","","","","","3","","","","",""
"","","","","","poldrack-single-stim","338","691806","0.0-3.0-38.0","5fedbca4fd62fbfeac20c702","D2","batch4","tol_feedback","-1","","","","","true","","","","","1000","1000","500","","","","","","-1","none","true","2673","6525","","","","","",""
"","","","","","html-button-response","339","692747","0.0-3.0-39.0","5fedbca4fd62fbfeac20c702","D2","batch4","tol_trial_num","940.8000000119209","<div class = centerbox><p class = center-block-text>problem <strong>11</strong> out of 25 problems</p></div>","0","","","","","","","","","","","","","","","","","","","","","","","","","",""
"","","","","","single-stim-button","340","698029","0.0-3.0-40.0-0.0","5fedbca4fd62fbfeac20c702","D2","batch4","tol_tohand","5281","","","","","","","","","tol_peg_1","5281","5281","0","[[1,0,0],[3,0],[0]]","1","[[2,0,0],[1,3],[0]]","10","0","","","","","","6","","","","",""
"","","","","","single-stim-button","341","698439","0.0-3.0-40.0-1.0","5fedbca4fd62fbfeac20c702","D2","batch4","tol_toboard","409","","","","","","","","","tol_peg_3","409","409","0","[[1,0,0],[3,0],[2]]","1","[[2,0,0],[1,3],[0]]","10","0","","","","","","6","","","","",""
"","","","","","single-stim-button","342","698855","0.0-3.0-40.1-0.1","5fedbca4fd62fbfeac20c702","D2","batch4","tol_tohand","415","","","","","","","","","tol_peg_1","415","415","0","[[0,0,0],[3,0],[2]]","2","[[2,0,0],[1,3],[0]]","10","0","","","","","","6","","","","",""
"","","","","","single-stim-button","343","699180","0.0-3.0-40.1-1.1","5fedbca4fd62fbfeac20c702","D2","batch4","tol_toboard","324","","","","","","","","","tol_peg_2","324","324","0","[[0,0,0],[3,1],[2]]","2","[[2,0,0],[1,3],[0]]","10","0","","","","","","6","","","","",""
"","","","","","single-stim-button","344","699504","0.0-3.0-40.2-0.2","5fedbca4fd62fbfeac20c702","D2","batch4","tol_tohand","323","","","","","","","","","tol_peg_3","323","323","0","[[0,0,0],[3,1],[0]]","3","[[2,0,0],[1,3],[0]]","10","0","","","","","","6","","","","",""
"","","","","","single-stim-button","345","699834","0.0-3.0-40.2-1.2","5fedbca4fd62fbfeac20c702","D2","batch4","tol_toboard","329","","","","","","","","","tol_peg_1","329","329","0","[[2,0,0],[3,1],[0]]","3","[[2,0,0],[1,3],[0]]","10","0","","","","","","6","","","","",""
"","","","","","single-stim-button","346","702301","0.0-3.0-40.3-0.3","5fedbca4fd62fbfeac20c702","D2","batch4","tol_tohand","2466","","","","","","","","","tol_peg_2","2466","2466","0","[[2,0,0],[3,0],[0]]","4","[[2,0,0],[1,3],[0]]","10","0","","","","","","6","","","","",""
"","","","","","single-stim-button","347","702742","0.0-3.0-40.3-1.3","5fedbca4fd62fbfeac20c702","D2","batch4","tol_toboard","440","","","","","","","","","tol_peg_3","440","440","0","[[2,0,0],[3,0],[1]]","4","[[2,0,0],[1,3],[0]]","10","0","","","","","","6","","","","",""
"","","","","","single-stim-button","348","703109","0.0-3.0-40.4-0.4","5fedbca4fd62fbfeac20c702","D2","batch4","tol_tohand","366","","","","","","","","","tol_peg_2","366","366","0","[[2,0,0],[0,0],[1]]","5","[[2,0,0],[1,3],[0]]","10","0","","","","","","6","","","","",""
"","","","","","single-stim-button","349","703373","0.0-3.0-40.4-1.4","5fedbca4fd62fbfeac20c702","D2","batch4","tol_toboard","263","","","","","","","","","tol_peg_1","263","263","0","[[2,3,0],[0,0],[1]]","5","[[2,0,0],[1,3],[0]]","10","0","","","","","","6","","","","",""
"","","","","","single-stim-button","350","703723","0.0-3.0-40.5-0.5","5fedbca4fd62fbfeac20c702","D2","batch4","tol_tohand","349","","","","","","","","","tol_peg_3","349","349","0","[[2,3,0],[0,0],[0]]","6","[[2,0,0],[1,3],[0]]","10","0","","","","","","6","","","","",""
"","","","","","single-stim-button","351","703978","0.0-3.0-40.5-1.5","5fedbca4fd62fbfeac20c702","D2","batch4","tol_toboard","253","","","","","","","","","tol_peg_2","253","253","0","[[2,3,0],[1,0],[0]]","6","[[2,0,0],[1,3],[0]]","10","0","","","","","","6","","","","",""
"","","","","","single-stim-button","352","704289","0.0-3.0-40.6-0.6","5fedbca4fd62fbfeac20c702","D2","batch4","tol_tohand","311","","","","","","","","","tol_peg_1","311","311","0","[[2,0,0],[1,0],[0]]","7","[[2,0,0],[1,3],[0]]","10","0","","","","","","6","","","","",""
"","","","","","single-stim-button","353","704548","0.0-3.0-40.6-1.6","5fedbca4fd62fbfeac20c702","D2","batch4","tol_toboard","257","","","","","","","","","tol_peg_2","257","257","0","[[2,0,0],[1,3],[0]]","7","[[2,0,0],[1,3],[0]]","10","0","","","","","","6","","","","",""
"","","","","","poldrack-single-stim","354","705549","0.0-3.0-41.0","5fedbca4fd62fbfeac20c702","D2","batch4","tol_feedback","-1","","","","","true","","","","","1000","1000","500","","","","","","-1","none","true","5281","9511","","","","","",""
"","","","","","html-button-response","355","705923","0.0-3.0-42.0","5fedbca4fd62fbfeac20c702","D2","batch4","tol_trial_num","373.79999999701977","<div class = centerbox><p class = center-block-text>problem <strong>12</strong> out of 25 problems</p></div>","0","","","","","","","","","","","","","","","","","","","","","","","","","",""
