"success","timeout","failed_images","failed_audio","failed_video","trial_type","trial_index","time_elapsed","internal_node_id","subject_id","study_id","session_id","view_history","rt","stimulus","response","task","correct","answer","item","fiar_detect_rt","fiar_detect_correct","total_correct_fiar_detect","post_trial_gap","choices","spm_correct","spm_rt","mouse_click","stim_duration","block_duration","timing_post_trial","current_position","tol_num_moves_made","tol_target","tol_problem_id","tol_rt","key_press","possible_responses","tol_correct","preplanning","tol_rt_per_trial","tol_min_moves"
"true","false","[]","[]","[]","preload","0","5912","0.0-0.0","6004d426710b3c300a1259ee","D2","batch4","","","","","","","","","","","","","","","","","","","","","","","","","","","","","",""
"true","","","","","fullscreen","1","43840","0.0-1.0-0.0","6004d426710b3c300a1259ee","D2","batch4","","","","","","","","","","","","","","","","","","","","","","","","","","","","","",""
"true","","","","","fullscreen","2","50050","0.0-2.0-0.0","6004d426710b3c300a1259ee","D2","batch4","","","","","","","","","","","","","","","","","","","","","","","","","","","","","",""
"","","","","","instructions","3","77921","0.0-2.0-1.0-0.0","6004d426710b3c300a1259ee","D2","batch4","[{""page_index"":0,""viewing_time"":13277.799999952316},{""page_index"":1,""viewing_time"":14591.899999976158}]","27870","","","","","","","","","","","","","","","","","","","","","","","","","","","",""
"","","","","","html-button-response","4","80309","0.0-2.0-1.0-1.0-0.0","6004d426710b3c300a1259ee","D2","batch4","","2387.2000000476837","<p class=block-text> Let's answer a few questions <br>","0","pattern_enter_quiz","","","","","","","","","","","","","","","","","","","","","","","","",""
"","","","","","html-button-response","5","82725","0.0-2.0-1.0-1.0-1.0","6004d426710b3c300a1259ee","D2","batch4","","2414.399999976158","<p class = block-text>True or False: You will have as much time as you want to make each choice. <br></p>","1","pattern_quiz","true","","","","","","","","","","","","","","","","","","","","","","","",""
"","","","","","html-button-response","6","84089","0.0-2.0-1.0-1.0-2.0","6004d426710b3c300a1259ee","D2","batch4","","1362.5","<p class = block-text>Correct! You should make your choice <strong> as fast as you can</strong>.</p>","0","pattern_quiz_feedback","","","","","","","","","","","","","","","","","","","","","","","","",""
"","","","","","html-button-response","7","88397","0.0-2.0-1.0-1.0-3.0","6004d426710b3c300a1259ee","D2","batch4","","4307","<p class = block-text>True or False: You will look for 4 pieces in black or white color connected in a row either horizontally, vertically or diagonally. <br></p>","0","pattern_quiz","true","","","","","","","","","","","","","","","","","","","","","","","",""
"","","","","","html-button-response","8","89681","0.0-2.0-1.0-1.0-4.0","6004d426710b3c300a1259ee","D2","batch4","","1282.8999999761581","<p class = block-text>Correct! </p>","0","pattern_quiz_feedback","","","","","","","","","","","","","","","","","","","","","","","","",""
"","","","","","html-button-response","9","91465","0.0-2.0-2.0","6004d426710b3c300a1259ee","D2","batch4","","1782.7999999523163","<p class=block-text> Now that you've understood the game, let's do a few practice trials before we start!<br> <br>","0","pattern_enter_practice","","","","","","","","","","","","","","","","","","","","","","","","",""
"","","","","","image-keyboard-response","10","96543","0.0-2.0-3.0-0.0","6004d426710b3c300a1259ee","D2","batch4","","5075.399999976158","stim/prac_no_18_1.png","j","pattern_practice","true","j","","","","","","","","","","","","","","","","","","","","","","",""
"","","","","","html-keyboard-response","11","97563","0.0-2.0-3.0-1.0","6004d426710b3c300a1259ee","D2","batch4","","null","<p style=""font-size:30px;color:green;"">Correct!</p>","null","pattern_feedback","","","","","","","","","","","","","","","","","","","","","","","","",""
"","","","","","image-keyboard-response","12","98609","0.0-2.0-3.0-0.1","6004d426710b3c300a1259ee","D2","batch4","","1044.5999999046326","stim/prac_yes_16_ver_w1.png","f","pattern_practice","true","f","","","","","","","","","","","","","","","","","","","","","","",""
"","","","","","html-keyboard-response","13","99626","0.0-2.0-3.0-1.1","6004d426710b3c300a1259ee","D2","batch4","","null","<p style=""font-size:30px;color:green;"">Correct!</p>","null","pattern_feedback","","","","","","","","","","","","","","","","","","","","","","","","",""
"","","","","","image-keyboard-response","14","100800","0.0-2.0-3.0-0.2","6004d426710b3c300a1259ee","D2","batch4","","1173.5","stim/prac_yes_20_dia_b1.png","j","pattern_practice","false","f","","","","","","","","","","","","","","","","","","","","","","",""
"","","","","","html-keyboard-response","15","101808","0.0-2.0-3.0-1.2","6004d426710b3c300a1259ee","D2","batch4","","null","<p style=""font-size:30px;color:red;"">Wrong.</p>","null","pattern_feedback","","","","","","","","","","","","","","","","","","","","","","","","",""
"","","","","","image-keyboard-response","16","103739","0.0-2.0-3.0-0.3","6004d426710b3c300a1259ee","D2","batch4","","1929.3999999761581","stim/prac_no_16_1.png","j","pattern_practice","true","j","","","","","","","","","","","","","","","","","","","","","","",""
"","","","","","html-keyboard-response","17","104748","0.0-2.0-3.0-1.3","6004d426710b3c300a1259ee","D2","batch4","","null","<p style=""font-size:30px;color:green;"">Correct!</p>","null","pattern_feedback","","","","","","","","","","","","","","","","","","","","","","","","",""
"","","","","","image-keyboard-response","18","105961","0.0-2.0-3.0-0.4","6004d426710b3c300a1259ee","D2","batch4","","1212","stim/prac_yes_18_hor_w1.png","f","pattern_practice","true","f","","","","","","","","","","","","","","","","","","","","","","",""
"","","","","","html-keyboard-response","19","106974","0.0-2.0-3.0-1.4","6004d426710b3c300a1259ee","D2","batch4","","null","<p style=""font-size:30px;color:green;"">Correct!</p>","null","pattern_feedback","","","","","","","","","","","","","","","","","","","","","","","","",""
"","","","","","html-button-response","20","114969","0.0-2.0-4.0","6004d426710b3c300a1259ee","D2","batch4","","7994.100000023842","<p class=block-text> Good job! You are done with practice trials!<br>
        You responded correctly on 80% of the trials.<br>
        Press the button below to start official trials. Now you won't see any feedback about your response</p>","0","pattern_enter_official_trials","","","","","","","","","","","","","","","","","","","","","","","","",""
"","","","","","html-keyboard-response","21","115771","0.0-2.0-5.0-0.0","6004d426710b3c300a1259ee","D2","batch4","","null","<p class=block-text>Trial 1 out of 78</p>","null","pattern_show_trial_num","","","","","","","","","","","","","","","","","","","","","","","","",""
"","","","","","image-keyboard-response","22","119082","0.0-2.0-5.0-1.0","6004d426710b3c300a1259ee","D2","batch4","","3308.7000000476837","stim/no_51_1.png","j","pattern_response","true","j","pattern_31","3308.7000000476837","true","1","","","","","","","","","","","","","","","","","","",""
"","","","","","html-keyboard-response","23","120391","0.0-2.0-5.0-0.1","6004d426710b3c300a1259ee","D2","batch4","","null","<p class=block-text>Trial 2 out of 78</p>","null","pattern_show_trial_num","","","","","","","","","","","","","","","","","","","","","","","","",""
"","","","","","image-keyboard-response","24","122824","0.0-2.0-5.0-1.1","6004d426710b3c300a1259ee","D2","batch4","","2432.1999999284744","stim/no_30_1_b.png","j","pattern_response","true","j","pattern_13","2432.1999999284744","true","2","","","","","","","","","","","","","","","","","","",""
"","","","","","html-keyboard-response","25","124132","0.0-2.0-5.0-0.2","6004d426710b3c300a1259ee","D2","batch4","","null","<p class=block-text>Trial 3 out of 78</p>","null","pattern_show_trial_num","","","","","","","","","","","","","","","","","","","","","","","","",""
"","","","","","image-keyboard-response","26","126412","0.0-2.0-5.0-1.2","6004d426710b3c300a1259ee","D2","batch4","","2278.2999999523163","stim/no_36_1_b.png","j","pattern_response","true","j","pattern_17","2278.2999999523163","true","3","","","","","","","","","","","","","","","","","","",""
"","","","","","html-keyboard-response","27","127731","0.0-2.0-5.0-0.3","6004d426710b3c300a1259ee","D2","batch4","","null","<p class=block-text>Trial 4 out of 78</p>","null","pattern_show_trial_num","","","","","","","","","","","","","","","","","","","","","","","","",""
"","","","","","image-keyboard-response","28","131156","0.0-2.0-5.0-1.3","6004d426710b3c300a1259ee","D2","batch4","","3423.600000023842","stim/no_43_2_b.png","j","pattern_response","true","j","pattern_23","3423.600000023842","true","4","","","","","","","","","","","","","","","","","","",""
"","","","","","html-keyboard-response","29","132480","0.0-2.0-5.0-0.4","6004d426710b3c300a1259ee","D2","batch4","","null","<p class=block-text>Trial 5 out of 78</p>","null","pattern_show_trial_num","","","","","","","","","","","","","","","","","","","","","","","","",""
"","","","","","image-keyboard-response","30","136270","0.0-2.0-5.0-1.4","6004d426710b3c300a1259ee","D2","batch4","","3788.5","stim/no_25_1_b.png","j","pattern_response","true","j","pattern_09","3788.5","true","5","","","","","","","","","","","","","","","","","","",""
"","","","","","html-keyboard-response","31","137595","0.0-2.0-5.0-0.5","6004d426710b3c300a1259ee","D2","batch4","","null","<p class=block-text>Trial 6 out of 78</p>","null","pattern_show_trial_num","","","","","","","","","","","","","","","","","","","","","","","","",""
"","","","","","image-keyboard-response","32","145064","0.0-2.0-5.0-1.5","6004d426710b3c300a1259ee","D2","batch4","","7467.100000023842","stim/no_67_1.png","j","pattern_response","true","j","pattern_39","7467.100000023842","true","6","","","","","","","","","","","","","","","","","","",""
"","","","","","html-keyboard-response","33","146367","0.0-2.0-5.0-0.6","6004d426710b3c300a1259ee","D2","batch4","","null","<p class=block-text>Trial 7 out of 78</p>","null","pattern_show_trial_num","","","","","","","","","","","","","","","","","","","","","","","","",""
"","","","","","image-keyboard-response","34","151226","0.0-2.0-5.0-1.6","6004d426710b3c300a1259ee","D2","batch4","","4856.700000047684","stim/no_22_1_b.png","j","pattern_response","true","j","pattern_07","4856.700000047684","true","7","","","","","","","","","","","","","","","","","","",""
"","","","","","html-keyboard-response","35","152543","0.0-2.0-5.0-0.7","6004d426710b3c300a1259ee","D2","batch4","","null","<p class=block-text>Trial 8 out of 78</p>","null","pattern_show_trial_num","","","","","","","","","","","","","","","","","","","","","","","","",""
"","","","","","image-keyboard-response","36","153618","0.0-2.0-5.0-1.7","6004d426710b3c300a1259ee","D2","batch4","","1074.6000000238419","stim/yes_36_ver_w1_w.png","f","pattern_response","true","f","pattern_58","1074.6000000238419","true","8","","","","","","","","","","","","","","","","","","",""
"","","","","","html-keyboard-response","37","154933","0.0-2.0-5.0-0.8","6004d426710b3c300a1259ee","D2","batch4","","null","<p class=block-text>Trial 9 out of 78</p>","null","pattern_show_trial_num","","","","","","","","","","","","","","","","","","","","","","","","",""
"","","","","","image-keyboard-response","38","160262","0.0-2.0-5.0-1.8","6004d426710b3c300a1259ee","D2","batch4","","5327.899999976158","stim/no_37_2_w.png","j","pattern_response","true","j","pattern_19","5327.899999976158","true","9","","","","","","","","","","","","","","","","","","",""
"","","","","","html-keyboard-response","39","161583","0.0-2.0-5.0-0.9","6004d426710b3c300a1259ee","D2","batch4","","null","<p class=block-text>Trial 10 out of 78</p>","null","pattern_show_trial_num","","","","","","","","","","","","","","","","","","","","","","","","",""
"","","","","","image-keyboard-response","40","168366","0.0-2.0-5.0-1.9","6004d426710b3c300a1259ee","D2","batch4","","6782.299999952316","stim/yes_58_dia_w1_w.png","j","pattern_response","false","f","pattern_76","6782.299999952316","false","9","","","","","","","","","","","","","","","","","","",""
"","","","","","html-keyboard-response","41","169694","0.0-2.0-5.0-0.10","6004d426710b3c300a1259ee","D2","batch4","","null","<p class=block-text>Trial 11 out of 78</p>","null","pattern_show_trial_num","","","","","","","","","","","","","","","","","","","","","","","","",""
"","","","","","image-keyboard-response","42","171339","0.0-2.0-5.0-1.10","6004d426710b3c300a1259ee","D2","batch4","","1644.2000000476837","stim/no_12_1.png","j","pattern_response","true","j","pattern_01","1644.2000000476837","true","10","","","","","","","","","","","","","","","","","","",""
"","","","","","html-keyboard-response","43","172641","0.0-2.0-5.0-0.11","6004d426710b3c300a1259ee","D2","batch4","","null","<p class=block-text>Trial 12 out of 78</p>","null","pattern_show_trial_num","","","","","","","","","","","","","","","","","","","","","","","","",""
"","","","","","image-keyboard-response","44","174328","0.0-2.0-5.0-1.11","6004d426710b3c300a1259ee","D2","batch4","","1685.7000000476837","stim/yes_46_ver_b1_b.png","f","pattern_response","true","f","pattern_68","1685.7000000476837","true","11","","","","","","","","","","","","","","","","","","",""
"","","","","","html-keyboard-response","45","175636","0.0-2.0-5.0-0.12","6004d426710b3c300a1259ee","D2","batch4","","null","<p class=block-text>Trial 13 out of 78</p>","null","pattern_show_trial_num","","","","","","","","","","","","","","","","","","","","","","","","",""
"","","","","","image-keyboard-response","46","176680","0.0-2.0-5.0-1.12","6004d426710b3c300a1259ee","D2","batch4","","1043.0999999046326","stim/yes_39_hor_w1_w.png","f","pattern_response","true","f","pattern_62","1043.0999999046326","true","12","","","","","","","","","","","","","","","","","","",""
"","","","","","html-keyboard-response","47","177991","0.0-2.0-5.0-0.13","6004d426710b3c300a1259ee","D2","batch4","","null","<p class=block-text>Trial 14 out of 78</p>","null","pattern_show_trial_num","","","","","","","","","","","","","","","","","","","","","","","","",""
"","","","","","image-keyboard-response","48","184161","0.0-2.0-5.0-1.13","6004d426710b3c300a1259ee","D2","batch4","","6184.100000023842","stim/no_58_1_w.png","j","pattern_response","true","j","pattern_35","6184.100000023842","true","13","","","","","","","","","","","","","","","","","","",""
"","","","","","html-keyboard-response","49","185488","0.0-2.0-5.0-0.14","6004d426710b3c300a1259ee","D2","batch4","","null","<p class=block-text>Trial 15 out of 78</p>","null","pattern_show_trial_num","","","","","","","","","","","","","","","","","","","","","","","","",""
"","","","","","image-keyboard-response","50","187258","0.0-2.0-5.0-1.14","6004d426710b3c300a1259ee","D2","batch4","","1768.3999999761581","stim/yes_33_dia_w1_w.png","f","pattern_response","true","f","pattern_56","1768.3999999761581","true","14","","","","","","","","","","","","","","","","","","",""
"","","","","","html-keyboard-response","51","188584","0.0-2.0-5.0-0.15","6004d426710b3c300a1259ee","D2","batch4","","null","<p class=block-text>Trial 16 out of 78</p>","null","pattern_show_trial_num","","","","","","","","","","","","","","","","","","","","","","","","",""
"","","","","","image-keyboard-response","52","192043","0.0-2.0-5.0-1.15","6004d426710b3c300a1259ee","D2","batch4","","3458.600000023842","stim/no_28_2.png","j","pattern_response","true","j","pattern_11","3458.600000023842","true","15","","","","","","","","","","","","","","","","","","",""
"","","","","","html-keyboard-response","53","193366","0.0-2.0-5.0-0.16","6004d426710b3c300a1259ee","D2","batch4","","null","<p class=block-text>Trial 17 out of 78</p>","null","pattern_show_trial_num","","","","","","","","","","","","","","","","","","","","","","","","",""
"","","","","","image-keyboard-response","54","198551","0.0-2.0-5.0-1.16","6004d426710b3c300a1259ee","D2","batch4","","5183.799999952316","stim/no_45_1_w.png","j","pattern_response","true","j","pattern_25","5183.799999952316","true","16","","","","","","","","","","","","","","","","","","",""
"","","","","","html-keyboard-response","55","199864","0.0-2.0-5.0-0.17","6004d426710b3c300a1259ee","D2","batch4","","null","<p class=block-text>Trial 18 out of 78</p>","null","pattern_show_trial_num","","","","","","","","","","","","","","","","","","","","","","","","",""
"","","","","","image-keyboard-response","56","204538","0.0-2.0-5.0-1.17","6004d426710b3c300a1259ee","D2","batch4","","4671.799999952316","stim/no_47_1_b.png","j","pattern_response","true","j","pattern_27","4671.799999952316","true","17","","","","","","","","","","","","","","","","","","",""
"","","","","","html-keyboard-response","57","205848","0.0-2.0-5.0-0.18","6004d426710b3c300a1259ee","D2","batch4","","null","<p class=block-text>Trial 19 out of 78</p>","null","pattern_show_trial_num","","","","","","","","","","","","","","","","","","","","","","","","",""
"","","","","","image-keyboard-response","58","209872","0.0-2.0-5.0-1.18","6004d426710b3c300a1259ee","D2","batch4","","4022.2000000476837","stim/yes_44_ver_w1_w.png","f","pattern_response","true","f","pattern_66","4022.2000000476837","true","18","","","","","","","","","","","","","","","","","","",""
"","","","","","html-keyboard-response","59","211195","0.0-2.0-5.0-0.19","6004d426710b3c300a1259ee","D2","batch4","","null","<p class=block-text>Trial 20 out of 78</p>","null","pattern_show_trial_num","","","","","","","","","","","","","","","","","","","","","","","","",""
"","","","","","image-keyboard-response","60","215937","0.0-2.0-5.0-1.19","6004d426710b3c300a1259ee","D2","batch4","","4741.100000023842","stim/no_33_1_b.png","j","pattern_response","true","j","pattern_15","4741.100000023842","true","19","","","","","","","","","","","","","","","","","","",""
"","","","","","html-keyboard-response","61","217250","0.0-2.0-5.0-0.20","6004d426710b3c300a1259ee","D2","batch4","","null","<p class=block-text>Trial 21 out of 78</p>","null","pattern_show_trial_num","","","","","","","","","","","","","","","","","","","","","","","","",""
"","","","","","image-keyboard-response","62","218205","0.0-2.0-5.0-1.20","6004d426710b3c300a1259ee","D2","batch4","","953.3999999761581","stim/yes_15_dia_b1u_b.png","f","pattern_response","true","f","pattern_44","953.3999999761581","true","20","","","","","","","","","","","","","","","","","","",""
"","","","","","html-keyboard-response","63","219525","0.0-2.0-5.0-0.21","6004d426710b3c300a1259ee","D2","batch4","","null","<p class=block-text>Trial 22 out of 78</p>","null","pattern_show_trial_num","","","","","","","","","","","","","","","","","","","","","","","","",""
"","","","","","image-keyboard-response","64","220340","0.0-2.0-5.0-1.21","6004d426710b3c300a1259ee","D2","batch4","","814.4000000953674","stim/yes_12_hor_w1_w.png","f","pattern_response","true","f","pattern_42","814.4000000953674","true","21","","","","","","","","","","","","","","","","","","",""
"","","","","","html-keyboard-response","65","221642","0.0-2.0-5.0-0.22","6004d426710b3c300a1259ee","D2","batch4","","null","<p class=block-text>Trial 23 out of 78</p>","null","pattern_show_trial_num","","","","","","","","","","","","","","","","","","","","","","","","",""
"","","","","","image-keyboard-response","66","227279","0.0-2.0-5.0-1.22","6004d426710b3c300a1259ee","D2","batch4","","5636.5","stim/no_49_2_b.png","j","pattern_response","true","j","pattern_29","5636.5","true","22","","","","","","","","","","","","","","","","","","",""
"","","","","","html-keyboard-response","67","228601","0.0-2.0-5.0-0.23","6004d426710b3c300a1259ee","D2","batch4","","null","<p class=block-text>Trial 24 out of 78</p>","null","pattern_show_trial_num","","","","","","","","","","","","","","","","","","","","","","","","",""
"","","","","","image-keyboard-response","68","229485","0.0-2.0-5.0-1.23","6004d426710b3c300a1259ee","D2","batch4","","882.1000000238419","stim/yes_70_ver_b1.png","f","pattern_response","true","f","pattern_80","882.1000000238419","true","23","","","","","","","","","","","","","","","","","","",""
"","","","","","html-keyboard-response","69","230791","0.0-2.0-5.0-0.24","6004d426710b3c300a1259ee","D2","batch4","","null","<p class=block-text>Trial 25 out of 78</p>","null","pattern_show_trial_num","","","","","","","","","","","","","","","","","","","","","","","","",""
"","","","","","image-keyboard-response","70","236676","0.0-2.0-5.0-1.24","6004d426710b3c300a1259ee","D2","batch4","","5883.800000071526","stim/no_53_1_b.png","j","pattern_response","true","j","pattern_33","5883.800000071526","true","24","","","","","","","","","","","","","","","","","","",""
"","","","","","html-keyboard-response","71","238005","0.0-2.0-5.0-0.25","6004d426710b3c300a1259ee","D2","batch4","","null","<p class=block-text>Trial 26 out of 78</p>","null","pattern_show_trial_num","","","","","","","","","","","","","","","","","","","","","","","","",""
"","","","","","image-keyboard-response","72","241970","0.0-2.0-5.0-1.25","6004d426710b3c300a1259ee","D2","batch4","","3963.399999976158","stim/yes_63_dia_b1.png","f","pattern_response","true","f","pattern_78","3963.399999976158","true","25","","","","","","","","","","","","","","","","","","",""
"","","","","","html-keyboard-response","73","243287","0.0-2.0-5.0-0.26","6004d426710b3c300a1259ee","D2","batch4","","null","<p class=block-text>Trial 27 out of 78</p>","null","pattern_show_trial_num","","","","","","","","","","","","","","","","","","","","","","","","",""
"","","","","","image-keyboard-response","74","245179","0.0-2.0-5.0-1.26","6004d426710b3c300a1259ee","D2","batch4","","1879.1000000238419","stim/yes_23_ver_b1.png","f","pattern_response","true","f","pattern_48","1879.1000000238419","true","26","","","","","","","","","","","","","","","","","","",""
"","","","","","html-keyboard-response","75","246489","0.0-2.0-5.0-0.27","6004d426710b3c300a1259ee","D2","batch4","","null","<p class=block-text>Trial 28 out of 78</p>","null","pattern_show_trial_num","","","","","","","","","","","","","","","","","","","","","","","","",""
"","","","","","image-keyboard-response","76","251859","0.0-2.0-5.0-1.27","6004d426710b3c300a1259ee","D2","batch4","","5368.5","stim/yes_42_dia_w1_w.png","j","pattern_response","false","f","pattern_64","5368.5","false","26","","","","","","","","","","","","","","","","","","",""
"","","","","","html-keyboard-response","77","253165","0.0-2.0-5.0-0.28","6004d426710b3c300a1259ee","D2","batch4","","null","<p class=block-text>Trial 29 out of 78</p>","null","pattern_show_trial_num","","","","","","","","","","","","","","","","","","","","","","","","",""
"","","","","","image-keyboard-response","78","254091","0.0-2.0-5.0-1.28","6004d426710b3c300a1259ee","D2","batch4","","924.5","stim/yes_17_ver_b1_b.png","f","pattern_response","true","f","pattern_46","924.5","true","27","","","","","","","","","","","","","","","","","","",""
"","","","","","html-keyboard-response","79","255404","0.0-2.0-5.0-0.29","6004d426710b3c300a1259ee","D2","batch4","","null","<p class=block-text>Trial 30 out of 78</p>","null","pattern_show_trial_num","","","","","","","","","","","","","","","","","","","","","","","","",""
"","","","","","image-keyboard-response","80","256339","0.0-2.0-5.0-1.29","6004d426710b3c300a1259ee","D2","batch4","","934.1999999284744","stim/yes_37_hor_w1_w.png","f","pattern_response","true","f","pattern_60","934.1999999284744","true","28","","","","","","","","","","","","","","","","","","",""
"","","","","","html-keyboard-response","81","257653","0.0-2.0-5.0-0.30","6004d426710b3c300a1259ee","D2","batch4","","null","<p class=block-text>Trial 31 out of 78</p>","null","pattern_show_trial_num","","","","","","","","","","","","","","","","","","","","","","","","",""
"","","","","","image-keyboard-response","82","259947","0.0-2.0-5.0-1.30","6004d426710b3c300a1259ee","D2","batch4","","2294","stim/no_18_1_b.png","j","pattern_response","true","j","pattern_05","2294","true","29","","","","","","","","","","","","","","","","","","",""
"","","","","","html-keyboard-response","83","261252","0.0-2.0-5.0-0.31","6004d426710b3c300a1259ee","D2","batch4","","null","<p class=block-text>Trial 32 out of 78</p>","null","pattern_show_trial_num","","","","","","","","","","","","","","","","","","","","","","","","",""
"","","","","","image-keyboard-response","84","262663","0.0-2.0-5.0-1.31","6004d426710b3c300a1259ee","D2","batch4","","1410.1000000238419","stim/yes_30_ver_b1_b.png","f","pattern_response","true","f","pattern_54","1410.1000000238419","true","30","","","","","","","","","","","","","","","","","","",""
"","","","","","html-keyboard-response","85","263967","0.0-2.0-5.0-0.32","6004d426710b3c300a1259ee","D2","batch4","","null","<p class=block-text>Trial 33 out of 78</p>","null","pattern_show_trial_num","","","","","","","","","","","","","","","","","","","","","","","","",""
"","","","","","image-keyboard-response","86","264903","0.0-2.0-5.0-1.32","6004d426710b3c300a1259ee","D2","batch4","","935.3000000715256","stim/yes_26_dia_w2_w.png","f","pattern_response","true","f","pattern_50","935.3000000715256","true","31","","","","","","","","","","","","","","","","","","",""
"","","","","","html-keyboard-response","87","266218","0.0-2.0-5.0-0.33","6004d426710b3c300a1259ee","D2","batch4","","null","<p class=block-text>Trial 34 out of 78</p>","null","pattern_show_trial_num","","","","","","","","","","","","","","","","","","","","","","","","",""
"","","","","","image-keyboard-response","88","267079","0.0-2.0-5.0-1.33","6004d426710b3c300a1259ee","D2","batch4","","860.4000000953674","stim/yes_49_hor_w1_b.png","f","pattern_response","true","f","pattern_70","860.4000000953674","true","32","","","","","","","","","","","","","","","","","","",""
"","","","","","html-keyboard-response","89","268392","0.0-2.0-5.0-0.34","6004d426710b3c300a1259ee","D2","batch4","","null","<p class=block-text>Trial 35 out of 78</p>","null","pattern_show_trial_num","","","","","","","","","","","","","","","","","","","","","","","","",""
"","","","","","image-keyboard-response","90","273564","0.0-2.0-5.0-1.34","6004d426710b3c300a1259ee","D2","batch4","","5170.5","stim/yes_51_dia_b1.png","j","pattern_response","false","f","pattern_72","5170.5","false","32","","","","","","","","","","","","","","","","","","",""
"","","","","","html-keyboard-response","91","274891","0.0-2.0-5.0-0.35","6004d426710b3c300a1259ee","D2","batch4","","null","<p class=block-text>Trial 36 out of 78</p>","null","pattern_show_trial_num","","","","","","","","","","","","","","","","","","","","","","","","",""
"","","","","","image-keyboard-response","92","276683","0.0-2.0-5.0-1.35","6004d426710b3c300a1259ee","D2","batch4","","1790.3000000715256","stim/yes_53_ver_b1_b.png","f","pattern_response","true","f","pattern_74","1790.3000000715256","true","33","","","","","","","","","","","","","","","","","","",""
"","","","","","html-keyboard-response","93","278007","0.0-2.0-5.0-0.36","6004d426710b3c300a1259ee","D2","batch4","","null","<p class=block-text>Trial 37 out of 78</p>","null","pattern_show_trial_num","","","","","","","","","","","","","","","","","","","","","","","","",""
"","","","","","image-keyboard-response","94","278738","0.0-2.0-5.0-1.36","6004d426710b3c300a1259ee","D2","batch4","","729.8999999761581","stim/yes_29_hor_b1_b.png","f","pattern_response","true","f","pattern_52","729.8999999761581","true","34","","","","","","","","","","","","","","","","","","",""
"","","","","","html-keyboard-response","95","280050","0.0-2.0-5.0-0.37","6004d426710b3c300a1259ee","D2","batch4","","null","<p class=block-text>Trial 38 out of 78</p>","null","pattern_show_trial_num","","","","","","","","","","","","","","","","","","","","","","","","",""
"","","","","","image-keyboard-response","96","284601","0.0-2.0-5.0-1.37","6004d426710b3c300a1259ee","D2","batch4","","4550.400000095367","stim/no_39_1_w.png","j","pattern_response","true","j","pattern_21","4550.400000095367","true","35","","","","","","","","","","","","","","","","","","",""
"","","","","","html-keyboard-response","97","285916","0.0-2.0-5.0-0.38","6004d426710b3c300a1259ee","D2","batch4","","null","<p class=block-text>Trial 39 out of 78</p>","null","pattern_show_trial_num","","","","","","","","","","","","","","","","","","","","","","","","",""
"","","","","","image-keyboard-response","98","287272","0.0-2.0-5.0-1.38","6004d426710b3c300a1259ee","D2","batch4","","1353.8999999761581","stim/no_15_1_w.png","f","pattern_response","false","j","pattern_03","1353.8999999761581","false","35","","","","","","","","","","","","","","","","","","",""
"","","","","","image-keyboard-response","99","289886","0.0-2.0-6.0","6004d426710b3c300a1259ee","D2","batch4","","2109.7999999523163","stim/empty_board.png","j","attention_check","true","j","","","","","500","[""f"",""j""]","","","","","","","","","","","","","","","","",""
"","","","","","html-keyboard-response","100","290691","0.0-2.0-7.0-0.0","6004d426710b3c300a1259ee","D2","batch4","","null","<p class=block-text>Trial 40 out of 78</p>","null","pattern_show_trial_num","","","","","","","","","","","","","","","","","","","","","","","","",""
"","","","","","image-keyboard-response","101","292718","0.0-2.0-7.0-1.0","6004d426710b3c300a1259ee","D2","batch4","","2025.2999999523163","stim/yes_67_hor_b1.png","f","pattern_response","true","f","pattern_79","2025.2999999523163","true","36","","","","","","","","","","","","","","","","","","",""
"","","","","","html-keyboard-response","102","294027","0.0-2.0-7.0-0.1","6004d426710b3c300a1259ee","D2","batch4","","null","<p class=block-text>Trial 41 out of 78</p>","null","pattern_show_trial_num","","","","","","","","","","","","","","","","","","","","","","","","",""
"","","","","","image-keyboard-response","103","295442","0.0-2.0-7.0-1.1","6004d426710b3c300a1259ee","D2","batch4","","1413.7999999523163","stim/yes_38_hor_b1_b.png","f","pattern_response","true","f","pattern_61","1413.7999999523163","true","37","","","","","","","","","","","","","","","","","","",""
"","","","","","html-keyboard-response","104","296762","0.0-2.0-7.0-0.2","6004d426710b3c300a1259ee","D2","batch4","","null","<p class=block-text>Trial 42 out of 78</p>","null","pattern_show_trial_num","","","","","","","","","","","","","","","","","","","","","","","","",""
"","","","","","image-keyboard-response","105","298708","0.0-2.0-7.0-1.2","6004d426710b3c300a1259ee","D2","batch4","","1945.8000000715256","stim/yes_55_hor_w1_w.png","f","pattern_response","true","f","pattern_75","1945.8000000715256","true","38","","","","","","","","","","","","","","","","","","",""
"","","","","","html-keyboard-response","106","300016","0.0-2.0-7.0-0.3","6004d426710b3c300a1259ee","D2","batch4","","null","<p class=block-text>Trial 43 out of 78</p>","null","pattern_show_trial_num","","","","","","","","","","","","","","","","","","","","","","","","",""
"","","","","","image-keyboard-response","107","302703","0.0-2.0-7.0-1.3","6004d426710b3c300a1259ee","D2","batch4","","2685.899999976158","stim/yes_60_ver_b1_b.png","f","pattern_response","true","f","pattern_77","2685.899999976158","true","39","","","","","","","","","","","","","","","","","","",""
"","","","","","html-keyboard-response","108","304022","0.0-2.0-7.0-0.4","6004d426710b3c300a1259ee","D2","batch4","","null","<p class=block-text>Trial 44 out of 78</p>","null","pattern_show_trial_num","","","","","","","","","","","","","","","","","","","","","","","","",""
"","","","","","image-keyboard-response","109","307868","0.0-2.0-7.0-1.4","6004d426710b3c300a1259ee","D2","batch4","","3841.5","stim/no_36_2_w.png","j","pattern_response","true","j","pattern_18","3841.5","true","40","","","","","","","","","","","","","","","","","","",""
"","","","","","html-keyboard-response","110","309186","0.0-2.0-7.0-0.5","6004d426710b3c300a1259ee","D2","batch4","","null","<p class=block-text>Trial 45 out of 78</p>","null","pattern_show_trial_num","","","","","","","","","","","","","","","","","","","","","","","","",""
"","","","","","image-keyboard-response","111","310020","0.0-2.0-7.0-1.5","6004d426710b3c300a1259ee","D2","batch4","","832.9000000953674","stim/yes_14_hor_b1_w.png","f","pattern_response","true","f","pattern_43","832.9000000953674","true","41","","","","","","","","","","","","","","","","","","",""
"","","","","","html-keyboard-response","112","311336","0.0-2.0-7.0-0.6","6004d426710b3c300a1259ee","D2","batch4","","null","<p class=block-text>Trial 46 out of 78</p>","null","pattern_show_trial_num","","","","","","","","","","","","","","","","","","","","","","","","",""
"","","","","","image-keyboard-response","113","313943","0.0-2.0-7.0-1.6","6004d426710b3c300a1259ee","D2","batch4","","2606.399999976158","stim/no_23_1.png","j","pattern_response","true","j","pattern_08","2606.399999976158","true","42","","","","","","","","","","","","","","","","","","",""
"","","","","","html-keyboard-response","114","315255","0.0-2.0-7.0-0.7","6004d426710b3c300a1259ee","D2","batch4","","null","<p class=block-text>Trial 47 out of 78</p>","null","pattern_show_trial_num","","","","","","","","","","","","","","","","","","","","","","","","",""
"","","","","","image-keyboard-response","115","316742","0.0-2.0-7.0-1.7","6004d426710b3c300a1259ee","D2","batch4","","1485","stim/yes_52_ver_w1.png","f","pattern_response","true","f","pattern_73","1485","true","43","","","","","","","","","","","","","","","","","","",""
"","","","","","html-keyboard-response","116","318067","0.0-2.0-7.0-0.8","6004d426710b3c300a1259ee","D2","batch4","","null","<p class=block-text>Trial 48 out of 78</p>","null","pattern_show_trial_num","","","","","","","","","","","","","","","","","","","","","","","","",""
"","","","","","image-keyboard-response","117","323099","0.0-2.0-7.0-1.8","6004d426710b3c300a1259ee","D2","batch4","","5030.399999976158","stim/yes_48_dia_w1_w.png","j","pattern_response","false","f","pattern_69","5030.399999976158","false","43","","","","","","","","","","","","","","","","","","",""
"","","","","","html-keyboard-response","118","324416","0.0-2.0-7.0-0.9","6004d426710b3c300a1259ee","D2","batch4","","null","<p class=block-text>Trial 49 out of 78</p>","null","pattern_show_trial_num","","","","","","","","","","","","","","","","","","","","","","","","",""
"","","","","","image-keyboard-response","119","328809","0.0-2.0-7.0-1.9","6004d426710b3c300a1259ee","D2","batch4","","4391.900000095367","stim/no_42_1_w.png","j","pattern_response","true","j","pattern_22","4391.900000095367","true","44","","","","","","","","","","","","","","","","","","",""
"","","","","","html-keyboard-response","120","330131","0.0-2.0-7.0-0.10","6004d426710b3c300a1259ee","D2","batch4","","null","<p class=block-text>Trial 50 out of 78</p>","null","pattern_show_trial_num","","","","","","","","","","","","","","","","","","","","","","","","",""
"","","","","","image-keyboard-response","121","335484","0.0-2.0-7.0-1.10","6004d426710b3c300a1259ee","D2","batch4","","5352.199999928474","stim/no_48_1_w.png","j","pattern_response","true","j","pattern_28","5352.199999928474","true","45","","","","","","","","","","","","","","","","","","",""
"","","","","","html-keyboard-response","122","336802","0.0-2.0-7.0-0.11","6004d426710b3c300a1259ee","D2","batch4","","null","<p class=block-text>Trial 51 out of 78</p>","null","pattern_show_trial_num","","","","","","","","","","","","","","","","","","","","","","","","",""
"","","","","","image-keyboard-response","123","337889","0.0-2.0-7.0-1.11","6004d426710b3c300a1259ee","D2","batch4","","1086.1000000238419","stim/yes_29_ver_w1.png","f","pattern_response","true","f","pattern_53","1086.1000000238419","true","46","","","","","","","","","","","","","","","","","","",""
"","","","","","html-keyboard-response","124","339212","0.0-2.0-7.0-0.12","6004d426710b3c300a1259ee","D2","batch4","","null","<p class=block-text>Trial 52 out of 78</p>","null","pattern_show_trial_num","","","","","","","","","","","","","","","","","","","","","","","","",""
"","","","","","image-keyboard-response","125","343136","0.0-2.0-7.0-1.12","6004d426710b3c300a1259ee","D2","batch4","","3922.9000000953674","stim/no_32_1_w.png","j","pattern_response","true","j","pattern_14","3922.9000000953674","true","47","","","","","","","","","","","","","","","","","","",""
"","","","","","html-keyboard-response","126","344461","0.0-2.0-7.0-0.13","6004d426710b3c300a1259ee","D2","batch4","","null","<p class=block-text>Trial 53 out of 78</p>","null","pattern_show_trial_num","","","","","","","","","","","","","","","","","","","","","","","","",""
"","","","","","image-keyboard-response","127","350396","0.0-2.0-7.0-1.13","6004d426710b3c300a1259ee","D2","batch4","","5933.5","stim/yes_50_dia_w1.png","j","pattern_response","false","f","pattern_71","5933.5","false","47","","","","","","","","","","","","","","","","","","",""
"","","","","","html-keyboard-response","128","351709","0.0-2.0-7.0-0.14","6004d426710b3c300a1259ee","D2","batch4","","null","<p class=block-text>Trial 54 out of 78</p>","null","pattern_show_trial_num","","","","","","","","","","","","","","","","","","","","","","","","",""
"","","","","","image-keyboard-response","129","358189","0.0-2.0-7.0-1.14","6004d426710b3c300a1259ee","D2","batch4","","6478.700000047684","stim/no_46_1_b.png","j","pattern_response","true","j","pattern_26","6478.700000047684","true","48","","","","","","","","","","","","","","","","","","",""
"","","","","","html-keyboard-response","130","359503","0.0-2.0-7.0-0.15","6004d426710b3c300a1259ee","D2","batch4","","null","<p class=block-text>Trial 55 out of 78</p>","null","pattern_show_trial_num","","","","","","","","","","","","","","","","","","","","","","","","",""
"","","","","","image-keyboard-response","131","363870","0.0-2.0-7.0-1.15","6004d426710b3c300a1259ee","D2","batch4","","4366","stim/no_34_1_b.png","j","pattern_response","true","j","pattern_16","4366","true","49","","","","","","","","","","","","","","","","","","",""
"","","","","","html-keyboard-response","132","365189","0.0-2.0-7.0-0.16","6004d426710b3c300a1259ee","D2","batch4","","null","<p class=block-text>Trial 56 out of 78</p>","null","pattern_show_trial_num","","","","","","","","","","","","","","","","","","","","","","","","",""
"","","","","","image-keyboard-response","133","366520","0.0-2.0-7.0-1.16","6004d426710b3c300a1259ee","D2","batch4","","1330.3999999761581","stim/yes_43_ver_w1_w.png","f","pattern_response","true","f","pattern_65","1330.3999999761581","true","50","","","","","","","","","","","","","","","","","","",""
"","","","","","html-keyboard-response","134","367845","0.0-2.0-7.0-0.17","6004d426710b3c300a1259ee","D2","batch4","","null","<p class=block-text>Trial 57 out of 78</p>","null","pattern_show_trial_num","","","","","","","","","","","","","","","","","","","","","","","","",""
"","","","","","image-keyboard-response","135","368606","0.0-2.0-7.0-1.17","6004d426710b3c300a1259ee","D2","batch4","","764.6999999284744","stim/yes_28_ver_b1.png","f","pattern_response","true","f","pattern_51","764.6999999284744","true","51","","","","","","","","","","","","","","","","","","",""
"","","","","","html-keyboard-response","136","369935","0.0-2.0-7.0-0.18","6004d426710b3c300a1259ee","D2","batch4","","null","<p class=block-text>Trial 58 out of 78</p>","null","pattern_show_trial_num","","","","","","","","","","","","","","","","","","","","","","","","",""
"","","","","","image-keyboard-response","137","370655","0.0-2.0-7.0-1.18","6004d426710b3c300a1259ee","D2","batch4","","719.2000000476837","stim/yes_22_ver_w1.png","f","pattern_response","true","f","pattern_47","719.2000000476837","true","52","","","","","","","","","","","","","","","","","","",""
"","","","","","html-keyboard-response","138","371973","0.0-2.0-7.0-0.19","6004d426710b3c300a1259ee","D2","batch4","","null","<p class=block-text>Trial 59 out of 78</p>","null","pattern_show_trial_num","","","","","","","","","","","","","","","","","","","","","","","","",""
"","","","","","image-keyboard-response","139","376215","0.0-2.0-7.0-1.19","6004d426710b3c300a1259ee","D2","batch4","","4241.399999976158","stim/yes_40_dia_b1_b.png","j","pattern_response","false","f","pattern_63","4241.399999976158","false","52","","","","","","","","","","","","","","","","","","",""
"","","","","","html-keyboard-response","140","377535","0.0-2.0-7.0-0.20","6004d426710b3c300a1259ee","D2","batch4","","null","<p class=block-text>Trial 60 out of 78</p>","null","pattern_show_trial_num","","","","","","","","","","","","","","","","","","","","","","","","",""
"","","","","","image-keyboard-response","141","380347","0.0-2.0-7.0-1.20","6004d426710b3c300a1259ee","D2","batch4","","2802.5","stim/no_17_1_w.png","j","pattern_response","true","j","pattern_04","2802.5","true","53","","","","","","","","","","","","","","","","","","",""
"","","","","","html-keyboard-response","142","381655","0.0-2.0-7.0-0.21","6004d426710b3c300a1259ee","D2","batch4","","null","<p class=block-text>Trial 61 out of 78</p>","null","pattern_show_trial_num","","","","","","","","","","","","","","","","","","","","","","","","",""
"","","","","","image-keyboard-response","143","386463","0.0-2.0-7.0-1.21","6004d426710b3c300a1259ee","D2","batch4","","4807.100000023842","stim/yes_37_dia_w1.png","j","pattern_response","false","f","pattern_59","4807.100000023842","false","53","","","","","","","","","","","","","","","","","","",""
"","","","","","html-keyboard-response","144","387780","0.0-2.0-7.0-0.22","6004d426710b3c300a1259ee","D2","batch4","","null","<p class=block-text>Trial 62 out of 78</p>","null","pattern_show_trial_num","","","","","","","","","","","","","","","","","","","","","","","","",""
"","","","","","image-keyboard-response","145","389412","0.0-2.0-7.0-1.22","6004d426710b3c300a1259ee","D2","batch4","","1630","stim/no_13_2_b.png","j","pattern_response","true","j","pattern_02","1630","true","54","","","","","","","","","","","","","","","","","","",""
"","","","","","html-keyboard-response","146","390731","0.0-2.0-7.0-0.23","6004d426710b3c300a1259ee","D2","batch4","","null","<p class=block-text>Trial 63 out of 78</p>","null","pattern_show_trial_num","","","","","","","","","","","","","","","","","","","","","","","","",""
"","","","","","image-keyboard-response","147","398705","0.0-2.0-7.0-1.23","6004d426710b3c300a1259ee","D2","batch4","","7972.899999976158","stim/no_65_1_b.png","j","pattern_response","true","j","pattern_38","7972.899999976158","true","55","","","","","","","","","","","","","","","","","","",""
"","","","","","html-keyboard-response","148","400032","0.0-2.0-7.0-0.24","6004d426710b3c300a1259ee","D2","batch4","","null","<p class=block-text>Trial 64 out of 78</p>","null","pattern_show_trial_num","","","","","","","","","","","","","","","","","","","","","","","","",""
"","","","","","image-keyboard-response","149","407156","0.0-2.0-7.0-1.24","6004d426710b3c300a1259ee","D2","batch4","","7122","stim/no_62_1_w.png","j","pattern_response","true","j","pattern_36","7122","true","56","","","","","","","","","","","","","","","","","","",""
"","","","","","html-keyboard-response","150","408475","0.0-2.0-7.0-0.25","6004d426710b3c300a1259ee","D2","batch4","","null","<p class=block-text>Trial 65 out of 78</p>","null","pattern_show_trial_num","","","","","","","","","","","","","","","","","","","","","","","","",""
"","","","","","image-keyboard-response","151","409392","0.0-2.0-7.0-1.25","6004d426710b3c300a1259ee","D2","batch4","","916.5","stim/yes_25_hor_b1_b.png","f","pattern_response","true","f","pattern_49","916.5","true","57","","","","","","","","","","","","","","","","","","",""
"","","","","","html-keyboard-response","152","410696","0.0-2.0-7.0-0.26","6004d426710b3c300a1259ee","D2","batch4","","null","<p class=block-text>Trial 66 out of 78</p>","null","pattern_show_trial_num","","","","","","","","","","","","","","","","","","","","","","","","",""
"","","","","","image-keyboard-response","153","412756","0.0-2.0-7.0-1.26","6004d426710b3c300a1259ee","D2","batch4","","2058.600000023842","stim/yes_35_dia_b1.png","f","pattern_response","true","f","pattern_57","2058.600000023842","true","58","","","","","","","","","","","","","","","","","","",""
"","","","","","html-keyboard-response","154","414073","0.0-2.0-7.0-0.27","6004d426710b3c300a1259ee","D2","batch4","","null","<p class=block-text>Trial 67 out of 78</p>","null","pattern_show_trial_num","","","","","","","","","","","","","","","","","","","","","","","","",""
"","","","","","image-keyboard-response","155","418896","0.0-2.0-7.0-1.27","6004d426710b3c300a1259ee","D2","batch4","","4822.300000071526","stim/no_44_1.png","j","pattern_response","true","j","pattern_24","4822.300000071526","true","59","","","","","","","","","","","","","","","","","","",""
"","","","","","html-keyboard-response","156","420222","0.0-2.0-7.0-0.28","6004d426710b3c300a1259ee","D2","batch4","","null","<p class=block-text>Trial 68 out of 78</p>","null","pattern_show_trial_num","","","","","","","","","","","","","","","","","","","","","","","","",""
"","","","","","image-keyboard-response","157","421896","0.0-2.0-7.0-1.28","6004d426710b3c300a1259ee","D2","batch4","","1673","stim/yes_17_dia_w1.png","f","pattern_response","true","f","pattern_45","1673","true","60","","","","","","","","","","","","","","","","","","",""
"","","","","","html-keyboard-response","158","423217","0.0-2.0-7.0-0.29","6004d426710b3c300a1259ee","D2","batch4","","null","<p class=block-text>Trial 69 out of 78</p>","null","pattern_show_trial_num","","","","","","","","","","","","","","","","","","","","","","","","",""
"","","","","","image-keyboard-response","159","425394","0.0-2.0-7.0-1.29","6004d426710b3c300a1259ee","D2","batch4","","2176.100000023842","stim/no_20_1_w.png","j","pattern_response","true","j","pattern_06","2176.100000023842","true","61","","","","","","","","","","","","","","","","","","",""
"","","","","","html-keyboard-response","160","426703","0.0-2.0-7.0-0.30","6004d426710b3c300a1259ee","D2","batch4","","null","<p class=block-text>Trial 70 out of 78</p>","null","pattern_show_trial_num","","","","","","","","","","","","","","","","","","","","","","","","",""
"","","","","","image-keyboard-response","161","429305","0.0-2.0-7.0-1.30","6004d426710b3c300a1259ee","D2","batch4","","2606.2000000476837","stim/no_26_1_w.png","j","pattern_response","true","j","pattern_10","2606.2000000476837","true","62","","","","","","","","","","","","","","","","","","",""
"","","","","","html-keyboard-response","162","430612","0.0-2.0-7.0-0.31","6004d426710b3c300a1259ee","D2","batch4","","null","<p class=block-text>Trial 71 out of 78</p>","null","pattern_show_trial_num","","","","","","","","","","","","","","","","","","","","","","","","",""
"","","","","","image-keyboard-response","163","433539","0.0-2.0-7.0-1.31","6004d426710b3c300a1259ee","D2","batch4","","2925.600000023842","stim/no_29_1_b.png","j","pattern_response","true","j","pattern_12","2925.600000023842","true","63","","","","","","","","","","","","","","","","","","",""
"","","","","","html-keyboard-response","164","434862","0.0-2.0-7.0-0.32","6004d426710b3c300a1259ee","D2","batch4","","null","<p class=block-text>Trial 72 out of 78</p>","null","pattern_show_trial_num","","","","","","","","","","","","","","","","","","","","","","","","",""
"","","","","","image-keyboard-response","165","440091","0.0-2.0-7.0-1.32","6004d426710b3c300a1259ee","D2","batch4","","5228.399999976158","stim/no_52_1.png","j","pattern_response","true","j","pattern_32","5228.399999976158","true","64","","","","","","","","","","","","","","","","","","",""
"","","","","","html-keyboard-response","166","441410","0.0-2.0-7.0-0.33","6004d426710b3c300a1259ee","D2","batch4","","null","<p class=block-text>Trial 73 out of 78</p>","null","pattern_show_trial_num","","","","","","","","","","","","","","","","","","","","","","","","",""
"","","","","","image-keyboard-response","167","447083","0.0-2.0-7.0-1.33","6004d426710b3c300a1259ee","D2","batch4","","5671.5","stim/no_55_1_w.png","j","pattern_response","true","j","pattern_34","5671.5","true","65","","","","","","","","","","","","","","","","","","",""
"","","","","","html-keyboard-response","168","448399","0.0-2.0-7.0-0.34","6004d426710b3c300a1259ee","D2","batch4","","null","<p class=block-text>Trial 74 out of 78</p>","null","pattern_show_trial_num","","","","","","","","","","","","","","","","","","","","","","","","",""
"","","","","","image-keyboard-response","169","451699","0.0-2.0-7.0-1.34","6004d426710b3c300a1259ee","D2","batch4","","3297.9000000953674","stim/no_38_1_b.png","j","pattern_response","true","j","pattern_20","3297.9000000953674","true","66","","","","","","","","","","","","","","","","","","",""
"","","","","","html-keyboard-response","170","453014","0.0-2.0-7.0-0.35","6004d426710b3c300a1259ee","D2","batch4","","null","<p class=block-text>Trial 75 out of 78</p>","null","pattern_show_trial_num","","","","","","","","","","","","","","","","","","","","","","","","",""
"","","","","","image-keyboard-response","171","457929","0.0-2.0-7.0-1.35","6004d426710b3c300a1259ee","D2","batch4","","4913.899999976158","stim/no_50_1.png","j","pattern_response","true","j","pattern_30","4913.899999976158","true","67","","","","","","","","","","","","","","","","","","",""
"","","","","","html-keyboard-response","172","459256","0.0-2.0-7.0-0.36","6004d426710b3c300a1259ee","D2","batch4","","null","<p class=block-text>Trial 76 out of 78</p>","null","pattern_show_trial_num","","","","","","","","","","","","","","","","","","","","","","","","",""
"","","","","","image-keyboard-response","173","468449","0.0-2.0-7.0-1.36","6004d426710b3c300a1259ee","D2","batch4","","9191","stim/no_70_2.png","j","pattern_response","true","j","pattern_40","9191","true","68","","","","","","","","","","","","","","","","","","",""
"","","","","","html-keyboard-response","174","469770","0.0-2.0-7.0-0.37","6004d426710b3c300a1259ee","D2","batch4","","null","<p class=block-text>Trial 77 out of 78</p>","null","pattern_show_trial_num","","","","","","","","","","","","","","","","","","","","","","","","",""
"","","","","","image-keyboard-response","175","470804","0.0-2.0-7.0-1.37","6004d426710b3c300a1259ee","D2","batch4","","1032.3000000715256","stim/yes_31_hor_b1.png","f","pattern_response","true","f","pattern_55","1032.3000000715256","true","69","","","","","","","","","","","","","","","","","","",""
"","","","","","html-keyboard-response","176","472123","0.0-2.0-7.0-0.38","6004d426710b3c300a1259ee","D2","batch4","","null","<p class=block-text>Trial 78 out of 78</p>","null","pattern_show_trial_num","","","","","","","","","","","","","","","","","","","","","","","","",""
"","","","","","image-keyboard-response","177","472954","0.0-2.0-7.0-1.38","6004d426710b3c300a1259ee","D2","batch4","","830.1999999284744","stim/yes_45_hor_b2_b.png","f","pattern_response","true","f","pattern_67","830.1999999284744","true","70","","","","","","","","","","","","","","","","","","",""
"","","","","","html-button-response","178","510718","0.0-2.0-8.0","6004d426710b3c300a1259ee","D2","batch4","","37240.60000002384","<p class = block-text>This concludes the 4-in-a-row detection game.Thank you for your responses!<br>
            You responded correctly on 90% of the trials.<br>
            When you are ready, press ""Continue"" button to continue </p>","0","","","","","","","","","","","","","","","","","","","","","","","","","",""
"true","","","","","fullscreen","179","515802","0.0-3.0-0.0","6004d426710b3c300a1259ee","D2","batch4","","","","","spm_fullscreen","","","","","","","","","","","","","","","","","","","","","","","","",""
"","","","","","html-button-response","180","527222","0.0-3.0-1.0","6004d426710b3c300a1259ee","D2","batch4","","11418.899999976158","<p class = block-text><b>Instructions</b> <br>This is a widely used intelligence test in research. <br>In this test, a figure with a missing piece will be presented.<br>Below the figure are alternative pieces to complete the figure, only one of which is correct.<br> Different figures might involve different principles for obtaining the missing piece<br>Your job is to select the most logical piece to complete the figure.</p>","0","","","","","","","","","","","","","","","","","","","","","","","","","",""
"","","","","","html-keyboard-response","181","528032","0.0-3.0-2.0-0.0","6004d426710b3c300a1259ee","D2","batch4","","null","<p class=block-text>Trial 1 out of 60</p>","null","spm_show_trial_num","","","","","","","","","","","","","","","","","","","","","","","","",""
"","","","","","image-button-response","182","545267","0.0-3.0-2.0-1.0","6004d426710b3c300a1259ee","D2","batch4","","17232.100000023842","img/question_1_1.jpeg","3","spm_respsonse","1","4","mat_01","","","","","","1","17232.100000023842","","","","","","","","","","","","","","",""
"","","","","","html-keyboard-response","183","546334","0.0-3.0-2.0-0.1","6004d426710b3c300a1259ee","D2","batch4","","null","<p class=block-text>Trial 2 out of 60</p>","null","spm_show_trial_num","","","","","","","","","","","","","","","","","","","","","","","","",""
"","","","","","image-button-response","184","552214","0.0-3.0-2.0-1.1","6004d426710b3c300a1259ee","D2","batch4","","5879","img/question_1_2.jpeg","4","spm_respsonse","1","5","mat_02","","","","","","1","5879","","","","","","","","","","","","","","",""
"","","","","","html-keyboard-response","185","553274","0.0-3.0-2.0-0.2","6004d426710b3c300a1259ee","D2","batch4","","null","<p class=block-text>Trial 3 out of 60</p>","null","spm_show_trial_num","","","","","","","","","","","","","","","","","","","","","","","","",""
"","","","","","image-button-response","186","557798","0.0-3.0-2.0-1.2","6004d426710b3c300a1259ee","D2","batch4","","4522.700000047684","img/question_1_3.jpeg","0","spm_respsonse","1","1","mat_03","","","","","","1","4522.700000047684","","","","","","","","","","","","","","",""
"","","","","","html-keyboard-response","187","558861","0.0-3.0-2.0-0.3","6004d426710b3c300a1259ee","D2","batch4","","null","<p class=block-text>Trial 4 out of 60</p>","null","spm_show_trial_num","","","","","","","","","","","","","","","","","","","","","","","","",""
"","","","","","image-button-response","188","563610","0.0-3.0-2.0-1.3","6004d426710b3c300a1259ee","D2","batch4","","4747.5","img/question_1_4.jpeg","1","spm_respsonse","1","2","mat_04","","","","","","1","4747.5","","","","","","","","","","","","","","",""
"","","","","","html-keyboard-response","189","564670","0.0-3.0-2.0-0.4","6004d426710b3c300a1259ee","D2","batch4","","null","<p class=block-text>Trial 5 out of 60</p>","null","spm_show_trial_num","","","","","","","","","","","","","","","","","","","","","","","","",""
"","","","","","image-button-response","190","569634","0.0-3.0-2.0-1.4","6004d426710b3c300a1259ee","D2","batch4","","4962.599999904633","img/question_1_5.jpeg","5","spm_respsonse","1","6","mat_05","","","","","","1","4962.599999904633","","","","","","","","","","","","","","",""
"","","","","","html-keyboard-response","191","570688","0.0-3.0-2.0-0.5","6004d426710b3c300a1259ee","D2","batch4","","null","<p class=block-text>Trial 6 out of 60</p>","null","spm_show_trial_num","","","","","","","","","","","","","","","","","","","","","","","","",""
"","","","","","image-button-response","192","574738","0.0-3.0-2.0-1.5","6004d426710b3c300a1259ee","D2","batch4","","4048.100000023842","img/question_1_6.jpeg","2","spm_respsonse","1","3","mat_06","","","","","","1","4048.100000023842","","","","","","","","","","","","","","",""
"","","","","","html-keyboard-response","193","575803","0.0-3.0-2.0-0.6","6004d426710b3c300a1259ee","D2","batch4","","null","<p class=block-text>Trial 7 out of 60</p>","null","spm_show_trial_num","","","","","","","","","","","","","","","","","","","","","","","","",""
"","","","","","image-button-response","194","583330","0.0-3.0-2.0-1.6","6004d426710b3c300a1259ee","D2","batch4","","7525.200000047684","img/question_1_7.jpeg","5","spm_respsonse","1","6","mat_07","","","","","","1","7525.200000047684","","","","","","","","","","","","","","",""
"","","","","","html-keyboard-response","195","584400","0.0-3.0-2.0-0.7","6004d426710b3c300a1259ee","D2","batch4","","null","<p class=block-text>Trial 8 out of 60</p>","null","spm_show_trial_num","","","","","","","","","","","","","","","","","","","","","","","","",""
"","","","","","image-button-response","196","589906","0.0-3.0-2.0-1.7","6004d426710b3c300a1259ee","D2","batch4","","5503.899999976158","img/question_1_8.jpeg","1","spm_respsonse","1","2","mat_08","","","","","","1","5503.899999976158","","","","","","","","","","","","","","",""
"","","","","","html-keyboard-response","197","590972","0.0-3.0-2.0-0.8","6004d426710b3c300a1259ee","D2","batch4","","null","<p class=block-text>Trial 9 out of 60</p>","null","spm_show_trial_num","","","","","","","","","","","","","","","","","","","","","","","","",""
"","","","","","image-button-response","198","596502","0.0-3.0-2.0-1.8","6004d426710b3c300a1259ee","D2","batch4","","5528.600000023842","img/question_1_9.jpeg","0","spm_respsonse","1","1","mat_09","","","","","","1","5528.600000023842","","","","","","","","","","","","","","",""
"","","","","","html-keyboard-response","199","597569","0.0-3.0-2.0-0.9","6004d426710b3c300a1259ee","D2","batch4","","null","<p class=block-text>Trial 10 out of 60</p>","null","spm_show_trial_num","","","","","","","","","","","","","","","","","","","","","","","","",""
"","","","","","image-button-response","200","603422","0.0-3.0-2.0-1.9","6004d426710b3c300a1259ee","D2","batch4","","5851.300000071526","img/question_1_10.jpeg","2","spm_respsonse","1","3","mat_10","","","","","","1","5851.300000071526","","","","","","","","","","","","","","",""
"","","","","","html-keyboard-response","201","604476","0.0-3.0-2.0-0.10","6004d426710b3c300a1259ee","D2","batch4","","null","<p class=block-text>Trial 11 out of 60</p>","null","spm_show_trial_num","","","","","","","","","","","","","","","","","","","","","","","","",""
"","","","","","image-button-response","202","616314","0.0-3.0-2.0-1.10","6004d426710b3c300a1259ee","D2","batch4","","11836.799999952316","img/question_1_11.jpeg","3","spm_respsonse","1","4","mat_11","","","","","","1","11836.799999952316","","","","","","","","","","","","","","",""
"","","","","","html-keyboard-response","203","617367","0.0-3.0-2.0-0.11","6004d426710b3c300a1259ee","D2","batch4","","null","<p class=block-text>Trial 12 out of 60</p>","null","spm_show_trial_num","","","","","","","","","","","","","","","","","","","","","","","","",""
"","","","","","image-button-response","204","634326","0.0-3.0-2.0-1.11","6004d426710b3c300a1259ee","D2","batch4","","16956.399999976158","img/question_1_12.jpeg","0","spm_respsonse","0","5","mat_12","","","","","","0","16956.399999976158","","","","","","","","","","","","","","",""
"","","","","","html-keyboard-response","205","635382","0.0-3.0-2.0-0.12","6004d426710b3c300a1259ee","D2","batch4","","null","<p class=block-text>Trial 13 out of 60</p>","null","spm_show_trial_num","","","","","","","","","","","","","","","","","","","","","","","","",""
"","","","","","image-button-response","206","638966","0.0-3.0-2.0-1.12","6004d426710b3c300a1259ee","D2","batch4","","3582.6999999284744","img/question_2_1.jpeg","1","spm_respsonse","1","2","mat_13","","","","","","1","3582.6999999284744","","","","","","","","","","","","","","",""
"","","","","","html-keyboard-response","207","640033","0.0-3.0-2.0-0.13","6004d426710b3c300a1259ee","D2","batch4","","null","<p class=block-text>Trial 14 out of 60</p>","null","spm_show_trial_num","","","","","","","","","","","","","","","","","","","","","","","","",""
"","","","","","image-button-response","208","646794","0.0-3.0-2.0-1.13","6004d426710b3c300a1259ee","D2","batch4","","6759.700000047684","img/question_2_2.jpeg","5","spm_respsonse","1","6","mat_14","","","","","","1","6759.700000047684","","","","","","","","","","","","","","",""
"","","","","","html-keyboard-response","209","647857","0.0-3.0-2.0-0.14","6004d426710b3c300a1259ee","D2","batch4","","null","<p class=block-text>Trial 15 out of 60</p>","null","spm_show_trial_num","","","","","","","","","","","","","","","","","","","","","","","","",""
"","","","","","image-button-response","210","652758","0.0-3.0-2.0-1.14","6004d426710b3c300a1259ee","D2","batch4","","4898.899999976158","img/question_2_3.jpeg","0","spm_respsonse","1","1","mat_15","","","","","","1","4898.899999976158","","","","","","","","","","","","","","",""
"","","","","","html-keyboard-response","211","653813","0.0-3.0-2.0-0.15","6004d426710b3c300a1259ee","D2","batch4","","null","<p class=block-text>Trial 16 out of 60</p>","null","spm_show_trial_num","","","","","","","","","","","","","","","","","","","","","","","","",""
"","","","","","image-button-response","212","658166","0.0-3.0-2.0-1.15","6004d426710b3c300a1259ee","D2","batch4","","4350.700000047684","img/question_2_4.jpeg","1","spm_respsonse","1","2","mat_16","","","","","","1","4350.700000047684","","","","","","","","","","","","","","",""
"","","","","","html-keyboard-response","213","659229","0.0-3.0-2.0-0.16","6004d426710b3c300a1259ee","D2","batch4","","null","<p class=block-text>Trial 17 out of 60</p>","null","spm_show_trial_num","","","","","","","","","","","","","","","","","","","","","","","","",""
"","","","","","image-button-response","214","664422","0.0-3.0-2.0-1.16","6004d426710b3c300a1259ee","D2","batch4","","5191","img/question_2_5.jpeg","0","spm_respsonse","1","1","mat_17","","","","","","1","5191","","","","","","","","","","","","","","",""
"","","","","","html-keyboard-response","215","665487","0.0-3.0-2.0-0.17","6004d426710b3c300a1259ee","D2","batch4","","null","<p class=block-text>Trial 18 out of 60</p>","null","spm_show_trial_num","","","","","","","","","","","","","","","","","","","","","","","","",""
"","","","","","image-button-response","216","678722","0.0-3.0-2.0-1.17","6004d426710b3c300a1259ee","D2","batch4","","13233.400000095367","img/question_2_6.jpeg","2","spm_respsonse","1","3","mat_18","","","","","","1","13233.400000095367","","","","","","","","","","","","","","",""
"","","","","","html-keyboard-response","217","679787","0.0-3.0-2.0-0.18","6004d426710b3c300a1259ee","D2","batch4","","null","<p class=block-text>Trial 19 out of 60</p>","null","spm_show_trial_num","","","","","","","","","","","","","","","","","","","","","","","","",""
"","","","","","image-button-response","218","690342","0.0-3.0-2.0-1.18","6004d426710b3c300a1259ee","D2","batch4","","10552.5","img/question_2_7.jpeg","4","spm_respsonse","1","5","mat_19","","","","","","1","10552.5","","","","","","","","","","","","","","",""
"","","","","","html-keyboard-response","219","691394","0.0-3.0-2.0-0.19","6004d426710b3c300a1259ee","D2","batch4","","null","<p class=block-text>Trial 20 out of 60</p>","null","spm_show_trial_num","","","","","","","","","","","","","","","","","","","","","","","","",""
"","","","","","image-button-response","220","698882","0.0-3.0-2.0-1.19","6004d426710b3c300a1259ee","D2","batch4","","7486","img/question_2_8.jpeg","5","spm_respsonse","1","6","mat_20","","","","","","1","7486","","","","","","","","","","","","","","",""
"","","","","","html-keyboard-response","221","699934","0.0-3.0-2.0-0.20","6004d426710b3c300a1259ee","D2","batch4","","null","<p class=block-text>Trial 21 out of 60</p>","null","spm_show_trial_num","","","","","","","","","","","","","","","","","","","","","","","","",""
"","","","","","image-button-response","222","703466","0.0-3.0-2.0-1.20","6004d426710b3c300a1259ee","D2","batch4","","3530.1999999284744","img/question_2_9.jpeg","3","spm_respsonse","1","4","mat_21","","","","","","1","3530.1999999284744","","","","","","","","","","","","","","",""
"","","","","","html-keyboard-response","223","704531","0.0-3.0-2.0-0.21","6004d426710b3c300a1259ee","D2","batch4","","null","<p class=block-text>Trial 22 out of 60</p>","null","spm_show_trial_num","","","","","","","","","","","","","","","","","","","","","","","","",""
"","","","","","image-button-response","224","710758","0.0-3.0-2.0-1.21","6004d426710b3c300a1259ee","D2","batch4","","6225","img/question_2_10.jpeg","4","spm_respsonse","0","3","mat_22","","","","","","0","6225","","","","","","","","","","","","","","",""
"","","","","","html-keyboard-response","225","711824","0.0-3.0-2.0-0.22","6004d426710b3c300a1259ee","D2","batch4","","null","<p class=block-text>Trial 23 out of 60</p>","null","spm_show_trial_num","","","","","","","","","","","","","","","","","","","","","","","","",""
"","","","","","image-button-response","226","718134","0.0-3.0-2.0-1.22","6004d426710b3c300a1259ee","D2","batch4","","6307.899999976158","img/question_2_11.jpeg","3","spm_respsonse","1","4","mat_23","","","","","","1","6307.899999976158","","","","","","","","","","","","","","",""
"","","","","","html-keyboard-response","227","719199","0.0-3.0-2.0-0.23","6004d426710b3c300a1259ee","D2","batch4","","null","<p class=block-text>Trial 24 out of 60</p>","null","spm_show_trial_num","","","","","","","","","","","","","","","","","","","","","","","","",""
"","","","","","image-button-response","228","729122","0.0-3.0-2.0-1.23","6004d426710b3c300a1259ee","D2","batch4","","9920.700000047684","img/question_2_12.jpeg","4","spm_respsonse","1","5","mat_24","","","","","","1","9920.700000047684","","","","","","","","","","","","","","",""
"","","","","","html-button-response","229","731229","0.0-3.0-3.0","6004d426710b3c300a1259ee","D2","batch4","","1856.1999999284744","<p class = block-text>Attention check: Please choose 1<br></p>","0","attention_check","true","","","","","","","","","","","","","","","","","","","","","","","",""
"","","","","","html-keyboard-response","230","732040","0.0-3.0-4.0-0.0","6004d426710b3c300a1259ee","D2","batch4","","null","<p class=block-text>Trial 25 out of 60</p>","null","spm_show_trial_num","","","","","","","","","","","","","","","","","","","","","","","","",""
"","","","","","image-button-response","231","739673","0.0-3.0-4.0-1.0","6004d426710b3c300a1259ee","D2","batch4","","7631.5","img/question_3_1.jpeg","7","spm_respsonse","1","8","mat_25","","","","","","1","7631.5","","","","","","","","","","","","","","",""
"","","","","","html-keyboard-response","232","740741","0.0-3.0-4.0-0.1","6004d426710b3c300a1259ee","D2","batch4","","null","<p class=block-text>Trial 26 out of 60</p>","null","spm_show_trial_num","","","","","","","","","","","","","","","","","","","","","","","","",""
"","","","","","image-button-response","233","751633","0.0-3.0-4.0-1.1","6004d426710b3c300a1259ee","D2","batch4","","10890.5","img/question_3_2.jpeg","1","spm_respsonse","1","2","mat_26","","","","","","1","10890.5","","","","","","","","","","","","","","",""
"","","","","","html-keyboard-response","234","752688","0.0-3.0-4.0-0.2","6004d426710b3c300a1259ee","D2","batch4","","null","<p class=block-text>Trial 27 out of 60</p>","null","spm_show_trial_num","","","","","","","","","","","","","","","","","","","","","","","","",""
"","","","","","image-button-response","235","760161","0.0-3.0-4.0-1.2","6004d426710b3c300a1259ee","D2","batch4","","7471.100000023842","img/question_3_3.jpeg","2","spm_respsonse","1","3","mat_27","","","","","","1","7471.100000023842","","","","","","","","","","","","","","",""
"","","","","","html-keyboard-response","236","761215","0.0-3.0-4.0-0.3","6004d426710b3c300a1259ee","D2","batch4","","null","<p class=block-text>Trial 28 out of 60</p>","null","spm_show_trial_num","","","","","","","","","","","","","","","","","","","","","","","","",""
"","","","","","image-button-response","237","774121","0.0-3.0-4.0-1.3","6004d426710b3c300a1259ee","D2","batch4","","12904.399999976158","img/question_3_4.jpeg","7","spm_respsonse","1","8","mat_28","","","","","","1","12904.399999976158","","","","","","","","","","","","","","",""
"","","","","","html-keyboard-response","238","775173","0.0-3.0-4.0-0.4","6004d426710b3c300a1259ee","D2","batch4","","null","<p class=block-text>Trial 29 out of 60</p>","null","spm_show_trial_num","","","","","","","","","","","","","","","","","","","","","","","","",""
"","","","","","image-button-response","239","786945","0.0-3.0-4.0-1.4","6004d426710b3c300a1259ee","D2","batch4","","11770.5","img/question_3_5.jpeg","6","spm_respsonse","1","7","mat_29","","","","","","1","11770.5","","","","","","","","","","","","","","",""
"","","","","","html-keyboard-response","240","788012","0.0-3.0-4.0-0.5","6004d426710b3c300a1259ee","D2","batch4","","null","<p class=block-text>Trial 30 out of 60</p>","null","spm_show_trial_num","","","","","","","","","","","","","","","","","","","","","","","","",""
"","","","","","image-button-response","241","798809","0.0-3.0-4.0-1.5","6004d426710b3c300a1259ee","D2","batch4","","10795","img/question_3_6.jpeg","3","spm_respsonse","1","4","mat_30","","","","","","1","10795","","","","","","","","","","","","","","",""
"","","","","","html-keyboard-response","242","799860","0.0-3.0-4.0-0.6","6004d426710b3c300a1259ee","D2","batch4","","null","<p class=block-text>Trial 31 out of 60</p>","null","spm_show_trial_num","","","","","","","","","","","","","","","","","","","","","","","","",""
"","","","","","image-button-response","243","805741","0.0-3.0-4.0-1.6","6004d426710b3c300a1259ee","D2","batch4","","5879.399999976158","img/question_3_7.jpeg","4","spm_respsonse","1","5","mat_31","","","","","","1","5879.399999976158","","","","","","","","","","","","","","",""
"","","","","","html-keyboard-response","244","806804","0.0-3.0-4.0-0.7","6004d426710b3c300a1259ee","D2","batch4","","null","<p class=block-text>Trial 32 out of 60</p>","null","spm_show_trial_num","","","","","","","","","","","","","","","","","","","","","","","","",""
"","","","","","image-button-response","245","834621","0.0-3.0-4.0-1.7","6004d426710b3c300a1259ee","D2","batch4","","27815.599999904633","img/question_3_8.jpeg","0","spm_respsonse","1","1","mat_32","","","","","","1","27815.599999904633","","","","","","","","","","","","","","",""
"","","","","","html-keyboard-response","246","835673","0.0-3.0-4.0-0.8","6004d426710b3c300a1259ee","D2","batch4","","null","<p class=block-text>Trial 33 out of 60</p>","null","spm_show_trial_num","","","","","","","","","","","","","","","","","","","","","","","","",""
"","","","","","image-button-response","247","858849","0.0-3.0-4.0-1.8","6004d426710b3c300a1259ee","D2","batch4","","23174.700000047684","img/question_3_9.jpeg","6","spm_respsonse","1","7","mat_33","","","","","","1","23174.700000047684","","","","","","","","","","","","","","",""
"","","","","","html-keyboard-response","248","859900","0.0-3.0-4.0-0.9","6004d426710b3c300a1259ee","D2","batch4","","null","<p class=block-text>Trial 34 out of 60</p>","null","spm_show_trial_num","","","","","","","","","","","","","","","","","","","","","","","","",""
"","","","","","image-button-response","249","887361","0.0-3.0-4.0-1.9","6004d426710b3c300a1259ee","D2","batch4","","27459.100000023842","img/question_3_10.jpeg","5","spm_respsonse","1","6","mat_34","","","","","","1","27459.100000023842","","","","","","","","","","","","","","",""
"","","","","","html-keyboard-response","250","888421","0.0-3.0-4.0-0.10","6004d426710b3c300a1259ee","D2","batch4","","null","<p class=block-text>Trial 35 out of 60</p>","null","spm_show_trial_num","","","","","","","","","","","","","","","","","","","","","","","","",""
"","","","","","image-button-response","251","914516","0.0-3.0-4.0-1.10","6004d426710b3c300a1259ee","D2","batch4","","26093.799999952316","img/question_3_11.jpeg","0","spm_respsonse","1","1","mat_35","","","","","","1","26093.799999952316","","","","","","","","","","","","","","",""
"","","","","","html-keyboard-response","252","915581","0.0-3.0-4.0-0.11","6004d426710b3c300a1259ee","D2","batch4","","null","<p class=block-text>Trial 36 out of 60</p>","null","spm_show_trial_num","","","","","","","","","","","","","","","","","","","","","","","","",""
"","","","","","image-button-response","253","932472","0.0-3.0-4.0-1.11","6004d426710b3c300a1259ee","D2","batch4","","16889.200000047684","img/question_3_12.jpeg","0","spm_respsonse","0","2","mat_36","","","","","","0","16889.200000047684","","","","","","","","","","","","","","",""
"","","","","","html-keyboard-response","254","933538","0.0-3.0-4.0-0.12","6004d426710b3c300a1259ee","D2","batch4","","null","<p class=block-text>Trial 37 out of 60</p>","null","spm_show_trial_num","","","","","","","","","","","","","","","","","","","","","","","","",""
"","","","","","image-button-response","255","938584","0.0-3.0-4.0-1.12","6004d426710b3c300a1259ee","D2","batch4","","5044.900000095367","img/question_4_1.jpeg","2","spm_respsonse","1","3","mat_37","","","","","","1","5044.900000095367","","","","","","","","","","","","","","",""
"","","","","","html-keyboard-response","256","939635","0.0-3.0-4.0-0.13","6004d426710b3c300a1259ee","D2","batch4","","null","<p class=block-text>Trial 38 out of 60</p>","null","spm_show_trial_num","","","","","","","","","","","","","","","","","","","","","","","","",""
"","","","","","image-button-response","257","946388","0.0-3.0-4.0-1.13","6004d426710b3c300a1259ee","D2","batch4","","6751.200000047684","img/question_4_2.jpeg","3","spm_respsonse","1","4","mat_38","","","","","","1","6751.200000047684","","","","","","","","","","","","","","",""
"","","","","","html-keyboard-response","258","947450","0.0-3.0-4.0-0.14","6004d426710b3c300a1259ee","D2","batch4","","null","<p class=block-text>Trial 39 out of 60</p>","null","spm_show_trial_num","","","","","","","","","","","","","","","","","","","","","","","","",""
"","","","","","image-button-response","259","953776","0.0-3.0-4.0-1.14","6004d426710b3c300a1259ee","D2","batch4","","6324.700000047684","img/question_4_3.jpeg","2","spm_respsonse","1","3","mat_39","","","","","","1","6324.700000047684","","","","","","","","","","","","","","",""
"","","","","","html-keyboard-response","260","954833","0.0-3.0-4.0-0.15","6004d426710b3c300a1259ee","D2","batch4","","null","<p class=block-text>Trial 40 out of 60</p>","null","spm_show_trial_num","","","","","","","","","","","","","","","","","","","","","","","","",""
"","","","","","image-button-response","261","963036","0.0-3.0-4.0-1.15","6004d426710b3c300a1259ee","D2","batch4","","8201.899999976158","img/question_4_4.jpeg","6","spm_respsonse","1","7","mat_40","","","","","","1","8201.899999976158","","","","","","","","","","","","","","",""
"","","","","","html-keyboard-response","262","964088","0.0-3.0-4.0-0.16","6004d426710b3c300a1259ee","D2","batch4","","null","<p class=block-text>Trial 41 out of 60</p>","null","spm_show_trial_num","","","","","","","","","","","","","","","","","","","","","","","","",""
"","","","","","image-button-response","263","977292","0.0-3.0-4.0-1.16","6004d426710b3c300a1259ee","D2","batch4","","13202.299999952316","img/question_4_5.jpeg","7","spm_respsonse","1","8","mat_41","","","","","","1","13202.299999952316","","","","","","","","","","","","","","",""
"","","","","","html-keyboard-response","264","978347","0.0-3.0-4.0-0.17","6004d426710b3c300a1259ee","D2","batch4","","null","<p class=block-text>Trial 42 out of 60</p>","null","spm_show_trial_num","","","","","","","","","","","","","","","","","","","","","","","","",""
"","","","","","image-button-response","265","993228","0.0-3.0-4.0-1.17","6004d426710b3c300a1259ee","D2","batch4","","14879.799999952316","img/question_4_6.jpeg","5","spm_respsonse","1","6","mat_42","","","","","","1","14879.799999952316","","","","","","","","","","","","","","",""
"","","","","","html-keyboard-response","266","994279","0.0-3.0-4.0-0.18","6004d426710b3c300a1259ee","D2","batch4","","null","<p class=block-text>Trial 43 out of 60</p>","null","spm_show_trial_num","","","","","","","","","","","","","","","","","","","","","","","","",""
"","","","","","image-button-response","267","1022595","0.0-3.0-4.0-1.18","6004d426710b3c300a1259ee","D2","batch4","","28314.399999976158","img/question_4_7.jpeg","3","spm_respsonse","0","5","mat_43","","","","","","0","28314.399999976158","","","","","","","","","","","","","","",""
"","","","","","html-keyboard-response","268","1023649","0.0-3.0-4.0-0.19","6004d426710b3c300a1259ee","D2","batch4","","null","<p class=block-text>Trial 44 out of 60</p>","null","spm_show_trial_num","","","","","","","","","","","","","","","","","","","","","","","","",""
"","","","","","image-button-response","269","1036087","0.0-3.0-4.0-1.19","6004d426710b3c300a1259ee","D2","batch4","","12436.800000071526","img/question_4_8.jpeg","3","spm_respsonse","1","4","mat_44","","","","","","1","12436.800000071526","","","","","","","","","","","","","","",""
"","","","","","html-keyboard-response","270","1037149","0.0-3.0-4.0-0.20","6004d426710b3c300a1259ee","D2","batch4","","null","<p class=block-text>Trial 45 out of 60</p>","null","spm_show_trial_num","","","","","","","","","","","","","","","","","","","","","","","","",""
"","","","","","image-button-response","271","1056912","0.0-3.0-4.0-1.20","6004d426710b3c300a1259ee","D2","batch4","","19760.5","img/question_4_9.jpeg","0","spm_respsonse","1","1","mat_45","","","","","","1","19760.5","","","","","","","","","","","","","","",""
"","","","","","html-keyboard-response","272","1057964","0.0-3.0-4.0-0.21","6004d426710b3c300a1259ee","D2","batch4","","null","<p class=block-text>Trial 46 out of 60</p>","null","spm_show_trial_num","","","","","","","","","","","","","","","","","","","","","","","","",""
"","","","","","image-button-response","273","1108707","0.0-3.0-4.0-1.21","6004d426710b3c300a1259ee","D2","batch4","","50741.699999928474","img/question_4_10.jpeg","1","spm_respsonse","1","2","mat_46","","","","","","1","50741.699999928474","","","","","","","","","","","","","","",""
"","","","","","html-keyboard-response","274","1109770","0.0-3.0-4.0-0.22","6004d426710b3c300a1259ee","D2","batch4","","null","<p class=block-text>Trial 47 out of 60</p>","null","spm_show_trial_num","","","","","","","","","","","","","","","","","","","","","","","","",""
"","","","","","image-button-response","275","1142079","0.0-3.0-4.0-1.22","6004d426710b3c300a1259ee","D2","batch4","","32307.699999928474","img/question_4_11.jpeg","4","spm_respsonse","1","5","mat_47","","","","","","1","32307.699999928474","","","","","","","","","","","","","","",""
"","","","","","html-keyboard-response","276","1143137","0.0-3.0-4.0-0.23","6004d426710b3c300a1259ee","D2","batch4","","null","<p class=block-text>Trial 48 out of 60</p>","null","spm_show_trial_num","","","","","","","","","","","","","","","","","","","","","","","","",""
"","","","","","image-button-response","277","1171511","0.0-3.0-4.0-1.23","6004d426710b3c300a1259ee","D2","batch4","","28372.700000047684","img/question_4_12.jpeg","7","spm_respsonse","0","6","mat_48","","","","","","0","28372.700000047684","","","","","","","","","","","","","","",""
"","","","","","html-keyboard-response","278","1172572","0.0-3.0-4.0-0.24","6004d426710b3c300a1259ee","D2","batch4","","null","<p class=block-text>Trial 49 out of 60</p>","null","spm_show_trial_num","","","","","","","","","","","","","","","","","","","","","","","","",""
"","","","","","image-button-response","279","1181231","0.0-3.0-4.0-1.24","6004d426710b3c300a1259ee","D2","batch4","","8657","img/question_5_1.jpeg","6","spm_respsonse","1","7","mat_49","","","","","","1","8657","","","","","","","","","","","","","","",""
"","","","","","html-keyboard-response","280","1182283","0.0-3.0-4.0-0.25","6004d426710b3c300a1259ee","D2","batch4","","null","<p class=block-text>Trial 50 out of 60</p>","null","spm_show_trial_num","","","","","","","","","","","","","","","","","","","","","","","","",""
"","","","","","image-button-response","281","1229782","0.0-3.0-4.0-1.25","6004d426710b3c300a1259ee","D2","batch4","","47497.800000071526","img/question_5_2.jpeg","5","spm_respsonse","1","6","mat_50","","","","","","1","47497.800000071526","","","","","","","","","","","","","","",""
"","","","","","html-keyboard-response","282","1230836","0.0-3.0-4.0-0.26","6004d426710b3c300a1259ee","D2","batch4","","null","<p class=block-text>Trial 51 out of 60</p>","null","spm_show_trial_num","","","","","","","","","","","","","","","","","","","","","","","","",""
"","","","","","image-button-response","283","1257587","0.0-3.0-4.0-1.26","6004d426710b3c300a1259ee","D2","batch4","","26749","img/question_5_3.jpeg","7","spm_respsonse","1","8","mat_51","","","","","","1","26749","","","","","","","","","","","","","","",""
"","","","","","html-keyboard-response","284","1258641","0.0-3.0-4.0-0.27","6004d426710b3c300a1259ee","D2","batch4","","null","<p class=block-text>Trial 52 out of 60</p>","null","spm_show_trial_num","","","","","","","","","","","","","","","","","","","","","","","","",""
"","","","","","image-button-response","285","1270938","0.0-3.0-4.0-1.27","6004d426710b3c300a1259ee","D2","batch4","","12296.200000047684","img/question_5_4.jpeg","1","spm_respsonse","1","2","mat_52","","","","","","1","12296.200000047684","","","","","","","","","","","","","","",""
"","","","","","html-keyboard-response","286","1271999","0.0-3.0-4.0-0.28","6004d426710b3c300a1259ee","D2","batch4","","null","<p class=block-text>Trial 53 out of 60</p>","null","spm_show_trial_num","","","","","","","","","","","","","","","","","","","","","","","","",""
"","","","","","image-button-response","287","1305734","0.0-3.0-4.0-1.28","6004d426710b3c300a1259ee","D2","batch4","","33734.200000047684","img/question_5_5.jpeg","0","spm_respsonse","1","1","mat_53","","","","","","1","33734.200000047684","","","","","","","","","","","","","","",""
"","","","","","html-keyboard-response","288","1306796","0.0-3.0-4.0-0.29","6004d426710b3c300a1259ee","D2","batch4","","null","<p class=block-text>Trial 54 out of 60</p>","null","spm_show_trial_num","","","","","","","","","","","","","","","","","","","","","","","","",""
"","","","","","image-button-response","289","1338866","0.0-3.0-4.0-1.29","6004d426710b3c300a1259ee","D2","batch4","","32068.199999928474","img/question_5_6.jpeg","4","spm_respsonse","1","5","mat_54","","","","","","1","32068.199999928474","","","","","","","","","","","","","","",""
"","","","","","html-keyboard-response","290","1339918","0.0-3.0-4.0-0.30","6004d426710b3c300a1259ee","D2","batch4","","null","<p class=block-text>Trial 55 out of 60</p>","null","spm_show_trial_num","","","","","","","","","","","","","","","","","","","","","","","","",""
"","","","","","image-button-response","291","1366974","0.0-3.0-4.0-1.30","6004d426710b3c300a1259ee","D2","batch4","","27054.5","img/question_5_7.jpeg","0","spm_respsonse","1","1","mat_55","","","","","","1","27054.5","","","","","","","","","","","","","","",""
"","","","","","html-keyboard-response","292","1368037","0.0-3.0-4.0-0.31","6004d426710b3c300a1259ee","D2","batch4","","null","<p class=block-text>Trial 56 out of 60</p>","null","spm_show_trial_num","","","","","","","","","","","","","","","","","","","","","","","","",""
"","","","","","image-button-response","293","1386290","0.0-3.0-4.0-1.31","6004d426710b3c300a1259ee","D2","batch4","","18250.799999952316","img/question_5_8.jpeg","5","spm_respsonse","1","6","mat_56","","","","","","1","18250.799999952316","","","","","","","","","","","","","","",""
"","","","","","html-keyboard-response","294","1387343","0.0-3.0-4.0-0.32","6004d426710b3c300a1259ee","D2","batch4","","null","<p class=block-text>Trial 57 out of 60</p>","null","spm_show_trial_num","","","","","","","","","","","","","","","","","","","","","","","","",""
"","","","","","image-button-response","295","1419562","0.0-3.0-4.0-1.32","6004d426710b3c300a1259ee","D2","batch4","","32217.300000071526","img/question_5_9.jpeg","2","spm_respsonse","1","3","mat_57","","","","","","1","32217.300000071526","","","","","","","","","","","","","","",""
"","","","","","html-keyboard-response","296","1420628","0.0-3.0-4.0-0.33","6004d426710b3c300a1259ee","D2","batch4","","null","<p class=block-text>Trial 58 out of 60</p>","null","spm_show_trial_num","","","","","","","","","","","","","","","","","","","","","","","","",""
"","","","","","image-button-response","297","1463905","0.0-3.0-4.0-1.33","6004d426710b3c300a1259ee","D2","batch4","","43275.5","img/question_5_10.jpeg","5","spm_respsonse","0","2","mat_58","","","","","","0","43275.5","","","","","","","","","","","","","","",""
"","","","","","html-keyboard-response","298","1464972","0.0-3.0-4.0-0.34","6004d426710b3c300a1259ee","D2","batch4","","null","<p class=block-text>Trial 59 out of 60</p>","null","spm_show_trial_num","","","","","","","","","","","","","","","","","","","","","","","","",""
"","","","","","image-button-response","299","1493825","0.0-3.0-4.0-1.34","6004d426710b3c300a1259ee","D2","batch4","","28851.5","img/question_5_11.jpeg","2","spm_respsonse","0","4","mat_59","","","","","","0","28851.5","","","","","","","","","","","","","","",""
"","","","","","html-keyboard-response","300","1494881","0.0-3.0-4.0-0.35","6004d426710b3c300a1259ee","D2","batch4","","null","<p class=block-text>Trial 60 out of 60</p>","null","spm_show_trial_num","","","","","","","","","","","","","","","","","","","","","","","","",""
"","","","","","image-button-response","301","1531417","0.0-3.0-4.0-1.35","6004d426710b3c300a1259ee","D2","batch4","","36534.700000047684","img/question_5_12.jpeg","1","spm_respsonse","0","5","mat_60","","","","","","0","36534.700000047684","","","","","","","","","","","","","","",""
"","","","","","html-button-response","302","1579525","0.0-3.0-5.0","6004d426710b3c300a1259ee","D2","batch4","","47856","<p class= block-text>This concludes the Standard Progressive Matrix game. Thank you for your responses!<br> When you are ready, click the button continue</p>","0","spm_goodbye","","","","","","","","","","","","","","","","","","","","","","","","",""
"true","","","","","fullscreen","303","1583120","0.0-4.0-0.0","6004d426710b3c300a1259ee","D2","batch4","","","","","","","","","","","","","","","","","","","","","","","","","","","","","",""
"","","","","","instructions","304","1651100","0.0-4.0-1.0-0.0-0.0","6004d426710b3c300a1259ee","D2","batch4","[{""page_index"":0,""viewing_time"":14783.599999904633},{""page_index"":1,""viewing_time"":6231.800000071526},{""page_index"":2,""viewing_time"":6176},{""page_index"":3,""viewing_time"":14384},{""page_index"":4,""viewing_time"":11139.899999976158},{""page_index"":5,""viewing_time"":11572.100000023842},{""page_index"":6,""viewing_time"":3691.6999999284744}]","67979.39999997616","","","tol-instructions","","","","","","","","","","","","","","","","","","","","","","","","",""
"","","","","","html-button-response","305","1652488","0.0-4.0-1.0-1.0-0.0","6004d426710b3c300a1259ee","D2","batch4","","1387.5","<p class=block-text> Let's answer a few questions <br>","0","tol_enter_quiz","","","","","","","","","","","","","","","","","","","","","","","","",""
"","","","","","html-button-response","306","1654636","0.0-4.0-1.0-1.0-1.0","6004d426710b3c300a1259ee","D2","batch4","","2146.899999976158","<p class = block-text>True or False: You can only move the ball on top of a peg. <br></p>","0","tol_quiz","true","","","","","","","","","","","","","","","","","","","","","","","",""
"","","","","","html-button-response","307","1656308","0.0-4.0-1.0-1.0-2.0","6004d426710b3c300a1259ee","D2","batch4","","1670.8999999761581","<p class = block-text>Correct! You can only move the ball on top of a peg.</p>","0","tol_quiz_feedback","","","","","","","","","","","","","","","","","","","","","","","","",""
"","","","","","html-button-response","308","1659112","0.0-4.0-1.0-1.0-3.0","6004d426710b3c300a1259ee","D2","batch4","","2803.5","<p class = block-text>True or False: You should try to match your board with the target board with fewest moves possible. <br></p>","0","tol_quiz","true","","","","","","","","","","","","","","","","","","","","","","","",""
"","","","","","html-button-response","309","1660172","0.0-4.0-1.0-1.0-4.0","6004d426710b3c300a1259ee","D2","batch4","","1059","<p class = block-text>Correct! </p>","0","tol_quiz_feedback","","","","","","","","","","","","","","","","","","","","","","","","",""
"","","","","","html-button-response","310","1661732","0.0-4.0-2.0","6004d426710b3c300a1259ee","D2","batch4","","1559","<p class=block-text> Now that you've understood the game, let's practice a few easier examples before we start!<br> <br>","0","","","","","","","","","","","","","","","","","","","","","","","","","",""
"","","","","","single-stim-button","311","1665886","0.0-4.0-3.0-0.0","6004d426710b3c300a1259ee","D2","batch4","","4152","","","tol_practice","","","","","","","","","","","tol_peg_2","4152","4152","0","[[1,2,0],[0,0],[0]]","1","[[1,2,0],[0,0],[3]]","practice","4152","","","","","",""
"","","","","","single-stim-button","312","1669264","0.0-4.0-3.0-1.0","6004d426710b3c300a1259ee","D2","batch4","","3378","","","tol_practice","","","","","","","","","","","tol_peg_3","3378","3378","0","[[1,2,0],[0,0],[3]]","1","[[1,2,0],[0,0],[3]]","practice","3378","","","","","",""
"","","","","","poldrack-single-stim","313","1670268","0.0-4.0-4.0","6004d426710b3c300a1259ee","D2","batch4","","-1","","","tol_feedback","true","","","","","","","","","","","1000","1000","500","","","","","","-1","none","true","","0",""
"","","","","","single-stim-button","314","1682148","0.0-4.0-5.0-0.0","6004d426710b3c300a1259ee","D2","batch4","","11880","","","tol_practice","","","","","","","","","","","tol_peg_1","11880","11880","0","[[1,0,0],[3,0],[0]]","2","[[0,0,0],[3,1],[2]]","practice","11880","","","","","",""
"","","","","","single-stim-button","315","1683136","0.0-4.0-5.0-1.0","6004d426710b3c300a1259ee","D2","batch4","","987","","","tol_practice","","","","","","","","","","","tol_peg_3","987","987","0","[[1,0,0],[3,0],[2]]","2","[[0,0,0],[3,1],[2]]","practice","987","","","","","",""
"","","","","","single-stim-button","316","1684272","0.0-4.0-5.1-0.1","6004d426710b3c300a1259ee","D2","batch4","","1135","","","tol_practice","","","","","","","","","","","tol_peg_1","1135","1135","0","[[0,0,0],[3,0],[2]]","3","[[0,0,0],[3,1],[2]]","practice","1135","","","","","",""
"","","","","","single-stim-button","317","1685136","0.0-4.0-5.1-1.1","6004d426710b3c300a1259ee","D2","batch4","","863","","","tol_practice","","","","","","","","","","","tol_peg_2","863","863","0","[[0,0,0],[3,1],[2]]","3","[[0,0,0],[3,1],[2]]","practice","863","","","","","",""
"","","","","","poldrack-single-stim","318","1686139","0.0-4.0-6.0","6004d426710b3c300a1259ee","D2","batch4","","-1","","","tol_feedback","true","","","","","","","","","","","1000","1000","500","","","","","","-1","none","true","","0",""
"","","","","","single-stim-button","319","1691048","0.0-4.0-7.0-0.0","6004d426710b3c300a1259ee","D2","batch4","","4909","","","tol_practice","","","","","","","","","","","tol_peg_2","4909","4909","0","[[1,2,0],[0,0],[0]]","4","[[1,0,0],[2,0],[3]]","practice","4909","","","","","",""
"","","","","","single-stim-button","320","1691884","0.0-4.0-7.0-1.0","6004d426710b3c300a1259ee","D2","batch4","","835","","","tol_practice","","","","","","","","","","","tol_peg_3","835","835","0","[[1,2,0],[0,0],[3]]","4","[[1,0,0],[2,0],[3]]","practice","835","","","","","",""
"","","","","","single-stim-button","321","1693004","0.0-4.0-7.1-0.1","6004d426710b3c300a1259ee","D2","batch4","","1119","","","tol_practice","","","","","","","","","","","tol_peg_1","1119","1119","0","[[1,0,0],[0,0],[3]]","5","[[1,0,0],[2,0],[3]]","practice","1119","","","","","",""
"","","","","","single-stim-button","322","1694328","0.0-4.0-7.1-1.1","6004d426710b3c300a1259ee","D2","batch4","","1324","","","tol_practice","","","","","","","","","","","tol_peg_2","1324","1324","0","[[1,0,0],[2,0],[3]]","5","[[1,0,0],[2,0],[3]]","practice","1324","","","","","",""
"","","","","","poldrack-single-stim","323","1695335","0.0-4.0-8.0","6004d426710b3c300a1259ee","D2","batch4","","-1","","","tol_feedback","true","","","","","","","","","","","1000","1000","500","","","","","","-1","none","true","","0",""
"","","","","","html-button-response","324","1698260","0.0-4.0-9.0","6004d426710b3c300a1259ee","D2","batch4","","2924.2000000476837","<div class = centerbox><p class = center-block-text>Great job! You are done with practice trials<br>You are about to start official trials.<br> <br> Problem <strong>1</strong> out of 25 problems</p></div>","0","tol_instruction","","","","","","","","","","","","","","","","","","","","","","","","",""
"","","","","","single-stim-button","325","1707808","0.0-4.0-10.0-0.0","6004d426710b3c300a1259ee","D2","batch4","","8542","","","tol_tohand","","","","","","","","","","","tol_peg_1","8542","8542","0","[[1,0,0],[3,0],[0]]","1","[[1,3,0],[2,0],[0]]","0","0","","","","","","3"
"","","","","","single-stim-button","326","1709252","0.0-4.0-10.0-1.0","6004d426710b3c300a1259ee","D2","batch4","","1443","","","tol_toboard","","","","","","","","","","","tol_peg_3","1443","1443","0","[[1,0,0],[3,0],[2]]","1","[[1,3,0],[2,0],[0]]","0","0","","","","","","3"
"","","","","","single-stim-button","327","1710244","0.0-4.0-10.1-0.1","6004d426710b3c300a1259ee","D2","batch4","","991","","","tol_tohand","","","","","","","","","","","tol_peg_2","991","991","0","[[1,0,0],[0,0],[2]]","2","[[1,3,0],[2,0],[0]]","0","0","","","","","","3"
"","","","","","single-stim-button","328","1711188","0.0-4.0-10.1-1.1","6004d426710b3c300a1259ee","D2","batch4","","944","","","tol_toboard","","","","","","","","","","","tol_peg_1","944","944","0","[[1,3,0],[0,0],[2]]","2","[[1,3,0],[2,0],[0]]","0","0","","","","","","3"
"","","","","","single-stim-button","329","1712072","0.0-4.0-10.2-0.2","6004d426710b3c300a1259ee","D2","batch4","","883","","","tol_tohand","","","","","","","","","","","tol_peg_3","883","883","0","[[1,3,0],[0,0],[0]]","3","[[1,3,0],[2,0],[0]]","0","0","","","","","","3"
"","","","","","single-stim-button","330","1713128","0.0-4.0-10.2-1.2","6004d426710b3c300a1259ee","D2","batch4","","1056","","","tol_toboard","","","","","","","","","","","tol_peg_2","1056","1056","0","[[1,3,0],[2,0],[0]]","3","[[1,3,0],[2,0],[0]]","0","0","","","","","","3"
"","","","","","poldrack-single-stim","331","1714132","0.0-4.0-11.0","6004d426710b3c300a1259ee","D2","batch4","","-1","","","tol_feedback","true","","","","","","","","","","","1000","1000","500","","","","","","-1","none","true","8542","10416",""
"","","","","","html-button-response","332","1715540","0.0-4.0-12.0","6004d426710b3c300a1259ee","D2","batch4","","1407.8000000715256","<div class = centerbox><p class = center-block-text>problem <strong>2</strong> out of 25 problems</p></div>","0","tol_trial_num","","","","","","","","","","","","","","","","","","","","","","","","",""
"","","","","","single-stim-button","333","1733936","0.0-4.0-13.0-0.0","6004d426710b3c300a1259ee","D2","batch4","","18396","","","tol_tohand","","","","","","","","","","","tol_peg_1","18396","18396","0","[[1,0,0],[3,0],[0]]","1","[[2,1,3],[0,0],[0]]","1","0","","","","","","5"
"","","","","","single-stim-button","334","1740252","0.0-4.0-13.0-1.0","6004d426710b3c300a1259ee","D2","batch4","","6315","","","tol_toboard","","","","","","","","","","","tol_peg_2","6315","6315","0","[[1,0,0],[3,2],[0]]","1","[[2,1,3],[0,0],[0]]","1","0","","","","","","5"
"","","","","","single-stim-button","335","1741132","0.0-4.0-13.1-0.1","6004d426710b3c300a1259ee","D2","batch4","","880","","","tol_tohand","","","","","","","","","","","tol_peg_1","880","880","0","[[0,0,0],[3,2],[0]]","2","[[2,1,3],[0,0],[0]]","1","0","","","","","","5"
"","","","","","single-stim-button","336","1743448","0.0-4.0-13.1-1.1","6004d426710b3c300a1259ee","D2","batch4","","2316","","","tol_toboard","","","","","","","","","","","tol_peg_3","2316","2316","0","[[0,0,0],[3,2],[1]]","2","[[2,1,3],[0,0],[0]]","1","0","","","","","","5"
"","","","","","single-stim-button","337","1744776","0.0-4.0-13.2-0.2","6004d426710b3c300a1259ee","D2","batch4","","1328","","","tol_tohand","","","","","","","","","","","tol_peg_2","1328","1328","0","[[0,0,0],[3,0],[1]]","3","[[2,1,3],[0,0],[0]]","1","0","","","","","","5"
"","","","","","single-stim-button","338","1745864","0.0-4.0-13.2-1.2","6004d426710b3c300a1259ee","D2","batch4","","1088","","","tol_toboard","","","","","","","","","","","tol_peg_1","1088","1088","0","[[2,0,0],[3,0],[1]]","3","[[2,1,3],[0,0],[0]]","1","0","","","","","","5"
"","","","","","single-stim-button","339","1746748","0.0-4.0-13.3-0.3","6004d426710b3c300a1259ee","D2","batch4","","883","","","tol_tohand","","","","","","","","","","","tol_peg_3","883","883","0","[[2,0,0],[3,0],[0]]","4","[[2,1,3],[0,0],[0]]","1","0","","","","","","5"
"","","","","","single-stim-button","340","1747868","0.0-4.0-13.3-1.3","6004d426710b3c300a1259ee","D2","batch4","","1120","","","tol_toboard","","","","","","","","","","","tol_peg_1","1120","1120","0","[[2,1,0],[3,0],[0]]","4","[[2,1,3],[0,0],[0]]","1","0","","","","","","5"
"","","","","","single-stim-button","341","1748828","0.0-4.0-13.4-0.4","6004d426710b3c300a1259ee","D2","batch4","","960","","","tol_tohand","","","","","","","","","","","tol_peg_2","960","960","0","[[2,1,0],[0,0],[0]]","5","[[2,1,3],[0,0],[0]]","1","0","","","","","","5"
"","","","","","single-stim-button","342","1749744","0.0-4.0-13.4-1.4","6004d426710b3c300a1259ee","D2","batch4","","916","","","tol_toboard","","","","","","","","","","","tol_peg_1","916","916","0","[[2,1,3],[0,0],[0]]","5","[[2,1,3],[0,0],[0]]","1","0","","","","","","5"
"","","","","","poldrack-single-stim","343","1750745","0.0-4.0-14.0","6004d426710b3c300a1259ee","D2","batch4","","-1","","","tol_feedback","true","","","","","","","","","","","1000","1000","500","","","","","","-1","none","true","18396","22447",""
"","","","","","html-button-response","344","1752048","0.0-4.0-15.0","6004d426710b3c300a1259ee","D2","batch4","","1301.6999999284744","<div class = centerbox><p class = center-block-text>problem <strong>3</strong> out of 25 problems</p></div>","0","tol_trial_num","","","","","","","","","","","","","","","","","","","","","","","","",""
"","","","","","single-stim-button","345","1764575","0.0-4.0-16.0-0.0","6004d426710b3c300a1259ee","D2","batch4","","12527","","","tol_tohand","","","","","","","","","","","tol_peg_1","12527","12527","0","[[2,0,0],[0,0],[1]]","1","[[1,2,0],[3,0],[0]]","2","0","","","","","","4"
"","","","","","single-stim-button","346","1765791","0.0-4.0-16.0-1.0","6004d426710b3c300a1259ee","D2","batch4","","1215","","","tol_toboard","","","","","","","","","","","tol_peg_2","1215","1215","0","[[2,0,0],[3,0],[1]]","1","[[1,2,0],[3,0],[0]]","2","0","","","","","","4"
"","","","","","single-stim-button","347","1768235","0.0-4.0-16.1-0.1","6004d426710b3c300a1259ee","D2","batch4","","2443","","","tol_tohand","","","","","","","","","","","tol_peg_1","2443","2443","0","[[0,0,0],[3,0],[1]]","2","[[1,2,0],[3,0],[0]]","2","0","","","","","","4"
"","","","","","single-stim-button","348","1769131","0.0-4.0-16.1-1.1","6004d426710b3c300a1259ee","D2","batch4","","895","","","tol_toboard","","","","","","","","","","","tol_peg_2","895","895","0","[[0,0,0],[3,2],[1]]","2","[[1,2,0],[3,0],[0]]","2","0","","","","","","4"
