"success","timeout","failed_images","failed_audio","failed_video","trial_type","trial_index","time_elapsed","internal_node_id","subject_id","study_id","session_id","view_history","rt","task","stimulus","response","correct","mouse_click","stim_duration","block_duration","timing_post_trial","current_position","tol_num_moves_made","tol_target","tol_problem_id","tol_rt","key_press","possible_responses","tol_correct","preplanning","tol_rt_per_trial","tol_min_moves","item","answer","spm_correct","spm_rt","fiar_detect_rt","fiar_detect_correct","total_correct_fiar_detect","post_trial_gap","choices"
"true","false","[]","[]","[]","preload","0","3321","0.0-0.0","6014213c77aab7396ca3e5a7","E1","batch5","","","","","","","","","","","","","","","","","","","","","","","","","","","","","",""
"true","","","","","fullscreen","1","14873","0.0-1.0-0.0","6014213c77aab7396ca3e5a7","E1","batch5","","","","","","","","","","","","","","","","","","","","","","","","","","","","","",""
"true","","","","","fullscreen","2","18224","0.0-2.0-0.0","6014213c77aab7396ca3e5a7","E1","batch5","","","","","","","","","","","","","","","","","","","","","","","","","","","","","",""
"","","","","","instructions","3","81898","0.0-2.0-1.0-0.0-0.0","6014213c77aab7396ca3e5a7","E1","batch5","[{""page_index"":0,""viewing_time"":11307.399999976158},{""page_index"":1,""viewing_time"":6864.899999976158},{""page_index"":2,""viewing_time"":10839.5},{""page_index"":3,""viewing_time"":9755.400000035763},{""page_index"":4,""viewing_time"":10875.199999988079},{""page_index"":5,""viewing_time"":10487.399999976158},{""page_index"":6,""viewing_time"":3540.600000023842}]","63671.39999997616","tol-instructions","","","","","","","","","","","","","","","","","","","","","","","","","","",""
"","","","","","html-button-response","4","83282","0.0-2.0-1.0-1.0-0.0","6014213c77aab7396ca3e5a7","E1","batch5","","1377.800000011921","tol_enter_quiz","<p class=block-text> Let's answer a few questions <br>","0","","","","","","","","","","","","","","","","","","","","","","","","",""
"","","","","","html-button-response","5","90562","0.0-2.0-1.0-1.0-1.0","6014213c77aab7396ca3e5a7","E1","batch5","","7273.600000023842","tol_quiz","<p class = block-text>True or False: You can only move the ball on top of a peg. <br></p>","0","true","","","","","","","","","","","","","","","","","","","","","","","",""
"","","","","","html-button-response","6","92249","0.0-2.0-1.0-1.0-2.0","6014213c77aab7396ca3e5a7","E1","batch5","","1681.800000011921","tol_quiz_feedback","<p class = block-text>Correct! You can only move the ball on top of a peg.</p>","0","","","","","","","","","","","","","","","","","","","","","","","","",""
"","","","","","html-button-response","7","97476","0.0-2.0-1.0-1.0-3.0","6014213c77aab7396ca3e5a7","E1","batch5","","5223.299999952316","tol_quiz","<p class = block-text>True or False: You should try to match your board with the target board with fewest moves possible. <br></p>","0","true","","","","","","","","","","","","","","","","","","","","","","","",""
"","","","","","html-button-response","8","98451","0.0-2.0-1.0-1.0-4.0","6014213c77aab7396ca3e5a7","E1","batch5","","968.7999999523163","tol_quiz_feedback","<p class = block-text>Correct! </p>","0","","","","","","","","","","","","","","","","","","","","","","","","",""
"","","","","","html-button-response","9","99824","0.0-2.0-2.0","6014213c77aab7396ca3e5a7","E1","batch5","","1368.699999988079","","<p class=block-text> Now that you've understood the game, let's practice a few easier examples before we start!<br> <br>","0","","","","","","","","","","","","","","","","","","","","","","","","",""
"","","","","","single-stim-button","10","104244","0.0-2.0-3.0-0.0","6014213c77aab7396ca3e5a7","E1","batch5","","4413","tol_practice","","","","tol_peg_2","4413","4413","0","[[1,2,0],[0,0],[0]]","1","[[1,2,0],[0,0],[3]]","practice","4413","","","","","","","","","","","","","","",""
"","","","","","single-stim-button","11","107051","0.0-2.0-3.0-1.0","6014213c77aab7396ca3e5a7","E1","batch5","","2803","tol_practice","","","","tol_peg_3","2803","2803","0","[[1,2,0],[0,0],[3]]","1","[[1,2,0],[0,0],[3]]","practice","2803","","","","","","","","","","","","","","",""
"","","","","","poldrack-single-stim","12","108058","0.0-2.0-4.0","6014213c77aab7396ca3e5a7","E1","batch5","","-1","tol_feedback","","","true","","1000","1000","500","","","","","","-1","none","true","","0","","","","","","","","","",""
"","","","","","single-stim-button","13","113771","0.0-2.0-5.0-0.0","6014213c77aab7396ca3e5a7","E1","batch5","","5709","tol_practice","","","","tol_peg_1","5709","5709","0","[[1,0,0],[3,0],[0]]","2","[[0,0,0],[3,1],[2]]","practice","5709","","","","","","","","","","","","","","",""
"","","","","","single-stim-button","14","115279","0.0-2.0-5.0-1.0","6014213c77aab7396ca3e5a7","E1","batch5","","1503","tol_practice","","","","tol_peg_3","1503","1503","0","[[1,0,0],[3,0],[2]]","2","[[0,0,0],[3,1],[2]]","practice","1503","","","","","","","","","","","","","","",""
"","","","","","single-stim-button","15","117785","0.0-2.0-5.1-0.1","6014213c77aab7396ca3e5a7","E1","batch5","","2500","tol_practice","","","","tol_peg_1","2500","2500","0","[[0,0,0],[3,0],[2]]","3","[[0,0,0],[3,1],[2]]","practice","2500","","","","","","","","","","","","","","",""
"","","","","","single-stim-button","16","119293","0.0-2.0-5.1-1.1","6014213c77aab7396ca3e5a7","E1","batch5","","1503","tol_practice","","","","tol_peg_2","1503","1503","0","[[0,0,0],[3,1],[2]]","3","[[0,0,0],[3,1],[2]]","practice","1503","","","","","","","","","","","","","","",""
"","","","","","poldrack-single-stim","17","120302","0.0-2.0-6.0","6014213c77aab7396ca3e5a7","E1","batch5","","-1","tol_feedback","","","true","","1000","1000","500","","","","","","-1","none","true","","0","","","","","","","","","",""
"","","","","","single-stim-button","18","125775","0.0-2.0-7.0-0.0","6014213c77aab7396ca3e5a7","E1","batch5","","5469","tol_practice","","","","tol_peg_2","5469","5469","0","[[1,2,0],[0,0],[0]]","4","[[1,0,0],[2,0],[3]]","practice","5469","","","","","","","","","","","","","","",""
"","","","","","single-stim-button","19","127379","0.0-2.0-7.0-1.0","6014213c77aab7396ca3e5a7","E1","batch5","","1600","tol_practice","","","","tol_peg_3","1600","1600","0","[[1,2,0],[0,0],[3]]","4","[[1,0,0],[2,0],[3]]","practice","1600","","","","","","","","","","","","","","",""
"","","","","","single-stim-button","20","129180","0.0-2.0-7.1-0.1","6014213c77aab7396ca3e5a7","E1","batch5","","1795","tol_practice","","","","tol_peg_1","1795","1795","0","[[1,0,0],[0,0],[3]]","5","[[1,0,0],[2,0],[3]]","practice","1795","","","","","","","","","","","","","","",""
"","","","","","single-stim-button","21","130416","0.0-2.0-7.1-1.1","6014213c77aab7396ca3e5a7","E1","batch5","","1232","tol_practice","","","","tol_peg_2","1232","1232","0","[[1,0,0],[2,0],[3]]","5","[[1,0,0],[2,0],[3]]","practice","1232","","","","","","","","","","","","","","",""
"","","","","","poldrack-single-stim","22","131426","0.0-2.0-8.0","6014213c77aab7396ca3e5a7","E1","batch5","","-1","tol_feedback","","","true","","1000","1000","500","","","","","","-1","none","true","","0","","","","","","","","","",""
"","","","","","html-button-response","23","134515","0.0-2.0-9.0","6014213c77aab7396ca3e5a7","E1","batch5","","3083","tol_instruction","<div class = centerbox><p class = center-block-text>Great job! You are done with practice trials<br>You are about to start official trials.<br> <br> Problem <strong>1</strong> out of 25 problems</p></div>","0","","","","","","","","","","","","","","","","","","","","","","","","",""
"","","","","","single-stim-button","24","147497","0.0-2.0-10.0-0.0","6014213c77aab7396ca3e5a7","E1","batch5","","11973","tol_tohand","","","","tol_peg_1","11973","11973","0","[[1,0,0],[3,0],[0]]","1","[[1,3,0],[2,0],[0]]","0","0","","","","","","3","","","","","","","","",""
"","","","","","single-stim-button","25","148993","0.0-2.0-10.0-1.0","6014213c77aab7396ca3e5a7","E1","batch5","","1492","tol_toboard","","","","tol_peg_3","1492","1492","0","[[1,0,0],[3,0],[2]]","1","[[1,3,0],[2,0],[0]]","0","0","","","","","","3","","","","","","","","",""
"","","","","","single-stim-button","26","150412","0.0-2.0-10.1-0.1","6014213c77aab7396ca3e5a7","E1","batch5","","1417","tol_tohand","","","","tol_peg_2","1417","1417","0","[[1,0,0],[0,0],[2]]","2","[[1,3,0],[2,0],[0]]","0","0","","","","","","3","","","","","","","","",""
"","","","","","single-stim-button","27","153546","0.0-2.0-10.1-1.1","6014213c77aab7396ca3e5a7","E1","batch5","","3131","tol_toboard","","","","tol_peg_1","3131","3131","0","[[1,3,0],[0,0],[2]]","2","[[1,3,0],[2,0],[0]]","0","0","","","","","","3","","","","","","","","",""
"","","","","","single-stim-button","28","156230","0.0-2.0-10.2-0.2","6014213c77aab7396ca3e5a7","E1","batch5","","2679","tol_tohand","","","","tol_peg_3","2679","2679","0","[[1,3,0],[0,0],[0]]","3","[[1,3,0],[2,0],[0]]","0","0","","","","","","3","","","","","","","","",""
"","","","","","single-stim-button","29","157325","0.0-2.0-10.2-1.2","6014213c77aab7396ca3e5a7","E1","batch5","","1092","tol_toboard","","","","tol_peg_2","1092","1092","0","[[1,3,0],[2,0],[0]]","3","[[1,3,0],[2,0],[0]]","0","0","","","","","","3","","","","","","","","",""
"","","","","","poldrack-single-stim","30","158337","0.0-2.0-11.0","6014213c77aab7396ca3e5a7","E1","batch5","","-1","tol_feedback","","","true","","1000","1000","500","","","","","","-1","none","true","11973","16069","","","","","","","","","",""
"","","","","","html-button-response","31","159682","0.0-2.0-12.0","6014213c77aab7396ca3e5a7","E1","batch5","","1339.699999988079","tol_trial_num","<div class = centerbox><p class = center-block-text>problem <strong>2</strong> out of 25 problems</p></div>","0","","","","","","","","","","","","","","","","","","","","","","","","",""
"","","","","","single-stim-button","32","175460","0.0-2.0-13.0-0.0","6014213c77aab7396ca3e5a7","E1","batch5","","15773","tol_tohand","","","","tol_peg_1","15773","15773","0","[[1,0,0],[3,0],[0]]","1","[[2,1,3],[0,0],[0]]","1","0","","","","","","5","","","","","","","","",""
"","","","","","single-stim-button","33","180570","0.0-2.0-13.0-1.0","6014213c77aab7396ca3e5a7","E1","batch5","","5105","tol_toboard","","","","tol_peg_3","5105","5105","0","[[1,0,0],[3,0],[2]]","1","[[2,1,3],[0,0],[0]]","1","0","","","","","","5","","","","","","","","",""
"","","","","","single-stim-button","34","185476","0.0-2.0-13.1-0.1","6014213c77aab7396ca3e5a7","E1","batch5","","4900","tol_tohand","","","","tol_peg_1","4900","4900","0","[[0,0,0],[3,0],[2]]","2","[[2,1,3],[0,0],[0]]","1","0","","","","","","5","","","","","","","","",""
"","","","","","single-stim-button","35","186768","0.0-2.0-13.1-1.1","6014213c77aab7396ca3e5a7","E1","batch5","","1287","tol_toboard","","","","tol_peg_2","1287","1287","0","[[0,0,0],[3,1],[2]]","2","[[2,1,3],[0,0],[0]]","1","0","","","","","","5","","","","","","","","",""
"","","","","","single-stim-button","36","189471","0.0-2.0-13.2-0.2","6014213c77aab7396ca3e5a7","E1","batch5","","2698","tol_tohand","","","","tol_peg_3","2698","2698","0","[[0,0,0],[3,1],[0]]","3","[[2,1,3],[0,0],[0]]","1","0","","","","","","5","","","","","","","","",""
"","","","","","single-stim-button","37","190741","0.0-2.0-13.2-1.2","6014213c77aab7396ca3e5a7","E1","batch5","","1267","tol_toboard","","","","tol_peg_1","1267","1267","0","[[2,0,0],[3,1],[0]]","3","[[2,1,3],[0,0],[0]]","1","0","","","","","","5","","","","","","","","",""
"","","","","","single-stim-button","38","192915","0.0-2.0-13.3-0.3","6014213c77aab7396ca3e5a7","E1","batch5","","2171","tol_tohand","","","","tol_peg_2","2171","2171","0","[[2,0,0],[3,0],[0]]","4","[[2,1,3],[0,0],[0]]","1","0","","","","","","5","","","","","","","","",""
"","","","","","single-stim-button","39","194384","0.0-2.0-13.3-1.3","6014213c77aab7396ca3e5a7","E1","batch5","","1466","tol_toboard","","","","tol_peg_1","1466","1466","0","[[2,1,0],[3,0],[0]]","4","[[2,1,3],[0,0],[0]]","1","0","","","","","","5","","","","","","","","",""
"","","","","","single-stim-button","40","195453","0.0-2.0-13.4-0.4","6014213c77aab7396ca3e5a7","E1","batch5","","1064","tol_tohand","","","","tol_peg_2","1064","1064","0","[[2,1,0],[0,0],[0]]","5","[[2,1,3],[0,0],[0]]","1","0","","","","","","5","","","","","","","","",""
"","","","","","single-stim-button","41","197303","0.0-2.0-13.4-1.4","6014213c77aab7396ca3e5a7","E1","batch5","","1846","tol_toboard","","","","tol_peg_1","1846","1846","0","[[2,1,3],[0,0],[0]]","5","[[2,1,3],[0,0],[0]]","1","0","","","","","","5","","","","","","","","",""
"","","","","","poldrack-single-stim","42","198314","0.0-2.0-14.0","6014213c77aab7396ca3e5a7","E1","batch5","","-1","tol_feedback","","","true","","1000","1000","500","","","","","","-1","none","true","15773","26606","","","","","","","","","",""
"","","","","","html-button-response","43","199538","0.0-2.0-15.0","6014213c77aab7396ca3e5a7","E1","batch5","","1218.9000000357628","tol_trial_num","<div class = centerbox><p class = center-block-text>problem <strong>3</strong> out of 25 problems</p></div>","0","","","","","","","","","","","","","","","","","","","","","","","","",""
"","","","","","single-stim-button","44","208391","0.0-2.0-16.0-0.0","6014213c77aab7396ca3e5a7","E1","batch5","","8848","tol_tohand","","","","tol_peg_1","8848","8848","0","[[2,0,0],[0,0],[1]]","1","[[1,2,0],[3,0],[0]]","2","0","","","","","","4","","","","","","","","",""
"","","","","","single-stim-button","45","209887","0.0-2.0-16.0-1.0","6014213c77aab7396ca3e5a7","E1","batch5","","1491","tol_toboard","","","","tol_peg_2","1491","1491","0","[[2,0,0],[3,0],[1]]","1","[[1,2,0],[3,0],[0]]","2","0","","","","","","4","","","","","","","","",""
"","","","","","single-stim-button","46","216965","0.0-2.0-16.1-0.1","6014213c77aab7396ca3e5a7","E1","batch5","","7074","tol_tohand","","","","tol_peg_1","7074","7074","0","[[0,0,0],[3,0],[1]]","2","[[1,2,0],[3,0],[0]]","2","0","","","","","","4","","","","","","","","",""
"","","","","","single-stim-button","47","218356","0.0-2.0-16.1-1.1","6014213c77aab7396ca3e5a7","E1","batch5","","1388","tol_toboard","","","","tol_peg_2","1388","1388","0","[[0,0,0],[3,2],[1]]","2","[[1,2,0],[3,0],[0]]","2","0","","","","","","4","","","","","","","","",""
"","","","","","single-stim-button","48","219639","0.0-2.0-16.2-0.2","6014213c77aab7396ca3e5a7","E1","batch5","","1279","tol_tohand","","","","tol_peg_3","1279","1279","0","[[0,0,0],[3,2],[0]]","3","[[1,2,0],[3,0],[0]]","2","0","","","","","","4","","","","","","","","",""
"","","","","","single-stim-button","49","221244","0.0-2.0-16.2-1.2","6014213c77aab7396ca3e5a7","E1","batch5","","1603","tol_toboard","","","","tol_peg_1","1603","1603","0","[[1,0,0],[3,2],[0]]","3","[[1,2,0],[3,0],[0]]","2","0","","","","","","4","","","","","","","","",""
"","","","","","single-stim-button","50","222732","0.0-2.0-16.3-0.3","6014213c77aab7396ca3e5a7","E1","batch5","","1485","tol_tohand","","","","tol_peg_2","1485","1485","0","[[1,0,0],[3,0],[0]]","4","[[1,2,0],[3,0],[0]]","2","0","","","","","","4","","","","","","","","",""
"","","","","","single-stim-button","51","223604","0.0-2.0-16.3-1.3","6014213c77aab7396ca3e5a7","E1","batch5","","868","tol_toboard","","","","tol_peg_1","868","868","0","[[1,2,0],[3,0],[0]]","4","[[1,2,0],[3,0],[0]]","2","0","","","","","","4","","","","","","","","",""
"","","","","","poldrack-single-stim","52","224617","0.0-2.0-17.0","6014213c77aab7396ca3e5a7","E1","batch5","","-1","tol_feedback","","","true","","1000","1000","500","","","","","","-1","none","true","8848","18686","","","","","","","","","",""
"","","","","","html-button-response","53","225468","0.0-2.0-18.0","6014213c77aab7396ca3e5a7","E1","batch5","","847.6999999880791","tol_trial_num","<div class = centerbox><p class = center-block-text>problem <strong>4</strong> out of 25 problems</p></div>","0","","","","","","","","","","","","","","","","","","","","","","","","",""
"","","","","","single-stim-button","54","234477","0.0-2.0-19.0-0.0","6014213c77aab7396ca3e5a7","E1","batch5","","9004","tol_tohand","","","","tol_peg_2","9004","9004","0","[[3,0,0],[2,0],[0]]","1","[[3,0,0],[1,0],[2]]","3","0","","","","","","3","","","","","","","","",""
"","","","","","single-stim-button","55","236297","0.0-2.0-19.0-1.0","6014213c77aab7396ca3e5a7","E1","batch5","","1816","tol_toboard","","","","tol_peg_1","1816","1816","0","[[3,1,0],[2,0],[0]]","1","[[3,0,0],[1,0],[2]]","3","0","","","","","","3","","","","","","","","",""
"","","","","","single-stim-button","56","238188","0.0-2.0-19.1-0.1","6014213c77aab7396ca3e5a7","E1","batch5","","1886","tol_tohand","","","","tol_peg_2","1886","1886","0","[[3,1,0],[0,0],[0]]","2","[[3,0,0],[1,0],[2]]","3","0","","","","","","3","","","","","","","","",""
"","","","","","single-stim-button","57","239537","0.0-2.0-19.1-1.1","6014213c77aab7396ca3e5a7","E1","batch5","","1347","tol_toboard","","","","tol_peg_3","1347","1347","0","[[3,1,0],[0,0],[2]]","2","[[3,0,0],[1,0],[2]]","3","0","","","","","","3","","","","","","","","",""
"","","","","","single-stim-button","58","240684","0.0-2.0-19.2-0.2","6014213c77aab7396ca3e5a7","E1","batch5","","1144","tol_tohand","","","","tol_peg_1","1144","1144","0","[[3,0,0],[0,0],[2]]","3","[[3,0,0],[1,0],[2]]","3","0","","","","","","3","","","","","","","","",""
"","","","","","single-stim-button","59","241779","0.0-2.0-19.2-1.2","6014213c77aab7396ca3e5a7","E1","batch5","","1092","tol_toboard","","","","tol_peg_2","1092","1092","0","[[3,0,0],[1,0],[2]]","3","[[3,0,0],[1,0],[2]]","3","0","","","","","","3","","","","","","","","",""
"","","","","","poldrack-single-stim","60","242785","0.0-2.0-20.0","6014213c77aab7396ca3e5a7","E1","batch5","","-1","tol_feedback","","","true","","1000","1000","500","","","","","","-1","none","true","9004","12034","","","","","","","","","",""
"","","","","","html-button-response","61","244161","0.0-2.0-21.0","6014213c77aab7396ca3e5a7","E1","batch5","","1372.699999988079","tol_trial_num","<div class = centerbox><p class = center-block-text>problem <strong>5</strong> out of 25 problems</p></div>","0","","","","","","","","","","","","","","","","","","","","","","","","",""
"","","","","","single-stim-button","62","271686","0.0-2.0-22.0-0.0","6014213c77aab7396ca3e5a7","E1","batch5","","27521","tol_tohand","","","","tol_peg_2","27521","27521","0","[[1,0,0],[0,0],[3]]","1","[[0,0,0],[1,2],[3]]","4","0","","","","","","7","","","","","","","","",""
"","","","","","single-stim-button","63","277555","0.0-2.0-22.0-1.0","6014213c77aab7396ca3e5a7","E1","batch5","","5865","tol_toboard","","","","tol_peg_1","5865","5865","0","[[1,2,0],[0,0],[3]]","1","[[0,0,0],[1,2],[3]]","4","0","","","","","","7","","","","","","","","",""
"","","","","","single-stim-button","64","281991","0.0-2.0-22.1-0.1","6014213c77aab7396ca3e5a7","E1","batch5","","4430","tol_tohand","","","","tol_peg_1","4430","4430","0","[[1,0,0],[0,0],[3]]","2","[[0,0,0],[1,2],[3]]","4","0","","","","","","7","","","","","","","","",""
"","","","","","single-stim-button","65","286874","0.0-2.0-22.1-1.1","6014213c77aab7396ca3e5a7","E1","batch5","","4879","tol_toboard","","","","tol_peg_2","4879","4879","0","[[1,0,0],[2,0],[3]]","2","[[0,0,0],[1,2],[3]]","4","0","","","","","","7","","","","","","","","",""
"","","","","","single-stim-button","66","292183","0.0-2.0-22.2-0.2","6014213c77aab7396ca3e5a7","E1","batch5","","5305","tol_tohand","","","","tol_peg_1","5305","5305","0","[[0,0,0],[2,0],[3]]","3","[[0,0,0],[1,2],[3]]","4","0","","","","","","7","","","","","","","","",""
"","","","","","single-stim-button","67","298181","0.0-2.0-22.2-1.2","6014213c77aab7396ca3e5a7","E1","batch5","","5995","tol_toboard","","","","tol_peg_2","5995","5995","0","[[0,0,0],[2,1],[3]]","3","[[0,0,0],[1,2],[3]]","4","0","","","","","","7","","","","","","","","",""
"","","","","","single-stim-button","68","307757","0.0-2.0-22.3-0.3","6014213c77aab7396ca3e5a7","E1","batch5","","9573","tol_tohand","","","","tol_peg_2","9573","9573","0","[[0,0,0],[2,0],[3]]","4","[[0,0,0],[1,2],[3]]","4","0","","","","","","7","","","","","","","","",""
"","","","","","single-stim-button","69","310508","0.0-2.0-22.3-1.3","6014213c77aab7396ca3e5a7","E1","batch5","","2748","tol_toboard","","","","tol_peg_1","2748","2748","0","[[1,0,0],[2,0],[3]]","4","[[0,0,0],[1,2],[3]]","4","0","","","","","","7","","","","","","","","",""
"","","","","","single-stim-button","70","318604","0.0-2.0-22.4-0.4","6014213c77aab7396ca3e5a7","E1","batch5","","8092","tol_tohand","","","","tol_peg_2","8092","8092","0","[[1,0,0],[0,0],[3]]","5","[[0,0,0],[1,2],[3]]","4","0","","","","","","7","","","","","","","","",""
"","","","","","single-stim-button","71","321023","0.0-2.0-22.4-1.4","6014213c77aab7396ca3e5a7","E1","batch5","","2414","tol_toboard","","","","tol_peg_1","2414","2414","0","[[1,2,0],[0,0],[3]]","5","[[0,0,0],[1,2],[3]]","4","0","","","","","","7","","","","","","","","",""
"","","","","","single-stim-button","72","322600","0.0-2.0-22.5-0.5","6014213c77aab7396ca3e5a7","E1","batch5","","1573","tol_tohand","","","","tol_peg_3","1573","1573","0","[[1,2,0],[0,0],[0]]","6","[[0,0,0],[1,2],[3]]","4","0","","","","","","7","","","","","","","","",""
"","","","","","single-stim-button","73","346376","0.0-2.0-22.5-1.5","6014213c77aab7396ca3e5a7","E1","batch5","","23772","tol_toboard","","","","tol_peg_1","23772","23772","0","[[1,2,3],[0,0],[0]]","6","[[0,0,0],[1,2],[3]]","4","0","","","","","","7","","","","","","","","",""
"","","","","","single-stim-button","74","352681","0.0-2.0-22.6-0.6","6014213c77aab7396ca3e5a7","E1","batch5","","6300","tol_tohand","","","","tol_peg_1","6300","6300","0","[[1,2,0],[0,0],[0]]","7","[[0,0,0],[1,2],[3]]","4","0","","","","","","7","","","","","","","","",""
"","","","","","single-stim-button","75","365625","0.0-2.0-22.6-1.6","6014213c77aab7396ca3e5a7","E1","batch5","","12939","tol_toboard","","","","tol_peg_2","12939","12939","0","[[1,2,0],[3,0],[0]]","7","[[0,0,0],[1,2],[3]]","4","0","","","","","","7","","","","","","","","",""
"","","","","","single-stim-button","76","371518","0.0-2.0-22.7-0.7","6014213c77aab7396ca3e5a7","E1","batch5","","5888","tol_tohand","","","","tol_peg_1","5888","5888","0","[[1,0,0],[3,0],[0]]","8","[[0,0,0],[1,2],[3]]","4","0","","","","","","7","","","","","","","","",""
"","","","","","single-stim-button","77","373142","0.0-2.0-22.7-1.7","6014213c77aab7396ca3e5a7","E1","batch5","","1622","tol_toboard","","","","tol_peg_3","1622","1622","0","[[1,0,0],[3,0],[2]]","8","[[0,0,0],[1,2],[3]]","4","0","","","","","","7","","","","","","","","",""
"","","","","","single-stim-button","78","379536","0.0-2.0-22.8-0.8","6014213c77aab7396ca3e5a7","E1","batch5","","6390","tol_tohand","","","","tol_peg_2","6390","6390","0","[[1,0,0],[0,0],[2]]","9","[[0,0,0],[1,2],[3]]","4","0","","","","","","7","","","","","","","","",""
"","","","","","single-stim-button","79","392305","0.0-2.0-22.8-1.8","6014213c77aab7396ca3e5a7","E1","batch5","","12765","tol_toboard","","","","tol_peg_1","12765","12765","0","[[1,3,0],[0,0],[2]]","9","[[0,0,0],[1,2],[3]]","4","0","","","","","","7","","","","","","","","",""
"","","","","","single-stim-button","80","395391","0.0-2.0-22.9-0.9","6014213c77aab7396ca3e5a7","E1","batch5","","3080","tol_tohand","","","","tol_peg_1","3080","3080","0","[[1,0,0],[0,0],[2]]","10","[[0,0,0],[1,2],[3]]","4","0","","","","","","7","","","","","","","","",""
"","","","","","single-stim-button","81","401087","0.0-2.0-22.9-1.9","6014213c77aab7396ca3e5a7","E1","batch5","","5692","tol_toboard","","","","tol_peg_2","5692","5692","0","[[1,0,0],[3,0],[2]]","10","[[0,0,0],[1,2],[3]]","4","0","","","","","","7","","","","","","","","",""
"","","","","","single-stim-button","82","405712","0.0-2.0-22.10-0.10","6014213c77aab7396ca3e5a7","E1","batch5","","4623","tol_tohand","","","","tol_peg_1","4623","4623","0","[[0,0,0],[3,0],[2]]","11","[[0,0,0],[1,2],[3]]","4","0","","","","","","7","","","","","","","","",""
"","","","","","single-stim-button","83","413712","0.0-2.0-22.10-1.10","6014213c77aab7396ca3e5a7","E1","batch5","","7999","tol_toboard","","","","tol_peg_1","7999","7999","0","[[1,0,0],[3,0],[2]]","11","[[0,0,0],[1,2],[3]]","4","0","","","","","","7","","","","","","","","",""
"","","","","","single-stim-button","84","418522","0.0-2.0-22.11-0.11","6014213c77aab7396ca3e5a7","E1","batch5","","4806","tol_tohand","","","","tol_peg_2","4806","4806","0","[[1,0,0],[0,0],[2]]","12","[[0,0,0],[1,2],[3]]","4","0","","","","","","7","","","","","","","","",""
"","","","","","single-stim-button","85","427413","0.0-2.0-22.11-1.11","6014213c77aab7396ca3e5a7","E1","batch5","","8887","tol_toboard","","","","tol_peg_1","8887","8887","0","[[1,3,0],[0,0],[2]]","12","[[0,0,0],[1,2],[3]]","4","0","","","","","","7","","","","","","","","",""
"","","","","","single-stim-button","86","434197","0.0-2.0-22.12-0.12","6014213c77aab7396ca3e5a7","E1","batch5","","6779","tol_tohand","","","","tol_peg_3","6779","6779","0","[[1,3,0],[0,0],[0]]","13","[[0,0,0],[1,2],[3]]","4","0","","","","","","7","","","","","","","","",""
"","","","","","single-stim-button","87","442528","0.0-2.0-22.12-1.12","6014213c77aab7396ca3e5a7","E1","batch5","","8327","tol_toboard","","","","tol_peg_1","8327","8327","0","[[1,3,2],[0,0],[0]]","13","[[0,0,0],[1,2],[3]]","4","0","","","","","","7","","","","","","","","",""
"","","","","","single-stim-button","88","449279","0.0-2.0-22.13-0.13","6014213c77aab7396ca3e5a7","E1","batch5","","6746","tol_tohand","","","","tol_peg_1","6746","6746","0","[[1,3,0],[0,0],[0]]","14","[[0,0,0],[1,2],[3]]","4","0","","","","","","7","","","","","","","","",""
"","","","","","single-stim-button","89","453528","0.0-2.0-22.13-1.13","6014213c77aab7396ca3e5a7","E1","batch5","","4245","tol_toboard","","","","tol_peg_2","4245","4245","0","[[1,3,0],[2,0],[0]]","14","[[0,0,0],[1,2],[3]]","4","0","","","","","","7","","","","","","","","",""
"","","","","","single-stim-button","90","454566","0.0-2.0-22.14-0.14","6014213c77aab7396ca3e5a7","E1","batch5","","1034","tol_tohand","","","","tol_peg_1","1034","1034","0","[[1,0,0],[2,0],[0]]","15","[[0,0,0],[1,2],[3]]","4","0","","","","","","7","","","","","","","","",""
"","","","","","single-stim-button","91","456005","0.0-2.0-22.14-1.14","6014213c77aab7396ca3e5a7","E1","batch5","","1435","tol_toboard","","","","tol_peg_3","1435","1435","0","[[1,0,0],[2,0],[3]]","15","[[0,0,0],[1,2],[3]]","4","0","","","","","","7","","","","","","","","",""
"","","","","","single-stim-button","92","460186","0.0-2.0-22.15-0.15","6014213c77aab7396ca3e5a7","E1","batch5","","4176","tol_tohand","","","","tol_peg_2","4176","4176","0","[[1,0,0],[0,0],[3]]","16","[[0,0,0],[1,2],[3]]","4","0","","","","","","7","","","","","","","","",""
"","","","","","single-stim-button","93","467768","0.0-2.0-22.15-1.15","6014213c77aab7396ca3e5a7","E1","batch5","","7577","tol_toboard","","","","tol_peg_1","7577","7577","0","[[1,2,0],[0,0],[3]]","16","[[0,0,0],[1,2],[3]]","4","0","","","","","","7","","","","","","","","",""
"","","","","","single-stim-button","94","484525","0.0-2.0-22.16-0.16","6014213c77aab7396ca3e5a7","E1","batch5","","16752","tol_tohand","","","","tol_peg_1","16752","16752","0","[[1,0,0],[0,0],[3]]","17","[[0,0,0],[1,2],[3]]","4","0","","","","","","7","","","","","","","","",""
"","","","","","single-stim-button","95","491494","0.0-2.0-22.16-1.16","6014213c77aab7396ca3e5a7","E1","batch5","","6962","tol_toboard","","","","tol_peg_1","6962","6962","0","[[1,2,0],[0,0],[3]]","17","[[0,0,0],[1,2],[3]]","4","0","","","","","","7","","","","","","","","",""
"","","","","","single-stim-button","96","501417","0.0-2.0-22.17-0.17","6014213c77aab7396ca3e5a7","E1","batch5","","9919","tol_tohand","","","","tol_peg_1","9919","9919","0","[[1,0,0],[0,0],[3]]","18","[[0,0,0],[1,2],[3]]","4","0","","","","","","7","","","","","","","","",""
"","","","","","single-stim-button","97","507442","0.0-2.0-22.17-1.17","6014213c77aab7396ca3e5a7","E1","batch5","","6022","tol_toboard","","","","tol_peg_1","6022","6022","0","[[1,2,0],[0,0],[3]]","18","[[0,0,0],[1,2],[3]]","4","0","","","","","","7","","","","","","","","",""
"","","","","","single-stim-button","98","521017","0.0-2.0-22.18-0.18","6014213c77aab7396ca3e5a7","E1","batch5","","13572","tol_tohand","","","","tol_peg_1","13572","13572","0","[[1,0,0],[0,0],[3]]","19","[[0,0,0],[1,2],[3]]","4","0","","","","","","7","","","","","","","","",""
"","","","","","single-stim-button","99","532981","0.0-2.0-22.18-1.18","6014213c77aab7396ca3e5a7","E1","batch5","","11961","tol_toboard","","","","tol_peg_2","11961","11961","0","[[1,0,0],[2,0],[3]]","19","[[0,0,0],[1,2],[3]]","4","0","","","","","","7","","","","","","","","",""
"","","","","","single-stim-button","100","536200","0.0-2.0-22.19-0.19","6014213c77aab7396ca3e5a7","E1","batch5","","3216","tol_tohand","","","","tol_peg_1","3216","3216","0","[[0,0,0],[2,0],[3]]","20","[[0,0,0],[1,2],[3]]","4","0","","","","","","7","","","","","","","","",""
"","","","","","single-stim-button","101","541396","0.0-2.0-22.19-1.19","6014213c77aab7396ca3e5a7","E1","batch5","","5193","tol_toboard","","","","tol_peg_2","5193","5193","0","[[0,0,0],[2,1],[3]]","20","[[0,0,0],[1,2],[3]]","4","0","","","","","","7","","","","","","","","",""
"","","","","","single-stim-button","102","542806","0.0-2.0-22.20-0.20","6014213c77aab7396ca3e5a7","E1","batch5","","1406","tol_tohand","","","","tol_peg_2","1406","1406","0","[[0,0,0],[2,0],[3]]","21","[[0,0,0],[1,2],[3]]","4","0","","","","","","7","","","","","","","","",""
"","","","","","single-stim-button","103","546925","0.0-2.0-22.20-1.20","6014213c77aab7396ca3e5a7","E1","batch5","","4116","tol_toboard","","","","tol_peg_1","4116","4116","0","[[1,0,0],[2,0],[3]]","21","[[0,0,0],[1,2],[3]]","4","0","","","","","","7","","","","","","","","",""
"","","","","","single-stim-button","104","557537","0.0-2.0-22.21-0.21","6014213c77aab7396ca3e5a7","E1","batch5","","10607","tol_tohand","","","","tol_peg_3","10607","10607","0","[[1,0,0],[2,0],[0]]","22","[[0,0,0],[1,2],[3]]","4","0","","","","","","7","","","","","","","","",""
"","","","","","single-stim-button","105","566947","0.0-2.0-22.21-1.21","6014213c77aab7396ca3e5a7","E1","batch5","","9405","tol_toboard","","","","tol_peg_1","9405","9405","0","[[1,3,0],[2,0],[0]]","22","[[0,0,0],[1,2],[3]]","4","0","","","","","","7","","","","","","","","",""
"","","","","","single-stim-button","106","568230","0.0-2.0-22.22-0.22","6014213c77aab7396ca3e5a7","E1","batch5","","1280","tol_tohand","","","","tol_peg_2","1280","1280","0","[[1,3,0],[0,0],[0]]","23","[[0,0,0],[1,2],[3]]","4","0","","","","","","7","","","","","","","","",""
"","","","","","single-stim-button","107","569707","0.0-2.0-22.22-1.22","6014213c77aab7396ca3e5a7","E1","batch5","","1473","tol_toboard","","","","tol_peg_3","1473","1473","0","[[1,3,0],[0,0],[2]]","23","[[0,0,0],[1,2],[3]]","4","0","","","","","","7","","","","","","","","",""
"","","","","","single-stim-button","108","582766","0.0-2.0-22.23-0.23","6014213c77aab7396ca3e5a7","E1","batch5","","13054","tol_tohand","","","","tol_peg_1","13054","13054","0","[[1,0,0],[0,0],[2]]","24","[[0,0,0],[1,2],[3]]","4","0","","","","","","7","","","","","","","","",""
"","","","","","single-stim-button","109","583931","0.0-2.0-22.23-1.23","6014213c77aab7396ca3e5a7","E1","batch5","","1159","tol_toboard","","","","tol_peg_2","1159","1159","0","[[1,0,0],[3,0],[2]]","24","[[0,0,0],[1,2],[3]]","4","0","","","","","","7","","","","","","","","",""
"","","","","","single-stim-button","110","590449","0.0-2.0-22.24-0.24","6014213c77aab7396ca3e5a7","E1","batch5","","6514","tol_tohand","","","","tol_peg_1","6514","6514","0","[[0,0,0],[3,0],[2]]","25","[[0,0,0],[1,2],[3]]","4","0","","","","","","7","","","","","","","","",""
"","","","","","single-stim-button","111","592194","0.0-2.0-22.24-1.24","6014213c77aab7396ca3e5a7","E1","batch5","","1739","tol_toboard","","","","tol_peg_2","1739","1739","0","[[0,0,0],[3,1],[2]]","25","[[0,0,0],[1,2],[3]]","4","0","","","","","","7","","","","","","","","",""
"","","","","","single-stim-button","112","593875","0.0-2.0-22.25-0.25","6014213c77aab7396ca3e5a7","E1","batch5","","1678","tol_tohand","","","","tol_peg_3","1678","1678","0","[[0,0,0],[3,1],[0]]","26","[[0,0,0],[1,2],[3]]","4","0","","","","","","7","","","","","","","","",""
"","","","","","single-stim-button","113","595394","0.0-2.0-22.25-1.25","6014213c77aab7396ca3e5a7","E1","batch5","","1516","tol_toboard","","","","tol_peg_1","1516","1516","0","[[2,0,0],[3,1],[0]]","26","[[0,0,0],[1,2],[3]]","4","0","","","","","","7","","","","","","","","",""
"","","","","","single-stim-button","114","596959","0.0-2.0-22.26-0.26","6014213c77aab7396ca3e5a7","E1","batch5","","1561","tol_tohand","","","","tol_peg_2","1561","1561","0","[[2,0,0],[3,0],[0]]","27","[[0,0,0],[1,2],[3]]","4","0","","","","","","7","","","","","","","","",""
"","","","","","single-stim-button","115","599710","0.0-2.0-22.26-1.26","6014213c77aab7396ca3e5a7","E1","batch5","","2748","tol_toboard","","","","tol_peg_1","2748","2748","0","[[2,1,0],[3,0],[0]]","27","[[0,0,0],[1,2],[3]]","4","0","","","","","","7","","","","","","","","",""
"","","","","","single-stim-button","116","601148","0.0-2.0-22.27-0.27","6014213c77aab7396ca3e5a7","E1","batch5","","1435","tol_tohand","","","","tol_peg_2","1435","1435","0","[[2,1,0],[0,0],[0]]","28","[[0,0,0],[1,2],[3]]","4","0","","","","","","7","","","","","","","","",""
"","","","","","single-stim-button","117","603333","0.0-2.0-22.27-1.27","6014213c77aab7396ca3e5a7","E1","batch5","","2182","tol_toboard","","","","tol_peg_3","2182","2182","0","[[2,1,0],[0,0],[3]]","28","[[0,0,0],[1,2],[3]]","4","0","","","","","","7","","","","","","","","",""
"","","","","","single-stim-button","118","604802","0.0-2.0-22.28-0.28","6014213c77aab7396ca3e5a7","E1","batch5","","1465","tol_tohand","","","","tol_peg_1","1465","1465","0","[[2,0,0],[0,0],[3]]","29","[[0,0,0],[1,2],[3]]","4","0","","","","","","7","","","","","","","","",""
"","","","","","single-stim-button","119","606045","0.0-2.0-22.28-1.28","6014213c77aab7396ca3e5a7","E1","batch5","","1239","tol_toboard","","","","tol_peg_2","1239","1239","0","[[2,0,0],[1,0],[3]]","29","[[0,0,0],[1,2],[3]]","4","0","","","","","","7","","","","","","","","",""
"","","","","","single-stim-button","120","607610","0.0-2.0-22.29-0.29","6014213c77aab7396ca3e5a7","E1","batch5","","1562","tol_tohand","","","","tol_peg_1","1562","1562","0","[[0,0,0],[1,0],[3]]","30","[[0,0,0],[1,2],[3]]","4","0","","","","","","7","","","","","","","","",""
"","","","","","single-stim-button","121","608971","0.0-2.0-22.29-1.29","6014213c77aab7396ca3e5a7","E1","batch5","","1357","tol_toboard","","","","tol_peg_2","1357","1357","0","[[0,0,0],[1,2],[3]]","30","[[0,0,0],[1,2],[3]]","4","0","","","","","","7","","","","","","","","",""
"","","","","","poldrack-single-stim","122","609976","0.0-2.0-23.0","6014213c77aab7396ca3e5a7","E1","batch5","","-1","tol_feedback","","","true","","1000","1000","500","","","","","","-1","none","true","27521","190337","","","","","","","","","",""
"","","","","","html-button-response","123","611559","0.0-2.0-24.0","6014213c77aab7396ca3e5a7","E1","batch5","","1579.5","tol_trial_num","<div class = centerbox><p class = center-block-text>problem <strong>6</strong> out of 25 problems</p></div>","0","","","","","","","","","","","","","","","","","","","","","","","","",""
"","","","","","single-stim-button","124","627526","0.0-2.0-25.0-0.0","6014213c77aab7396ca3e5a7","E1","batch5","","15962","tol_tohand","","","","tol_peg_2","15962","15962","0","[[0,0,0],[1,0],[3]]","1","[[1,0,0],[2,3],[0]]","5","0","","","","","","6","","","","","","","","",""
"","","","","","single-stim-button","125","636884","0.0-2.0-25.0-1.0","6014213c77aab7396ca3e5a7","E1","batch5","","9353","tol_toboard","","","","tol_peg_1","9353","9353","0","[[2,0,0],[1,0],[3]]","1","[[1,0,0],[2,3],[0]]","5","0","","","","","","6","","","","","","","","",""
"","","","","","single-stim-button","126","650342","0.0-2.0-25.1-0.1","6014213c77aab7396ca3e5a7","E1","batch5","","13453","tol_tohand","","","","tol_peg_3","13453","13453","0","[[2,0,0],[1,0],[0]]","2","[[1,0,0],[2,3],[0]]","5","0","","","","","","6","","","","","","","","",""
"","","","","","single-stim-button","127","651526","0.0-2.0-25.1-1.1","6014213c77aab7396ca3e5a7","E1","batch5","","1179","tol_toboard","","","","tol_peg_2","1179","1179","0","[[2,0,0],[1,3],[0]]","2","[[1,0,0],[2,3],[0]]","5","0","","","","","","6","","","","","","","","",""
"","","","","","single-stim-button","128","652721","0.0-2.0-25.2-0.2","6014213c77aab7396ca3e5a7","E1","batch5","","1191","tol_tohand","","","","tol_peg_1","1191","1191","0","[[0,0,0],[1,3],[0]]","3","[[1,0,0],[2,3],[0]]","5","0","","","","","","6","","","","","","","","",""
"","","","","","single-stim-button","129","654031","0.0-2.0-25.2-1.2","6014213c77aab7396ca3e5a7","E1","batch5","","1306","tol_toboard","","","","tol_peg_3","1306","1306","0","[[0,0,0],[1,3],[2]]","3","[[1,0,0],[2,3],[0]]","5","0","","","","","","6","","","","","","","","",""
"","","","","","single-stim-button","130","659199","0.0-2.0-25.3-0.3","6014213c77aab7396ca3e5a7","E1","batch5","","5164","tol_tohand","","","","tol_peg_2","5164","5164","0","[[0,0,0],[1,0],[2]]","4","[[1,0,0],[2,3],[0]]","5","0","","","","","","6","","","","","","","","",""
"","","","","","single-stim-button","131","668109","0.0-2.0-25.3-1.3","6014213c77aab7396ca3e5a7","E1","batch5","","8905","tol_toboard","","","","tol_peg_1","8905","8905","0","[[3,0,0],[1,0],[2]]","4","[[1,0,0],[2,3],[0]]","5","0","","","","","","6","","","","","","","","",""
"","","","","","single-stim-button","132","670417","0.0-2.0-25.4-0.4","6014213c77aab7396ca3e5a7","E1","batch5","","2304","tol_tohand","","","","tol_peg_2","2304","2304","0","[[3,0,0],[0,0],[2]]","5","[[1,0,0],[2,3],[0]]","5","0","","","","","","6","","","","","","","","",""
"","","","","","single-stim-button","133","674510","0.0-2.0-25.4-1.4","6014213c77aab7396ca3e5a7","E1","batch5","","4089","tol_toboard","","","","tol_peg_1","4089","4089","0","[[3,1,0],[0,0],[2]]","5","[[1,0,0],[2,3],[0]]","5","0","","","","","","6","","","","","","","","",""
"","","","","","single-stim-button","134","677034","0.0-2.0-25.5-0.5","6014213c77aab7396ca3e5a7","E1","batch5","","2521","tol_tohand","","","","tol_peg_3","2521","2521","0","[[3,1,0],[0,0],[0]]","6","[[1,0,0],[2,3],[0]]","5","0","","","","","","6","","","","","","","","",""
"","","","","","single-stim-button","135","678620","0.0-2.0-25.5-1.5","6014213c77aab7396ca3e5a7","E1","batch5","","1582","tol_toboard","","","","tol_peg_2","1582","1582","0","[[3,1,0],[2,0],[0]]","6","[[1,0,0],[2,3],[0]]","5","0","","","","","","6","","","","","","","","",""
"","","","","","single-stim-button","136","680157","0.0-2.0-25.6-0.6","6014213c77aab7396ca3e5a7","E1","batch5","","1534","tol_tohand","","","","tol_peg_1","1534","1534","0","[[3,0,0],[2,0],[0]]","7","[[1,0,0],[2,3],[0]]","5","0","","","","","","6","","","","","","","","",""
"","","","","","single-stim-button","137","681695","0.0-2.0-25.6-1.6","6014213c77aab7396ca3e5a7","E1","batch5","","1534","tol_toboard","","","","tol_peg_3","1534","1534","0","[[3,0,0],[2,0],[1]]","7","[[1,0,0],[2,3],[0]]","5","0","","","","","","6","","","","","","","","",""
"","","","","","single-stim-button","138","682714","0.0-2.0-25.7-0.7","6014213c77aab7396ca3e5a7","E1","batch5","","1015","tol_tohand","","","","tol_peg_1","1015","1015","0","[[0,0,0],[2,0],[1]]","8","[[1,0,0],[2,3],[0]]","5","0","","","","","","6","","","","","","","","",""
"","","","","","single-stim-button","139","684873","0.0-2.0-25.7-1.7","6014213c77aab7396ca3e5a7","E1","batch5","","2157","tol_toboard","","","","tol_peg_2","2157","2157","0","[[0,0,0],[2,3],[1]]","8","[[1,0,0],[2,3],[0]]","5","0","","","","","","6","","","","","","","","",""
"","","","","","single-stim-button","140","686686","0.0-2.0-25.8-0.8","6014213c77aab7396ca3e5a7","E1","batch5","","1810","tol_tohand","","","","tol_peg_3","1810","1810","0","[[0,0,0],[2,3],[0]]","9","[[1,0,0],[2,3],[0]]","5","0","","","","","","6","","","","","","","","",""
"","","","","","single-stim-button","141","687685","0.0-2.0-25.8-1.8","6014213c77aab7396ca3e5a7","E1","batch5","","995","tol_toboard","","","","tol_peg_1","995","995","0","[[1,0,0],[2,3],[0]]","9","[[1,0,0],[2,3],[0]]","5","0","","","","","","6","","","","","","","","",""
"","","","","","poldrack-single-stim","142","688697","0.0-2.0-26.0","6014213c77aab7396ca3e5a7","E1","batch5","","-1","tol_feedback","","","true","","1000","1000","500","","","","","","-1","none","true","15962","44954","","","","","","","","","",""
"","","","","","html-button-response","143","689743","0.0-2.0-27.0","6014213c77aab7396ca3e5a7","E1","batch5","","1042.199999988079","tol_trial_num","<div class = centerbox><p class = center-block-text>problem <strong>7</strong> out of 25 problems</p></div>","0","","","","","","","","","","","","","","","","","","","","","","","","",""
"","","","","","single-stim-button","144","698837","0.0-2.0-28.0-0.0","6014213c77aab7396ca3e5a7","E1","batch5","","9090","tol_tohand","","","","tol_peg_1","9090","9090","0","[[2,0,0],[0,0],[3]]","1","[[1,2,0],[3,0],[0]]","6","0","","","","","","5","","","","","","","","",""
"","","","","","single-stim-button","145","700357","0.0-2.0-28.0-1.0","6014213c77aab7396ca3e5a7","E1","batch5","","1517","tol_toboard","","","","tol_peg_2","1517","1517","0","[[2,0,0],[1,0],[3]]","1","[[1,2,0],[3,0],[0]]","6","0","","","","","","5","","","","","","","","",""
"","","","","","single-stim-button","146","735128","0.0-2.0-28.1-0.1","6014213c77aab7396ca3e5a7","E1","batch5","","34766","tol_tohand","","","","tol_peg_3","34766","34766","0","[[2,0,0],[1,0],[0]]","2","[[1,2,0],[3,0],[0]]","6","0","","","","","","5","","","","","","","","",""
"","","","","","single-stim-button","147","736235","0.0-2.0-28.1-1.1","6014213c77aab7396ca3e5a7","E1","batch5","","1102","tol_toboard","","","","tol_peg_2","1102","1102","0","[[2,0,0],[1,3],[0]]","2","[[1,2,0],[3,0],[0]]","6","0","","","","","","5","","","","","","","","",""
"","","","","","single-stim-button","148","737232","0.0-2.0-28.2-0.2","6014213c77aab7396ca3e5a7","E1","batch5","","992","tol_tohand","","","","tol_peg_1","992","992","0","[[0,0,0],[1,3],[0]]","3","[[1,2,0],[3,0],[0]]","6","0","","","","","","5","","","","","","","","",""
"","","","","","single-stim-button","149","738751","0.0-2.0-28.2-1.2","6014213c77aab7396ca3e5a7","E1","batch5","","1513","tol_toboard","","","","tol_peg_3","1513","1513","0","[[0,0,0],[1,3],[2]]","3","[[1,2,0],[3,0],[0]]","6","0","","","","","","5","","","","","","","","",""
"","","","","","single-stim-button","150","756680","0.0-2.0-28.3-0.3","6014213c77aab7396ca3e5a7","E1","batch5","","17926","tol_tohand","","","","tol_peg_2","17926","17926","0","[[0,0,0],[1,0],[2]]","4","[[1,2,0],[3,0],[0]]","6","0","","","","","","5","","","","","","","","",""
"","","","","","single-stim-button","151","757807","0.0-2.0-28.3-1.3","6014213c77aab7396ca3e5a7","E1","batch5","","1124","tol_toboard","","","","tol_peg_1","1124","1124","0","[[3,0,0],[1,0],[2]]","4","[[1,2,0],[3,0],[0]]","6","0","","","","","","5","","","","","","","","",""
"","","","","","single-stim-button","152","768448","0.0-2.0-28.4-0.4","6014213c77aab7396ca3e5a7","E1","batch5","","10637","tol_tohand","","","","tol_peg_3","10637","10637","0","[[3,0,0],[1,0],[0]]","5","[[1,2,0],[3,0],[0]]","6","0","","","","","","5","","","","","","","","",""
"","","","","","single-stim-button","153","784981","0.0-2.0-28.4-1.4","6014213c77aab7396ca3e5a7","E1","batch5","","16528","tol_toboard","","","","tol_peg_1","16528","16528","0","[[3,2,0],[1,0],[0]]","5","[[1,2,0],[3,0],[0]]","6","0","","","","","","5","","","","","","","","",""
"","","","","","single-stim-button","154","788463","0.0-2.0-28.5-0.5","6014213c77aab7396ca3e5a7","E1","batch5","","3479","tol_tohand","","","","tol_peg_2","3479","3479","0","[[3,2,0],[0,0],[0]]","6","[[1,2,0],[3,0],[0]]","6","0","","","","","","5","","","","","","","","",""
"","","","","","single-stim-button","155","791712","0.0-2.0-28.5-1.5","6014213c77aab7396ca3e5a7","E1","batch5","","3246","tol_toboard","","","","tol_peg_3","3246","3246","0","[[3,2,0],[0,0],[1]]","6","[[1,2,0],[3,0],[0]]","6","0","","","","","","5","","","","","","","","",""
"","","","","","single-stim-button","156","794149","0.0-2.0-28.6-0.6","6014213c77aab7396ca3e5a7","E1","batch5","","2432","tol_tohand","","","","tol_peg_1","2432","2432","0","[[3,0,0],[0,0],[1]]","7","[[1,2,0],[3,0],[0]]","6","0","","","","","","5","","","","","","","","",""
"","","","","","single-stim-button","157","795902","0.0-2.0-28.6-1.6","6014213c77aab7396ca3e5a7","E1","batch5","","1749","tol_toboard","","","","tol_peg_2","1749","1749","0","[[3,0,0],[2,0],[1]]","7","[[1,2,0],[3,0],[0]]","6","0","","","","","","5","","","","","","","","",""
"","","","","","single-stim-button","158","797106","0.0-2.0-28.7-0.7","6014213c77aab7396ca3e5a7","E1","batch5","","1201","tol_tohand","","","","tol_peg_1","1201","1201","0","[[0,0,0],[2,0],[1]]","8","[[1,2,0],[3,0],[0]]","6","0","","","","","","5","","","","","","","","",""
"","","","","","single-stim-button","159","798292","0.0-2.0-28.7-1.7","6014213c77aab7396ca3e5a7","E1","batch5","","1182","tol_toboard","","","","tol_peg_2","1182","1182","0","[[0,0,0],[2,3],[1]]","8","[[1,2,0],[3,0],[0]]","6","0","","","","","","5","","","","","","","","",""
"","","","","","single-stim-button","160","800325","0.0-2.0-28.8-0.8","6014213c77aab7396ca3e5a7","E1","batch5","","2029","tol_tohand","","","","tol_peg_3","2029","2029","0","[[0,0,0],[2,3],[0]]","9","[[1,2,0],[3,0],[0]]","6","0","","","","","","5","","","","","","","","",""
"","","","","","single-stim-button","161","801618","0.0-2.0-28.8-1.8","6014213c77aab7396ca3e5a7","E1","batch5","","1290","tol_toboard","","","","tol_peg_1","1290","1290","0","[[1,0,0],[2,3],[0]]","9","[[1,2,0],[3,0],[0]]","6","0","","","","","","5","","","","","","","","",""
"","","","","","single-stim-button","162","804446","0.0-2.0-28.9-0.9","6014213c77aab7396ca3e5a7","E1","batch5","","2824","tol_tohand","","","","tol_peg_2","2824","2824","0","[[1,0,0],[2,0],[0]]","10","[[1,2,0],[3,0],[0]]","6","0","","","","","","5","","","","","","","","",""
"","","","","","single-stim-button","163","805494","0.0-2.0-28.9-1.9","6014213c77aab7396ca3e5a7","E1","batch5","","1045","tol_toboard","","","","tol_peg_3","1045","1045","0","[[1,0,0],[2,0],[3]]","10","[[1,2,0],[3,0],[0]]","6","0","","","","","","5","","","","","","","","",""
"","","","","","single-stim-button","164","806552","0.0-2.0-28.10-0.10","6014213c77aab7396ca3e5a7","E1","batch5","","1053","tol_tohand","","","","tol_peg_2","1053","1053","0","[[1,0,0],[0,0],[3]]","11","[[1,2,0],[3,0],[0]]","6","0","","","","","","5","","","","","","","","",""
"","","","","","single-stim-button","165","808390","0.0-2.0-28.10-1.10","6014213c77aab7396ca3e5a7","E1","batch5","","1834","tol_toboard","","","","tol_peg_1","1834","1834","0","[[1,2,0],[0,0],[3]]","11","[[1,2,0],[3,0],[0]]","6","0","","","","","","5","","","","","","","","",""
"","","","","","single-stim-button","166","810232","0.0-2.0-28.11-0.11","6014213c77aab7396ca3e5a7","E1","batch5","","1837","tol_tohand","","","","tol_peg_3","1837","1837","0","[[1,2,0],[0,0],[0]]","12","[[1,2,0],[3,0],[0]]","6","0","","","","","","5","","","","","","","","",""
"","","","","","single-stim-button","167","811191","0.0-2.0-28.11-1.11","6014213c77aab7396ca3e5a7","E1","batch5","","954","tol_toboard","","","","tol_peg_2","954","954","0","[[1,2,0],[3,0],[0]]","12","[[1,2,0],[3,0],[0]]","6","0","","","","","","5","","","","","","","","",""
"","","","","","poldrack-single-stim","168","812202","0.0-2.0-29.0","6014213c77aab7396ca3e5a7","E1","batch5","","-1","tol_feedback","","","true","","1000","1000","500","","","","","","-1","none","true","9090","88266","","","","","","","","","",""
"","","","","","html-button-response","169","813130","0.0-2.0-30.0","6014213c77aab7396ca3e5a7","E1","batch5","","924.0999999642372","tol_trial_num","<div class = centerbox><p class = center-block-text>problem <strong>8</strong> out of 25 problems</p></div>","0","","","","","","","","","","","","","","","","","","","","","","","","",""
"","","","","","single-stim-button","170","820160","0.0-2.0-31.0-0.0","6014213c77aab7396ca3e5a7","E1","batch5","","7024","tol_tohand","","","","tol_peg_3","7024","7024","0","[[0,0,0],[2,3],[0]]","1","[[1,2,0],[3,0],[0]]","7","0","","","","","","4","","","","","","","","",""
"","","","","","single-stim-button","171","821395","0.0-2.0-31.0-1.0","6014213c77aab7396ca3e5a7","E1","batch5","","1229","tol_toboard","","","","tol_peg_1","1229","1229","0","[[1,0,0],[2,3],[0]]","1","[[1,2,0],[3,0],[0]]","7","0","","","","","","4","","","","","","","","",""
"","","","","","single-stim-button","172","826266","0.0-2.0-31.1-0.1","6014213c77aab7396ca3e5a7","E1","batch5","","4868","tol_tohand","","","","tol_peg_2","4868","4868","0","[[1,0,0],[2,0],[0]]","2","[[1,2,0],[3,0],[0]]","7","0","","","","","","4","","","","","","","","",""
"","","","","","single-stim-button","173","827489","0.0-2.0-31.1-1.1","6014213c77aab7396ca3e5a7","E1","batch5","","1220","tol_toboard","","","","tol_peg_3","1220","1220","0","[[1,0,0],[2,0],[3]]","2","[[1,2,0],[3,0],[0]]","7","0","","","","","","4","","","","","","","","",""
"","","","","","single-stim-button","174","828301","0.0-2.0-31.2-0.2","6014213c77aab7396ca3e5a7","E1","batch5","","810","tol_tohand","","","","tol_peg_2","810","810","0","[[1,0,0],[0,0],[3]]","3","[[1,2,0],[3,0],[0]]","7","0","","","","","","4","","","","","","","","",""
"","","","","","single-stim-button","175","829506","0.0-2.0-31.2-1.2","6014213c77aab7396ca3e5a7","E1","batch5","","1202","tol_toboard","","","","tol_peg_1","1202","1202","0","[[1,2,0],[0,0],[3]]","3","[[1,2,0],[3,0],[0]]","7","0","","","","","","4","","","","","","","","",""
"","","","","","single-stim-button","176","830739","0.0-2.0-31.3-0.3","6014213c77aab7396ca3e5a7","E1","batch5","","1229","tol_tohand","","","","tol_peg_3","1229","1229","0","[[1,2,0],[0,0],[0]]","4","[[1,2,0],[3,0],[0]]","7","0","","","","","","4","","","","","","","","",""
"","","","","","single-stim-button","177","831521","0.0-2.0-31.3-1.3","6014213c77aab7396ca3e5a7","E1","batch5","","779","tol_toboard","","","","tol_peg_2","779","779","0","[[1,2,0],[3,0],[0]]","4","[[1,2,0],[3,0],[0]]","7","0","","","","","","4","","","","","","","","",""
"","","","","","poldrack-single-stim","178","832528","0.0-2.0-32.0","6014213c77aab7396ca3e5a7","E1","batch5","","-1","tol_feedback","","","true","","1000","1000","500","","","","","","-1","none","true","7024","13931","","","","","","","","","",""
"","","","","","html-button-response","179","833338","0.0-2.0-33.0","6014213c77aab7396ca3e5a7","E1","batch5","","805.3000000119209","tol_trial_num","<div class = centerbox><p class = center-block-text>problem <strong>9</strong> out of 25 problems</p></div>","0","","","","","","","","","","","","","","","","","","","","","","","","",""
"","","","","","single-stim-button","180","843737","0.0-2.0-34.0-0.0","6014213c77aab7396ca3e5a7","E1","batch5","","10395","tol_tohand","","","","tol_peg_1","10395","10395","0","[[3,0,0],[0,0],[1]]","1","[[2,1,0],[3,0],[0]]","8","0","","","","","","6","","","","","","","","",""
"","","","","","single-stim-button","181","849288","0.0-2.0-34.0-1.0","6014213c77aab7396ca3e5a7","E1","batch5","","5547","tol_toboard","","","","tol_peg_2","5547","5547","0","[[3,0,0],[2,0],[1]]","1","[[2,1,0],[3,0],[0]]","8","0","","","","","","6","","","","","","","","",""
"","","","","","single-stim-button","182","860091","0.0-2.0-34.1-0.1","6014213c77aab7396ca3e5a7","E1","batch5","","10800","tol_tohand","","","","tol_peg_1","10800","10800","0","[[0,0,0],[2,0],[1]]","2","[[2,1,0],[3,0],[0]]","8","0","","","","","","6","","","","","","","","",""
"","","","","","single-stim-button","183","862020","0.0-2.0-34.1-1.1","6014213c77aab7396ca3e5a7","E1","batch5","","1926","tol_toboard","","","","tol_peg_2","1926","1926","0","[[0,0,0],[2,3],[1]]","2","[[2,1,0],[3,0],[0]]","8","0","","","","","","6","","","","","","","","",""
"","","","","","single-stim-button","184","863420","0.0-2.0-34.2-0.2","6014213c77aab7396ca3e5a7","E1","batch5","","1397","tol_tohand","","","","tol_peg_3","1397","1397","0","[[0,0,0],[2,3],[0]]","3","[[2,1,0],[3,0],[0]]","8","0","","","","","","6","","","","","","","","",""
"","","","","","single-stim-button","185","871602","0.0-2.0-34.2-1.2","6014213c77aab7396ca3e5a7","E1","batch5","","8177","tol_toboard","","","","tol_peg_1","8177","8177","0","[[1,0,0],[2,3],[0]]","3","[[2,1,0],[3,0],[0]]","8","0","","","","","","6","","","","","","","","",""
"","","","","","single-stim-button","186","873626","0.0-2.0-34.3-0.3","6014213c77aab7396ca3e5a7","E1","batch5","","2020","tol_tohand","","","","tol_peg_2","2020","2020","0","[[1,0,0],[2,0],[0]]","4","[[2,1,0],[3,0],[0]]","8","0","","","","","","6","","","","","","","","",""
"","","","","","single-stim-button","187","874695","0.0-2.0-34.3-1.3","6014213c77aab7396ca3e5a7","E1","batch5","","1064","tol_toboard","","","","tol_peg_1","1064","1064","0","[[1,3,0],[2,0],[0]]","4","[[2,1,0],[3,0],[0]]","8","0","","","","","","6","","","","","","","","",""
"","","","","","single-stim-button","188","875986","0.0-2.0-34.4-0.4","6014213c77aab7396ca3e5a7","E1","batch5","","1287","tol_tohand","","","","tol_peg_2","1287","1287","0","[[1,3,0],[0,0],[0]]","5","[[2,1,0],[3,0],[0]]","8","0","","","","","","6","","","","","","","","",""
"","","","","","single-stim-button","189","877329","0.0-2.0-34.4-1.4","6014213c77aab7396ca3e5a7","E1","batch5","","1337","tol_toboard","","","","tol_peg_3","1337","1337","0","[[1,3,0],[0,0],[2]]","5","[[2,1,0],[3,0],[0]]","8","0","","","","","","6","","","","","","","","",""
"","","","","","single-stim-button","190","878973","0.0-2.0-34.5-0.5","6014213c77aab7396ca3e5a7","E1","batch5","","1639","tol_tohand","","","","tol_peg_1","1639","1639","0","[[1,0,0],[0,0],[2]]","6","[[2,1,0],[3,0],[0]]","8","0","","","","","","6","","","","","","","","",""
"","","","","","single-stim-button","191","880213","0.0-2.0-34.5-1.5","6014213c77aab7396ca3e5a7","E1","batch5","","1238","tol_toboard","","","","tol_peg_2","1238","1238","0","[[1,0,0],[3,0],[2]]","6","[[2,1,0],[3,0],[0]]","8","0","","","","","","6","","","","","","","","",""
"","","","","","single-stim-button","192","881202","0.0-2.0-34.6-0.6","6014213c77aab7396ca3e5a7","E1","batch5","","986","tol_tohand","","","","tol_peg_1","986","986","0","[[0,0,0],[3,0],[2]]","7","[[2,1,0],[3,0],[0]]","8","0","","","","","","6","","","","","","","","",""
"","","","","","single-stim-button","193","882123","0.0-2.0-34.6-1.6","6014213c77aab7396ca3e5a7","E1","batch5","","916","tol_toboard","","","","tol_peg_2","916","916","0","[[0,0,0],[3,1],[2]]","7","[[2,1,0],[3,0],[0]]","8","0","","","","","","6","","","","","","","","",""
"","","","","","single-stim-button","194","884138","0.0-2.0-34.7-0.7","6014213c77aab7396ca3e5a7","E1","batch5","","2012","tol_tohand","","","","tol_peg_3","2012","2012","0","[[0,0,0],[3,1],[0]]","8","[[2,1,0],[3,0],[0]]","8","0","","","","","","6","","","","","","","","",""
"","","","","","single-stim-button","195","885283","0.0-2.0-34.7-1.7","6014213c77aab7396ca3e5a7","E1","batch5","","1142","tol_toboard","","","","tol_peg_1","1142","1142","0","[[2,0,0],[3,1],[0]]","8","[[2,1,0],[3,0],[0]]","8","0","","","","","","6","","","","","","","","",""
"","","","","","single-stim-button","196","887309","0.0-2.0-34.8-0.8","6014213c77aab7396ca3e5a7","E1","batch5","","2023","tol_tohand","","","","tol_peg_2","2023","2023","0","[[2,0,0],[3,0],[0]]","9","[[2,1,0],[3,0],[0]]","8","0","","","","","","6","","","","","","","","",""
"","","","","","single-stim-button","197","888241","0.0-2.0-34.8-1.8","6014213c77aab7396ca3e5a7","E1","batch5","","928","tol_toboard","","","","tol_peg_1","928","928","0","[[2,1,0],[3,0],[0]]","9","[[2,1,0],[3,0],[0]]","8","0","","","","","","6","","","","","","","","",""
"","","","","","poldrack-single-stim","198","889249","0.0-2.0-35.0","6014213c77aab7396ca3e5a7","E1","batch5","","-1","tol_feedback","","","true","","1000","1000","500","","","","","","-1","none","true","10395","32559","","","","","","","","","",""
"","","","","","html-button-response","199","890065","0.0-2.0-36.0","6014213c77aab7396ca3e5a7","E1","batch5","","811.6000000238419","tol_trial_num","<div class = centerbox><p class = center-block-text>problem <strong>10</strong> out of 25 problems</p></div>","0","","","","","","","","","","","","","","","","","","","","","","","","",""
"","","","","","single-stim-button","200","895782","0.0-2.0-37.0-0.0","6014213c77aab7396ca3e5a7","E1","batch5","","5713","tol_tohand","","","","tol_peg_2","5713","5713","0","[[3,0,0],[0,0],[2]]","1","[[3,0,0],[2,1],[0]]","9","0","","","","","","3","","","","","","","","",""
"","","","","","single-stim-button","201","898200","0.0-2.0-37.0-1.0","6014213c77aab7396ca3e5a7","E1","batch5","","2414","tol_toboard","","","","tol_peg_1","2414","2414","0","[[3,1,0],[0,0],[2]]","1","[[3,0,0],[2,1],[0]]","9","0","","","","","","3","","","","","","","","",""
"","","","","","single-stim-button","202","899217","0.0-2.0-37.1-0.1","6014213c77aab7396ca3e5a7","E1","batch5","","1014","tol_tohand","","","","tol_peg_3","1014","1014","0","[[3,1,0],[0,0],[0]]","2","[[3,0,0],[2,1],[0]]","9","0","","","","","","3","","","","","","","","",""
"","","","","","single-stim-button","203","900138","0.0-2.0-37.1-1.1","6014213c77aab7396ca3e5a7","E1","batch5","","918","tol_toboard","","","","tol_peg_2","918","918","0","[[3,1,0],[2,0],[0]]","2","[[3,0,0],[2,1],[0]]","9","0","","","","","","3","","","","","","","","",""
"","","","","","single-stim-button","204","901264","0.0-2.0-37.2-0.2","6014213c77aab7396ca3e5a7","E1","batch5","","1122","tol_tohand","","","","tol_peg_1","1122","1122","0","[[3,0,0],[2,0],[0]]","3","[[3,0,0],[2,1],[0]]","9","0","","","","","","3","","","","","","","","",""
"","","","","","single-stim-button","205","902399","0.0-2.0-37.2-1.2","6014213c77aab7396ca3e5a7","E1","batch5","","1132","tol_toboard","","","","tol_peg_2","1132","1132","0","[[3,0,0],[2,1],[0]]","3","[[3,0,0],[2,1],[0]]","9","0","","","","","","3","","","","","","","","",""
"","","","","","poldrack-single-stim","206","903409","0.0-2.0-38.0","6014213c77aab7396ca3e5a7","E1","batch5","","-1","tol_feedback","","","true","","1000","1000","500","","","","","","-1","none","true","5713","7849","","","","","","","","","",""
"","","","","","html-button-response","207","904319","0.0-2.0-39.0","6014213c77aab7396ca3e5a7","E1","batch5","","906.6999999880791","tol_trial_num","<div class = centerbox><p class = center-block-text>problem <strong>11</strong> out of 25 problems</p></div>","0","","","","","","","","","","","","","","","","","","","","","","","","",""
"","","","","","single-stim-button","208","911853","0.0-2.0-40.0-0.0","6014213c77aab7396ca3e5a7","E1","batch5","","7530","tol_tohand","","","","tol_peg_2","7530","7530","0","[[1,2,0],[0,0],[0]]","1","[[2,0,0],[1,3],[0]]","10","0","","","","","","6","","","","","","","","",""
"","","","","","single-stim-button","209","913056","0.0-2.0-40.0-1.0","6014213c77aab7396ca3e5a7","E1","batch5","","1200","tol_toboard","","","","tol_peg_3","1200","1200","0","[[1,2,0],[0,0],[3]]","1","[[2,0,0],[1,3],[0]]","10","0","","","","","","6","","","","","","","","",""
"","","","","","single-stim-button","210","925607","0.0-2.0-40.1-0.1","6014213c77aab7396ca3e5a7","E1","batch5","","12547","tol_tohand","","","","tol_peg_1","12547","12547","0","[[1,0,0],[0,0],[3]]","2","[[2,0,0],[1,3],[0]]","10","0","","","","","","6","","","","","","","","",""
"","","","","","single-stim-button","211","928426","0.0-2.0-40.1-1.1","6014213c77aab7396ca3e5a7","E1","batch5","","2814","tol_toboard","","","","tol_peg_2","2814","2814","0","[[1,0,0],[2,0],[3]]","2","[[2,0,0],[1,3],[0]]","10","0","","","","","","6","","","","","","","","",""
"","","","","","single-stim-button","212","930411","0.0-2.0-40.2-0.2","6014213c77aab7396ca3e5a7","E1","batch5","","1982","tol_tohand","","","","tol_peg_3","1982","1982","0","[[1,0,0],[2,0],[0]]","3","[[2,0,0],[1,3],[0]]","10","0","","","","","","6","","","","","","","","",""
"","","","","","single-stim-button","213","934200","0.0-2.0-40.2-1.2","6014213c77aab7396ca3e5a7","E1","batch5","","3786","tol_toboard","","","","tol_peg_2","3786","3786","0","[[1,0,0],[2,3],[0]]","3","[[2,0,0],[1,3],[0]]","10","0","","","","","","6","","","","","","","","",""
"","","","","","single-stim-button","214","935285","0.0-2.0-40.3-0.3","6014213c77aab7396ca3e5a7","E1","batch5","","1081","tol_tohand","","","","tol_peg_1","1081","1081","0","[[0,0,0],[2,3],[0]]","4","[[2,0,0],[1,3],[0]]","10","0","","","","","","6","","","","","","","","",""
"","","","","","single-stim-button","215","936609","0.0-2.0-40.3-1.3","6014213c77aab7396ca3e5a7","E1","batch5","","1319","tol_toboard","","","","tol_peg_3","1319","1319","0","[[0,0,0],[2,3],[1]]","4","[[2,0,0],[1,3],[0]]","10","0","","","","","","6","","","","","","","","",""
"","","","","","single-stim-button","216","937791","0.0-2.0-40.4-0.4","6014213c77aab7396ca3e5a7","E1","batch5","","1178","tol_tohand","","","","tol_peg_2","1178","1178","0","[[0,0,0],[2,0],[1]]","5","[[2,0,0],[1,3],[0]]","10","0","","","","","","6","","","","","","","","",""
"","","","","","single-stim-button","217","938818","0.0-2.0-40.4-1.4","6014213c77aab7396ca3e5a7","E1","batch5","","1024","tol_toboard","","","","tol_peg_1","1024","1024","0","[[3,0,0],[2,0],[1]]","5","[[2,0,0],[1,3],[0]]","10","0","","","","","","6","","","","","","","","",""
"","","","","","single-stim-button","218","940092","0.0-2.0-40.5-0.5","6014213c77aab7396ca3e5a7","E1","batch5","","1269","tol_tohand","","","","tol_peg_2","1269","1269","0","[[3,0,0],[0,0],[1]]","6","[[2,0,0],[1,3],[0]]","10","0","","","","","","6","","","","","","","","",""
"","","","","","single-stim-button","219","941148","0.0-2.0-40.5-1.5","6014213c77aab7396ca3e5a7","E1","batch5","","1051","tol_toboard","","","","tol_peg_1","1051","1051","0","[[3,2,0],[0,0],[1]]","6","[[2,0,0],[1,3],[0]]","10","0","","","","","","6","","","","","","","","",""
"","","","","","single-stim-button","220","942059","0.0-2.0-40.6-0.6","6014213c77aab7396ca3e5a7","E1","batch5","","908","tol_tohand","","","","tol_peg_3","908","908","0","[[3,2,0],[0,0],[0]]","7","[[2,0,0],[1,3],[0]]","10","0","","","","","","6","","","","","","","","",""
"","","","","","single-stim-button","221","943029","0.0-2.0-40.6-1.6","6014213c77aab7396ca3e5a7","E1","batch5","","965","tol_toboard","","","","tol_peg_2","965","965","0","[[3,2,0],[1,0],[0]]","7","[[2,0,0],[1,3],[0]]","10","0","","","","","","6","","","","","","","","",""
"","","","","","single-stim-button","222","944680","0.0-2.0-40.7-0.7","6014213c77aab7396ca3e5a7","E1","batch5","","1648","tol_tohand","","","","tol_peg_1","1648","1648","0","[[3,0,0],[1,0],[0]]","8","[[2,0,0],[1,3],[0]]","10","0","","","","","","6","","","","","","","","",""
"","","","","","single-stim-button","223","946015","0.0-2.0-40.7-1.7","6014213c77aab7396ca3e5a7","E1","batch5","","1333","tol_toboard","","","","tol_peg_3","1333","1333","0","[[3,0,0],[1,0],[2]]","8","[[2,0,0],[1,3],[0]]","10","0","","","","","","6","","","","","","","","",""
"","","","","","single-stim-button","224","947343","0.0-2.0-40.8-0.8","6014213c77aab7396ca3e5a7","E1","batch5","","1325","tol_tohand","","","","tol_peg_1","1325","1325","0","[[0,0,0],[1,0],[2]]","9","[[2,0,0],[1,3],[0]]","10","0","","","","","","6","","","","","","","","",""
"","","","","","single-stim-button","225","948392","0.0-2.0-40.8-1.8","6014213c77aab7396ca3e5a7","E1","batch5","","1046","tol_toboard","","","","tol_peg_2","1046","1046","0","[[0,0,0],[1,3],[2]]","9","[[2,0,0],[1,3],[0]]","10","0","","","","","","6","","","","","","","","",""
"","","","","","single-stim-button","226","949665","0.0-2.0-40.9-0.9","6014213c77aab7396ca3e5a7","E1","batch5","","1269","tol_tohand","","","","tol_peg_3","1269","1269","0","[[0,0,0],[1,3],[0]]","10","[[2,0,0],[1,3],[0]]","10","0","","","","","","6","","","","","","","","",""
"","","","","","single-stim-button","227","950439","0.0-2.0-40.9-1.9","6014213c77aab7396ca3e5a7","E1","batch5","","771","tol_toboard","","","","tol_peg_1","771","771","0","[[2,0,0],[1,3],[0]]","10","[[2,0,0],[1,3],[0]]","10","0","","","","","","6","","","","","","","","",""
"","","","","","poldrack-single-stim","228","951449","0.0-2.0-41.0","6014213c77aab7396ca3e5a7","E1","batch5","","-1","tol_feedback","","","true","","1000","1000","500","","","","","","-1","none","true","7530","30737","","","","","","","","","",""
"","","","","","html-button-response","229","952280","0.0-2.0-42.0","6014213c77aab7396ca3e5a7","E1","batch5","","827.4000000357628","tol_trial_num","<div class = centerbox><p class = center-block-text>problem <strong>12</strong> out of 25 problems</p></div>","0","","","","","","","","","","","","","","","","","","","","","","","","",""
"","","","","","single-stim-button","230","957633","0.0-2.0-43.0-0.0","6014213c77aab7396ca3e5a7","E1","batch5","","5351","tol_tohand","","","","tol_peg_1","5351","5351","0","[[1,0,0],[3,0],[0]]","1","[[2,3,0],[0,0],[1]]","11","0","","","","","","4","","","","","","","","",""
"","","","","","single-stim-button","231","958789","0.0-2.0-43.0-1.0","6014213c77aab7396ca3e5a7","E1","batch5","","1153","tol_toboard","","","","tol_peg_2","1153","1153","0","[[1,0,0],[3,2],[0]]","1","[[2,3,0],[0,0],[1]]","11","0","","","","","","4","","","","","","","","",""
"","","","","","single-stim-button","232","959689","0.0-2.0-43.1-0.1","6014213c77aab7396ca3e5a7","E1","batch5","","896","tol_tohand","","","","tol_peg_1","896","896","0","[[0,0,0],[3,2],[0]]","2","[[2,3,0],[0,0],[1]]","11","0","","","","","","4","","","","","","","","",""
"","","","","","single-stim-button","233","961294","0.0-2.0-43.1-1.1","6014213c77aab7396ca3e5a7","E1","batch5","","1601","tol_toboard","","","","tol_peg_3","1601","1601","0","[[0,0,0],[3,2],[1]]","2","[[2,3,0],[0,0],[1]]","11","0","","","","","","4","","","","","","","","",""
"","","","","","single-stim-button","234","967538","0.0-2.0-43.2-0.2","6014213c77aab7396ca3e5a7","E1","batch5","","6240","tol_tohand","","","","tol_peg_2","6240","6240","0","[[0,0,0],[3,0],[1]]","3","[[2,3,0],[0,0],[1]]","11","0","","","","","","4","","","","","","","","",""
"","","","","","single-stim-button","235","971942","0.0-2.0-43.2-1.2","6014213c77aab7396ca3e5a7","E1","batch5","","4400","tol_toboard","","","","tol_peg_1","4400","4400","0","[[2,0,0],[3,0],[1]]","3","[[2,3,0],[0,0],[1]]","11","0","","","","","","4","","","","","","","","",""
"","","","","","single-stim-button","236","972666","0.0-2.0-43.3-0.3","6014213c77aab7396ca3e5a7","E1","batch5","","722","tol_tohand","","","","tol_peg_2","722","722","0","[[2,0,0],[0,0],[1]]","4","[[2,3,0],[0,0],[1]]","11","0","","","","","","4","","","","","","","","",""
"","","","","","single-stim-button","237","973900","0.0-2.0-43.3-1.3","6014213c77aab7396ca3e5a7","E1","batch5","","1229","tol_toboard","","","","tol_peg_1","1229","1229","0","[[2,3,0],[0,0],[1]]","4","[[2,3,0],[0,0],[1]]","11","0","","","","","","4","","","","","","","","",""
"","","","","","poldrack-single-stim","238","974904","0.0-2.0-44.0","6014213c77aab7396ca3e5a7","E1","batch5","","-1","tol_feedback","","","true","","1000","1000","500","","","","","","-1","none","true","5351","13209","","","","","","","","","",""
"","","","","","html-button-response","239","975577","0.0-2.0-45.0","6014213c77aab7396ca3e5a7","E1","batch5","","669.4000000357628","tol_trial_num","<div class = centerbox><p class = center-block-text>problem <strong>13</strong> out of 25 problems</p></div>","0","","","","","","","","","","","","","","","","","","","","","","","","",""
"","","","","","single-stim-button","240","994765","0.0-2.0-46.0-0.0","6014213c77aab7396ca3e5a7","E1","batch5","","19184","tol_tohand","","","","tol_peg_2","19184","19184","0","[[1,2,0],[0,0],[0]]","1","[[0,0,0],[2,3],[1]]","12","0","","","","","","4","","","","","","","","",""
"","","","","","single-stim-button","241","995931","0.0-2.0-46.0-1.0","6014213c77aab7396ca3e5a7","E1","batch5","","1161","tol_toboard","","","","tol_peg_3","1161","1161","0","[[1,2,0],[0,0],[3]]","1","[[0,0,0],[2,3],[1]]","12","0","","","","","","4","","","","","","","","",""
"","","","","","single-stim-button","242","998445","0.0-2.0-46.1-0.1","6014213c77aab7396ca3e5a7","E1","batch5","","2510","tol_tohand","","","","tol_peg_1","2510","2510","0","[[1,0,0],[0,0],[3]]","2","[[0,0,0],[2,3],[1]]","12","0","","","","","","4","","","","","","","","",""
"","","","","","single-stim-button","243","999787","0.0-2.0-46.1-1.1","6014213c77aab7396ca3e5a7","E1","batch5","","1337","tol_toboard","","","","tol_peg_2","1337","1337","0","[[1,0,0],[2,0],[3]]","2","[[0,0,0],[2,3],[1]]","12","0","","","","","","4","","","","","","","","",""
"","","","","","single-stim-button","244","1001108","0.0-2.0-46.2-0.2","6014213c77aab7396ca3e5a7","E1","batch5","","1317","tol_tohand","","","","tol_peg_3","1317","1317","0","[[1,0,0],[2,0],[0]]","3","[[0,0,0],[2,3],[1]]","12","0","","","","","","4","","","","","","","","",""
"","","","","","single-stim-button","245","1001900","0.0-2.0-46.2-1.2","6014213c77aab7396ca3e5a7","E1","batch5","","788","tol_toboard","","","","tol_peg_2","788","788","0","[[1,0,0],[2,3],[0]]","3","[[0,0,0],[2,3],[1]]","12","0","","","","","","4","","","","","","","","",""
"","","","","","single-stim-button","246","1002782","0.0-2.0-46.3-0.3","6014213c77aab7396ca3e5a7","E1","batch5","","877","tol_tohand","","","","tol_peg_1","877","877","0","[[0,0,0],[2,3],[0]]","4","[[0,0,0],[2,3],[1]]","12","0","","","","","","4","","","","","","","","",""
"","","","","","single-stim-button","247","1004121","0.0-2.0-46.3-1.3","6014213c77aab7396ca3e5a7","E1","batch5","","1335","tol_toboard","","","","tol_peg_3","1335","1335","0","[[0,0,0],[2,3],[1]]","4","[[0,0,0],[2,3],[1]]","12","0","","","","","","4","","","","","","","","",""
"","","","","","poldrack-single-stim","248","1005126","0.0-2.0-47.0","6014213c77aab7396ca3e5a7","E1","batch5","","-1","tol_feedback","","","true","","1000","1000","500","","","","","","-1","none","true","19184","23888","","","","","","","","","",""
"","","","","","html-button-response","249","1010079","0.0-2.0-48.0","6014213c77aab7396ca3e5a7","E1","batch5","","4947.700000047684","attention_check","<p class = block-text>How many balls are in your board<br></p>","1","true","","","","","","","","","","","","","","","","","","","","","","","",""
"","","","","","html-button-response","250","1012505","0.0-2.0-49.0","6014213c77aab7396ca3e5a7","E1","batch5","","2420.800000011921","tol_trial_num","<div class = centerbox><p class = center-block-text>problem <strong>14</strong> out of 25 problems</p></div>","0","","","","","","","","","","","","","","","","","","","","","","","","",""
"","","","","","single-stim-button","251","1019302","0.0-2.0-50.0-0.0","6014213c77aab7396ca3e5a7","E1","batch5","","6793","tol_tohand","","","","tol_peg_1","6793","6793","0","[[2,0,0],[3,0],[0]]","1","[[1,2,0],[3,0],[0]]","13","0","","","","","","4","","","","","","","","",""
"","","","","","single-stim-button","252","1020359","0.0-2.0-50.0-1.0","6014213c77aab7396ca3e5a7","E1","batch5","","1052","tol_toboard","","","","tol_peg_3","1052","1052","0","[[2,0,0],[3,0],[1]]","1","[[1,2,0],[3,0],[0]]","13","0","","","","","","4","","","","","","","","",""
"","","","","","single-stim-button","253","1021503","0.0-2.0-50.1-0.1","6014213c77aab7396ca3e5a7","E1","batch5","","1142","tol_tohand","","","","tol_peg_1","1142","1142","0","[[0,0,0],[3,0],[1]]","2","[[1,2,0],[3,0],[0]]","13","0","","","","","","4","","","","","","","","",""
"","","","","","single-stim-button","254","1022483","0.0-2.0-50.1-1.1","6014213c77aab7396ca3e5a7","E1","batch5","","978","tol_toboard","","","","tol_peg_2","978","978","0","[[0,0,0],[3,2],[1]]","2","[[1,2,0],[3,0],[0]]","13","0","","","","","","4","","","","","","","","",""
"","","","","","single-stim-button","255","1023686","0.0-2.0-50.2-0.2","6014213c77aab7396ca3e5a7","E1","batch5","","1199","tol_tohand","","","","tol_peg_3","1199","1199","0","[[0,0,0],[3,2],[0]]","3","[[1,2,0],[3,0],[0]]","13","0","","","","","","4","","","","","","","","",""
"","","","","","single-stim-button","256","1024596","0.0-2.0-50.2-1.2","6014213c77aab7396ca3e5a7","E1","batch5","","908","tol_toboard","","","","tol_peg_1","908","908","0","[[1,0,0],[3,2],[0]]","3","[[1,2,0],[3,0],[0]]","13","0","","","","","","4","","","","","","","","",""
"","","","","","single-stim-button","257","1025664","0.0-2.0-50.3-0.3","6014213c77aab7396ca3e5a7","E1","batch5","","1064","tol_tohand","","","","tol_peg_2","1064","1064","0","[[1,0,0],[3,0],[0]]","4","[[1,2,0],[3,0],[0]]","13","0","","","","","","4","","","","","","","","",""
"","","","","","single-stim-button","258","1026769","0.0-2.0-50.3-1.3","6014213c77aab7396ca3e5a7","E1","batch5","","1102","tol_toboard","","","","tol_peg_1","1102","1102","0","[[1,2,0],[3,0],[0]]","4","[[1,2,0],[3,0],[0]]","13","0","","","","","","4","","","","","","","","",""
"","","","","","poldrack-single-stim","259","1027778","0.0-2.0-51.0","6014213c77aab7396ca3e5a7","E1","batch5","","-1","tol_feedback","","","true","","1000","1000","500","","","","","","-1","none","true","6793","10198","","","","","","","","","",""
"","","","","","html-button-response","260","1028604","0.0-2.0-52.0","6014213c77aab7396ca3e5a7","E1","batch5","","819.5","tol_trial_num","<div class = centerbox><p class = center-block-text>problem <strong>15</strong> out of 25 problems</p></div>","0","","","","","","","","","","","","","","","","","","","","","","","","",""
"","","","","","single-stim-button","261","1032413","0.0-2.0-53.0-0.0","6014213c77aab7396ca3e5a7","E1","batch5","","3804","tol_tohand","","","","tol_peg_1","3804","3804","0","[[1,0,0],[3,0],[0]]","1","[[2,0,0],[3,0],[1]]","14","0","","","","","","3","","","","","","","","",""
"","","","","","single-stim-button","262","1033665","0.0-2.0-53.0-1.0","6014213c77aab7396ca3e5a7","E1","batch5","","1247","tol_toboard","","","","tol_peg_2","1247","1247","0","[[1,0,0],[3,2],[0]]","1","[[2,0,0],[3,0],[1]]","14","0","","","","","","3","","","","","","","","",""
"","","","","","single-stim-button","263","1034711","0.0-2.0-53.1-0.1","6014213c77aab7396ca3e5a7","E1","batch5","","1043","tol_tohand","","","","tol_peg_1","1043","1043","0","[[0,0,0],[3,2],[0]]","2","[[2,0,0],[3,0],[1]]","14","0","","","","","","3","","","","","","","","",""
"","","","","","single-stim-button","264","1036424","0.0-2.0-53.1-1.1","6014213c77aab7396ca3e5a7","E1","batch5","","1708","tol_toboard","","","","tol_peg_3","1708","1708","0","[[0,0,0],[3,2],[1]]","2","[[2,0,0],[3,0],[1]]","14","0","","","","","","3","","","","","","","","",""
"","","","","","single-stim-button","265","1037512","0.0-2.0-53.2-0.2","6014213c77aab7396ca3e5a7","E1","batch5","","1083","tol_tohand","","","","tol_peg_2","1083","1083","0","[[0,0,0],[3,0],[1]]","3","[[2,0,0],[3,0],[1]]","14","0","","","","","","3","","","","","","","","",""
"","","","","","single-stim-button","266","1038677","0.0-2.0-53.2-1.2","6014213c77aab7396ca3e5a7","E1","batch5","","1160","tol_toboard","","","","tol_peg_1","1160","1160","0","[[2,0,0],[3,0],[1]]","3","[[2,0,0],[3,0],[1]]","14","0","","","","","","3","","","","","","","","",""
"","","","","","poldrack-single-stim","267","1039689","0.0-2.0-54.0","6014213c77aab7396ca3e5a7","E1","batch5","","-1","tol_feedback","","","true","","1000","1000","500","","","","","","-1","none","true","3804","5930","","","","","","","","","",""
"","","","","","html-button-response","268","1040538","0.0-2.0-55.0","6014213c77aab7396ca3e5a7","E1","batch5","","845.3000000119209","tol_trial_num","<div class = centerbox><p class = center-block-text>problem <strong>16</strong> out of 25 problems</p></div>","0","","","","","","","","","","","","","","","","","","","","","","","","",""
"","","","","","single-stim-button","269","1049723","0.0-2.0-56.0-0.0","6014213c77aab7396ca3e5a7","E1","batch5","","9182","tol_tohand","","","","tol_peg_2","9182","9182","0","[[0,0,0],[2,0],[1]]","1","[[2,3,0],[1,0],[0]]","15","0","","","","","","7","","","","","","","","",""
"","","","","","single-stim-button","270","1059059","0.0-2.0-56.0-1.0","6014213c77aab7396ca3e5a7","E1","batch5","","9334","tol_toboard","","","","tol_peg_1","9334","9334","0","[[3,0,0],[2,0],[1]]","1","[[2,3,0],[1,0],[0]]","15","0","","","","","","7","","","","","","","","",""
"","","","","","single-stim-button","271","1064914","0.0-2.0-56.1-0.1","6014213c77aab7396ca3e5a7","E1","batch5","","5851","tol_tohand","","","","tol_peg_3","5851","5851","0","[[3,0,0],[2,0],[0]]","2","[[2,3,0],[1,0],[0]]","15","0","","","","","","7","","","","","","","","",""
"","","","","","single-stim-button","272","1066528","0.0-2.0-56.1-1.1","6014213c77aab7396ca3e5a7","E1","batch5","","1610","tol_toboard","","","","tol_peg_1","1610","1610","0","[[3,1,0],[2,0],[0]]","2","[[2,3,0],[1,0],[0]]","15","0","","","","","","7","","","","","","","","",""
"","","","","","single-stim-button","273","1067840","0.0-2.0-56.2-0.2","6014213c77aab7396ca3e5a7","E1","batch5","","1307","tol_tohand","","","","tol_peg_2","1307","1307","0","[[3,1,0],[0,0],[0]]","3","[[2,3,0],[1,0],[0]]","15","0","","","","","","7","","","","","","","","",""
"","","","","","single-stim-button","274","1069160","0.0-2.0-56.2-1.2","6014213c77aab7396ca3e5a7","E1","batch5","","1317","tol_toboard","","","","tol_peg_3","1317","1317","0","[[3,1,0],[0,0],[2]]","3","[[2,3,0],[1,0],[0]]","15","0","","","","","","7","","","","","","","","",""
"","","","","","single-stim-button","275","1072184","0.0-2.0-56.3-0.3","6014213c77aab7396ca3e5a7","E1","batch5","","3020","tol_tohand","","","","tol_peg_1","3020","3020","0","[[3,0,0],[0,0],[2]]","4","[[2,3,0],[1,0],[0]]","15","0","","","","","","7","","","","","","","","",""
"","","","","","single-stim-button","276","1073328","0.0-2.0-56.3-1.3","6014213c77aab7396ca3e5a7","E1","batch5","","1141","tol_toboard","","","","tol_peg_2","1141","1141","0","[[3,0,0],[1,0],[2]]","4","[[2,3,0],[1,0],[0]]","15","0","","","","","","7","","","","","","","","",""
"","","","","","single-stim-button","277","1074376","0.0-2.0-56.4-0.4","6014213c77aab7396ca3e5a7","E1","batch5","","1045","tol_tohand","","","","tol_peg_1","1045","1045","0","[[0,0,0],[1,0],[2]]","5","[[2,3,0],[1,0],[0]]","15","0","","","","","","7","","","","","","","","",""
"","","","","","single-stim-button","278","1075413","0.0-2.0-56.4-1.4","6014213c77aab7396ca3e5a7","E1","batch5","","1034","tol_toboard","","","","tol_peg_2","1034","1034","0","[[0,0,0],[1,3],[2]]","5","[[2,3,0],[1,0],[0]]","15","0","","","","","","7","","","","","","","","",""
"","","","","","single-stim-button","279","1076264","0.0-2.0-56.5-0.5","6014213c77aab7396ca3e5a7","E1","batch5","","848","tol_tohand","","","","tol_peg_3","848","848","0","[[0,0,0],[1,3],[0]]","6","[[2,3,0],[1,0],[0]]","15","0","","","","","","7","","","","","","","","",""
"","","","","","single-stim-button","280","1077584","0.0-2.0-56.5-1.5","6014213c77aab7396ca3e5a7","E1","batch5","","1318","tol_toboard","","","","tol_peg_1","1318","1318","0","[[2,0,0],[1,3],[0]]","6","[[2,3,0],[1,0],[0]]","15","0","","","","","","7","","","","","","","","",""
"","","","","","single-stim-button","281","1078965","0.0-2.0-56.6-0.6","6014213c77aab7396ca3e5a7","E1","batch5","","1378","tol_tohand","","","","tol_peg_2","1378","1378","0","[[2,0,0],[1,0],[0]]","7","[[2,3,0],[1,0],[0]]","15","0","","","","","","7","","","","","","","","",""
"","","","","","single-stim-button","282","1080002","0.0-2.0-56.6-1.6","6014213c77aab7396ca3e5a7","E1","batch5","","1035","tol_toboard","","","","tol_peg_1","1035","1035","0","[[2,3,0],[1,0],[0]]","7","[[2,3,0],[1,0],[0]]","15","0","","","","","","7","","","","","","","","",""
"","","","","","poldrack-single-stim","283","1081008","0.0-2.0-57.0","6014213c77aab7396ca3e5a7","E1","batch5","","-1","tol_feedback","","","true","","1000","1000","500","","","","","","-1","none","true","9182","22631","","","","","","","","","",""
"","","","","","html-button-response","284","1081956","0.0-2.0-58.0","6014213c77aab7396ca3e5a7","E1","batch5","","944.8000000119209","tol_trial_num","<div class = centerbox><p class = center-block-text>problem <strong>17</strong> out of 25 problems</p></div>","0","","","","","","","","","","","","","","","","","","","","","","","","",""
"","","","","","single-stim-button","285","1087533","0.0-2.0-59.0-0.0","6014213c77aab7396ca3e5a7","E1","batch5","","5574","tol_tohand","","","","tol_peg_2","5574","5574","0","[[1,2,0],[0,0],[0]]","1","[[3,1,0],[2,0],[0]]","16","0","","","","","","5","","","","","","","","",""
"","","","","","single-stim-button","286","1088531","0.0-2.0-59.0-1.0","6014213c77aab7396ca3e5a7","E1","batch5","","995","tol_toboard","","","","tol_peg_3","995","995","0","[[1,2,0],[0,0],[3]]","1","[[3,1,0],[2,0],[0]]","16","0","","","","","","5","","","","","","","","",""
"","","","","","single-stim-button","287","1089734","0.0-2.0-59.1-0.1","6014213c77aab7396ca3e5a7","E1","batch5","","1199","tol_tohand","","","","tol_peg_1","1199","1199","0","[[1,0,0],[0,0],[3]]","2","[[3,1,0],[2,0],[0]]","16","0","","","","","","5","","","","","","","","",""
"","","","","","single-stim-button","288","1090772","0.0-2.0-59.1-1.1","6014213c77aab7396ca3e5a7","E1","batch5","","1033","tol_toboard","","","","tol_peg_2","1033","1033","0","[[1,0,0],[2,0],[3]]","2","[[3,1,0],[2,0],[0]]","16","0","","","","","","5","","","","","","","","",""
"","","","","","single-stim-button","289","1094384","0.0-2.0-59.2-0.2","6014213c77aab7396ca3e5a7","E1","batch5","","3608","tol_tohand","","","","tol_peg_1","3608","3608","0","[[0,0,0],[2,0],[3]]","3","[[3,1,0],[2,0],[0]]","16","0","","","","","","5","","","","","","","","",""
"","","","","","single-stim-button","290","1095147","0.0-2.0-59.2-1.2","6014213c77aab7396ca3e5a7","E1","batch5","","759","tol_toboard","","","","tol_peg_2","759","759","0","[[0,0,0],[2,1],[3]]","3","[[3,1,0],[2,0],[0]]","16","0","","","","","","5","","","","","","","","",""
"","","","","","single-stim-button","291","1096116","0.0-2.0-59.3-0.3","6014213c77aab7396ca3e5a7","E1","batch5","","966","tol_tohand","","","","tol_peg_3","966","966","0","[[0,0,0],[2,1],[0]]","4","[[3,1,0],[2,0],[0]]","16","0","","","","","","5","","","","","","","","",""
"","","","","","single-stim-button","292","1097104","0.0-2.0-59.3-1.3","6014213c77aab7396ca3e5a7","E1","batch5","","984","tol_toboard","","","","tol_peg_1","984","984","0","[[3,0,0],[2,1],[0]]","4","[[3,1,0],[2,0],[0]]","16","0","","","","","","5","","","","","","","","",""
"","","","","","single-stim-button","293","1098250","0.0-2.0-59.4-0.4","6014213c77aab7396ca3e5a7","E1","batch5","","1142","tol_tohand","","","","tol_peg_2","1142","1142","0","[[3,0,0],[2,0],[0]]","5","[[3,1,0],[2,0],[0]]","16","0","","","","","","5","","","","","","","","",""
"","","","","","single-stim-button","294","1099062","0.0-2.0-59.4-1.4","6014213c77aab7396ca3e5a7","E1","batch5","","808","tol_toboard","","","","tol_peg_1","808","808","0","[[3,1,0],[2,0],[0]]","5","[[3,1,0],[2,0],[0]]","16","0","","","","","","5","","","","","","","","",""
"","","","","","poldrack-single-stim","295","1100073","0.0-2.0-60.0","6014213c77aab7396ca3e5a7","E1","batch5","","-1","tol_feedback","","","true","","1000","1000","500","","","","","","-1","none","true","5574","12489","","","","","","","","","",""
"","","","","","html-button-response","296","1100789","0.0-2.0-61.0","6014213c77aab7396ca3e5a7","E1","batch5","","711.2000000476837","tol_trial_num","<div class = centerbox><p class = center-block-text>problem <strong>18</strong> out of 25 problems</p></div>","0","","","","","","","","","","","","","","","","","","","","","","","","",""
"","","","","","single-stim-button","297","1107624","0.0-2.0-62.0-0.0","6014213c77aab7396ca3e5a7","E1","batch5","","6829","tol_tohand","","","","tol_peg_2","6829","6829","0","[[1,2,0],[0,0],[0]]","1","[[3,0,0],[2,0],[1]]","17","0","","","","","","5","","","","","","","","",""
"","","","","","single-stim-button","298","1109299","0.0-2.0-62.0-1.0","6014213c77aab7396ca3e5a7","E1","batch5","","1671","tol_toboard","","","","tol_peg_3","1671","1671","0","[[1,2,0],[0,0],[3]]","1","[[3,0,0],[2,0],[1]]","17","0","","","","","","5","","","","","","","","",""
"","","","","","single-stim-button","299","1110306","0.0-2.0-62.1-0.1","6014213c77aab7396ca3e5a7","E1","batch5","","1003","tol_tohand","","","","tol_peg_1","1003","1003","0","[[1,0,0],[0,0],[3]]","2","[[3,0,0],[2,0],[1]]","17","0","","","","","","5","","","","","","","","",""
"","","","","","single-stim-button","300","1111411","0.0-2.0-62.1-1.1","6014213c77aab7396ca3e5a7","E1","batch5","","1102","tol_toboard","","","","tol_peg_2","1102","1102","0","[[1,0,0],[2,0],[3]]","2","[[3,0,0],[2,0],[1]]","17","0","","","","","","5","","","","","","","","",""
"","","","","","single-stim-button","301","1114177","0.0-2.0-62.2-0.2","6014213c77aab7396ca3e5a7","E1","batch5","","2761","tol_tohand","","","","tol_peg_1","2761","2761","0","[[0,0,0],[2,0],[3]]","3","[[3,0,0],[2,0],[1]]","17","0","","","","","","5","","","","","","","","",""
"","","","","","single-stim-button","302","1115040","0.0-2.0-62.2-1.2","6014213c77aab7396ca3e5a7","E1","batch5","","857","tol_toboard","","","","tol_peg_2","857","857","0","[[0,0,0],[2,1],[3]]","3","[[3,0,0],[2,0],[1]]","17","0","","","","","","5","","","","","","","","",""
"","","","","","single-stim-button","303","1115988","0.0-2.0-62.3-0.3","6014213c77aab7396ca3e5a7","E1","batch5","","944","tol_tohand","","","","tol_peg_3","944","944","0","[[0,0,0],[2,1],[0]]","4","[[3,0,0],[2,0],[1]]","17","0","","","","","","5","","","","","","","","",""
"","","","","","single-stim-button","304","1117262","0.0-2.0-62.3-1.3","6014213c77aab7396ca3e5a7","E1","batch5","","1269","tol_toboard","","","","tol_peg_1","1269","1269","0","[[3,0,0],[2,1],[0]]","4","[[3,0,0],[2,0],[1]]","17","0","","","","","","5","","","","","","","","",""
"","","","","","single-stim-button","305","1118424","0.0-2.0-62.4-0.4","6014213c77aab7396ca3e5a7","E1","batch5","","1159","tol_tohand","","","","tol_peg_2","1159","1159","0","[[3,0,0],[2,0],[0]]","5","[[3,0,0],[2,0],[1]]","17","0","","","","","","5","","","","","","","","",""
"","","","","","single-stim-button","306","1119444","0.0-2.0-62.4-1.4","6014213c77aab7396ca3e5a7","E1","batch5","","1015","tol_toboard","","","","tol_peg_3","1015","1015","0","[[3,0,0],[2,0],[1]]","5","[[3,0,0],[2,0],[1]]","17","0","","","","","","5","","","","","","","","",""
"","","","","","poldrack-single-stim","307","1120448","0.0-2.0-63.0","6014213c77aab7396ca3e5a7","E1","batch5","","-1","tol_feedback","","","true","","1000","1000","500","","","","","","-1","none","true","6829","12696","","","","","","","","","",""
"","","","","","html-button-response","308","1121818","0.0-2.0-64.0","6014213c77aab7396ca3e5a7","E1","batch5","","1367.3999999761581","tol_trial_num","<div class = centerbox><p class = center-block-text>problem <strong>19</strong> out of 25 problems</p></div>","0","","","","","","","","","","","","","","","","","","","","","","","","",""
"","","","","","single-stim-button","309","1125212","0.0-2.0-65.0-0.0","6014213c77aab7396ca3e5a7","E1","batch5","","3391","tol_tohand","","","","tol_peg_2","3391","3391","0","[[1,2,0],[0,0],[0]]","1","[[0,0,0],[1,2],[3]]","18","0","","","","","","7","","","","","","","","",""
"","","","","","single-stim-button","310","1126297","0.0-2.0-65.0-1.0","6014213c77aab7396ca3e5a7","E1","batch5","","1082","tol_toboard","","","","tol_peg_3","1082","1082","0","[[1,2,0],[0,0],[3]]","1","[[0,0,0],[1,2],[3]]","18","0","","","","","","7","","","","","","","","",""
"","","","","","single-stim-button","311","1141497","0.0-2.0-65.1-0.1","6014213c77aab7396ca3e5a7","E1","batch5","","15197","tol_tohand","","","","tol_peg_3","15197","15197","0","[[1,2,0],[0,0],[0]]","2","[[0,0,0],[1,2],[3]]","18","0","","","","","","7","","","","","","","","",""
"","","","","","single-stim-button","312","1142583","0.0-2.0-65.1-1.1","6014213c77aab7396ca3e5a7","E1","batch5","","1082","tol_toboard","","","","tol_peg_2","1082","1082","0","[[1,2,0],[3,0],[0]]","2","[[0,0,0],[1,2],[3]]","18","0","","","","","","7","","","","","","","","",""
"","","","","","single-stim-button","313","1143572","0.0-2.0-65.2-0.2","6014213c77aab7396ca3e5a7","E1","batch5","","986","tol_tohand","","","","tol_peg_1","986","986","0","[[1,0,0],[3,0],[0]]","3","[[0,0,0],[1,2],[3]]","18","0","","","","","","7","","","","","","","","",""
"","","","","","single-stim-button","314","1144699","0.0-2.0-65.2-1.2","6014213c77aab7396ca3e5a7","E1","batch5","","1122","tol_toboard","","","","tol_peg_3","1122","1122","0","[[1,0,0],[3,0],[2]]","3","[[0,0,0],[1,2],[3]]","18","0","","","","","","7","","","","","","","","",""
"","","","","","single-stim-button","315","1153078","0.0-2.0-65.3-0.3","6014213c77aab7396ca3e5a7","E1","batch5","","8374","tol_tohand","","","","tol_peg_3","8374","8374","0","[[1,0,0],[3,0],[0]]","4","[[0,0,0],[1,2],[3]]","18","0","","","","","","7","","","","","","","","",""
"","","","","","single-stim-button","316","1155083","0.0-2.0-65.3-1.3","6014213c77aab7396ca3e5a7","E1","batch5","","2001","tol_toboard","","","","tol_peg_1","2001","2001","0","[[1,2,0],[3,0],[0]]","4","[[0,0,0],[1,2],[3]]","18","0","","","","","","7","","","","","","","","",""
"","","","","","single-stim-button","317","1156492","0.0-2.0-65.4-0.4","6014213c77aab7396ca3e5a7","E1","batch5","","1405","tol_tohand","","","","tol_peg_2","1405","1405","0","[[1,2,0],[0,0],[0]]","5","[[0,0,0],[1,2],[3]]","18","0","","","","","","7","","","","","","","","",""
"","","","","","single-stim-button","318","1157540","0.0-2.0-65.4-1.4","6014213c77aab7396ca3e5a7","E1","batch5","","1044","tol_toboard","","","","tol_peg_3","1044","1044","0","[[1,2,0],[0,0],[3]]","5","[[0,0,0],[1,2],[3]]","18","0","","","","","","7","","","","","","","","",""
"","","","","","single-stim-button","319","1160908","0.0-2.0-65.5-0.5","6014213c77aab7396ca3e5a7","E1","batch5","","3364","tol_tohand","","","","tol_peg_1","3364","3364","0","[[1,0,0],[0,0],[3]]","6","[[0,0,0],[1,2],[3]]","18","0","","","","","","7","","","","","","","","",""
"","","","","","single-stim-button","320","1165584","0.0-2.0-65.5-1.5","6014213c77aab7396ca3e5a7","E1","batch5","","4673","tol_toboard","","","","tol_peg_2","4673","4673","0","[[1,0,0],[2,0],[3]]","6","[[0,0,0],[1,2],[3]]","18","0","","","","","","7","","","","","","","","",""
"","","","","","single-stim-button","321","1166908","0.0-2.0-65.6-0.6","6014213c77aab7396ca3e5a7","E1","batch5","","1319","tol_tohand","","","","tol_peg_3","1319","1319","0","[[1,0,0],[2,0],[0]]","7","[[0,0,0],[1,2],[3]]","18","0","","","","","","7","","","","","","","","",""
"","","","","","single-stim-button","322","1171761","0.0-2.0-65.6-1.6","6014213c77aab7396ca3e5a7","E1","batch5","","4850","tol_toboard","","","","tol_peg_2","4850","4850","0","[[1,0,0],[2,3],[0]]","7","[[0,0,0],[1,2],[3]]","18","0","","","","","","7","","","","","","","","",""
"","","","","","single-stim-button","323","1172732","0.0-2.0-65.7-0.7","6014213c77aab7396ca3e5a7","E1","batch5","","967","tol_tohand","","","","tol_peg_1","967","967","0","[[0,0,0],[2,3],[0]]","8","[[0,0,0],[1,2],[3]]","18","0","","","","","","7","","","","","","","","",""
"","","","","","single-stim-button","324","1174325","0.0-2.0-65.7-1.7","6014213c77aab7396ca3e5a7","E1","batch5","","1590","tol_toboard","","","","tol_peg_3","1590","1590","0","[[0,0,0],[2,3],[1]]","8","[[0,0,0],[1,2],[3]]","18","0","","","","","","7","","","","","","","","",""
"","","","","","single-stim-button","325","1176645","0.0-2.0-65.8-0.8","6014213c77aab7396ca3e5a7","E1","batch5","","2316","tol_tohand","","","","tol_peg_2","2316","2316","0","[[0,0,0],[2,0],[1]]","9","[[0,0,0],[1,2],[3]]","18","0","","","","","","7","","","","","","","","",""
"","","","","","single-stim-button","326","1177419","0.0-2.0-65.8-1.8","6014213c77aab7396ca3e5a7","E1","batch5","","771","tol_toboard","","","","tol_peg_1","771","771","0","[[3,0,0],[2,0],[1]]","9","[[0,0,0],[1,2],[3]]","18","0","","","","","","7","","","","","","","","",""
"","","","","","single-stim-button","327","1179261","0.0-2.0-65.9-0.9","6014213c77aab7396ca3e5a7","E1","batch5","","1836","tol_tohand","","","","tol_peg_2","1836","1836","0","[[3,0,0],[0,0],[1]]","10","[[0,0,0],[1,2],[3]]","18","0","","","","","","7","","","","","","","","",""
"","","","","","single-stim-button","328","1180257","0.0-2.0-65.9-1.9","6014213c77aab7396ca3e5a7","E1","batch5","","993","tol_toboard","","","","tol_peg_1","993","993","0","[[3,2,0],[0,0],[1]]","10","[[0,0,0],[1,2],[3]]","18","0","","","","","","7","","","","","","","","",""
"","","","","","single-stim-button","329","1181268","0.0-2.0-65.10-0.10","6014213c77aab7396ca3e5a7","E1","batch5","","1004","tol_tohand","","","","tol_peg_3","1004","1004","0","[[3,2,0],[0,0],[0]]","11","[[0,0,0],[1,2],[3]]","18","0","","","","","","7","","","","","","","","",""
"","","","","","single-stim-button","330","1182226","0.0-2.0-65.10-1.10","6014213c77aab7396ca3e5a7","E1","batch5","","954","tol_toboard","","","","tol_peg_2","954","954","0","[[3,2,0],[1,0],[0]]","11","[[0,0,0],[1,2],[3]]","18","0","","","","","","7","","","","","","","","",""
"","","","","","single-stim-button","331","1183497","0.0-2.0-65.11-0.11","6014213c77aab7396ca3e5a7","E1","batch5","","1268","tol_tohand","","","","tol_peg_1","1268","1268","0","[[3,0,0],[1,0],[0]]","12","[[0,0,0],[1,2],[3]]","18","0","","","","","","7","","","","","","","","",""
"","","","","","single-stim-button","332","1184789","0.0-2.0-65.11-1.11","6014213c77aab7396ca3e5a7","E1","batch5","","1288","tol_toboard","","","","tol_peg_2","1288","1288","0","[[3,0,0],[1,2],[0]]","12","[[0,0,0],[1,2],[3]]","18","0","","","","","","7","","","","","","","","",""
"","","","","","single-stim-button","333","1185815","0.0-2.0-65.12-0.12","6014213c77aab7396ca3e5a7","E1","batch5","","1023","tol_tohand","","","","tol_peg_1","1023","1023","0","[[0,0,0],[1,2],[0]]","13","[[0,0,0],[1,2],[3]]","18","0","","","","","","7","","","","","","","","",""
"","","","","","single-stim-button","334","1186942","0.0-2.0-65.12-1.12","6014213c77aab7396ca3e5a7","E1","batch5","","1124","tol_toboard","","","","tol_peg_3","1124","1124","0","[[0,0,0],[1,2],[3]]","13","[[0,0,0],[1,2],[3]]","18","0","","","","","","7","","","","","","","","",""
"","","","","","poldrack-single-stim","335","1187953","0.0-2.0-66.0","6014213c77aab7396ca3e5a7","E1","batch5","","-1","tol_feedback","","","true","","1000","1000","500","","","","","","-1","none","true","3391","42450","","","","","","","","","",""
"","","","","","html-button-response","336","1188893","0.0-2.0-67.0","6014213c77aab7396ca3e5a7","E1","batch5","","936.2999999523163","tol_trial_num","<div class = centerbox><p class = center-block-text>problem <strong>20</strong> out of 25 problems</p></div>","0","","","","","","","","","","","","","","","","","","","","","","","","",""
"","","","","","single-stim-button","337","1193558","0.0-2.0-68.0-0.0","6014213c77aab7396ca3e5a7","E1","batch5","","4660","tol_tohand","","","","tol_peg_2","4660","4660","0","[[1,2,0],[0,0],[0]]","1","[[2,1,0],[0,0],[3]]","19","0","","","","","","5","","","","","","","","",""
"","","","","","single-stim-button","338","1194644","0.0-2.0-68.0-1.0","6014213c77aab7396ca3e5a7","E1","batch5","","1082","tol_toboard","","","","tol_peg_3","1082","1082","0","[[1,2,0],[0,0],[3]]","1","[[2,1,0],[0,0],[3]]","19","0","","","","","","5","","","","","","","","",""
"","","","","","single-stim-button","339","1196601","0.0-2.0-68.1-0.1","6014213c77aab7396ca3e5a7","E1","batch5","","1953","tol_tohand","","","","tol_peg_1","1953","1953","0","[[1,0,0],[0,0],[3]]","2","[[2,1,0],[0,0],[3]]","19","0","","","","","","5","","","","","","","","",""
"","","","","","single-stim-button","340","1201661","0.0-2.0-68.1-1.1","6014213c77aab7396ca3e5a7","E1","batch5","","5058","tol_toboard","","","","tol_peg_2","5058","5058","0","[[1,0,0],[2,0],[3]]","2","[[2,1,0],[0,0],[3]]","19","0","","","","","","5","","","","","","","","",""
"","","","","","single-stim-button","341","1205959","0.0-2.0-68.2-0.2","6014213c77aab7396ca3e5a7","E1","batch5","","4293","tol_tohand","","","","tol_peg_3","4293","4293","0","[[1,0,0],[2,0],[0]]","3","[[2,1,0],[0,0],[3]]","19","0","","","","","","5","","","","","","","","",""
"","","","","","single-stim-button","342","1206957","0.0-2.0-68.2-1.2","6014213c77aab7396ca3e5a7","E1","batch5","","994","tol_toboard","","","","tol_peg_2","994","994","0","[[1,0,0],[2,3],[0]]","3","[[2,1,0],[0,0],[3]]","19","0","","","","","","5","","","","","","","","",""
"","","","","","single-stim-button","343","1211959","0.0-2.0-68.3-0.3","6014213c77aab7396ca3e5a7","E1","batch5","","4997","tol_tohand","","","","tol_peg_1","4997","4997","0","[[0,0,0],[2,3],[0]]","4","[[2,1,0],[0,0],[3]]","19","0","","","","","","5","","","","","","","","",""
"","","","","","single-stim-button","344","1213170","0.0-2.0-68.3-1.3","6014213c77aab7396ca3e5a7","E1","batch5","","1208","tol_toboard","","","","tol_peg_3","1208","1208","0","[[0,0,0],[2,3],[1]]","4","[[2,1,0],[0,0],[3]]","19","0","","","","","","5","","","","","","","","",""
"","","","","","single-stim-button","345","1217555","0.0-2.0-68.4-0.4","6014213c77aab7396ca3e5a7","E1","batch5","","4381","tol_tohand","","","","tol_peg_2","4381","4381","0","[[0,0,0],[2,0],[1]]","5","[[2,1,0],[0,0],[3]]","19","0","","","","","","5","","","","","","","","",""
"","","","","","single-stim-button","346","1223636","0.0-2.0-68.4-1.4","6014213c77aab7396ca3e5a7","E1","batch5","","6077","tol_toboard","","","","tol_peg_1","6077","6077","0","[[3,0,0],[2,0],[1]]","5","[[2,1,0],[0,0],[3]]","19","0","","","","","","5","","","","","","","","",""
"","","","","","single-stim-button","347","1224604","0.0-2.0-68.5-0.5","6014213c77aab7396ca3e5a7","E1","batch5","","963","tol_tohand","","","","tol_peg_3","963","963","0","[[3,0,0],[2,0],[0]]","6","[[2,1,0],[0,0],[3]]","19","0","","","","","","5","","","","","","","","",""
"","","","","","single-stim-button","348","1226257","0.0-2.0-68.5-1.5","6014213c77aab7396ca3e5a7","E1","batch5","","1649","tol_toboard","","","","tol_peg_2","1649","1649","0","[[3,0,0],[2,1],[0]]","6","[[2,1,0],[0,0],[3]]","19","0","","","","","","5","","","","","","","","",""
"","","","","","single-stim-button","349","1233521","0.0-2.0-68.6-0.6","6014213c77aab7396ca3e5a7","E1","batch5","","7259","tol_tohand","","","","tol_peg_2","7259","7259","0","[[3,0,0],[2,0],[0]]","7","[[2,1,0],[0,0],[3]]","19","0","","","","","","5","","","","","","","","",""
"","","","","","single-stim-button","350","1234625","0.0-2.0-68.6-1.6","6014213c77aab7396ca3e5a7","E1","batch5","","1101","tol_toboard","","","","tol_peg_1","1101","1101","0","[[3,1,0],[2,0],[0]]","7","[[2,1,0],[0,0],[3]]","19","0","","","","","","5","","","","","","","","",""
"","","","","","single-stim-button","351","1235545","0.0-2.0-68.7-0.7","6014213c77aab7396ca3e5a7","E1","batch5","","916","tol_tohand","","","","tol_peg_2","916","916","0","[[3,1,0],[0,0],[0]]","8","[[2,1,0],[0,0],[3]]","19","0","","","","","","5","","","","","","","","",""
"","","","","","single-stim-button","352","1236690","0.0-2.0-68.7-1.7","6014213c77aab7396ca3e5a7","E1","batch5","","1143","tol_toboard","","","","tol_peg_3","1143","1143","0","[[3,1,0],[0,0],[2]]","8","[[2,1,0],[0,0],[3]]","19","0","","","","","","5","","","","","","","","",""
"","","","","","single-stim-button","353","1237983","0.0-2.0-68.8-0.8","6014213c77aab7396ca3e5a7","E1","batch5","","1290","tol_tohand","","","","tol_peg_1","1290","1290","0","[[3,0,0],[0,0],[2]]","9","[[2,1,0],[0,0],[3]]","19","0","","","","","","5","","","","","","","","",""
