"success","timeout","failed_images","failed_audio","failed_video","trial_type","trial_index","time_elapsed","internal_node_id","subject_id","study_id","session_id","view_history","rt","task","stimulus","response","correct","mouse_click","stim_duration","block_duration","timing_post_trial","current_position","tol_num_moves_made","tol_target","tol_problem_id","tol_rt","key_press","possible_responses","tol_correct","preplanning","tol_rt_per_trial","tol_min_moves","item","answer","spm_correct","spm_rt","fiar_detect_rt","fiar_detect_correct","total_correct_fiar_detect","post_trial_gap","choices"
"true","false","[]","[]","[]","preload","0","5131","0.0-0.0","6015e67814eb10734088e51e","F1","batch6","","","","","","","","","","","","","","","","","","","","","","","","","","","","","",""
"true","","","","","fullscreen","1","21586","0.0-1.0-0.0","6015e67814eb10734088e51e","F1","batch6","","","","","","","","","","","","","","","","","","","","","","","","","","","","","",""
"true","","","","","fullscreen","2","24888","0.0-2.0-0.0","6015e67814eb10734088e51e","F1","batch6","","","","","","","","","","","","","","","","","","","","","","","","","","","","","",""
"","","","","","instructions","3","73394","0.0-2.0-1.0-0.0-0.0","6015e67814eb10734088e51e","F1","batch6","[{""page_index"":0,""viewing_time"":14047.399999976158},{""page_index"":1,""viewing_time"":7087.9000000059605},{""page_index"":2,""viewing_time"":3304.2000000178814},{""page_index"":3,""viewing_time"":6848.0999999940395},{""page_index"":4,""viewing_time"":5375.699999988079},{""page_index"":5,""viewing_time"":9096.09999999404},{""page_index"":6,""viewing_time"":2743.9000000059605}]","48503.5","tol-instructions","","","","","","","","","","","","","","","","","","","","","","","","","","",""
"","","","","","html-button-response","4","74484","0.0-2.0-1.0-1.0-0.0","6015e67814eb10734088e51e","F1","batch6","","1088.5999999940395","tol_enter_quiz","<p class=block-text> Let's answer a few questions <br>","0","","","","","","","","","","","","","","","","","","","","","","","","",""
"","","","","","html-button-response","5","77771","0.0-2.0-1.0-1.0-1.0","6015e67814eb10734088e51e","F1","batch6","","3285.2999999821186","tol_quiz","<p class = block-text>True or False: You can only move the ball on top of a peg. <br></p>","0","true","","","","","","","","","","","","","","","","","","","","","","","",""
"","","","","","html-button-response","6","79051","0.0-2.0-1.0-1.0-2.0","6015e67814eb10734088e51e","F1","batch6","","1277.7000000178814","tol_quiz_feedback","<p class = block-text>Correct! You can only move the ball on top of a peg.</p>","0","","","","","","","","","","","","","","","","","","","","","","","","",""
"","","","","","html-button-response","7","81394","0.0-2.0-1.0-1.0-3.0","6015e67814eb10734088e51e","F1","batch6","","2342.5","tol_quiz","<p class = block-text>True or False: You should try to match your board with the target board with fewest moves possible. <br></p>","0","true","","","","","","","","","","","","","","","","","","","","","","","",""
"","","","","","html-button-response","8","82124","0.0-2.0-1.0-1.0-4.0","6015e67814eb10734088e51e","F1","batch6","","728.2999999821186","tol_quiz_feedback","<p class = block-text>Correct! </p>","0","","","","","","","","","","","","","","","","","","","","","","","","",""
"","","","","","html-button-response","9","84675","0.0-2.0-2.0","6015e67814eb10734088e51e","F1","batch6","","2549.9000000059605","","<p class=block-text> Now that you've understood the game, let's practice a few easier examples before we start!<br> <br>","0","","","","","","","","","","","","","","","","","","","","","","","","",""
"","","","","","single-stim-button","10","86605","0.0-2.0-3.0-0.0","6015e67814eb10734088e51e","F1","batch6","","1927","tol_practice","","","","tol_peg_2","1927","1927","0","[[1,2,0],[0,0],[0]]","1","[[1,2,0],[0,0],[3]]","practice","1927","","","","","","","","","","","","","","",""
"","","","","","single-stim-button","11","88726","0.0-2.0-3.0-1.0","6015e67814eb10734088e51e","F1","batch6","","2118","tol_practice","","","","tol_peg_3","2118","2118","0","[[1,2,0],[0,0],[3]]","1","[[1,2,0],[0,0],[3]]","practice","2118","","","","","","","","","","","","","","",""
"","","","","","poldrack-single-stim","12","89747","0.0-2.0-4.0","6015e67814eb10734088e51e","F1","batch6","","-1","tol_feedback","","","true","","1000","1000","500","","","","","","-1","none","true","","0","","","","","","","","","",""
"","","","","","single-stim-button","13","94315","0.0-2.0-5.0-0.0","6015e67814eb10734088e51e","F1","batch6","","4566","tol_practice","","","","tol_peg_1","4566","4566","0","[[1,0,0],[3,0],[0]]","2","[[0,0,0],[3,1],[2]]","practice","4566","","","","","","","","","","","","","","",""
"","","","","","single-stim-button","14","95076","0.0-2.0-5.0-1.0","6015e67814eb10734088e51e","F1","batch6","","760","tol_practice","","","","tol_peg_3","760","760","0","[[1,0,0],[3,0],[2]]","2","[[0,0,0],[3,1],[2]]","practice","760","","","","","","","","","","","","","","",""
"","","","","","single-stim-button","15","95835","0.0-2.0-5.1-0.1","6015e67814eb10734088e51e","F1","batch6","","757","tol_practice","","","","tol_peg_1","757","757","0","[[0,0,0],[3,0],[2]]","3","[[0,0,0],[3,1],[2]]","practice","757","","","","","","","","","","","","","","",""
"","","","","","single-stim-button","16","96595","0.0-2.0-5.1-1.1","6015e67814eb10734088e51e","F1","batch6","","759","tol_practice","","","","tol_peg_2","759","759","0","[[0,0,0],[3,1],[2]]","3","[[0,0,0],[3,1],[2]]","practice","759","","","","","","","","","","","","","","",""
"","","","","","poldrack-single-stim","17","97612","0.0-2.0-6.0","6015e67814eb10734088e51e","F1","batch6","","-1","tol_feedback","","","true","","1000","1000","500","","","","","","-1","none","true","","0","","","","","","","","","",""
"","","","","","single-stim-button","18","99923","0.0-2.0-7.0-0.0","6015e67814eb10734088e51e","F1","batch6","","2310","tol_practice","","","","tol_peg_2","2310","2310","0","[[1,2,0],[0,0],[0]]","4","[[1,0,0],[2,0],[3]]","practice","2310","","","","","","","","","","","","","","",""
"","","","","","single-stim-button","19","100796","0.0-2.0-7.0-1.0","6015e67814eb10734088e51e","F1","batch6","","871","tol_practice","","","","tol_peg_3","871","871","0","[[1,2,0],[0,0],[3]]","4","[[1,0,0],[2,0],[3]]","practice","871","","","","","","","","","","","","","","",""
"","","","","","single-stim-button","20","101644","0.0-2.0-7.1-0.1","6015e67814eb10734088e51e","F1","batch6","","848","tol_practice","","","","tol_peg_1","848","848","0","[[1,0,0],[0,0],[3]]","5","[[1,0,0],[2,0],[3]]","practice","848","","","","","","","","","","","","","","",""
"","","","","","single-stim-button","21","102363","0.0-2.0-7.1-1.1","6015e67814eb10734088e51e","F1","batch6","","718","tol_practice","","","","tol_peg_2","718","718","0","[[1,0,0],[2,0],[3]]","5","[[1,0,0],[2,0],[3]]","practice","718","","","","","","","","","","","","","","",""
"","","","","","poldrack-single-stim","22","103376","0.0-2.0-8.0","6015e67814eb10734088e51e","F1","batch6","","-1","tol_feedback","","","true","","1000","1000","500","","","","","","-1","none","true","","0","","","","","","","","","",""
"","","","","","html-button-response","23","106610","0.0-2.0-9.0","6015e67814eb10734088e51e","F1","batch6","","3233.2000000178814","tol_instruction","<div class = centerbox><p class = center-block-text>Great job! You are done with practice trials<br>You are about to start official trials.<br> <br> Problem <strong>1</strong> out of 25 problems</p></div>","0","","","","","","","","","","","","","","","","","","","","","","","","",""
"","","","","","single-stim-button","24","111139","0.0-2.0-10.0-0.0","6015e67814eb10734088e51e","F1","batch6","","3508","tol_tohand","","","","tol_peg_2","3508","3508","0","[[1,2,0],[0,0],[0]]","1","[[1,3,0],[2,0],[0]]","0","0","","","","","","3","","","","","","","","",""
"","","","","","single-stim-button","25","111803","0.0-2.0-10.0-1.0","6015e67814eb10734088e51e","F1","batch6","","662","tol_toboard","","","","tol_peg_3","662","662","0","[[1,2,0],[0,0],[3]]","1","[[1,3,0],[2,0],[0]]","0","0","","","","","","3","","","","","","","","",""
"","","","","","single-stim-button","26","112445","0.0-2.0-10.1-0.1","6015e67814eb10734088e51e","F1","batch6","","641","tol_tohand","","","","tol_peg_1","641","641","0","[[1,0,0],[0,0],[3]]","2","[[1,3,0],[2,0],[0]]","0","0","","","","","","3","","","","","","","","",""
"","","","","","single-stim-button","27","113107","0.0-2.0-10.1-1.1","6015e67814eb10734088e51e","F1","batch6","","662","tol_toboard","","","","tol_peg_2","662","662","0","[[1,0,0],[2,0],[3]]","2","[[1,3,0],[2,0],[0]]","0","0","","","","","","3","","","","","","","","",""
"","","","","","single-stim-button","28","113803","0.0-2.0-10.2-0.2","6015e67814eb10734088e51e","F1","batch6","","695","tol_tohand","","","","tol_peg_3","695","695","0","[[1,0,0],[2,0],[0]]","3","[[1,3,0],[2,0],[0]]","0","0","","","","","","3","","","","","","","","",""
"","","","","","single-stim-button","29","114629","0.0-2.0-10.2-1.2","6015e67814eb10734088e51e","F1","batch6","","825","tol_toboard","","","","tol_peg_1","825","825","0","[[1,3,0],[2,0],[0]]","3","[[1,3,0],[2,0],[0]]","0","0","","","","","","3","","","","","","","","",""
"","","","","","poldrack-single-stim","30","115644","0.0-2.0-11.0","6015e67814eb10734088e51e","F1","batch6","","-1","tol_feedback","","","true","","1000","1000","500","","","","","","-1","none","true","3508","4844","","","","","","","","","",""
"","","","","","html-button-response","31","117186","0.0-2.0-12.0","6015e67814eb10734088e51e","F1","batch6","","1540.5","tol_trial_num","<div class = centerbox><p class = center-block-text>problem <strong>2</strong> out of 25 problems</p></div>","0","","","","","","","","","","","","","","","","","","","","","","","","",""
"","","","","","single-stim-button","32","120171","0.0-2.0-13.0-0.0","6015e67814eb10734088e51e","F1","batch6","","2983","tol_tohand","","","","tol_peg_1","2983","2983","0","[[1,0,0],[3,0],[0]]","1","[[2,1,3],[0,0],[0]]","1","0","","","","","","5","","","","","","","","",""
"","","","","","single-stim-button","33","122091","0.0-2.0-13.0-1.0","6015e67814eb10734088e51e","F1","batch6","","1920","tol_toboard","","","","tol_peg_3","1920","1920","0","[[1,0,0],[3,0],[2]]","1","[[2,1,3],[0,0],[0]]","1","0","","","","","","5","","","","","","","","",""
"","","","","","single-stim-button","34","122828","0.0-2.0-13.1-0.1","6015e67814eb10734088e51e","F1","batch6","","736","tol_tohand","","","","tol_peg_1","736","736","0","[[0,0,0],[3,0],[2]]","2","[[2,1,3],[0,0],[0]]","1","0","","","","","","5","","","","","","","","",""
"","","","","","single-stim-button","35","123403","0.0-2.0-13.1-1.1","6015e67814eb10734088e51e","F1","batch6","","573","tol_toboard","","","","tol_peg_2","573","573","0","[[0,0,0],[3,1],[2]]","2","[[2,1,3],[0,0],[0]]","1","0","","","","","","5","","","","","","","","",""
"","","","","","single-stim-button","36","124043","0.0-2.0-13.2-0.2","6015e67814eb10734088e51e","F1","batch6","","639","tol_tohand","","","","tol_peg_3","639","639","0","[[0,0,0],[3,1],[0]]","3","[[2,1,3],[0,0],[0]]","1","0","","","","","","5","","","","","","","","",""
"","","","","","single-stim-button","37","124859","0.0-2.0-13.2-1.2","6015e67814eb10734088e51e","F1","batch6","","815","tol_toboard","","","","tol_peg_1","815","815","0","[[2,0,0],[3,1],[0]]","3","[[2,1,3],[0,0],[0]]","1","0","","","","","","5","","","","","","","","",""
"","","","","","single-stim-button","38","125396","0.0-2.0-13.3-0.3","6015e67814eb10734088e51e","F1","batch6","","535","tol_tohand","","","","tol_peg_2","535","535","0","[[2,0,0],[3,0],[0]]","4","[[2,1,3],[0,0],[0]]","1","0","","","","","","5","","","","","","","","",""
"","","","","","single-stim-button","39","126212","0.0-2.0-13.3-1.3","6015e67814eb10734088e51e","F1","batch6","","816","tol_toboard","","","","tol_peg_1","816","816","0","[[2,1,0],[3,0],[0]]","4","[[2,1,3],[0,0],[0]]","1","0","","","","","","5","","","","","","","","",""
"","","","","","single-stim-button","40","126867","0.0-2.0-13.4-0.4","6015e67814eb10734088e51e","F1","batch6","","653","tol_tohand","","","","tol_peg_2","653","653","0","[[2,1,0],[0,0],[0]]","5","[[2,1,3],[0,0],[0]]","1","0","","","","","","5","","","","","","","","",""
"","","","","","single-stim-button","41","127491","0.0-2.0-13.4-1.4","6015e67814eb10734088e51e","F1","batch6","","623","tol_toboard","","","","tol_peg_1","623","623","0","[[2,1,3],[0,0],[0]]","5","[[2,1,3],[0,0],[0]]","1","0","","","","","","5","","","","","","","","",""
"","","","","","poldrack-single-stim","42","128494","0.0-2.0-14.0","6015e67814eb10734088e51e","F1","batch6","","-1","tol_feedback","","","true","","1000","1000","500","","","","","","-1","none","true","2983","5546","","","","","","","","","",""
"","","","","","html-button-response","43","129514","0.0-2.0-15.0","6015e67814eb10734088e51e","F1","batch6","","1019","tol_trial_num","<div class = centerbox><p class = center-block-text>problem <strong>3</strong> out of 25 problems</p></div>","0","","","","","","","","","","","","","","","","","","","","","","","","",""
"","","","","","single-stim-button","44","134235","0.0-2.0-16.0-0.0","6015e67814eb10734088e51e","F1","batch6","","4720","tol_tohand","","","","tol_peg_1","4720","4720","0","[[2,0,0],[0,0],[1]]","1","[[1,2,0],[3,0],[0]]","2","0","","","","","","4","","","","","","","","",""
"","","","","","single-stim-button","45","140267","0.0-2.0-16.0-1.0","6015e67814eb10734088e51e","F1","batch6","","6030","tol_toboard","","","","tol_peg_1","6030","6030","0","[[2,3,0],[0,0],[1]]","1","[[1,2,0],[3,0],[0]]","2","0","","","","","","4","","","","","","","","",""
"","","","","","single-stim-button","46","141196","0.0-2.0-16.1-0.1","6015e67814eb10734088e51e","F1","batch6","","928","tol_tohand","","","","tol_peg_3","928","928","0","[[2,3,0],[0,0],[0]]","2","[[1,2,0],[3,0],[0]]","2","0","","","","","","4","","","","","","","","",""
"","","","","","single-stim-button","47","142187","0.0-2.0-16.1-1.1","6015e67814eb10734088e51e","F1","batch6","","989","tol_toboard","","","","tol_peg_2","989","989","0","[[2,3,0],[1,0],[0]]","2","[[1,2,0],[3,0],[0]]","2","0","","","","","","4","","","","","","","","",""
"","","","","","single-stim-button","48","142771","0.0-2.0-16.2-0.2","6015e67814eb10734088e51e","F1","batch6","","583","tol_tohand","","","","tol_peg_1","583","583","0","[[2,0,0],[1,0],[0]]","3","[[1,2,0],[3,0],[0]]","2","0","","","","","","4","","","","","","","","",""
"","","","","","single-stim-button","49","144019","0.0-2.0-16.2-1.2","6015e67814eb10734088e51e","F1","batch6","","1247","tol_toboard","","","","tol_peg_3","1247","1247","0","[[2,0,0],[1,0],[3]]","3","[[1,2,0],[3,0],[0]]","2","0","","","","","","4","","","","","","","","",""
"","","","","","single-stim-button","50","148483","0.0-2.0-16.3-0.3","6015e67814eb10734088e51e","F1","batch6","","4463","tol_tohand","","","","tol_peg_1","4463","4463","0","[[0,0,0],[1,0],[3]]","4","[[1,2,0],[3,0],[0]]","2","0","","","","","","4","","","","","","","","",""
"","","","","","single-stim-button","51","154187","0.0-2.0-16.3-1.3","6015e67814eb10734088e51e","F1","batch6","","5703","tol_toboard","","","","tol_peg_1","5703","5703","0","[[2,0,0],[1,0],[3]]","4","[[1,2,0],[3,0],[0]]","2","0","","","","","","4","","","","","","","","",""
"","","","","","single-stim-button","52","155963","0.0-2.0-16.4-0.4","6015e67814eb10734088e51e","F1","batch6","","1776","tol_tohand","","","","tol_peg_2","1776","1776","0","[[2,0,0],[0,0],[3]]","5","[[1,2,0],[3,0],[0]]","2","0","","","","","","4","","","","","","","","",""
"","","","","","single-stim-button","53","156835","0.0-2.0-16.4-1.4","6015e67814eb10734088e51e","F1","batch6","","870","tol_toboard","","","","tol_peg_1","870","870","0","[[2,1,0],[0,0],[3]]","5","[[1,2,0],[3,0],[0]]","2","0","","","","","","4","","","","","","","","",""
"","","","","","single-stim-button","54","157596","0.0-2.0-16.5-0.5","6015e67814eb10734088e51e","F1","batch6","","761","tol_tohand","","","","tol_peg_3","761","761","0","[[2,1,0],[0,0],[0]]","6","[[1,2,0],[3,0],[0]]","2","0","","","","","","4","","","","","","","","",""
"","","","","","single-stim-button","55","158170","0.0-2.0-16.5-1.5","6015e67814eb10734088e51e","F1","batch6","","573","tol_toboard","","","","tol_peg_2","573","573","0","[[2,1,0],[3,0],[0]]","6","[[1,2,0],[3,0],[0]]","2","0","","","","","","4","","","","","","","","",""
"","","","","","single-stim-button","56","159482","0.0-2.0-16.6-0.6","6015e67814eb10734088e51e","F1","batch6","","1311","tol_tohand","","","","tol_peg_1","1311","1311","0","[[2,0,0],[3,0],[0]]","7","[[1,2,0],[3,0],[0]]","2","0","","","","","","4","","","","","","","","",""
"","","","","","single-stim-button","57","161979","0.0-2.0-16.6-1.6","6015e67814eb10734088e51e","F1","batch6","","2495","tol_toboard","","","","tol_peg_3","2495","2495","0","[[2,0,0],[3,0],[1]]","7","[[1,2,0],[3,0],[0]]","2","0","","","","","","4","","","","","","","","",""
"","","","","","single-stim-button","58","162868","0.0-2.0-16.7-0.7","6015e67814eb10734088e51e","F1","batch6","","889","tol_tohand","","","","tol_peg_1","889","889","0","[[0,0,0],[3,0],[1]]","8","[[1,2,0],[3,0],[0]]","2","0","","","","","","4","","","","","","","","",""
"","","","","","single-stim-button","59","163316","0.0-2.0-16.7-1.7","6015e67814eb10734088e51e","F1","batch6","","448","tol_toboard","","","","tol_peg_2","448","448","0","[[0,0,0],[3,2],[1]]","8","[[1,2,0],[3,0],[0]]","2","0","","","","","","4","","","","","","","","",""
"","","","","","single-stim-button","60","163916","0.0-2.0-16.8-0.8","6015e67814eb10734088e51e","F1","batch6","","599","tol_tohand","","","","tol_peg_3","599","599","0","[[0,0,0],[3,2],[0]]","9","[[1,2,0],[3,0],[0]]","2","0","","","","","","4","","","","","","","","",""
"","","","","","single-stim-button","61","164723","0.0-2.0-16.8-1.8","6015e67814eb10734088e51e","F1","batch6","","805","tol_toboard","","","","tol_peg_1","805","805","0","[[1,0,0],[3,2],[0]]","9","[[1,2,0],[3,0],[0]]","2","0","","","","","","4","","","","","","","","",""
"","","","","","single-stim-button","62","165355","0.0-2.0-16.9-0.9","6015e67814eb10734088e51e","F1","batch6","","631","tol_tohand","","","","tol_peg_2","631","631","0","[[1,0,0],[3,0],[0]]","10","[[1,2,0],[3,0],[0]]","2","0","","","","","","4","","","","","","","","",""
"","","","","","single-stim-button","63","165916","0.0-2.0-16.9-1.9","6015e67814eb10734088e51e","F1","batch6","","560","tol_toboard","","","","tol_peg_1","560","560","0","[[1,2,0],[3,0],[0]]","10","[[1,2,0],[3,0],[0]]","2","0","","","","","","4","","","","","","","","",""
"","","","","","poldrack-single-stim","64","166926","0.0-2.0-17.0","6015e67814eb10734088e51e","F1","batch6","","-1","tol_feedback","","","true","","1000","1000","500","","","","","","-1","none","true","4720","16661","","","","","","","","","",""
"","","","","","html-button-response","65","167867","0.0-2.0-18.0","6015e67814eb10734088e51e","F1","batch6","","940","tol_trial_num","<div class = centerbox><p class = center-block-text>problem <strong>4</strong> out of 25 problems</p></div>","0","","","","","","","","","","","","","","","","","","","","","","","","",""
"","","","","","single-stim-button","66","170827","0.0-2.0-19.0-0.0","6015e67814eb10734088e51e","F1","batch6","","2958","tol_tohand","","","","tol_peg_2","2958","2958","0","[[3,0,0],[2,0],[0]]","1","[[3,0,0],[1,0],[2]]","3","0","","","","","","3","","","","","","","","",""
"","","","","","single-stim-button","67","171316","0.0-2.0-19.0-1.0","6015e67814eb10734088e51e","F1","batch6","","489","tol_toboard","","","","tol_peg_1","489","489","0","[[3,1,0],[2,0],[0]]","1","[[3,0,0],[1,0],[2]]","3","0","","","","","","3","","","","","","","","",""
"","","","","","single-stim-button","68","172138","0.0-2.0-19.1-0.1","6015e67814eb10734088e51e","F1","batch6","","821","tol_tohand","","","","tol_peg_2","821","821","0","[[3,1,0],[0,0],[0]]","2","[[3,0,0],[1,0],[2]]","3","0","","","","","","3","","","","","","","","",""
"","","","","","single-stim-button","69","172995","0.0-2.0-19.1-1.1","6015e67814eb10734088e51e","F1","batch6","","855","tol_toboard","","","","tol_peg_3","855","855","0","[[3,1,0],[0,0],[2]]","2","[[3,0,0],[1,0],[2]]","3","0","","","","","","3","","","","","","","","",""
"","","","","","single-stim-button","70","173571","0.0-2.0-19.2-0.2","6015e67814eb10734088e51e","F1","batch6","","575","tol_tohand","","","","tol_peg_1","575","575","0","[[3,0,0],[0,0],[2]]","3","[[3,0,0],[1,0],[2]]","3","0","","","","","","3","","","","","","","","",""
"","","","","","single-stim-button","71","174355","0.0-2.0-19.2-1.2","6015e67814eb10734088e51e","F1","batch6","","784","tol_toboard","","","","tol_peg_2","784","784","0","[[3,0,0],[1,0],[2]]","3","[[3,0,0],[1,0],[2]]","3","0","","","","","","3","","","","","","","","",""
"","","","","","poldrack-single-stim","72","175360","0.0-2.0-20.0","6015e67814eb10734088e51e","F1","batch6","","-1","tol_feedback","","","true","","1000","1000","500","","","","","","-1","none","true","2958","4354","","","","","","","","","",""
"","","","","","html-button-response","73","176538","0.0-2.0-21.0","6015e67814eb10734088e51e","F1","batch6","","1177.5","tol_trial_num","<div class = centerbox><p class = center-block-text>problem <strong>5</strong> out of 25 problems</p></div>","0","","","","","","","","","","","","","","","","","","","","","","","","",""
"","","","","","single-stim-button","74","182660","0.0-2.0-22.0-0.0","6015e67814eb10734088e51e","F1","batch6","","6121","tol_tohand","","","","tol_peg_3","6121","6121","0","[[1,0,0],[2,0],[0]]","1","[[0,0,0],[1,2],[3]]","4","0","","","","","","7","","","","","","","","",""
"","","","","","single-stim-button","75","183458","0.0-2.0-22.0-1.0","6015e67814eb10734088e51e","F1","batch6","","798","tol_toboard","","","","tol_peg_1","798","798","0","[[1,3,0],[2,0],[0]]","1","[[0,0,0],[1,2],[3]]","4","0","","","","","","7","","","","","","","","",""
"","","","","","single-stim-button","76","184171","0.0-2.0-22.1-0.1","6015e67814eb10734088e51e","F1","batch6","","712","tol_tohand","","","","tol_peg_2","712","712","0","[[1,3,0],[0,0],[0]]","2","[[0,0,0],[1,2],[3]]","4","0","","","","","","7","","","","","","","","",""
"","","","","","single-stim-button","77","184987","0.0-2.0-22.1-1.1","6015e67814eb10734088e51e","F1","batch6","","815","tol_toboard","","","","tol_peg_3","815","815","0","[[1,3,0],[0,0],[2]]","2","[[0,0,0],[1,2],[3]]","4","0","","","","","","7","","","","","","","","",""
"","","","","","single-stim-button","78","189693","0.0-2.0-22.2-0.2","6015e67814eb10734088e51e","F1","batch6","","4706","tol_tohand","","","","tol_peg_3","4706","4706","0","[[1,3,0],[0,0],[0]]","3","[[0,0,0],[1,2],[3]]","4","0","","","","","","7","","","","","","","","",""
"","","","","","single-stim-button","79","190763","0.0-2.0-22.2-1.2","6015e67814eb10734088e51e","F1","batch6","","1068","tol_toboard","","","","tol_peg_2","1068","1068","0","[[1,3,0],[2,0],[0]]","3","[[0,0,0],[1,2],[3]]","4","0","","","","","","7","","","","","","","","",""
"","","","","","single-stim-button","80","191548","0.0-2.0-22.3-0.3","6015e67814eb10734088e51e","F1","batch6","","784","tol_tohand","","","","tol_peg_1","784","784","0","[[1,0,0],[2,0],[0]]","4","[[0,0,0],[1,2],[3]]","4","0","","","","","","7","","","","","","","","",""
"","","","","","single-stim-button","81","192555","0.0-2.0-22.3-1.3","6015e67814eb10734088e51e","F1","batch6","","1007","tol_toboard","","","","tol_peg_3","1007","1007","0","[[1,0,0],[2,0],[3]]","4","[[0,0,0],[1,2],[3]]","4","0","","","","","","7","","","","","","","","",""
"","","","","","single-stim-button","82","196468","0.0-2.0-22.4-0.4","6015e67814eb10734088e51e","F1","batch6","","3912","tol_tohand","","","","tol_peg_3","3912","3912","0","[[1,0,0],[2,0],[0]]","5","[[0,0,0],[1,2],[3]]","4","0","","","","","","7","","","","","","","","",""
"","","","","","single-stim-button","83","198147","0.0-2.0-22.4-1.4","6015e67814eb10734088e51e","F1","batch6","","1678","tol_toboard","","","","tol_peg_2","1678","1678","0","[[1,0,0],[2,3],[0]]","5","[[0,0,0],[1,2],[3]]","4","0","","","","","","7","","","","","","","","",""
"","","","","","single-stim-button","84","198587","0.0-2.0-22.5-0.5","6015e67814eb10734088e51e","F1","batch6","","439","tol_tohand","","","","tol_peg_1","439","439","0","[[0,0,0],[2,3],[0]]","6","[[0,0,0],[1,2],[3]]","4","0","","","","","","7","","","","","","","","",""
"","","","","","single-stim-button","85","199331","0.0-2.0-22.5-1.5","6015e67814eb10734088e51e","F1","batch6","","743","tol_toboard","","","","tol_peg_3","743","743","0","[[0,0,0],[2,3],[1]]","6","[[0,0,0],[1,2],[3]]","4","0","","","","","","7","","","","","","","","",""
"","","","","","single-stim-button","86","202851","0.0-2.0-22.6-0.6","6015e67814eb10734088e51e","F1","batch6","","3519","tol_tohand","","","","tol_peg_2","3519","3519","0","[[0,0,0],[2,0],[1]]","7","[[0,0,0],[1,2],[3]]","4","0","","","","","","7","","","","","","","","",""
"","","","","","single-stim-button","87","203507","0.0-2.0-22.6-1.6","6015e67814eb10734088e51e","F1","batch6","","654","tol_toboard","","","","tol_peg_1","654","654","0","[[3,0,0],[2,0],[1]]","7","[[0,0,0],[1,2],[3]]","4","0","","","","","","7","","","","","","","","",""
"","","","","","single-stim-button","88","204243","0.0-2.0-22.7-0.7","6015e67814eb10734088e51e","F1","batch6","","736","tol_tohand","","","","tol_peg_2","736","736","0","[[3,0,0],[0,0],[1]]","8","[[0,0,0],[1,2],[3]]","4","0","","","","","","7","","","","","","","","",""
"","","","","","single-stim-button","89","205051","0.0-2.0-22.7-1.7","6015e67814eb10734088e51e","F1","batch6","","807","tol_toboard","","","","tol_peg_1","807","807","0","[[3,2,0],[0,0],[1]]","8","[[0,0,0],[1,2],[3]]","4","0","","","","","","7","","","","","","","","",""
"","","","","","single-stim-button","90","205794","0.0-2.0-22.8-0.8","6015e67814eb10734088e51e","F1","batch6","","742","tol_tohand","","","","tol_peg_3","742","742","0","[[3,2,0],[0,0],[0]]","9","[[0,0,0],[1,2],[3]]","4","0","","","","","","7","","","","","","","","",""
"","","","","","single-stim-button","91","206723","0.0-2.0-22.8-1.8","6015e67814eb10734088e51e","F1","batch6","","928","tol_toboard","","","","tol_peg_2","928","928","0","[[3,2,0],[1,0],[0]]","9","[[0,0,0],[1,2],[3]]","4","0","","","","","","7","","","","","","","","",""
"","","","","","single-stim-button","92","207339","0.0-2.0-22.9-0.9","6015e67814eb10734088e51e","F1","batch6","","615","tol_tohand","","","","tol_peg_1","615","615","0","[[3,0,0],[1,0],[0]]","10","[[0,0,0],[1,2],[3]]","4","0","","","","","","7","","","","","","","","",""
"","","","","","single-stim-button","93","207979","0.0-2.0-22.9-1.9","6015e67814eb10734088e51e","F1","batch6","","638","tol_toboard","","","","tol_peg_2","638","638","0","[[3,0,0],[1,2],[0]]","10","[[0,0,0],[1,2],[3]]","4","0","","","","","","7","","","","","","","","",""
"","","","","","single-stim-button","94","208659","0.0-2.0-22.10-0.10","6015e67814eb10734088e51e","F1","batch6","","680","tol_tohand","","","","tol_peg_1","680","680","0","[[0,0,0],[1,2],[0]]","11","[[0,0,0],[1,2],[3]]","4","0","","","","","","7","","","","","","","","",""
"","","","","","single-stim-button","95","209338","0.0-2.0-22.10-1.10","6015e67814eb10734088e51e","F1","batch6","","679","tol_toboard","","","","tol_peg_3","679","679","0","[[0,0,0],[1,2],[3]]","11","[[0,0,0],[1,2],[3]]","4","0","","","","","","7","","","","","","","","",""
"","","","","","poldrack-single-stim","96","210356","0.0-2.0-23.0","6015e67814eb10734088e51e","F1","batch6","","-1","tol_feedback","","","true","","1000","1000","500","","","","","","-1","none","true","6121","22966","","","","","","","","","",""
"","","","","","html-button-response","97","211355","0.0-2.0-24.0","6015e67814eb10734088e51e","F1","batch6","","997.8000000119209","tol_trial_num","<div class = centerbox><p class = center-block-text>problem <strong>6</strong> out of 25 problems</p></div>","0","","","","","","","","","","","","","","","","","","","","","","","","",""
"","","","","","single-stim-button","98","219291","0.0-2.0-25.0-0.0","6015e67814eb10734088e51e","F1","batch6","","7935","tol_tohand","","","","tol_peg_2","7935","7935","0","[[0,0,0],[1,0],[3]]","1","[[1,0,0],[2,3],[0]]","5","0","","","","","","6","","","","","","","","",""
"","","","","","single-stim-button","99","220172","0.0-2.0-25.0-1.0","6015e67814eb10734088e51e","F1","batch6","","881","tol_toboard","","","","tol_peg_1","881","881","0","[[2,0,0],[1,0],[3]]","1","[[1,0,0],[2,3],[0]]","5","0","","","","","","6","","","","","","","","",""
"","","","","","single-stim-button","100","221124","0.0-2.0-25.1-0.1","6015e67814eb10734088e51e","F1","batch6","","951","tol_tohand","","","","tol_peg_3","951","951","0","[[2,0,0],[1,0],[0]]","2","[[1,0,0],[2,3],[0]]","5","0","","","","","","6","","","","","","","","",""
"","","","","","single-stim-button","101","221955","0.0-2.0-25.1-1.1","6015e67814eb10734088e51e","F1","batch6","","830","tol_toboard","","","","tol_peg_1","830","830","0","[[2,3,0],[1,0],[0]]","2","[[1,0,0],[2,3],[0]]","5","0","","","","","","6","","","","","","","","",""
"","","","","","single-stim-button","102","222507","0.0-2.0-25.2-0.2","6015e67814eb10734088e51e","F1","batch6","","550","tol_tohand","","","","tol_peg_2","550","550","0","[[2,3,0],[0,0],[0]]","3","[[1,0,0],[2,3],[0]]","5","0","","","","","","6","","","","","","","","",""
"","","","","","single-stim-button","103","223283","0.0-2.0-25.2-1.2","6015e67814eb10734088e51e","F1","batch6","","775","tol_toboard","","","","tol_peg_3","775","775","0","[[2,3,0],[0,0],[1]]","3","[[1,0,0],[2,3],[0]]","5","0","","","","","","6","","","","","","","","",""
"","","","","","single-stim-button","104","228540","0.0-2.0-25.3-0.3","6015e67814eb10734088e51e","F1","batch6","","5256","tol_tohand","","","","tol_peg_3","5256","5256","0","[[2,3,0],[0,0],[0]]","4","[[1,0,0],[2,3],[0]]","5","0","","","","","","6","","","","","","","","",""
"","","","","","single-stim-button","105","229324","0.0-2.0-25.3-1.3","6015e67814eb10734088e51e","F1","batch6","","784","tol_toboard","","","","tol_peg_2","784","784","0","[[2,3,0],[1,0],[0]]","4","[[1,0,0],[2,3],[0]]","5","0","","","","","","6","","","","","","","","",""
"","","","","","single-stim-button","106","229973","0.0-2.0-25.4-0.4","6015e67814eb10734088e51e","F1","batch6","","647","tol_tohand","","","","tol_peg_1","647","647","0","[[2,0,0],[1,0],[0]]","5","[[1,0,0],[2,3],[0]]","5","0","","","","","","6","","","","","","","","",""
"","","","","","single-stim-button","107","233251","0.0-2.0-25.4-1.4","6015e67814eb10734088e51e","F1","batch6","","3277","tol_toboard","","","","tol_peg_1","3277","3277","0","[[2,3,0],[1,0],[0]]","5","[[1,0,0],[2,3],[0]]","5","0","","","","","","6","","","","","","","","",""
"","","","","","single-stim-button","108","234306","0.0-2.0-25.5-0.5","6015e67814eb10734088e51e","F1","batch6","","1055","tol_tohand","","","","tol_peg_2","1055","1055","0","[[2,3,0],[0,0],[0]]","6","[[1,0,0],[2,3],[0]]","5","0","","","","","","6","","","","","","","","",""
"","","","","","single-stim-button","109","235490","0.0-2.0-25.5-1.5","6015e67814eb10734088e51e","F1","batch6","","1183","tol_toboard","","","","tol_peg_3","1183","1183","0","[[2,3,0],[0,0],[1]]","6","[[1,0,0],[2,3],[0]]","5","0","","","","","","6","","","","","","","","",""
"","","","","","single-stim-button","110","236226","0.0-2.0-25.6-0.6","6015e67814eb10734088e51e","F1","batch6","","736","tol_tohand","","","","tol_peg_1","736","736","0","[[2,0,0],[0,0],[1]]","7","[[1,0,0],[2,3],[0]]","5","0","","","","","","6","","","","","","","","",""
"","","","","","single-stim-button","111","236899","0.0-2.0-25.6-1.6","6015e67814eb10734088e51e","F1","batch6","","671","tol_toboard","","","","tol_peg_2","671","671","0","[[2,0,0],[3,0],[1]]","7","[[1,0,0],[2,3],[0]]","5","0","","","","","","6","","","","","","","","",""
"","","","","","single-stim-button","112","237578","0.0-2.0-25.7-0.7","6015e67814eb10734088e51e","F1","batch6","","679","tol_tohand","","","","tol_peg_1","679","679","0","[[0,0,0],[3,0],[1]]","8","[[1,0,0],[2,3],[0]]","5","0","","","","","","6","","","","","","","","",""
"","","","","","single-stim-button","113","238155","0.0-2.0-25.7-1.7","6015e67814eb10734088e51e","F1","batch6","","575","tol_toboard","","","","tol_peg_2","575","575","0","[[0,0,0],[3,2],[1]]","8","[[1,0,0],[2,3],[0]]","5","0","","","","","","6","","","","","","","","",""
"","","","","","single-stim-button","114","238875","0.0-2.0-25.8-0.8","6015e67814eb10734088e51e","F1","batch6","","719","tol_tohand","","","","tol_peg_3","719","719","0","[[0,0,0],[3,2],[0]]","9","[[1,0,0],[2,3],[0]]","5","0","","","","","","6","","","","","","","","",""
"","","","","","single-stim-button","115","239540","0.0-2.0-25.8-1.8","6015e67814eb10734088e51e","F1","batch6","","665","tol_toboard","","","","tol_peg_1","665","665","0","[[1,0,0],[3,2],[0]]","9","[[1,0,0],[2,3],[0]]","5","0","","","","","","6","","","","","","","","",""
"","","","","","single-stim-button","116","240124","0.0-2.0-25.9-0.9","6015e67814eb10734088e51e","F1","batch6","","582","tol_tohand","","","","tol_peg_2","582","582","0","[[1,0,0],[3,0],[0]]","10","[[1,0,0],[2,3],[0]]","5","0","","","","","","6","","","","","","","","",""
"","","","","","single-stim-button","117","240851","0.0-2.0-25.9-1.9","6015e67814eb10734088e51e","F1","batch6","","726","tol_toboard","","","","tol_peg_3","726","726","0","[[1,0,0],[3,0],[2]]","10","[[1,0,0],[2,3],[0]]","5","0","","","","","","6","","","","","","","","",""
"","","","","","single-stim-button","118","241387","0.0-2.0-25.10-0.10","6015e67814eb10734088e51e","F1","batch6","","535","tol_tohand","","","","tol_peg_2","535","535","0","[[1,0,0],[0,0],[2]]","11","[[1,0,0],[2,3],[0]]","5","0","","","","","","6","","","","","","","","",""
"","","","","","single-stim-button","119","241835","0.0-2.0-25.10-1.10","6015e67814eb10734088e51e","F1","batch6","","446","tol_toboard","","","","tol_peg_1","446","446","0","[[1,3,0],[0,0],[2]]","11","[[1,0,0],[2,3],[0]]","5","0","","","","","","6","","","","","","","","",""
"","","","","","single-stim-button","120","242547","0.0-2.0-25.11-0.11","6015e67814eb10734088e51e","F1","batch6","","710","tol_tohand","","","","tol_peg_3","710","710","0","[[1,3,0],[0,0],[0]]","12","[[1,0,0],[2,3],[0]]","5","0","","","","","","6","","","","","","","","",""
"","","","","","single-stim-button","121","243283","0.0-2.0-25.11-1.11","6015e67814eb10734088e51e","F1","batch6","","735","tol_toboard","","","","tol_peg_2","735","735","0","[[1,3,0],[2,0],[0]]","12","[[1,0,0],[2,3],[0]]","5","0","","","","","","6","","","","","","","","",""
"","","","","","single-stim-button","122","243947","0.0-2.0-25.12-0.12","6015e67814eb10734088e51e","F1","batch6","","663","tol_tohand","","","","tol_peg_1","663","663","0","[[1,0,0],[2,0],[0]]","13","[[1,0,0],[2,3],[0]]","5","0","","","","","","6","","","","","","","","",""
"","","","","","single-stim-button","123","244363","0.0-2.0-25.12-1.12","6015e67814eb10734088e51e","F1","batch6","","415","tol_toboard","","","","tol_peg_2","415","415","0","[[1,0,0],[2,3],[0]]","13","[[1,0,0],[2,3],[0]]","5","0","","","","","","6","","","","","","","","",""
"","","","","","poldrack-single-stim","124","245364","0.0-2.0-26.0","6015e67814eb10734088e51e","F1","batch6","","-1","tol_feedback","","","true","","1000","1000","500","","","","","","-1","none","true","7935","21018","","","","","","","","","",""
"","","","","","html-button-response","125","246242","0.0-2.0-27.0","6015e67814eb10734088e51e","F1","batch6","","877.0999999940395","tol_trial_num","<div class = centerbox><p class = center-block-text>problem <strong>7</strong> out of 25 problems</p></div>","0","","","","","","","","","","","","","","","","","","","","","","","","",""
"","","","","","single-stim-button","126","249435","0.0-2.0-28.0-0.0","6015e67814eb10734088e51e","F1","batch6","","3192","tol_tohand","","","","tol_peg_3","3192","3192","0","[[2,1,0],[0,0],[0]]","1","[[1,2,0],[3,0],[0]]","6","0","","","","","","5","","","","","","","","",""
"","","","","","single-stim-button","127","250019","0.0-2.0-28.0-1.0","6015e67814eb10734088e51e","F1","batch6","","583","tol_toboard","","","","tol_peg_2","583","583","0","[[2,1,0],[3,0],[0]]","1","[[1,2,0],[3,0],[0]]","6","0","","","","","","5","","","","","","","","",""
"","","","","","single-stim-button","128","251163","0.0-2.0-28.1-0.1","6015e67814eb10734088e51e","F1","batch6","","1143","tol_tohand","","","","tol_peg_1","1143","1143","0","[[2,0,0],[3,0],[0]]","2","[[1,2,0],[3,0],[0]]","6","0","","","","","","5","","","","","","","","",""
"","","","","","single-stim-button","129","251858","0.0-2.0-28.1-1.1","6015e67814eb10734088e51e","F1","batch6","","695","tol_toboard","","","","tol_peg_3","695","695","0","[[2,0,0],[3,0],[1]]","2","[[1,2,0],[3,0],[0]]","6","0","","","","","","5","","","","","","","","",""
"","","","","","single-stim-button","130","252555","0.0-2.0-28.2-0.2","6015e67814eb10734088e51e","F1","batch6","","696","tol_tohand","","","","tol_peg_1","696","696","0","[[0,0,0],[3,0],[1]]","3","[[1,2,0],[3,0],[0]]","6","0","","","","","","5","","","","","","","","",""
"","","","","","single-stim-button","131","253309","0.0-2.0-28.2-1.2","6015e67814eb10734088e51e","F1","batch6","","752","tol_toboard","","","","tol_peg_2","752","752","0","[[0,0,0],[3,2],[1]]","3","[[1,2,0],[3,0],[0]]","6","0","","","","","","5","","","","","","","","",""
"","","","","","single-stim-button","132","254019","0.0-2.0-28.3-0.3","6015e67814eb10734088e51e","F1","batch6","","709","tol_tohand","","","","tol_peg_3","709","709","0","[[0,0,0],[3,2],[0]]","4","[[1,2,0],[3,0],[0]]","6","0","","","","","","5","","","","","","","","",""
"","","","","","single-stim-button","133","255026","0.0-2.0-28.3-1.3","6015e67814eb10734088e51e","F1","batch6","","1007","tol_toboard","","","","tol_peg_1","1007","1007","0","[[1,0,0],[3,2],[0]]","4","[[1,2,0],[3,0],[0]]","6","0","","","","","","5","","","","","","","","",""
"","","","","","single-stim-button","134","255763","0.0-2.0-28.4-0.4","6015e67814eb10734088e51e","F1","batch6","","735","tol_tohand","","","","tol_peg_2","735","735","0","[[1,0,0],[3,0],[0]]","5","[[1,2,0],[3,0],[0]]","6","0","","","","","","5","","","","","","","","",""
"","","","","","single-stim-button","135","256387","0.0-2.0-28.4-1.4","6015e67814eb10734088e51e","F1","batch6","","623","tol_toboard","","","","tol_peg_1","623","623","0","[[1,2,0],[3,0],[0]]","5","[[1,2,0],[3,0],[0]]","6","0","","","","","","5","","","","","","","","",""
"","","","","","poldrack-single-stim","136","257391","0.0-2.0-29.0","6015e67814eb10734088e51e","F1","batch6","","-1","tol_feedback","","","true","","1000","1000","500","","","","","","-1","none","true","3192","6475","","","","","","","","","",""
"","","","","","html-button-response","137","258354","0.0-2.0-30.0","6015e67814eb10734088e51e","F1","batch6","","962.1999999880791","tol_trial_num","<div class = centerbox><p class = center-block-text>problem <strong>8</strong> out of 25 problems</p></div>","0","","","","","","","","","","","","","","","","","","","","","","","","",""
"","","","","","single-stim-button","138","262627","0.0-2.0-31.0-0.0","6015e67814eb10734088e51e","F1","batch6","","4272","tol_tohand","","","","tol_peg_3","4272","4272","0","[[0,0,0],[2,3],[0]]","1","[[1,2,0],[3,0],[0]]","7","0","","","","","","4","","","","","","","","",""
"","","","","","single-stim-button","139","263539","0.0-2.0-31.0-1.0","6015e67814eb10734088e51e","F1","batch6","","911","tol_toboard","","","","tol_peg_1","911","911","0","[[1,0,0],[2,3],[0]]","1","[[1,2,0],[3,0],[0]]","7","0","","","","","","4","","","","","","","","",""
"","","","","","single-stim-button","140","264515","0.0-2.0-31.1-0.1","6015e67814eb10734088e51e","F1","batch6","","975","tol_tohand","","","","tol_peg_2","975","975","0","[[1,0,0],[2,0],[0]]","2","[[1,2,0],[3,0],[0]]","7","0","","","","","","4","","","","","","","","",""
"","","","","","single-stim-button","141","265131","0.0-2.0-31.1-1.1","6015e67814eb10734088e51e","F1","batch6","","615","tol_toboard","","","","tol_peg_3","615","615","0","[[1,0,0],[2,0],[3]]","2","[[1,2,0],[3,0],[0]]","7","0","","","","","","4","","","","","","","","",""
"","","","","","single-stim-button","142","265530","0.0-2.0-31.2-0.2","6015e67814eb10734088e51e","F1","batch6","","399","tol_tohand","","","","tol_peg_2","399","399","0","[[1,0,0],[0,0],[3]]","3","[[1,2,0],[3,0],[0]]","7","0","","","","","","4","","","","","","","","",""
"","","","","","single-stim-button","143","266260","0.0-2.0-31.2-1.2","6015e67814eb10734088e51e","F1","batch6","","729","tol_toboard","","","","tol_peg_1","729","729","0","[[1,2,0],[0,0],[3]]","3","[[1,2,0],[3,0],[0]]","7","0","","","","","","4","","","","","","","","",""
"","","","","","single-stim-button","144","267019","0.0-2.0-31.3-0.3","6015e67814eb10734088e51e","F1","batch6","","758","tol_tohand","","","","tol_peg_3","758","758","0","[[1,2,0],[0,0],[0]]","4","[[1,2,0],[3,0],[0]]","7","0","","","","","","4","","","","","","","","",""
"","","","","","single-stim-button","145","267779","0.0-2.0-31.3-1.3","6015e67814eb10734088e51e","F1","batch6","","759","tol_toboard","","","","tol_peg_2","759","759","0","[[1,2,0],[3,0],[0]]","4","[[1,2,0],[3,0],[0]]","7","0","","","","","","4","","","","","","","","",""
"","","","","","poldrack-single-stim","146","268780","0.0-2.0-32.0","6015e67814eb10734088e51e","F1","batch6","","-1","tol_feedback","","","true","","1000","1000","500","","","","","","-1","none","true","4272","6404","","","","","","","","","",""
"","","","","","html-button-response","147","269995","0.0-2.0-33.0","6015e67814eb10734088e51e","F1","batch6","","1213.699999988079","tol_trial_num","<div class = centerbox><p class = center-block-text>problem <strong>9</strong> out of 25 problems</p></div>","0","","","","","","","","","","","","","","","","","","","","","","","","",""
"","","","","","single-stim-button","148","287364","0.0-2.0-34.0-0.0","6015e67814eb10734088e51e","F1","batch6","","17368","tol_tohand","","","","tol_peg_3","17368","17368","0","[[3,2,0],[0,0],[0]]","1","[[2,1,0],[3,0],[0]]","8","0","","","","","","6","","","","","","","","",""
"","","","","","single-stim-button","149","288083","0.0-2.0-34.0-1.0","6015e67814eb10734088e51e","F1","batch6","","718","tol_toboard","","","","tol_peg_2","718","718","0","[[3,2,0],[1,0],[0]]","1","[[2,1,0],[3,0],[0]]","8","0","","","","","","6","","","","","","","","",""
"","","","","","single-stim-button","150","288731","0.0-2.0-34.1-0.1","6015e67814eb10734088e51e","F1","batch6","","647","tol_tohand","","","","tol_peg_1","647","647","0","[[3,0,0],[1,0],[0]]","2","[[2,1,0],[3,0],[0]]","8","0","","","","","","6","","","","","","","","",""
"","","","","","single-stim-button","151","292051","0.0-2.0-34.1-1.1","6015e67814eb10734088e51e","F1","batch6","","3318","tol_toboard","","","","tol_peg_3","3318","3318","0","[[3,0,0],[1,0],[2]]","2","[[2,1,0],[3,0],[0]]","8","0","","","","","","6","","","","","","","","",""
"","","","","","single-stim-button","152","293323","0.0-2.0-34.2-0.2","6015e67814eb10734088e51e","F1","batch6","","1271","tol_tohand","","","","tol_peg_1","1271","1271","0","[[0,0,0],[1,0],[2]]","3","[[2,1,0],[3,0],[0]]","8","0","","","","","","6","","","","","","","","",""
"","","","","","single-stim-button","153","293803","0.0-2.0-34.2-1.2","6015e67814eb10734088e51e","F1","batch6","","479","tol_toboard","","","","tol_peg_2","479","479","0","[[0,0,0],[1,3],[2]]","3","[[2,1,0],[3,0],[0]]","8","0","","","","","","6","","","","","","","","",""
"","","","","","single-stim-button","154","294364","0.0-2.0-34.3-0.3","6015e67814eb10734088e51e","F1","batch6","","560","tol_tohand","","","","tol_peg_3","560","560","0","[[0,0,0],[1,3],[0]]","4","[[2,1,0],[3,0],[0]]","8","0","","","","","","6","","","","","","","","",""
"","","","","","single-stim-button","155","295443","0.0-2.0-34.3-1.3","6015e67814eb10734088e51e","F1","batch6","","1078","tol_toboard","","","","tol_peg_1","1078","1078","0","[[2,0,0],[1,3],[0]]","4","[[2,1,0],[3,0],[0]]","8","0","","","","","","6","","","","","","","","",""
"","","","","","single-stim-button","156","295971","0.0-2.0-34.4-0.4","6015e67814eb10734088e51e","F1","batch6","","526","tol_tohand","","","","tol_peg_2","526","526","0","[[2,0,0],[1,0],[0]]","5","[[2,1,0],[3,0],[0]]","8","0","","","","","","6","","","","","","","","",""
"","","","","","single-stim-button","157","296587","0.0-2.0-34.4-1.4","6015e67814eb10734088e51e","F1","batch6","","615","tol_toboard","","","","tol_peg_3","615","615","0","[[2,0,0],[1,0],[3]]","5","[[2,1,0],[3,0],[0]]","8","0","","","","","","6","","","","","","","","",""
"","","","","","single-stim-button","158","296948","0.0-2.0-34.5-0.5","6015e67814eb10734088e51e","F1","batch6","","360","tol_tohand","","","","tol_peg_2","360","360","0","[[2,0,0],[0,0],[3]]","6","[[2,1,0],[3,0],[0]]","8","0","","","","","","6","","","","","","","","",""
"","","","","","single-stim-button","159","297596","0.0-2.0-34.5-1.5","6015e67814eb10734088e51e","F1","batch6","","648","tol_toboard","","","","tol_peg_1","648","648","0","[[2,1,0],[0,0],[3]]","6","[[2,1,0],[3,0],[0]]","8","0","","","","","","6","","","","","","","","",""
"","","","","","single-stim-button","160","298164","0.0-2.0-34.6-0.6","6015e67814eb10734088e51e","F1","batch6","","566","tol_tohand","","","","tol_peg_3","566","566","0","[[2,1,0],[0,0],[0]]","7","[[2,1,0],[3,0],[0]]","8","0","","","","","","6","","","","","","","","",""
"","","","","","single-stim-button","161","298699","0.0-2.0-34.6-1.6","6015e67814eb10734088e51e","F1","batch6","","534","tol_toboard","","","","tol_peg_2","534","534","0","[[2,1,0],[3,0],[0]]","7","[[2,1,0],[3,0],[0]]","8","0","","","","","","6","","","","","","","","",""
"","","","","","poldrack-single-stim","162","299714","0.0-2.0-35.0","6015e67814eb10734088e51e","F1","batch6","","-1","tol_feedback","","","true","","1000","1000","500","","","","","","-1","none","true","17368","21298","","","","","","","","","",""
"","","","","","html-button-response","163","300386","0.0-2.0-36.0","6015e67814eb10734088e51e","F1","batch6","","670.8999999761581","tol_trial_num","<div class = centerbox><p class = center-block-text>problem <strong>10</strong> out of 25 problems</p></div>","0","","","","","","","","","","","","","","","","","","","","","","","","",""
"","","","","","single-stim-button","164","306564","0.0-2.0-37.0-0.0","6015e67814eb10734088e51e","F1","batch6","","6177","tol_tohand","","","","tol_peg_2","6177","6177","0","[[3,0,0],[0,0],[2]]","1","[[3,0,0],[2,1],[0]]","9","0","","","","","","3","","","","","","","","",""
"","","","","","single-stim-button","165","307364","0.0-2.0-37.0-1.0","6015e67814eb10734088e51e","F1","batch6","","800","tol_toboard","","","","tol_peg_1","800","800","0","[[3,1,0],[0,0],[2]]","1","[[3,0,0],[2,1],[0]]","9","0","","","","","","3","","","","","","","","",""
"","","","","","single-stim-button","166","308012","0.0-2.0-37.1-0.1","6015e67814eb10734088e51e","F1","batch6","","647","tol_tohand","","","","tol_peg_3","647","647","0","[[3,1,0],[0,0],[0]]","2","[[3,0,0],[2,1],[0]]","9","0","","","","","","3","","","","","","","","",""
"","","","","","single-stim-button","167","308764","0.0-2.0-37.1-1.1","6015e67814eb10734088e51e","F1","batch6","","750","tol_toboard","","","","tol_peg_2","750","750","0","[[3,1,0],[2,0],[0]]","2","[[3,0,0],[2,1],[0]]","9","0","","","","","","3","","","","","","","","",""
"","","","","","single-stim-button","168","309395","0.0-2.0-37.2-0.2","6015e67814eb10734088e51e","F1","batch6","","629","tol_tohand","","","","tol_peg_1","629","629","0","[[3,0,0],[2,0],[0]]","3","[[3,0,0],[2,1],[0]]","9","0","","","","","","3","","","","","","","","",""
"","","","","","single-stim-button","169","309858","0.0-2.0-37.2-1.2","6015e67814eb10734088e51e","F1","batch6","","463","tol_toboard","","","","tol_peg_2","463","463","0","[[3,0,0],[2,1],[0]]","3","[[3,0,0],[2,1],[0]]","9","0","","","","","","3","","","","","","","","",""
"","","","","","poldrack-single-stim","170","310867","0.0-2.0-38.0","6015e67814eb10734088e51e","F1","batch6","","-1","tol_feedback","","","true","","1000","1000","500","","","","","","-1","none","true","6177","7453","","","","","","","","","",""
"","","","","","html-button-response","171","311650","0.0-2.0-39.0","6015e67814eb10734088e51e","F1","batch6","","782","tol_trial_num","<div class = centerbox><p class = center-block-text>problem <strong>11</strong> out of 25 problems</p></div>","0","","","","","","","","","","","","","","","","","","","","","","","","",""
"","","","","","single-stim-button","172","324554","0.0-2.0-40.0-0.0","6015e67814eb10734088e51e","F1","batch6","","12903","tol_tohand","","","","tol_peg_1","12903","12903","0","[[1,0,0],[3,0],[0]]","1","[[2,0,0],[1,3],[0]]","10","0","","","","","","6","","","","","","","","",""
"","","","","","single-stim-button","173","325363","0.0-2.0-40.0-1.0","6015e67814eb10734088e51e","F1","batch6","","808","tol_toboard","","","","tol_peg_3","808","808","0","[[1,0,0],[3,0],[2]]","1","[[2,0,0],[1,3],[0]]","10","0","","","","","","6","","","","","","","","",""
"","","","","","single-stim-button","174","325954","0.0-2.0-40.1-0.1","6015e67814eb10734088e51e","F1","batch6","","590","tol_tohand","","","","tol_peg_1","590","590","0","[[0,0,0],[3,0],[2]]","2","[[2,0,0],[1,3],[0]]","10","0","","","","","","6","","","","","","","","",""
"","","","","","single-stim-button","175","326563","0.0-2.0-40.1-1.1","6015e67814eb10734088e51e","F1","batch6","","609","tol_toboard","","","","tol_peg_2","609","609","0","[[0,0,0],[3,1],[2]]","2","[[2,0,0],[1,3],[0]]","10","0","","","","","","6","","","","","","","","",""
"","","","","","single-stim-button","176","327306","0.0-2.0-40.2-0.2","6015e67814eb10734088e51e","F1","batch6","","742","tol_tohand","","","","tol_peg_3","742","742","0","[[0,0,0],[3,1],[0]]","3","[[2,0,0],[1,3],[0]]","10","0","","","","","","6","","","","","","","","",""
"","","","","","single-stim-button","177","328258","0.0-2.0-40.2-1.2","6015e67814eb10734088e51e","F1","batch6","","951","tol_toboard","","","","tol_peg_1","951","951","0","[[2,0,0],[3,1],[0]]","3","[[2,0,0],[1,3],[0]]","10","0","","","","","","6","","","","","","","","",""
"","","","","","single-stim-button","178","328938","0.0-2.0-40.3-0.3","6015e67814eb10734088e51e","F1","batch6","","680","tol_tohand","","","","tol_peg_2","680","680","0","[[2,0,0],[3,0],[0]]","4","[[2,0,0],[1,3],[0]]","10","0","","","","","","6","","","","","","","","",""
"","","","","","single-stim-button","179","329635","0.0-2.0-40.3-1.3","6015e67814eb10734088e51e","F1","batch6","","696","tol_toboard","","","","tol_peg_3","696","696","0","[[2,0,0],[3,0],[1]]","4","[[2,0,0],[1,3],[0]]","10","0","","","","","","6","","","","","","","","",""
"","","","","","single-stim-button","180","330178","0.0-2.0-40.4-0.4","6015e67814eb10734088e51e","F1","batch6","","543","tol_tohand","","","","tol_peg_2","543","543","0","[[2,0,0],[0,0],[1]]","5","[[2,0,0],[1,3],[0]]","10","0","","","","","","6","","","","","","","","",""
"","","","","","single-stim-button","181","330852","0.0-2.0-40.4-1.4","6015e67814eb10734088e51e","F1","batch6","","673","tol_toboard","","","","tol_peg_1","673","673","0","[[2,3,0],[0,0],[1]]","5","[[2,0,0],[1,3],[0]]","10","0","","","","","","6","","","","","","","","",""
"","","","","","single-stim-button","182","331386","0.0-2.0-40.5-0.5","6015e67814eb10734088e51e","F1","batch6","","533","tol_tohand","","","","tol_peg_3","533","533","0","[[2,3,0],[0,0],[0]]","6","[[2,0,0],[1,3],[0]]","10","0","","","","","","6","","","","","","","","",""
"","","","","","single-stim-button","183","331971","0.0-2.0-40.5-1.5","6015e67814eb10734088e51e","F1","batch6","","584","tol_toboard","","","","tol_peg_2","584","584","0","[[2,3,0],[1,0],[0]]","6","[[2,0,0],[1,3],[0]]","10","0","","","","","","6","","","","","","","","",""
"","","","","","single-stim-button","184","332594","0.0-2.0-40.6-0.6","6015e67814eb10734088e51e","F1","batch6","","622","tol_tohand","","","","tol_peg_1","622","622","0","[[2,0,0],[1,0],[0]]","7","[[2,0,0],[1,3],[0]]","10","0","","","","","","6","","","","","","","","",""
"","","","","","single-stim-button","185","333251","0.0-2.0-40.6-1.6","6015e67814eb10734088e51e","F1","batch6","","656","tol_toboard","","","","tol_peg_2","656","656","0","[[2,0,0],[1,3],[0]]","7","[[2,0,0],[1,3],[0]]","10","0","","","","","","6","","","","","","","","",""
"","","","","","poldrack-single-stim","186","334263","0.0-2.0-41.0","6015e67814eb10734088e51e","F1","batch6","","-1","tol_feedback","","","true","","1000","1000","500","","","","","","-1","none","true","12903","16613","","","","","","","","","",""
"","","","","","html-button-response","187","334977","0.0-2.0-42.0","6015e67814eb10734088e51e","F1","batch6","","713.9000000059605","tol_trial_num","<div class = centerbox><p class = center-block-text>problem <strong>12</strong> out of 25 problems</p></div>","0","","","","","","","","","","","","","","","","","","","","","","","","",""
"","","","","","single-stim-button","188","340668","0.0-2.0-43.0-0.0","6015e67814eb10734088e51e","F1","batch6","","5689","tol_tohand","","","","tol_peg_1","5689","5689","0","[[1,0,0],[3,0],[0]]","1","[[2,3,0],[0,0],[1]]","11","0","","","","","","4","","","","","","","","",""
"","","","","","single-stim-button","189","341283","0.0-2.0-43.0-1.0","6015e67814eb10734088e51e","F1","batch6","","615","tol_toboard","","","","tol_peg_2","615","615","0","[[1,0,0],[3,2],[0]]","1","[[2,3,0],[0,0],[1]]","11","0","","","","","","4","","","","","","","","",""
"","","","","","single-stim-button","190","341962","0.0-2.0-43.1-0.1","6015e67814eb10734088e51e","F1","batch6","","678","tol_tohand","","","","tol_peg_1","678","678","0","[[0,0,0],[3,2],[0]]","2","[[2,3,0],[0,0],[1]]","11","0","","","","","","4","","","","","","","","",""
"","","","","","single-stim-button","191","342690","0.0-2.0-43.1-1.1","6015e67814eb10734088e51e","F1","batch6","","727","tol_toboard","","","","tol_peg_3","727","727","0","[[0,0,0],[3,2],[1]]","2","[[2,3,0],[0,0],[1]]","11","0","","","","","","4","","","","","","","","",""
"","","","","","single-stim-button","192","343362","0.0-2.0-43.2-0.2","6015e67814eb10734088e51e","F1","batch6","","671","tol_tohand","","","","tol_peg_2","671","671","0","[[0,0,0],[3,0],[1]]","3","[[2,3,0],[0,0],[1]]","11","0","","","","","","4","","","","","","","","",""
"","","","","","single-stim-button","193","344084","0.0-2.0-43.2-1.2","6015e67814eb10734088e51e","F1","batch6","","721","tol_toboard","","","","tol_peg_1","721","721","0","[[2,0,0],[3,0],[1]]","3","[[2,3,0],[0,0],[1]]","11","0","","","","","","4","","","","","","","","",""
"","","","","","single-stim-button","194","344730","0.0-2.0-43.3-0.3","6015e67814eb10734088e51e","F1","batch6","","645","tol_tohand","","","","tol_peg_2","645","645","0","[[2,0,0],[0,0],[1]]","4","[[2,3,0],[0,0],[1]]","11","0","","","","","","4","","","","","","","","",""
"","","","","","single-stim-button","195","345346","0.0-2.0-43.3-1.3","6015e67814eb10734088e51e","F1","batch6","","615","tol_toboard","","","","tol_peg_1","615","615","0","[[2,3,0],[0,0],[1]]","4","[[2,3,0],[0,0],[1]]","11","0","","","","","","4","","","","","","","","",""
"","","","","","poldrack-single-stim","196","346350","0.0-2.0-44.0","6015e67814eb10734088e51e","F1","batch6","","-1","tol_feedback","","","true","","1000","1000","500","","","","","","-1","none","true","5689","7683","","","","","","","","","",""
"","","","","","html-button-response","197","347322","0.0-2.0-45.0","6015e67814eb10734088e51e","F1","batch6","","970.5999999940395","tol_trial_num","<div class = centerbox><p class = center-block-text>problem <strong>13</strong> out of 25 problems</p></div>","0","","","","","","","","","","","","","","","","","","","","","","","","",""
"","","","","","single-stim-button","198","350978","0.0-2.0-46.0-0.0","6015e67814eb10734088e51e","F1","batch6","","3656","tol_tohand","","","","tol_peg_1","3656","3656","0","[[1,0,0],[3,0],[0]]","1","[[0,0,0],[2,3],[1]]","12","0","","","","","","4","","","","","","","","",""
"","","","","","single-stim-button","199","353003","0.0-2.0-46.0-1.0","6015e67814eb10734088e51e","F1","batch6","","2024","tol_toboard","","","","tol_peg_2","2024","2024","0","[[1,0,0],[3,2],[0]]","1","[[0,0,0],[2,3],[1]]","12","0","","","","","","4","","","","","","","","",""
"","","","","","single-stim-button","200","353531","0.0-2.0-46.1-0.1","6015e67814eb10734088e51e","F1","batch6","","526","tol_tohand","","","","tol_peg_1","526","526","0","[[0,0,0],[3,2],[0]]","2","[[0,0,0],[2,3],[1]]","12","0","","","","","","4","","","","","","","","",""
"","","","","","single-stim-button","201","354403","0.0-2.0-46.1-1.1","6015e67814eb10734088e51e","F1","batch6","","872","tol_toboard","","","","tol_peg_3","872","872","0","[[0,0,0],[3,2],[1]]","2","[[0,0,0],[2,3],[1]]","12","0","","","","","","4","","","","","","","","",""
"","","","","","single-stim-button","202","355235","0.0-2.0-46.2-0.2","6015e67814eb10734088e51e","F1","batch6","","831","tol_tohand","","","","tol_peg_2","831","831","0","[[0,0,0],[3,0],[1]]","3","[[0,0,0],[2,3],[1]]","12","0","","","","","","4","","","","","","","","",""
"","","","","","single-stim-button","203","355954","0.0-2.0-46.2-1.2","6015e67814eb10734088e51e","F1","batch6","","718","tol_toboard","","","","tol_peg_1","718","718","0","[[2,0,0],[3,0],[1]]","3","[[0,0,0],[2,3],[1]]","12","0","","","","","","4","","","","","","","","",""
"","","","","","single-stim-button","204","359914","0.0-2.0-46.3-0.3","6015e67814eb10734088e51e","F1","batch6","","3959","tol_tohand","","","","tol_peg_3","3959","3959","0","[[2,0,0],[3,0],[0]]","4","[[0,0,0],[2,3],[1]]","12","0","","","","","","4","","","","","","","","",""
"","","","","","single-stim-button","205","360571","0.0-2.0-46.3-1.3","6015e67814eb10734088e51e","F1","batch6","","656","tol_toboard","","","","tol_peg_1","656","656","0","[[2,1,0],[3,0],[0]]","4","[[0,0,0],[2,3],[1]]","12","0","","","","","","4","","","","","","","","",""
"","","","","","single-stim-button","206","361172","0.0-2.0-46.4-0.4","6015e67814eb10734088e51e","F1","batch6","","599","tol_tohand","","","","tol_peg_2","599","599","0","[[2,1,0],[0,0],[0]]","5","[[0,0,0],[2,3],[1]]","12","0","","","","","","4","","","","","","","","",""
"","","","","","single-stim-button","207","361836","0.0-2.0-46.4-1.4","6015e67814eb10734088e51e","F1","batch6","","663","tol_toboard","","","","tol_peg_3","663","663","0","[[2,1,0],[0,0],[3]]","5","[[0,0,0],[2,3],[1]]","12","0","","","","","","4","","","","","","","","",""
"","","","","","single-stim-button","208","364123","0.0-2.0-46.5-0.5","6015e67814eb10734088e51e","F1","batch6","","2286","tol_tohand","","","","tol_peg_1","2286","2286","0","[[2,0,0],[0,0],[3]]","6","[[0,0,0],[2,3],[1]]","12","0","","","","","","4","","","","","","","","",""
"","","","","","single-stim-button","209","365867","0.0-2.0-46.5-1.5","6015e67814eb10734088e51e","F1","batch6","","1743","tol_toboard","","","","tol_peg_2","1743","1743","0","[[2,0,0],[1,0],[3]]","6","[[0,0,0],[2,3],[1]]","12","0","","","","","","4","","","","","","","","",""
"","","","","","single-stim-button","210","366658","0.0-2.0-46.6-0.6","6015e67814eb10734088e51e","F1","batch6","","791","tol_tohand","","","","tol_peg_1","791","791","0","[[0,0,0],[1,0],[3]]","7","[[0,0,0],[2,3],[1]]","12","0","","","","","","4","","","","","","","","",""
"","","","","","single-stim-button","211","367090","0.0-2.0-46.6-1.6","6015e67814eb10734088e51e","F1","batch6","","431","tol_toboard","","","","tol_peg_2","431","431","0","[[0,0,0],[1,2],[3]]","7","[[0,0,0],[2,3],[1]]","12","0","","","","","","4","","","","","","","","",""
"","","","","","single-stim-button","212","367610","0.0-2.0-46.7-0.7","6015e67814eb10734088e51e","F1","batch6","","519","tol_tohand","","","","tol_peg_3","519","519","0","[[0,0,0],[1,2],[0]]","8","[[0,0,0],[2,3],[1]]","12","0","","","","","","4","","","","","","","","",""
"","","","","","single-stim-button","213","368322","0.0-2.0-46.7-1.7","6015e67814eb10734088e51e","F1","batch6","","712","tol_toboard","","","","tol_peg_1","712","712","0","[[3,0,0],[1,2],[0]]","8","[[0,0,0],[2,3],[1]]","12","0","","","","","","4","","","","","","","","",""
"","","","","","single-stim-button","214","368923","0.0-2.0-46.8-0.8","6015e67814eb10734088e51e","F1","batch6","","599","tol_tohand","","","","tol_peg_2","599","599","0","[[3,0,0],[1,0],[0]]","9","[[0,0,0],[2,3],[1]]","12","0","","","","","","4","","","","","","","","",""
"","","","","","single-stim-button","215","370003","0.0-2.0-46.8-1.8","6015e67814eb10734088e51e","F1","batch6","","1080","tol_toboard","","","","tol_peg_3","1080","1080","0","[[3,0,0],[1,0],[2]]","9","[[0,0,0],[2,3],[1]]","12","0","","","","","","4","","","","","","","","",""
"","","","","","single-stim-button","216","371538","0.0-2.0-46.9-0.9","6015e67814eb10734088e51e","F1","batch6","","1533","tol_tohand","","","","tol_peg_2","1533","1533","0","[[3,0,0],[0,0],[2]]","10","[[0,0,0],[2,3],[1]]","12","0","","","","","","4","","","","","","","","",""
"","","","","","single-stim-button","217","372114","0.0-2.0-46.9-1.9","6015e67814eb10734088e51e","F1","batch6","","575","tol_toboard","","","","tol_peg_1","575","575","0","[[3,1,0],[0,0],[2]]","10","[[0,0,0],[2,3],[1]]","12","0","","","","","","4","","","","","","","","",""
"","","","","","single-stim-button","218","372715","0.0-2.0-46.10-0.10","6015e67814eb10734088e51e","F1","batch6","","600","tol_tohand","","","","tol_peg_3","600","600","0","[[3,1,0],[0,0],[0]]","11","[[0,0,0],[2,3],[1]]","12","0","","","","","","4","","","","","","","","",""
"","","","","","single-stim-button","219","373554","0.0-2.0-46.10-1.10","6015e67814eb10734088e51e","F1","batch6","","838","tol_toboard","","","","tol_peg_2","838","838","0","[[3,1,0],[2,0],[0]]","11","[[0,0,0],[2,3],[1]]","12","0","","","","","","4","","","","","","","","",""
"","","","","","single-stim-button","220","373914","0.0-2.0-46.11-0.11","6015e67814eb10734088e51e","F1","batch6","","359","tol_tohand","","","","tol_peg_1","359","359","0","[[3,0,0],[2,0],[0]]","12","[[0,0,0],[2,3],[1]]","12","0","","","","","","4","","","","","","","","",""
"","","","","","single-stim-button","221","375003","0.0-2.0-46.11-1.11","6015e67814eb10734088e51e","F1","batch6","","1089","tol_toboard","","","","tol_peg_3","1089","1089","0","[[3,0,0],[2,0],[1]]","12","[[0,0,0],[2,3],[1]]","12","0","","","","","","4","","","","","","","","",""
"","","","","","single-stim-button","222","375674","0.0-2.0-46.12-0.12","6015e67814eb10734088e51e","F1","batch6","","670","tol_tohand","","","","tol_peg_1","670","670","0","[[0,0,0],[2,0],[1]]","13","[[0,0,0],[2,3],[1]]","12","0","","","","","","4","","","","","","","","",""
"","","","","","single-stim-button","223","376250","0.0-2.0-46.12-1.12","6015e67814eb10734088e51e","F1","batch6","","576","tol_toboard","","","","tol_peg_2","576","576","0","[[0,0,0],[2,3],[1]]","13","[[0,0,0],[2,3],[1]]","12","0","","","","","","4","","","","","","","","",""
"","","","","","poldrack-single-stim","224","377260","0.0-2.0-47.0","6015e67814eb10734088e51e","F1","batch6","","-1","tol_feedback","","","true","","1000","1000","500","","","","","","-1","none","true","3656","16928","","","","","","","","","",""
"","","","","","html-button-response","225","379682","0.0-2.0-48.0","6015e67814eb10734088e51e","F1","batch6","","2420","attention_check","<p class = block-text>How many balls are in your board<br></p>","1","true","","","","","","","","","","","","","","","","","","","","","","","",""
"","","","","","html-button-response","226","380698","0.0-2.0-49.0","6015e67814eb10734088e51e","F1","batch6","","1015.6999999880791","tol_trial_num","<div class = centerbox><p class = center-block-text>problem <strong>14</strong> out of 25 problems</p></div>","0","","","","","","","","","","","","","","","","","","","","","","","","",""
"","","","","","single-stim-button","227","385572","0.0-2.0-50.0-0.0","6015e67814eb10734088e51e","F1","batch6","","4873","tol_tohand","","","","tol_peg_1","4873","4873","0","[[2,0,0],[3,0],[0]]","1","[[1,2,0],[3,0],[0]]","13","0","","","","","","4","","","","","","","","",""
"","","","","","single-stim-button","228","387042","0.0-2.0-50.0-1.0","6015e67814eb10734088e51e","F1","batch6","","1469","tol_toboard","","","","tol_peg_2","1469","1469","0","[[2,0,0],[3,1],[0]]","1","[[1,2,0],[3,0],[0]]","13","0","","","","","","4","","","","","","","","",""
"","","","","","single-stim-button","229","387826","0.0-2.0-50.1-0.1","6015e67814eb10734088e51e","F1","batch6","","782","tol_tohand","","","","tol_peg_1","782","782","0","[[0,0,0],[3,1],[0]]","2","[[1,2,0],[3,0],[0]]","13","0","","","","","","4","","","","","","","","",""
"","","","","","single-stim-button","230","388874","0.0-2.0-50.1-1.1","6015e67814eb10734088e51e","F1","batch6","","1048","tol_toboard","","","","tol_peg_3","1048","1048","0","[[0,0,0],[3,1],[2]]","2","[[1,2,0],[3,0],[0]]","13","0","","","","","","4","","","","","","","","",""
"","","","","","single-stim-button","231","390362","0.0-2.0-50.2-0.2","6015e67814eb10734088e51e","F1","batch6","","1487","tol_tohand","","","","tol_peg_2","1487","1487","0","[[0,0,0],[3,0],[2]]","3","[[1,2,0],[3,0],[0]]","13","0","","","","","","4","","","","","","","","",""
"","","","","","single-stim-button","232","391226","0.0-2.0-50.2-1.2","6015e67814eb10734088e51e","F1","batch6","","862","tol_toboard","","","","tol_peg_1","862","862","0","[[1,0,0],[3,0],[2]]","3","[[1,2,0],[3,0],[0]]","13","0","","","","","","4","","","","","","","","",""
"","","","","","single-stim-button","233","392034","0.0-2.0-50.3-0.3","6015e67814eb10734088e51e","F1","batch6","","807","tol_tohand","","","","tol_peg_3","807","807","0","[[1,0,0],[3,0],[0]]","4","[[1,2,0],[3,0],[0]]","13","0","","","","","","4","","","","","","","","",""
"","","","","","single-stim-button","234","392787","0.0-2.0-50.3-1.3","6015e67814eb10734088e51e","F1","batch6","","752","tol_toboard","","","","tol_peg_1","752","752","0","[[1,2,0],[3,0],[0]]","4","[[1,2,0],[3,0],[0]]","13","0","","","","","","4","","","","","","","","",""
"","","","","","poldrack-single-stim","235","393794","0.0-2.0-51.0","6015e67814eb10734088e51e","F1","batch6","","-1","tol_feedback","","","true","","1000","1000","500","","","","","","-1","none","true","4873","7949","","","","","","","","","",""
"","","","","","html-button-response","236","394777","0.0-2.0-52.0","6015e67814eb10734088e51e","F1","batch6","","981.5999999940395","tol_trial_num","<div class = centerbox><p class = center-block-text>problem <strong>15</strong> out of 25 problems</p></div>","0","","","","","","","","","","","","","","","","","","","","","","","","",""
"","","","","","single-stim-button","237","397202","0.0-2.0-53.0-0.0","6015e67814eb10734088e51e","F1","batch6","","2425","tol_tohand","","","","tol_peg_1","2425","2425","0","[[1,0,0],[3,0],[0]]","1","[[2,0,0],[3,0],[1]]","14","0","","","","","","3","","","","","","","","",""
"","","","","","single-stim-button","238","397778","0.0-2.0-53.0-1.0","6015e67814eb10734088e51e","F1","batch6","","575","tol_toboard","","","","tol_peg_2","575","575","0","[[1,0,0],[3,2],[0]]","1","[[2,0,0],[3,0],[1]]","14","0","","","","","","3","","","","","","","","",""
"","","","","","single-stim-button","239","398292","0.0-2.0-53.1-0.1","6015e67814eb10734088e51e","F1","batch6","","513","tol_tohand","","","","tol_peg_1","513","513","0","[[0,0,0],[3,2],[0]]","2","[[2,0,0],[3,0],[1]]","14","0","","","","","","3","","","","","","","","",""
"","","","","","single-stim-button","240","399066","0.0-2.0-53.1-1.1","6015e67814eb10734088e51e","F1","batch6","","774","tol_toboard","","","","tol_peg_3","774","774","0","[[0,0,0],[3,2],[1]]","2","[[2,0,0],[3,0],[1]]","14","0","","","","","","3","","","","","","","","",""
"","","","","","single-stim-button","241","399594","0.0-2.0-53.2-0.2","6015e67814eb10734088e51e","F1","batch6","","526","tol_tohand","","","","tol_peg_2","526","526","0","[[0,0,0],[3,0],[1]]","3","[[2,0,0],[3,0],[1]]","14","0","","","","","","3","","","","","","","","",""
"","","","","","single-stim-button","242","400346","0.0-2.0-53.2-1.2","6015e67814eb10734088e51e","F1","batch6","","751","tol_toboard","","","","tol_peg_1","751","751","0","[[2,0,0],[3,0],[1]]","3","[[2,0,0],[3,0],[1]]","14","0","","","","","","3","","","","","","","","",""
"","","","","","poldrack-single-stim","243","401352","0.0-2.0-54.0","6015e67814eb10734088e51e","F1","batch6","","-1","tol_feedback","","","true","","1000","1000","500","","","","","","-1","none","true","2425","3464","","","","","","","","","",""
"","","","","","html-button-response","244","402337","0.0-2.0-55.0","6015e67814eb10734088e51e","F1","batch6","","983","tol_trial_num","<div class = centerbox><p class = center-block-text>problem <strong>16</strong> out of 25 problems</p></div>","0","","","","","","","","","","","","","","","","","","","","","","","","",""
"","","","","","single-stim-button","245","417194","0.0-2.0-56.0-0.0","6015e67814eb10734088e51e","F1","batch6","","14855","tol_tohand","","","","tol_peg_3","14855","14855","0","[[0,0,0],[2,3],[0]]","1","[[2,3,0],[1,0],[0]]","15","0","","","","","","7","","","","","","","","",""
"","","","","","single-stim-button","246","417938","0.0-2.0-56.0-1.0","6015e67814eb10734088e51e","F1","batch6","","743","tol_toboard","","","","tol_peg_1","743","743","0","[[1,0,0],[2,3],[0]]","1","[[2,3,0],[1,0],[0]]","15","0","","","","","","7","","","","","","","","",""
"","","","","","single-stim-button","247","418986","0.0-2.0-56.1-0.1","6015e67814eb10734088e51e","F1","batch6","","1046","tol_tohand","","","","tol_peg_2","1046","1046","0","[[1,0,0],[2,0],[0]]","2","[[2,3,0],[1,0],[0]]","15","0","","","","","","7","","","","","","","","",""
"","","","","","single-stim-button","248","420049","0.0-2.0-56.1-1.1","6015e67814eb10734088e51e","F1","batch6","","1063","tol_toboard","","","","tol_peg_3","1063","1063","0","[[1,0,0],[2,0],[3]]","2","[[2,3,0],[1,0],[0]]","15","0","","","","","","7","","","","","","","","",""
"","","","","","single-stim-button","249","425778","0.0-2.0-56.2-0.2","6015e67814eb10734088e51e","F1","batch6","","5728","tol_tohand","","","","tol_peg_2","5728","5728","0","[[1,0,0],[0,0],[3]]","3","[[2,3,0],[1,0],[0]]","15","0","","","","","","7","","","","","","","","",""
"","","","","","single-stim-button","250","426362","0.0-2.0-56.2-1.2","6015e67814eb10734088e51e","F1","batch6","","583","tol_toboard","","","","tol_peg_1","583","583","0","[[1,2,0],[0,0],[3]]","3","[[2,3,0],[1,0],[0]]","15","0","","","","","","7","","","","","","","","",""
"","","","","","single-stim-button","251","427082","0.0-2.0-56.3-0.3","6015e67814eb10734088e51e","F1","batch6","","719","tol_tohand","","","","tol_peg_3","719","719","0","[[1,2,0],[0,0],[0]]","4","[[2,3,0],[1,0],[0]]","15","0","","","","","","7","","","","","","","","",""
"","","","","","single-stim-button","252","427946","0.0-2.0-56.3-1.3","6015e67814eb10734088e51e","F1","batch6","","863","tol_toboard","","","","tol_peg_2","863","863","0","[[1,2,0],[3,0],[0]]","4","[[2,3,0],[1,0],[0]]","15","0","","","","","","7","","","","","","","","",""
"","","","","","single-stim-button","253","428522","0.0-2.0-56.4-0.4","6015e67814eb10734088e51e","F1","batch6","","575","tol_tohand","","","","tol_peg_1","575","575","0","[[1,0,0],[3,0],[0]]","5","[[2,3,0],[1,0],[0]]","15","0","","","","","","7","","","","","","","","",""
"","","","","","single-stim-button","254","429146","0.0-2.0-56.4-1.4","6015e67814eb10734088e51e","F1","batch6","","623","tol_toboard","","","","tol_peg_2","623","623","0","[[1,0,0],[3,2],[0]]","5","[[2,3,0],[1,0],[0]]","15","0","","","","","","7","","","","","","","","",""
"","","","","","single-stim-button","255","430027","0.0-2.0-56.5-0.5","6015e67814eb10734088e51e","F1","batch6","","879","tol_tohand","","","","tol_peg_1","879","879","0","[[0,0,0],[3,2],[0]]","6","[[2,3,0],[1,0],[0]]","15","0","","","","","","7","","","","","","","","",""
"","","","","","single-stim-button","256","430666","0.0-2.0-56.5-1.5","6015e67814eb10734088e51e","F1","batch6","","639","tol_toboard","","","","tol_peg_3","639","639","0","[[0,0,0],[3,2],[1]]","6","[[2,3,0],[1,0],[0]]","15","0","","","","","","7","","","","","","","","",""
"","","","","","single-stim-button","257","433130","0.0-2.0-56.6-0.6","6015e67814eb10734088e51e","F1","batch6","","2463","tol_tohand","","","","tol_peg_2","2463","2463","0","[[0,0,0],[3,0],[1]]","7","[[2,3,0],[1,0],[0]]","15","0","","","","","","7","","","","","","","","",""
"","","","","","single-stim-button","258","433970","0.0-2.0-56.6-1.6","6015e67814eb10734088e51e","F1","batch6","","839","tol_toboard","","","","tol_peg_1","839","839","0","[[2,0,0],[3,0],[1]]","7","[[2,3,0],[1,0],[0]]","15","0","","","","","","7","","","","","","","","",""
"","","","","","single-stim-button","259","434659","0.0-2.0-56.7-0.7","6015e67814eb10734088e51e","F1","batch6","","688","tol_tohand","","","","tol_peg_2","688","688","0","[[2,0,0],[0,0],[1]]","8","[[2,3,0],[1,0],[0]]","15","0","","","","","","7","","","","","","","","",""
"","","","","","single-stim-button","260","435123","0.0-2.0-56.7-1.7","6015e67814eb10734088e51e","F1","batch6","","462","tol_toboard","","","","tol_peg_1","462","462","0","[[2,3,0],[0,0],[1]]","8","[[2,3,0],[1,0],[0]]","15","0","","","","","","7","","","","","","","","",""
"","","","","","single-stim-button","261","435810","0.0-2.0-56.8-0.8","6015e67814eb10734088e51e","F1","batch6","","687","tol_tohand","","","","tol_peg_3","687","687","0","[[2,3,0],[0,0],[0]]","9","[[2,3,0],[1,0],[0]]","15","0","","","","","","7","","","","","","","","",""
"","","","","","single-stim-button","262","436482","0.0-2.0-56.8-1.8","6015e67814eb10734088e51e","F1","batch6","","672","tol_toboard","","","","tol_peg_2","672","672","0","[[2,3,0],[1,0],[0]]","9","[[2,3,0],[1,0],[0]]","15","0","","","","","","7","","","","","","","","",""
"","","","","","poldrack-single-stim","263","437492","0.0-2.0-57.0","6015e67814eb10734088e51e","F1","batch6","","-1","tol_feedback","","","true","","1000","1000","500","","","","","","-1","none","true","14855","27640","","","","","","","","","",""
"","","","","","html-button-response","264","438370","0.0-2.0-58.0","6015e67814eb10734088e51e","F1","batch6","","876.5999999940395","tol_trial_num","<div class = centerbox><p class = center-block-text>problem <strong>17</strong> out of 25 problems</p></div>","0","","","","","","","","","","","","","","","","","","","","","","","","",""
"","","","","","single-stim-button","265","450306","0.0-2.0-59.0-0.0","6015e67814eb10734088e51e","F1","batch6","","11935","tol_tohand","","","","tol_peg_2","11935","11935","0","[[1,2,0],[0,0],[0]]","1","[[3,1,0],[2,0],[0]]","16","0","","","","","","5","","","","","","","","",""
"","","","","","single-stim-button","266","450923","0.0-2.0-59.0-1.0","6015e67814eb10734088e51e","F1","batch6","","615","tol_toboard","","","","tol_peg_3","615","615","0","[[1,2,0],[0,0],[3]]","1","[[3,1,0],[2,0],[0]]","16","0","","","","","","5","","","","","","","","",""
"","","","","","single-stim-button","267","451818","0.0-2.0-59.1-0.1","6015e67814eb10734088e51e","F1","batch6","","895","tol_tohand","","","","tol_peg_1","895","895","0","[[1,0,0],[0,0],[3]]","2","[[3,1,0],[2,0],[0]]","16","0","","","","","","5","","","","","","","","",""
"","","","","","single-stim-button","268","453002","0.0-2.0-59.1-1.1","6015e67814eb10734088e51e","F1","batch6","","1183","tol_toboard","","","","tol_peg_2","1183","1183","0","[[1,0,0],[2,0],[3]]","2","[[3,1,0],[2,0],[0]]","16","0","","","","","","5","","","","","","","","",""
"","","","","","single-stim-button","269","453818","0.0-2.0-59.2-0.2","6015e67814eb10734088e51e","F1","batch6","","815","tol_tohand","","","","tol_peg_1","815","815","0","[[0,0,0],[2,0],[3]]","3","[[3,1,0],[2,0],[0]]","16","0","","","","","","5","","","","","","","","",""
"","","","","","single-stim-button","270","454634","0.0-2.0-59.2-1.2","6015e67814eb10734088e51e","F1","batch6","","815","tol_toboard","","","","tol_peg_2","815","815","0","[[0,0,0],[2,1],[3]]","3","[[3,1,0],[2,0],[0]]","16","0","","","","","","5","","","","","","","","",""
"","","","","","single-stim-button","271","455354","0.0-2.0-59.3-0.3","6015e67814eb10734088e51e","F1","batch6","","719","tol_tohand","","","","tol_peg_3","719","719","0","[[0,0,0],[2,1],[0]]","4","[[3,1,0],[2,0],[0]]","16","0","","","","","","5","","","","","","","","",""
"","","","","","single-stim-button","272","456266","0.0-2.0-59.3-1.3","6015e67814eb10734088e51e","F1","batch6","","912","tol_toboard","","","","tol_peg_1","912","912","0","[[3,0,0],[2,1],[0]]","4","[[3,1,0],[2,0],[0]]","16","0","","","","","","5","","","","","","","","",""
"","","","","","single-stim-button","273","456819","0.0-2.0-59.4-0.4","6015e67814eb10734088e51e","F1","batch6","","551","tol_tohand","","","","tol_peg_2","551","551","0","[[3,0,0],[2,0],[0]]","5","[[3,1,0],[2,0],[0]]","16","0","","","","","","5","","","","","","","","",""
"","","","","","single-stim-button","274","457538","0.0-2.0-59.4-1.4","6015e67814eb10734088e51e","F1","batch6","","718","tol_toboard","","","","tol_peg_1","718","718","0","[[3,1,0],[2,0],[0]]","5","[[3,1,0],[2,0],[0]]","16","0","","","","","","5","","","","","","","","",""
"","","","","","poldrack-single-stim","275","458542","0.0-2.0-60.0","6015e67814eb10734088e51e","F1","batch6","","-1","tol_feedback","","","true","","1000","1000","500","","","","","","-1","none","true","11935","14915","","","","","","","","","",""
"","","","","","html-button-response","276","459402","0.0-2.0-61.0","6015e67814eb10734088e51e","F1","batch6","","858.6999999880791","tol_trial_num","<div class = centerbox><p class = center-block-text>problem <strong>18</strong> out of 25 problems</p></div>","0","","","","","","","","","","","","","","","","","","","","","","","","",""
"","","","","","single-stim-button","277","469114","0.0-2.0-62.0-0.0","6015e67814eb10734088e51e","F1","batch6","","9712","tol_tohand","","","","tol_peg_1","9712","9712","0","[[1,0,0],[3,0],[0]]","1","[[3,0,0],[2,0],[1]]","17","0","","","","","","5","","","","","","","","",""
"","","","","","single-stim-button","278","469955","0.0-2.0-62.0-1.0","6015e67814eb10734088e51e","F1","batch6","","839","tol_toboard","","","","tol_peg_2","839","839","0","[[1,0,0],[3,2],[0]]","1","[[3,0,0],[2,0],[1]]","17","0","","","","","","5","","","","","","","","",""
"","","","","","single-stim-button","279","470515","0.0-2.0-62.1-0.1","6015e67814eb10734088e51e","F1","batch6","","559","tol_tohand","","","","tol_peg_1","559","559","0","[[0,0,0],[3,2],[0]]","2","[[3,0,0],[2,0],[1]]","17","0","","","","","","5","","","","","","","","",""
"","","","","","single-stim-button","280","471482","0.0-2.0-62.1-1.1","6015e67814eb10734088e51e","F1","batch6","","967","tol_toboard","","","","tol_peg_3","967","967","0","[[0,0,0],[3,2],[1]]","2","[[3,0,0],[2,0],[1]]","17","0","","","","","","5","","","","","","","","",""
"","","","","","single-stim-button","281","475259","0.0-2.0-62.2-0.2","6015e67814eb10734088e51e","F1","batch6","","3775","tol_tohand","","","","tol_peg_3","3775","3775","0","[[0,0,0],[3,2],[0]]","3","[[3,0,0],[2,0],[1]]","17","0","","","","","","5","","","","","","","","",""
"","","","","","single-stim-button","282","476018","0.0-2.0-62.2-1.2","6015e67814eb10734088e51e","F1","batch6","","759","tol_toboard","","","","tol_peg_1","759","759","0","[[1,0,0],[3,2],[0]]","3","[[3,0,0],[2,0],[1]]","17","0","","","","","","5","","","","","","","","",""
"","","","","","single-stim-button","283","476571","0.0-2.0-62.3-0.3","6015e67814eb10734088e51e","F1","batch6","","551","tol_tohand","","","","tol_peg_2","551","551","0","[[1,0,0],[3,0],[0]]","4","[[3,0,0],[2,0],[1]]","17","0","","","","","","5","","","","","","","","",""
"","","","","","single-stim-button","284","477315","0.0-2.0-62.3-1.3","6015e67814eb10734088e51e","F1","batch6","","743","tol_toboard","","","","tol_peg_3","743","743","0","[[1,0,0],[3,0],[2]]","4","[[3,0,0],[2,0],[1]]","17","0","","","","","","5","","","","","","","","",""
"","","","","","single-stim-button","285","483481","0.0-2.0-62.4-0.4","6015e67814eb10734088e51e","F1","batch6","","6166","tol_tohand","","","","tol_peg_2","6166","6166","0","[[1,0,0],[0,0],[2]]","5","[[3,0,0],[2,0],[1]]","17","0","","","","","","5","","","","","","","","",""
"","","","","","single-stim-button","286","484234","0.0-2.0-62.4-1.4","6015e67814eb10734088e51e","F1","batch6","","752","tol_toboard","","","","tol_peg_1","752","752","0","[[1,3,0],[0,0],[2]]","5","[[3,0,0],[2,0],[1]]","17","0","","","","","","5","","","","","","","","",""
"","","","","","single-stim-button","287","484922","0.0-2.0-62.5-0.5","6015e67814eb10734088e51e","F1","batch6","","688","tol_tohand","","","","tol_peg_3","688","688","0","[[1,3,0],[0,0],[0]]","6","[[3,0,0],[2,0],[1]]","17","0","","","","","","5","","","","","","","","",""
"","","","","","single-stim-button","288","485874","0.0-2.0-62.5-1.5","6015e67814eb10734088e51e","F1","batch6","","950","tol_toboard","","","","tol_peg_2","950","950","0","[[1,3,0],[2,0],[0]]","6","[[3,0,0],[2,0],[1]]","17","0","","","","","","5","","","","","","","","",""
"","","","","","single-stim-button","289","487954","0.0-2.0-62.6-0.6","6015e67814eb10734088e51e","F1","batch6","","2079","tol_tohand","","","","tol_peg_1","2079","2079","0","[[1,0,0],[2,0],[0]]","7","[[3,0,0],[2,0],[1]]","17","0","","","","","","5","","","","","","","","",""
"","","","","","single-stim-button","290","488683","0.0-2.0-62.6-1.6","6015e67814eb10734088e51e","F1","batch6","","728","tol_toboard","","","","tol_peg_2","728","728","0","[[1,0,0],[2,3],[0]]","7","[[3,0,0],[2,0],[1]]","17","0","","","","","","5","","","","","","","","",""
"","","","","","single-stim-button","291","489331","0.0-2.0-62.7-0.7","6015e67814eb10734088e51e","F1","batch6","","647","tol_tohand","","","","tol_peg_1","647","647","0","[[0,0,0],[2,3],[0]]","8","[[3,0,0],[2,0],[1]]","17","0","","","","","","5","","","","","","","","",""
"","","","","","single-stim-button","292","490034","0.0-2.0-62.7-1.7","6015e67814eb10734088e51e","F1","batch6","","702","tol_toboard","","","","tol_peg_3","702","702","0","[[0,0,0],[2,3],[1]]","8","[[3,0,0],[2,0],[1]]","17","0","","","","","","5","","","","","","","","",""
"","","","","","single-stim-button","293","490554","0.0-2.0-62.8-0.8","6015e67814eb10734088e51e","F1","batch6","","519","tol_tohand","","","","tol_peg_2","519","519","0","[[0,0,0],[2,0],[1]]","9","[[3,0,0],[2,0],[1]]","17","0","","","","","","5","","","","","","","","",""
"","","","","","single-stim-button","294","491338","0.0-2.0-62.8-1.8","6015e67814eb10734088e51e","F1","batch6","","782","tol_toboard","","","","tol_peg_1","782","782","0","[[3,0,0],[2,0],[1]]","9","[[3,0,0],[2,0],[1]]","17","0","","","","","","5","","","","","","","","",""
"","","","","","poldrack-single-stim","295","492354","0.0-2.0-63.0","6015e67814eb10734088e51e","F1","batch6","","-1","tol_feedback","","","true","","1000","1000","500","","","","","","-1","none","true","9712","24696","","","","","","","","","",""
"","","","","","html-button-response","296","493201","0.0-2.0-64.0","6015e67814eb10734088e51e","F1","batch6","","846.2000000178814","tol_trial_num","<div class = centerbox><p class = center-block-text>problem <strong>19</strong> out of 25 problems</p></div>","0","","","","","","","","","","","","","","","","","","","","","","","","",""
"","","","","","single-stim-button","297","495700","0.0-2.0-65.0-0.0","6015e67814eb10734088e51e","F1","batch6","","2497","tol_tohand","","","","tol_peg_2","2497","2497","0","[[1,2,0],[0,0],[0]]","1","[[0,0,0],[1,2],[3]]","18","0","","","","","","7","","","","","","","","",""
"","","","","","single-stim-button","298","503442","0.0-2.0-65.0-1.0","6015e67814eb10734088e51e","F1","batch6","","7742","tol_toboard","","","","tol_peg_2","7742","7742","0","[[1,2,0],[3,0],[0]]","1","[[0,0,0],[1,2],[3]]","18","0","","","","","","7","","","","","","","","",""
"","","","","","single-stim-button","299","505203","0.0-2.0-65.1-0.1","6015e67814eb10734088e51e","F1","batch6","","1759","tol_tohand","","","","tol_peg_1","1759","1759","0","[[1,0,0],[3,0],[0]]","2","[[0,0,0],[1,2],[3]]","18","0","","","","","","7","","","","","","","","",""
"","","","","","single-stim-button","300","505852","0.0-2.0-65.1-1.1","6015e67814eb10734088e51e","F1","batch6","","649","tol_toboard","","","","tol_peg_2","649","649","0","[[1,0,0],[3,2],[0]]","2","[[0,0,0],[1,2],[3]]","18","0","","","","","","7","","","","","","","","",""
"","","","","","single-stim-button","301","506468","0.0-2.0-65.2-0.2","6015e67814eb10734088e51e","F1","batch6","","614","tol_tohand","","","","tol_peg_1","614","614","0","[[0,0,0],[3,2],[0]]","3","[[0,0,0],[1,2],[3]]","18","0","","","","","","7","","","","","","","","",""
"","","","","","single-stim-button","302","510826","0.0-2.0-65.2-1.2","6015e67814eb10734088e51e","F1","batch6","","4358","tol_toboard","","","","tol_peg_3","4358","4358","0","[[0,0,0],[3,2],[1]]","3","[[0,0,0],[1,2],[3]]","18","0","","","","","","7","","","","","","","","",""
"","","","","","single-stim-button","303","511507","0.0-2.0-65.3-0.3","6015e67814eb10734088e51e","F1","batch6","","679","tol_tohand","","","","tol_peg_2","679","679","0","[[0,0,0],[3,0],[1]]","4","[[0,0,0],[1,2],[3]]","18","0","","","","","","7","","","","","","","","",""
"","","","","","single-stim-button","304","512204","0.0-2.0-65.3-1.3","6015e67814eb10734088e51e","F1","batch6","","696","tol_toboard","","","","tol_peg_1","696","696","0","[[2,0,0],[3,0],[1]]","4","[[0,0,0],[1,2],[3]]","18","0","","","","","","7","","","","","","","","",""
"","","","","","single-stim-button","305","513178","0.0-2.0-65.4-0.4","6015e67814eb10734088e51e","F1","batch6","","973","tol_tohand","","","","tol_peg_2","973","973","0","[[2,0,0],[0,0],[1]]","5","[[0,0,0],[1,2],[3]]","18","0","","","","","","7","","","","","","","","",""
"","","","","","single-stim-button","306","513858","0.0-2.0-65.4-1.4","6015e67814eb10734088e51e","F1","batch6","","680","tol_toboard","","","","tol_peg_1","680","680","0","[[2,3,0],[0,0],[1]]","5","[[0,0,0],[1,2],[3]]","18","0","","","","","","7","","","","","","","","",""
"","","","","","single-stim-button","307","514419","0.0-2.0-65.5-0.5","6015e67814eb10734088e51e","F1","batch6","","560","tol_tohand","","","","tol_peg_3","560","560","0","[[2,3,0],[0,0],[0]]","6","[[0,0,0],[1,2],[3]]","18","0","","","","","","7","","","","","","","","",""
"","","","","","single-stim-button","308","514915","0.0-2.0-65.5-1.5","6015e67814eb10734088e51e","F1","batch6","","495","tol_toboard","","","","tol_peg_2","495","495","0","[[2,3,0],[1,0],[0]]","6","[[0,0,0],[1,2],[3]]","18","0","","","","","","7","","","","","","","","",""
"","","","","","single-stim-button","309","515474","0.0-2.0-65.6-0.6","6015e67814eb10734088e51e","F1","batch6","","557","tol_tohand","","","","tol_peg_1","557","557","0","[[2,0,0],[1,0],[0]]","7","[[0,0,0],[1,2],[3]]","18","0","","","","","","7","","","","","","","","",""
"","","","","","single-stim-button","310","516194","0.0-2.0-65.6-1.6","6015e67814eb10734088e51e","F1","batch6","","719","tol_toboard","","","","tol_peg_3","719","719","0","[[2,0,0],[1,0],[3]]","7","[[0,0,0],[1,2],[3]]","18","0","","","","","","7","","","","","","","","",""
"","","","","","single-stim-button","311","516930","0.0-2.0-65.7-0.7","6015e67814eb10734088e51e","F1","batch6","","736","tol_tohand","","","","tol_peg_1","736","736","0","[[0,0,0],[1,0],[3]]","8","[[0,0,0],[1,2],[3]]","18","0","","","","","","7","","","","","","","","",""
"","","","","","single-stim-button","312","517874","0.0-2.0-65.7-1.7","6015e67814eb10734088e51e","F1","batch6","","942","tol_toboard","","","","tol_peg_2","942","942","0","[[0,0,0],[1,2],[3]]","8","[[0,0,0],[1,2],[3]]","18","0","","","","","","7","","","","","","","","",""
"","","","","","poldrack-single-stim","313","518876","0.0-2.0-66.0","6015e67814eb10734088e51e","F1","batch6","","-1","tol_feedback","","","true","","1000","1000","500","","","","","","-1","none","true","2497","8375","","","","","","","","","",""
"","","","","","html-button-response","314","519577","0.0-2.0-67.0","6015e67814eb10734088e51e","F1","batch6","","700.4000000059605","tol_trial_num","<div class = centerbox><p class = center-block-text>problem <strong>20</strong> out of 25 problems</p></div>","0","","","","","","","","","","","","","","","","","","","","","","","","",""
"","","","","","single-stim-button","315","522954","0.0-2.0-68.0-0.0","6015e67814eb10734088e51e","F1","batch6","","3375","tol_tohand","","","","tol_peg_2","3375","3375","0","[[1,2,0],[0,0],[0]]","1","[[2,1,0],[0,0],[3]]","19","0","","","","","","5","","","","","","","","",""
"","","","","","single-stim-button","316","525466","0.0-2.0-68.0-1.0","6015e67814eb10734088e51e","F1","batch6","","2512","tol_toboard","","","","tol_peg_3","2512","2512","0","[[1,2,0],[0,0],[3]]","1","[[2,1,0],[0,0],[3]]","19","0","","","","","","5","","","","","","","","",""
"","","","","","single-stim-button","317","529234","0.0-2.0-68.1-0.1","6015e67814eb10734088e51e","F1","batch6","","3766","tol_tohand","","","","tol_peg_1","3766","3766","0","[[1,0,0],[0,0],[3]]","2","[[2,1,0],[0,0],[3]]","19","0","","","","","","5","","","","","","","","",""
"","","","","","single-stim-button","318","534738","0.0-2.0-68.1-1.1","6015e67814eb10734088e51e","F1","batch6","","5504","tol_toboard","","","","tol_peg_1","5504","5504","0","[[1,2,0],[0,0],[3]]","2","[[2,1,0],[0,0],[3]]","19","0","","","","","","5","","","","","","","","",""
"","","","","","single-stim-button","319","535378","0.0-2.0-68.2-0.2","6015e67814eb10734088e51e","F1","batch6","","638","tol_tohand","","","","tol_peg_3","638","638","0","[[1,2,0],[0,0],[0]]","3","[[2,1,0],[0,0],[3]]","19","0","","","","","","5","","","","","","","","",""
"","","","","","single-stim-button","320","536106","0.0-2.0-68.2-1.2","6015e67814eb10734088e51e","F1","batch6","","728","tol_toboard","","","","tol_peg_2","728","728","0","[[1,2,0],[3,0],[0]]","3","[[2,1,0],[0,0],[3]]","19","0","","","","","","5","","","","","","","","",""
"","","","","","single-stim-button","321","536594","0.0-2.0-68.3-0.3","6015e67814eb10734088e51e","F1","batch6","","486","tol_tohand","","","","tol_peg_1","486","486","0","[[1,0,0],[3,0],[0]]","4","[[2,1,0],[0,0],[3]]","19","0","","","","","","5","","","","","","","","",""
"","","","","","single-stim-button","322","537162","0.0-2.0-68.3-1.3","6015e67814eb10734088e51e","F1","batch6","","568","tol_toboard","","","","tol_peg_2","568","568","0","[[1,0,0],[3,2],[0]]","4","[[2,1,0],[0,0],[3]]","19","0","","","","","","5","","","","","","","","",""
"","","","","","single-stim-button","323","540203","0.0-2.0-68.4-0.4","6015e67814eb10734088e51e","F1","batch6","","3040","tol_tohand","","","","tol_peg_1","3040","3040","0","[[0,0,0],[3,2],[0]]","5","[[2,1,0],[0,0],[3]]","19","0","","","","","","5","","","","","","","","",""
"","","","","","single-stim-button","324","542266","0.0-2.0-68.4-1.4","6015e67814eb10734088e51e","F1","batch6","","2061","tol_toboard","","","","tol_peg_3","2061","2061","0","[[0,0,0],[3,2],[1]]","5","[[2,1,0],[0,0],[3]]","19","0","","","","","","5","","","","","","","","",""
"","","","","","single-stim-button","325","542962","0.0-2.0-68.5-0.5","6015e67814eb10734088e51e","F1","batch6","","696","tol_tohand","","","","tol_peg_2","696","696","0","[[0,0,0],[3,0],[1]]","6","[[2,1,0],[0,0],[3]]","19","0","","","","","","5","","","","","","","","",""
"","","","","","single-stim-button","326","543762","0.0-2.0-68.5-1.5","6015e67814eb10734088e51e","F1","batch6","","800","tol_toboard","","","","tol_peg_1","800","800","0","[[2,0,0],[3,0],[1]]","6","[[2,1,0],[0,0],[3]]","19","0","","","","","","5","","","","","","","","",""
"","","","","","single-stim-button","327","544339","0.0-2.0-68.6-0.6","6015e67814eb10734088e51e","F1","batch6","","576","tol_tohand","","","","tol_peg_3","576","576","0","[[2,0,0],[3,0],[0]]","7","[[2,1,0],[0,0],[3]]","19","0","","","","","","5","","","","","","","","",""
"","","","","","single-stim-button","328","544850","0.0-2.0-68.6-1.6","6015e67814eb10734088e51e","F1","batch6","","511","tol_toboard","","","","tol_peg_1","511","511","0","[[2,1,0],[3,0],[0]]","7","[[2,1,0],[0,0],[3]]","19","0","","","","","","5","","","","","","","","",""
"","","","","","single-stim-button","329","545698","0.0-2.0-68.7-0.7","6015e67814eb10734088e51e","F1","batch6","","847","tol_tohand","","","","tol_peg_2","847","847","0","[[2,1,0],[0,0],[0]]","8","[[2,1,0],[0,0],[3]]","19","0","","","","","","5","","","","","","","","",""
"","","","","","single-stim-button","330","546587","0.0-2.0-68.7-1.7","6015e67814eb10734088e51e","F1","batch6","","888","tol_toboard","","","","tol_peg_3","888","888","0","[[2,1,0],[0,0],[3]]","8","[[2,1,0],[0,0],[3]]","19","0","","","","","","5","","","","","","","","",""
"","","","","","poldrack-single-stim","331","547593","0.0-2.0-69.0","6015e67814eb10734088e51e","F1","batch6","","-1","tol_feedback","","","true","","1000","1000","500","","","","","","-1","none","true","3375","13424","","","","","","","","","",""
"","","","","","html-button-response","332","548571","0.0-2.0-70.0","6015e67814eb10734088e51e","F1","batch6","","976.7000000178814","tol_trial_num","<div class = centerbox><p class = center-block-text>problem <strong>21</strong> out of 25 problems</p></div>","0","","","","","","","","","","","","","","","","","","","","","","","","",""
"","","","","","single-stim-button","333","552578","0.0-2.0-71.0-0.0","6015e67814eb10734088e51e","F1","batch6","","4005","tol_tohand","","","","tol_peg_1","4005","4005","0","[[1,0,0],[3,0],[0]]","1","[[3,2,0],[0,0],[1]]","20","0","","","","","","6","","","","","","","","",""
"","","","","","single-stim-button","334","553290","0.0-2.0-71.0-1.0","6015e67814eb10734088e51e","F1","batch6","","712","tol_toboard","","","","tol_peg_2","712","712","0","[[1,0,0],[3,2],[0]]","1","[[3,2,0],[0,0],[1]]","20","0","","","","","","6","","","","","","","","",""
"","","","","","single-stim-button","335","554834","0.0-2.0-71.1-0.1","6015e67814eb10734088e51e","F1","batch6","","1543","tol_tohand","","","","tol_peg_1","1543","1543","0","[[0,0,0],[3,2],[0]]","2","[[3,2,0],[0,0],[1]]","20","0","","","","","","6","","","","","","","","",""
"","","","","","single-stim-button","336","555762","0.0-2.0-71.1-1.1","6015e67814eb10734088e51e","F1","batch6","","928","tol_toboard","","","","tol_peg_3","928","928","0","[[0,0,0],[3,2],[1]]","2","[[3,2,0],[0,0],[1]]","20","0","","","","","","6","","","","","","","","",""
"","","","","","single-stim-button","337","561489","0.0-2.0-71.2-0.2","6015e67814eb10734088e51e","F1","batch6","","5726","tol_tohand","","","","tol_peg_2","5726","5726","0","[[0,0,0],[3,0],[1]]","3","[[3,2,0],[0,0],[1]]","20","0","","","","","","6","","","","","","","","",""
"","","","","","single-stim-button","338","562273","0.0-2.0-71.2-1.2","6015e67814eb10734088e51e","F1","batch6","","783","tol_toboard","","","","tol_peg_1","783","783","0","[[2,0,0],[3,0],[1]]","3","[[3,2,0],[0,0],[1]]","20","0","","","","","","6","","","","","","","","",""
"","","","","","single-stim-button","339","562962","0.0-2.0-71.3-0.3","6015e67814eb10734088e51e","F1","batch6","","687","tol_tohand","","","","tol_peg_2","687","687","0","[[2,0,0],[0,0],[1]]","4","[[3,2,0],[0,0],[1]]","20","0","","","","","","6","","","","","","","","",""
"","","","","","single-stim-button","340","563740","0.0-2.0-71.3-1.3","6015e67814eb10734088e51e","F1","batch6","","777","tol_toboard","","","","tol_peg_1","777","777","0","[[2,3,0],[0,0],[1]]","4","[[3,2,0],[0,0],[1]]","20","0","","","","","","6","","","","","","","","",""
"","","","","","single-stim-button","341","564426","0.0-2.0-71.4-0.4","6015e67814eb10734088e51e","F1","batch6","","685","tol_tohand","","","","tol_peg_3","685","685","0","[[2,3,0],[0,0],[0]]","5","[[3,2,0],[0,0],[1]]","20","0","","","","","","6","","","","","","","","",""
"","","","","","single-stim-button","342","565210","0.0-2.0-71.4-1.4","6015e67814eb10734088e51e","F1","batch6","","782","tol_toboard","","","","tol_peg_2","782","782","0","[[2,3,0],[1,0],[0]]","5","[[3,2,0],[0,0],[1]]","20","0","","","","","","6","","","","","","","","",""
"","","","","","single-stim-button","343","566817","0.0-2.0-71.5-0.5","6015e67814eb10734088e51e","F1","batch6","","1607","tol_tohand","","","","tol_peg_1","1607","1607","0","[[2,0,0],[1,0],[0]]","6","[[3,2,0],[0,0],[1]]","20","0","","","","","","6","","","","","","","","",""
"","","","","","single-stim-button","344","567473","0.0-2.0-71.5-1.5","6015e67814eb10734088e51e","F1","batch6","","656","tol_toboard","","","","tol_peg_2","656","656","0","[[2,0,0],[1,3],[0]]","6","[[3,2,0],[0,0],[1]]","20","0","","","","","","6","","","","","","","","",""
"","","","","","single-stim-button","345","568153","0.0-2.0-71.6-0.6","6015e67814eb10734088e51e","F1","batch6","","679","tol_tohand","","","","tol_peg_1","679","679","0","[[0,0,0],[1,3],[0]]","7","[[3,2,0],[0,0],[1]]","20","0","","","","","","6","","","","","","","","",""
"","","","","","single-stim-button","346","568866","0.0-2.0-71.6-1.6","6015e67814eb10734088e51e","F1","batch6","","711","tol_toboard","","","","tol_peg_3","711","711","0","[[0,0,0],[1,3],[2]]","7","[[3,2,0],[0,0],[1]]","20","0","","","","","","6","","","","","","","","",""
"","","","","","single-stim-button","347","569458","0.0-2.0-71.7-0.7","6015e67814eb10734088e51e","F1","batch6","","591","tol_tohand","","","","tol_peg_2","591","591","0","[[0,0,0],[1,0],[2]]","8","[[3,2,0],[0,0],[1]]","20","0","","","","","","6","","","","","","","","",""
"","","","","","single-stim-button","348","570139","0.0-2.0-71.7-1.7","6015e67814eb10734088e51e","F1","batch6","","680","tol_toboard","","","","tol_peg_1","680","680","0","[[3,0,0],[1,0],[2]]","8","[[3,2,0],[0,0],[1]]","20","0","","","","","","6","","","","","","","","",""
"","","","","","single-stim-button","349","570777","0.0-2.0-71.8-0.8","6015e67814eb10734088e51e","F1","batch6","","637","tol_tohand","","","","tol_peg_3","637","637","0","[[3,0,0],[1,0],[0]]","9","[[3,2,0],[0,0],[1]]","20","0","","","","","","6","","","","","","","","",""
"","","","","","single-stim-button","350","571450","0.0-2.0-71.8-1.8","6015e67814eb10734088e51e","F1","batch6","","671","tol_toboard","","","","tol_peg_1","671","671","0","[[3,2,0],[1,0],[0]]","9","[[3,2,0],[0,0],[1]]","20","0","","","","","","6","","","","","","","","",""
"","","","","","single-stim-button","351","571994","0.0-2.0-71.9-0.9","6015e67814eb10734088e51e","F1","batch6","","542","tol_tohand","","","","tol_peg_2","542","542","0","[[3,2,0],[0,0],[0]]","10","[[3,2,0],[0,0],[1]]","20","0","","","","","","6","","","","","","","","",""
"","","","","","single-stim-button","352","572634","0.0-2.0-71.9-1.9","6015e67814eb10734088e51e","F1","batch6","","639","tol_toboard","","","","tol_peg_3","639","639","0","[[3,2,0],[0,0],[1]]","10","[[3,2,0],[0,0],[1]]","20","0","","","","","","6","","","","","","","","",""
"","","","","","poldrack-single-stim","353","573636","0.0-2.0-72.0","6015e67814eb10734088e51e","F1","batch6","","-1","tol_feedback","","","true","","1000","1000","500","","","","","","-1","none","true","4005","16702","","","","","","","","","",""
"","","","","","html-button-response","354","574482","0.0-2.0-73.0","6015e67814eb10734088e51e","F1","batch6","","844.3000000119209","tol_trial_num","<div class = centerbox><p class = center-block-text>problem <strong>22</strong> out of 25 problems</p></div>","0","","","","","","","","","","","","","","","","","","","","","","","","",""
"","","","","","single-stim-button","355","580292","0.0-2.0-74.0-0.0","6015e67814eb10734088e51e","F1","batch6","","5809","tol_tohand","","","","tol_peg_2","5809","5809","0","[[1,0,0],[2,0],[0]]","1","[[0,0,0],[1,2],[3]]","21","0","","","","","","6","","","","","","","","",""
"","","","","","single-stim-button","356","580906","0.0-2.0-74.0-1.0","6015e67814eb10734088e51e","F1","batch6","","613","tol_toboard","","","","tol_peg_1","613","613","0","[[1,3,0],[2,0],[0]]","1","[[0,0,0],[1,2],[3]]","21","0","","","","","","6","","","","","","","","",""
