"success","timeout","failed_images","failed_audio","failed_video","trial_type","trial_index","time_elapsed","internal_node_id","subject_id","study_id","session_id","task","rt","stimulus","response","item","answer","correct","spm_correct","spm_rt","view_history","mouse_click","stim_duration","block_duration","timing_post_trial","current_position","tol_num_moves_made","tol_target","tol_problem_id","tol_rt","key_press","possible_responses","tol_correct","preplanning","tol_rt_per_trial","tol_min_moves","fiar_detect_rt","fiar_detect_correct","total_correct_fiar_detect","post_trial_gap","choices"
"true","false","[]","[]","[]","preload","0","1566","0.0-0.0","602078cdd1b8f26894a32bb2","E1","batch5","","","","","","","","","","","","","","","","","","","","","","","","","","","","","",""
"true","","","","","fullscreen","1","22242","0.0-1.0-0.0","602078cdd1b8f26894a32bb2","E1","batch5","","","","","","","","","","","","","","","","","","","","","","","","","","","","","",""
"true","","","","","fullscreen","2","33286","0.0-2.0-0.0","602078cdd1b8f26894a32bb2","E1","batch5","spm_fullscreen","","","","","","","","","","","","","","","","","","","","","","","","","","","","",""
"","","","","","html-button-response","3","48670","0.0-2.0-1.0","602078cdd1b8f26894a32bb2","E1","batch5","","15382.799999952316","<p class = block-text><b>Instructions</b> <br>This is a widely used intelligence test in research. <br>In this test, a figure with a missing piece will be presented.<br>Below the figure are alternative pieces to complete the figure, only one of which is correct.<br> Different figures might involve different principles for obtaining the missing piece<br>Your job is to select the most logical piece to complete the figure.</p>","0","","","","","","","","","","","","","","","","","","","","","","","","","",""
"","","","","","html-keyboard-response","4","49484","0.0-2.0-2.0-0.0","602078cdd1b8f26894a32bb2","E1","batch5","spm_show_trial_num","null","<p class=block-text>Trial 1 out of 60</p>","null","","","","","","","","","","","","","","","","","","","","","","","","","",""
"","","","","","image-button-response","5","56492","0.0-2.0-2.0-1.0","602078cdd1b8f26894a32bb2","E1","batch5","spm_respsonse","7001.299999952316","img/question_1_1.jpeg","3","mat_01","4","1","1","7001.299999952316","","","","","","","","","","","","","","","","","","","","",""
"","","","","","html-keyboard-response","6","57560","0.0-2.0-2.0-0.1","602078cdd1b8f26894a32bb2","E1","batch5","spm_show_trial_num","null","<p class=block-text>Trial 2 out of 60</p>","null","","","","","","","","","","","","","","","","","","","","","","","","","",""
"","","","","","image-button-response","7","60284","0.0-2.0-2.0-1.1","602078cdd1b8f26894a32bb2","E1","batch5","spm_respsonse","2723.100000143051","img/question_1_2.jpeg","4","mat_02","5","1","1","2723.100000143051","","","","","","","","","","","","","","","","","","","","",""
"","","","","","html-keyboard-response","8","61349","0.0-2.0-2.0-0.2","602078cdd1b8f26894a32bb2","E1","batch5","spm_show_trial_num","null","<p class=block-text>Trial 3 out of 60</p>","null","","","","","","","","","","","","","","","","","","","","","","","","","",""
"","","","","","image-button-response","9","64197","0.0-2.0-2.0-1.2","602078cdd1b8f26894a32bb2","E1","batch5","spm_respsonse","2843.5","img/question_1_3.jpeg","0","mat_03","1","1","1","2843.5","","","","","","","","","","","","","","","","","","","","",""
"","","","","","html-keyboard-response","10","65267","0.0-2.0-2.0-0.3","602078cdd1b8f26894a32bb2","E1","batch5","spm_show_trial_num","null","<p class=block-text>Trial 4 out of 60</p>","null","","","","","","","","","","","","","","","","","","","","","","","","","",""
"","","","","","image-button-response","11","68445","0.0-2.0-2.0-1.3","602078cdd1b8f26894a32bb2","E1","batch5","spm_respsonse","3176.5","img/question_1_4.jpeg","1","mat_04","2","1","1","3176.5","","","","","","","","","","","","","","","","","","","","",""
"","","","","","html-keyboard-response","12","69523","0.0-2.0-2.0-0.4","602078cdd1b8f26894a32bb2","E1","batch5","spm_show_trial_num","null","<p class=block-text>Trial 5 out of 60</p>","null","","","","","","","","","","","","","","","","","","","","","","","","","",""
"","","","","","image-button-response","13","75012","0.0-2.0-2.0-1.4","602078cdd1b8f26894a32bb2","E1","batch5","spm_respsonse","5486.699999809265","img/question_1_5.jpeg","5","mat_05","6","1","1","5486.699999809265","","","","","","","","","","","","","","","","","","","","",""
"","","","","","html-keyboard-response","14","76072","0.0-2.0-2.0-0.5","602078cdd1b8f26894a32bb2","E1","batch5","spm_show_trial_num","null","<p class=block-text>Trial 6 out of 60</p>","null","","","","","","","","","","","","","","","","","","","","","","","","","",""
"","","","","","image-button-response","15","84284","0.0-2.0-2.0-1.5","602078cdd1b8f26894a32bb2","E1","batch5","spm_respsonse","8208.200000047684","img/question_1_6.jpeg","2","mat_06","3","1","1","8208.200000047684","","","","","","","","","","","","","","","","","","","","",""
"","","","","","html-keyboard-response","16","85376","0.0-2.0-2.0-0.6","602078cdd1b8f26894a32bb2","E1","batch5","spm_show_trial_num","null","<p class=block-text>Trial 7 out of 60</p>","null","","","","","","","","","","","","","","","","","","","","","","","","","",""
"","","","","","image-button-response","17","89327","0.0-2.0-2.0-1.6","602078cdd1b8f26894a32bb2","E1","batch5","spm_respsonse","3949.899999856949","img/question_1_7.jpeg","5","mat_07","6","1","1","3949.899999856949","","","","","","","","","","","","","","","","","","","","",""
"","","","","","html-keyboard-response","18","90391","0.0-2.0-2.0-0.7","602078cdd1b8f26894a32bb2","E1","batch5","spm_show_trial_num","null","<p class=block-text>Trial 8 out of 60</p>","null","","","","","","","","","","","","","","","","","","","","","","","","","",""
"","","","","","image-button-response","19","97262","0.0-2.0-2.0-1.7","602078cdd1b8f26894a32bb2","E1","batch5","spm_respsonse","6867.399999856949","img/question_1_8.jpeg","1","mat_08","2","1","1","6867.399999856949","","","","","","","","","","","","","","","","","","","","",""
"","","","","","html-keyboard-response","20","98341","0.0-2.0-2.0-0.8","602078cdd1b8f26894a32bb2","E1","batch5","spm_show_trial_num","null","<p class=block-text>Trial 9 out of 60</p>","null","","","","","","","","","","","","","","","","","","","","","","","","","",""
"","","","","","image-button-response","21","104382","0.0-2.0-2.0-1.8","602078cdd1b8f26894a32bb2","E1","batch5","spm_respsonse","6037.299999952316","img/question_1_9.jpeg","0","mat_09","1","1","1","6037.299999952316","","","","","","","","","","","","","","","","","","","","",""
"","","","","","html-keyboard-response","22","105451","0.0-2.0-2.0-0.9","602078cdd1b8f26894a32bb2","E1","batch5","spm_show_trial_num","null","<p class=block-text>Trial 10 out of 60</p>","null","","","","","","","","","","","","","","","","","","","","","","","","","",""
"","","","","","image-button-response","23","110370","0.0-2.0-2.0-1.9","602078cdd1b8f26894a32bb2","E1","batch5","spm_respsonse","4916","img/question_1_10.jpeg","2","mat_10","3","1","1","4916","","","","","","","","","","","","","","","","","","","","",""
"","","","","","html-keyboard-response","24","111439","0.0-2.0-2.0-0.10","602078cdd1b8f26894a32bb2","E1","batch5","spm_show_trial_num","null","<p class=block-text>Trial 11 out of 60</p>","null","","","","","","","","","","","","","","","","","","","","","","","","","",""
"","","","","","image-button-response","25","115217","0.0-2.0-2.0-1.10","602078cdd1b8f26894a32bb2","E1","batch5","spm_respsonse","3774.5","img/question_1_11.jpeg","0","mat_11","4","0","0","3774.5","","","","","","","","","","","","","","","","","","","","",""
"","","","","","html-keyboard-response","26","116278","0.0-2.0-2.0-0.11","602078cdd1b8f26894a32bb2","E1","batch5","spm_show_trial_num","null","<p class=block-text>Trial 12 out of 60</p>","null","","","","","","","","","","","","","","","","","","","","","","","","","",""
"","","","","","image-button-response","27","131209","0.0-2.0-2.0-1.11","602078cdd1b8f26894a32bb2","E1","batch5","spm_respsonse","14926.599999904633","img/question_1_12.jpeg","1","mat_12","5","0","0","14926.599999904633","","","","","","","","","","","","","","","","","","","","",""
"","","","","","html-keyboard-response","28","132266","0.0-2.0-2.0-0.12","602078cdd1b8f26894a32bb2","E1","batch5","spm_show_trial_num","null","<p class=block-text>Trial 13 out of 60</p>","null","","","","","","","","","","","","","","","","","","","","","","","","","",""
"","","","","","image-button-response","29","134381","0.0-2.0-2.0-1.12","602078cdd1b8f26894a32bb2","E1","batch5","spm_respsonse","2110.399999856949","img/question_2_1.jpeg","1","mat_13","2","1","1","2110.399999856949","","","","","","","","","","","","","","","","","","","","",""
"","","","","","html-keyboard-response","30","135447","0.0-2.0-2.0-0.13","602078cdd1b8f26894a32bb2","E1","batch5","spm_show_trial_num","null","<p class=block-text>Trial 14 out of 60</p>","null","","","","","","","","","","","","","","","","","","","","","","","","","",""
"","","","","","image-button-response","31","139816","0.0-2.0-2.0-1.13","602078cdd1b8f26894a32bb2","E1","batch5","spm_respsonse","4366.5","img/question_2_2.jpeg","5","mat_14","6","1","1","4366.5","","","","","","","","","","","","","","","","","","","","",""
"","","","","","html-keyboard-response","32","140880","0.0-2.0-2.0-0.14","602078cdd1b8f26894a32bb2","E1","batch5","spm_show_trial_num","null","<p class=block-text>Trial 15 out of 60</p>","null","","","","","","","","","","","","","","","","","","","","","","","","","",""
"","","","","","image-button-response","33","143503","0.0-2.0-2.0-1.14","602078cdd1b8f26894a32bb2","E1","batch5","spm_respsonse","2620.899999856949","img/question_2_3.jpeg","0","mat_15","1","1","1","2620.899999856949","","","","","","","","","","","","","","","","","","","","",""
"","","","","","html-keyboard-response","34","144572","0.0-2.0-2.0-0.15","602078cdd1b8f26894a32bb2","E1","batch5","spm_show_trial_num","null","<p class=block-text>Trial 16 out of 60</p>","null","","","","","","","","","","","","","","","","","","","","","","","","","",""
"","","","","","image-button-response","35","148190","0.0-2.0-2.0-1.15","602078cdd1b8f26894a32bb2","E1","batch5","spm_respsonse","3614.2999999523163","img/question_2_4.jpeg","1","mat_16","2","1","1","3614.2999999523163","","","","","","","","","","","","","","","","","","","","",""
"","","","","","html-keyboard-response","36","149265","0.0-2.0-2.0-0.16","602078cdd1b8f26894a32bb2","E1","batch5","spm_show_trial_num","null","<p class=block-text>Trial 17 out of 60</p>","null","","","","","","","","","","","","","","","","","","","","","","","","","",""
"","","","","","image-button-response","37","153728","0.0-2.0-2.0-1.16","602078cdd1b8f26894a32bb2","E1","batch5","spm_respsonse","4458.799999952316","img/question_2_5.jpeg","0","mat_17","1","1","1","4458.799999952316","","","","","","","","","","","","","","","","","","","","",""
"","","","","","html-keyboard-response","38","154808","0.0-2.0-2.0-0.17","602078cdd1b8f26894a32bb2","E1","batch5","spm_show_trial_num","null","<p class=block-text>Trial 18 out of 60</p>","null","","","","","","","","","","","","","","","","","","","","","","","","","",""
"","","","","","image-button-response","39","162715","0.0-2.0-2.0-1.17","602078cdd1b8f26894a32bb2","E1","batch5","spm_respsonse","7904.299999952316","img/question_2_6.jpeg","2","mat_18","3","1","1","7904.299999952316","","","","","","","","","","","","","","","","","","","","",""
"","","","","","html-keyboard-response","40","163786","0.0-2.0-2.0-0.18","602078cdd1b8f26894a32bb2","E1","batch5","spm_show_trial_num","null","<p class=block-text>Trial 19 out of 60</p>","null","","","","","","","","","","","","","","","","","","","","","","","","","",""
"","","","","","image-button-response","41","168765","0.0-2.0-2.0-1.18","602078cdd1b8f26894a32bb2","E1","batch5","spm_respsonse","4974.900000095367","img/question_2_7.jpeg","4","mat_19","5","1","1","4974.900000095367","","","","","","","","","","","","","","","","","","","","",""
"","","","","","html-keyboard-response","42","169820","0.0-2.0-2.0-0.19","602078cdd1b8f26894a32bb2","E1","batch5","spm_show_trial_num","null","<p class=block-text>Trial 20 out of 60</p>","null","","","","","","","","","","","","","","","","","","","","","","","","","",""
"","","","","","image-button-response","43","179842","0.0-2.0-2.0-1.19","602078cdd1b8f26894a32bb2","E1","batch5","spm_respsonse","10018.299999952316","img/question_2_8.jpeg","5","mat_20","6","1","1","10018.299999952316","","","","","","","","","","","","","","","","","","","","",""
"","","","","","html-keyboard-response","44","180905","0.0-2.0-2.0-0.20","602078cdd1b8f26894a32bb2","E1","batch5","spm_show_trial_num","null","<p class=block-text>Trial 21 out of 60</p>","null","","","","","","","","","","","","","","","","","","","","","","","","","",""
"","","","","","image-button-response","45","185724","0.0-2.0-2.0-1.20","602078cdd1b8f26894a32bb2","E1","batch5","spm_respsonse","4815.299999952316","img/question_2_9.jpeg","3","mat_21","4","1","1","4815.299999952316","","","","","","","","","","","","","","","","","","","","",""
"","","","","","html-keyboard-response","46","186798","0.0-2.0-2.0-0.21","602078cdd1b8f26894a32bb2","E1","batch5","spm_show_trial_num","null","<p class=block-text>Trial 22 out of 60</p>","null","","","","","","","","","","","","","","","","","","","","","","","","","",""
"","","","","","image-button-response","47","191810","0.0-2.0-2.0-1.21","602078cdd1b8f26894a32bb2","E1","batch5","spm_respsonse","5007.5","img/question_2_10.jpeg","2","mat_22","3","1","1","5007.5","","","","","","","","","","","","","","","","","","","","",""
"","","","","","html-keyboard-response","48","192886","0.0-2.0-2.0-0.22","602078cdd1b8f26894a32bb2","E1","batch5","spm_show_trial_num","null","<p class=block-text>Trial 23 out of 60</p>","null","","","","","","","","","","","","","","","","","","","","","","","","","",""
"","","","","","image-button-response","49","200930","0.0-2.0-2.0-1.22","602078cdd1b8f26894a32bb2","E1","batch5","spm_respsonse","8042.200000047684","img/question_2_11.jpeg","3","mat_23","4","1","1","8042.200000047684","","","","","","","","","","","","","","","","","","","","",""
"","","","","","html-keyboard-response","50","201997","0.0-2.0-2.0-0.23","602078cdd1b8f26894a32bb2","E1","batch5","spm_show_trial_num","null","<p class=block-text>Trial 24 out of 60</p>","null","","","","","","","","","","","","","","","","","","","","","","","","","",""
"","","","","","image-button-response","51","213652","0.0-2.0-2.0-1.23","602078cdd1b8f26894a32bb2","E1","batch5","spm_respsonse","11653.200000047684","img/question_2_12.jpeg","5","mat_24","5","0","0","11653.200000047684","","","","","","","","","","","","","","","","","","","","",""
"","","","","","html-button-response","52","216380","0.0-2.0-3.0","602078cdd1b8f26894a32bb2","E1","batch5","attention_check","2460.7999999523163","<p class = block-text>Attention check: Please choose 1<br></p>","0","","","true","","","","","","","","","","","","","","","","","","","","","","",""
"","","","","","html-keyboard-response","53","217182","0.0-2.0-4.0-0.0","602078cdd1b8f26894a32bb2","E1","batch5","spm_show_trial_num","null","<p class=block-text>Trial 25 out of 60</p>","null","","","","","","","","","","","","","","","","","","","","","","","","","",""
"","","","","","image-button-response","54","222052","0.0-2.0-4.0-1.0","602078cdd1b8f26894a32bb2","E1","batch5","spm_respsonse","4866.299999952316","img/question_3_1.jpeg","7","mat_25","8","1","1","4866.299999952316","","","","","","","","","","","","","","","","","","","","",""
"","","","","","html-keyboard-response","55","223119","0.0-2.0-4.0-0.1","602078cdd1b8f26894a32bb2","E1","batch5","spm_show_trial_num","null","<p class=block-text>Trial 26 out of 60</p>","null","","","","","","","","","","","","","","","","","","","","","","","","","",""
"","","","","","image-button-response","56","227578","0.0-2.0-4.0-1.1","602078cdd1b8f26894a32bb2","E1","batch5","spm_respsonse","4456.599999904633","img/question_3_2.jpeg","1","mat_26","2","1","1","4456.599999904633","","","","","","","","","","","","","","","","","","","","",""
"","","","","","html-keyboard-response","57","228652","0.0-2.0-4.0-0.2","602078cdd1b8f26894a32bb2","E1","batch5","spm_show_trial_num","null","<p class=block-text>Trial 27 out of 60</p>","null","","","","","","","","","","","","","","","","","","","","","","","","","",""
"","","","","","image-button-response","58","237558","0.0-2.0-4.0-1.2","602078cdd1b8f26894a32bb2","E1","batch5","spm_respsonse","8901.700000047684","img/question_3_3.jpeg","2","mat_27","3","1","1","8901.700000047684","","","","","","","","","","","","","","","","","","","","",""
"","","","","","html-keyboard-response","59","238626","0.0-2.0-4.0-0.3","602078cdd1b8f26894a32bb2","E1","batch5","spm_show_trial_num","null","<p class=block-text>Trial 28 out of 60</p>","null","","","","","","","","","","","","","","","","","","","","","","","","","",""
"","","","","","image-button-response","60","248036","0.0-2.0-4.0-1.3","602078cdd1b8f26894a32bb2","E1","batch5","spm_respsonse","9408.299999952316","img/question_3_4.jpeg","2","mat_28","8","0","0","9408.299999952316","","","","","","","","","","","","","","","","","","","","",""
"","","","","","html-keyboard-response","61","249090","0.0-2.0-4.0-0.4","602078cdd1b8f26894a32bb2","E1","batch5","spm_show_trial_num","null","<p class=block-text>Trial 29 out of 60</p>","null","","","","","","","","","","","","","","","","","","","","","","","","","",""
"","","","","","image-button-response","62","262067","0.0-2.0-4.0-1.4","602078cdd1b8f26894a32bb2","E1","batch5","spm_respsonse","12975.299999952316","img/question_3_5.jpeg","6","mat_29","7","1","1","12975.299999952316","","","","","","","","","","","","","","","","","","","","",""
"","","","","","html-keyboard-response","63","263119","0.0-2.0-4.0-0.5","602078cdd1b8f26894a32bb2","E1","batch5","spm_show_trial_num","null","<p class=block-text>Trial 30 out of 60</p>","null","","","","","","","","","","","","","","","","","","","","","","","","","",""
"","","","","","image-button-response","64","280061","0.0-2.0-4.0-1.5","602078cdd1b8f26894a32bb2","E1","batch5","spm_respsonse","16939.800000190735","img/question_3_6.jpeg","4","mat_30","4","0","0","16939.800000190735","","","","","","","","","","","","","","","","","","","","",""
"","","","","","html-keyboard-response","65","281123","0.0-2.0-4.0-0.6","602078cdd1b8f26894a32bb2","E1","batch5","spm_show_trial_num","null","<p class=block-text>Trial 31 out of 60</p>","null","","","","","","","","","","","","","","","","","","","","","","","","","",""
"","","","","","image-button-response","66","293156","0.0-2.0-4.0-1.6","602078cdd1b8f26894a32bb2","E1","batch5","spm_respsonse","12030.900000095367","img/question_3_7.jpeg","4","mat_31","5","1","1","12030.900000095367","","","","","","","","","","","","","","","","","","","","",""
"","","","","","html-keyboard-response","67","294220","0.0-2.0-4.0-0.7","602078cdd1b8f26894a32bb2","E1","batch5","spm_show_trial_num","null","<p class=block-text>Trial 32 out of 60</p>","null","","","","","","","","","","","","","","","","","","","","","","","","","",""
"","","","","","image-button-response","68","311422","0.0-2.0-4.0-1.7","602078cdd1b8f26894a32bb2","E1","batch5","spm_respsonse","17197.700000047684","img/question_3_8.jpeg","6","mat_32","1","0","0","17197.700000047684","","","","","","","","","","","","","","","","","","","","",""
"","","","","","html-keyboard-response","69","312475","0.0-2.0-4.0-0.8","602078cdd1b8f26894a32bb2","E1","batch5","spm_show_trial_num","null","<p class=block-text>Trial 33 out of 60</p>","null","","","","","","","","","","","","","","","","","","","","","","","","","",""
"","","","","","image-button-response","70","322068","0.0-2.0-4.0-1.8","602078cdd1b8f26894a32bb2","E1","batch5","spm_respsonse","9591.5","img/question_3_9.jpeg","6","mat_33","7","1","1","9591.5","","","","","","","","","","","","","","","","","","","","",""
"","","","","","html-keyboard-response","71","323129","0.0-2.0-4.0-0.9","602078cdd1b8f26894a32bb2","E1","batch5","spm_show_trial_num","null","<p class=block-text>Trial 34 out of 60</p>","null","","","","","","","","","","","","","","","","","","","","","","","","","",""
"","","","","","image-button-response","72","337134","0.0-2.0-4.0-1.9","602078cdd1b8f26894a32bb2","E1","batch5","spm_respsonse","14000.900000095367","img/question_3_10.jpeg","7","mat_34","6","0","0","14000.900000095367","","","","","","","","","","","","","","","","","","","","",""
"","","","","","html-keyboard-response","73","338196","0.0-2.0-4.0-0.10","602078cdd1b8f26894a32bb2","E1","batch5","spm_show_trial_num","null","<p class=block-text>Trial 35 out of 60</p>","null","","","","","","","","","","","","","","","","","","","","","","","","","",""
"","","","","","image-button-response","74","354898","0.0-2.0-4.0-1.10","602078cdd1b8f26894a32bb2","E1","batch5","spm_respsonse","16698.10000014305","img/question_3_11.jpeg","0","mat_35","1","1","1","16698.10000014305","","","","","","","","","","","","","","","","","","","","",""
"","","","","","html-keyboard-response","75","355952","0.0-2.0-4.0-0.11","602078cdd1b8f26894a32bb2","E1","batch5","spm_show_trial_num","null","<p class=block-text>Trial 36 out of 60</p>","null","","","","","","","","","","","","","","","","","","","","","","","","","",""
"","","","","","image-button-response","76","370861","0.0-2.0-4.0-1.11","602078cdd1b8f26894a32bb2","E1","batch5","spm_respsonse","14906.299999952316","img/question_3_12.jpeg","3","mat_36","2","0","0","14906.299999952316","","","","","","","","","","","","","","","","","","","","",""
"","","","","","html-keyboard-response","77","371914","0.0-2.0-4.0-0.12","602078cdd1b8f26894a32bb2","E1","batch5","spm_show_trial_num","null","<p class=block-text>Trial 37 out of 60</p>","null","","","","","","","","","","","","","","","","","","","","","","","","","",""
"","","","","","image-button-response","78","374592","0.0-2.0-4.0-1.12","602078cdd1b8f26894a32bb2","E1","batch5","spm_respsonse","2674.7000000476837","img/question_4_1.jpeg","2","mat_37","3","1","1","2674.7000000476837","","","","","","","","","","","","","","","","","","","","",""
"","","","","","html-keyboard-response","79","375667","0.0-2.0-4.0-0.13","602078cdd1b8f26894a32bb2","E1","batch5","spm_show_trial_num","null","<p class=block-text>Trial 38 out of 60</p>","null","","","","","","","","","","","","","","","","","","","","","","","","","",""
"","","","","","image-button-response","80","381683","0.0-2.0-4.0-1.13","602078cdd1b8f26894a32bb2","E1","batch5","spm_respsonse","6011.800000190735","img/question_4_2.jpeg","3","mat_38","4","1","1","6011.800000190735","","","","","","","","","","","","","","","","","","","","",""
"","","","","","html-keyboard-response","81","382747","0.0-2.0-4.0-0.14","602078cdd1b8f26894a32bb2","E1","batch5","spm_show_trial_num","null","<p class=block-text>Trial 39 out of 60</p>","null","","","","","","","","","","","","","","","","","","","","","","","","","",""
"","","","","","image-button-response","82","388403","0.0-2.0-4.0-1.14","602078cdd1b8f26894a32bb2","E1","batch5","spm_respsonse","5651.200000047684","img/question_4_3.jpeg","2","mat_39","3","1","1","5651.200000047684","","","","","","","","","","","","","","","","","","","","",""
"","","","","","html-keyboard-response","83","389469","0.0-2.0-4.0-0.15","602078cdd1b8f26894a32bb2","E1","batch5","spm_show_trial_num","null","<p class=block-text>Trial 40 out of 60</p>","null","","","","","","","","","","","","","","","","","","","","","","","","","",""
"","","","","","image-button-response","84","398203","0.0-2.0-4.0-1.15","602078cdd1b8f26894a32bb2","E1","batch5","spm_respsonse","8730.599999904633","img/question_4_4.jpeg","6","mat_40","7","1","1","8730.599999904633","","","","","","","","","","","","","","","","","","","","",""
"","","","","","html-keyboard-response","85","399254","0.0-2.0-4.0-0.16","602078cdd1b8f26894a32bb2","E1","batch5","spm_show_trial_num","null","<p class=block-text>Trial 41 out of 60</p>","null","","","","","","","","","","","","","","","","","","","","","","","","","",""
"","","","","","image-button-response","86","410471","0.0-2.0-4.0-1.16","602078cdd1b8f26894a32bb2","E1","batch5","spm_respsonse","11213.5","img/question_4_5.jpeg","7","mat_41","8","1","1","11213.5","","","","","","","","","","","","","","","","","","","","",""
"","","","","","html-keyboard-response","87","411526","0.0-2.0-4.0-0.17","602078cdd1b8f26894a32bb2","E1","batch5","spm_show_trial_num","null","<p class=block-text>Trial 42 out of 60</p>","null","","","","","","","","","","","","","","","","","","","","","","","","","",""
"","","","","","image-button-response","88","420645","0.0-2.0-4.0-1.17","602078cdd1b8f26894a32bb2","E1","batch5","spm_respsonse","9114.700000047684","img/question_4_6.jpeg","5","mat_42","6","1","1","9114.700000047684","","","","","","","","","","","","","","","","","","","","",""
"","","","","","html-keyboard-response","89","421698","0.0-2.0-4.0-0.18","602078cdd1b8f26894a32bb2","E1","batch5","spm_show_trial_num","null","<p class=block-text>Trial 43 out of 60</p>","null","","","","","","","","","","","","","","","","","","","","","","","","","",""
"","","","","","image-button-response","90","436264","0.0-2.0-4.0-1.18","602078cdd1b8f26894a32bb2","E1","batch5","spm_respsonse","14562.5","img/question_4_7.jpeg","4","mat_43","5","1","1","14562.5","","","","","","","","","","","","","","","","","","","","",""
"","","","","","html-keyboard-response","91","437326","0.0-2.0-4.0-0.19","602078cdd1b8f26894a32bb2","E1","batch5","spm_show_trial_num","null","<p class=block-text>Trial 44 out of 60</p>","null","","","","","","","","","","","","","","","","","","","","","","","","","",""
"","","","","","image-button-response","92","450791","0.0-2.0-4.0-1.19","602078cdd1b8f26894a32bb2","E1","batch5","spm_respsonse","13462.700000047684","img/question_4_8.jpeg","3","mat_44","4","1","1","13462.700000047684","","","","","","","","","","","","","","","","","","","","",""
"","","","","","html-keyboard-response","93","451852","0.0-2.0-4.0-0.20","602078cdd1b8f26894a32bb2","E1","batch5","spm_show_trial_num","null","<p class=block-text>Trial 45 out of 60</p>","null","","","","","","","","","","","","","","","","","","","","","","","","","",""
"","","","","","image-button-response","94","468684","0.0-2.0-4.0-1.20","602078cdd1b8f26894a32bb2","E1","batch5","spm_respsonse","16827.89999985695","img/question_4_9.jpeg","0","mat_45","1","1","1","16827.89999985695","","","","","","","","","","","","","","","","","","","","",""
"","","","","","html-keyboard-response","95","469737","0.0-2.0-4.0-0.21","602078cdd1b8f26894a32bb2","E1","batch5","spm_show_trial_num","null","<p class=block-text>Trial 46 out of 60</p>","null","","","","","","","","","","","","","","","","","","","","","","","","","",""
"","","","","","image-button-response","96","486242","0.0-2.0-4.0-1.21","602078cdd1b8f26894a32bb2","E1","batch5","spm_respsonse","16504.099999904633","img/question_4_10.jpeg","1","mat_46","2","1","1","16504.099999904633","","","","","","","","","","","","","","","","","","","","",""
"","","","","","html-keyboard-response","97","487309","0.0-2.0-4.0-0.22","602078cdd1b8f26894a32bb2","E1","batch5","spm_show_trial_num","null","<p class=block-text>Trial 47 out of 60</p>","null","","","","","","","","","","","","","","","","","","","","","","","","","",""
"","","","","","image-button-response","98","524692","0.0-2.0-4.0-1.22","602078cdd1b8f26894a32bb2","E1","batch5","spm_respsonse","37378.5","img/question_4_11.jpeg","4","mat_47","5","1","1","37378.5","","","","","","","","","","","","","","","","","","","","",""
"","","","","","html-keyboard-response","99","525746","0.0-2.0-4.0-0.23","602078cdd1b8f26894a32bb2","E1","batch5","spm_show_trial_num","null","<p class=block-text>Trial 48 out of 60</p>","null","","","","","","","","","","","","","","","","","","","","","","","","","",""
"","","","","","image-button-response","100","546635","0.0-2.0-4.0-1.23","602078cdd1b8f26894a32bb2","E1","batch5","spm_respsonse","20884.799999952316","img/question_4_12.jpeg","6","mat_48","6","0","0","20884.799999952316","","","","","","","","","","","","","","","","","","","","",""
"","","","","","html-keyboard-response","101","547695","0.0-2.0-4.0-0.24","602078cdd1b8f26894a32bb2","E1","batch5","spm_show_trial_num","null","<p class=block-text>Trial 49 out of 60</p>","null","","","","","","","","","","","","","","","","","","","","","","","","","",""
"","","","","","image-button-response","102","562551","0.0-2.0-4.0-1.24","602078cdd1b8f26894a32bb2","E1","batch5","spm_respsonse","14853.200000047684","img/question_5_1.jpeg","6","mat_49","7","1","1","14853.200000047684","","","","","","","","","","","","","","","","","","","","",""
"","","","","","html-keyboard-response","103","563603","0.0-2.0-4.0-0.25","602078cdd1b8f26894a32bb2","E1","batch5","spm_show_trial_num","null","<p class=block-text>Trial 50 out of 60</p>","null","","","","","","","","","","","","","","","","","","","","","","","","","",""
"","","","","","image-button-response","104","587201","0.0-2.0-4.0-1.25","602078cdd1b8f26894a32bb2","E1","batch5","spm_respsonse","23594.700000047684","img/question_5_2.jpeg","5","mat_50","6","1","1","23594.700000047684","","","","","","","","","","","","","","","","","","","","",""
"","","","","","html-keyboard-response","105","588264","0.0-2.0-4.0-0.26","602078cdd1b8f26894a32bb2","E1","batch5","spm_show_trial_num","null","<p class=block-text>Trial 51 out of 60</p>","null","","","","","","","","","","","","","","","","","","","","","","","","","",""
"","","","","","image-button-response","106","629346","0.0-2.0-4.0-1.26","602078cdd1b8f26894a32bb2","E1","batch5","spm_respsonse","41078.300000190735","img/question_5_3.jpeg","7","mat_51","8","1","1","41078.300000190735","","","","","","","","","","","","","","","","","","","","",""
"","","","","","html-keyboard-response","107","630414","0.0-2.0-4.0-0.27","602078cdd1b8f26894a32bb2","E1","batch5","spm_show_trial_num","null","<p class=block-text>Trial 52 out of 60</p>","null","","","","","","","","","","","","","","","","","","","","","","","","","",""
"","","","","","image-button-response","108","641874","0.0-2.0-4.0-1.27","602078cdd1b8f26894a32bb2","E1","batch5","spm_respsonse","11456.700000047684","img/question_5_4.jpeg","1","mat_52","2","1","1","11456.700000047684","","","","","","","","","","","","","","","","","","","","",""
"","","","","","html-keyboard-response","109","642937","0.0-2.0-4.0-0.28","602078cdd1b8f26894a32bb2","E1","batch5","spm_show_trial_num","null","<p class=block-text>Trial 53 out of 60</p>","null","","","","","","","","","","","","","","","","","","","","","","","","","",""
"","","","","","image-button-response","110","660547","0.0-2.0-4.0-1.28","602078cdd1b8f26894a32bb2","E1","batch5","spm_respsonse","17607.400000095367","img/question_5_5.jpeg","0","mat_53","1","1","1","17607.400000095367","","","","","","","","","","","","","","","","","","","","",""
"","","","","","html-keyboard-response","111","661617","0.0-2.0-4.0-0.29","602078cdd1b8f26894a32bb2","E1","batch5","spm_show_trial_num","null","<p class=block-text>Trial 54 out of 60</p>","null","","","","","","","","","","","","","","","","","","","","","","","","","",""
"","","","","","image-button-response","112","701131","0.0-2.0-4.0-1.29","602078cdd1b8f26894a32bb2","E1","batch5","spm_respsonse","39510.5","img/question_5_6.jpeg","4","mat_54","5","1","1","39510.5","","","","","","","","","","","","","","","","","","","","",""
"","","","","","html-keyboard-response","113","702196","0.0-2.0-4.0-0.30","602078cdd1b8f26894a32bb2","E1","batch5","spm_show_trial_num","null","<p class=block-text>Trial 55 out of 60</p>","null","","","","","","","","","","","","","","","","","","","","","","","","","",""
"","","","","","image-button-response","114","730698","0.0-2.0-4.0-1.30","602078cdd1b8f26894a32bb2","E1","batch5","spm_respsonse","28500.89999985695","img/question_5_7.jpeg","2","mat_55","1","0","0","28500.89999985695","","","","","","","","","","","","","","","","","","","","",""
"","","","","","html-keyboard-response","115","731751","0.0-2.0-4.0-0.31","602078cdd1b8f26894a32bb2","E1","batch5","spm_show_trial_num","null","<p class=block-text>Trial 56 out of 60</p>","null","","","","","","","","","","","","","","","","","","","","","","","","","",""
"","","","","","image-button-response","116","755400","0.0-2.0-4.0-1.31","602078cdd1b8f26894a32bb2","E1","batch5","spm_respsonse","23647.200000047684","img/question_5_8.jpeg","3","mat_56","6","0","0","23647.200000047684","","","","","","","","","","","","","","","","","","","","",""
"","","","","","html-keyboard-response","117","756474","0.0-2.0-4.0-0.32","602078cdd1b8f26894a32bb2","E1","batch5","spm_show_trial_num","null","<p class=block-text>Trial 57 out of 60</p>","null","","","","","","","","","","","","","","","","","","","","","","","","","",""
"","","","","","image-button-response","118","781754","0.0-2.0-4.0-1.32","602078cdd1b8f26894a32bb2","E1","batch5","spm_respsonse","25275.900000095367","img/question_5_9.jpeg","2","mat_57","3","1","1","25275.900000095367","","","","","","","","","","","","","","","","","","","","",""
"","","","","","html-keyboard-response","119","782832","0.0-2.0-4.0-0.33","602078cdd1b8f26894a32bb2","E1","batch5","spm_show_trial_num","null","<p class=block-text>Trial 58 out of 60</p>","null","","","","","","","","","","","","","","","","","","","","","","","","","",""
"","","","","","image-button-response","120","827792","0.0-2.0-4.0-1.33","602078cdd1b8f26894a32bb2","E1","batch5","spm_respsonse","44958.90000009537","img/question_5_10.jpeg","2","mat_58","2","0","0","44958.90000009537","","","","","","","","","","","","","","","","","","","","",""
"","","","","","html-keyboard-response","121","828854","0.0-2.0-4.0-0.34","602078cdd1b8f26894a32bb2","E1","batch5","spm_show_trial_num","null","<p class=block-text>Trial 59 out of 60</p>","null","","","","","","","","","","","","","","","","","","","","","","","","","",""
"","","","","","image-button-response","122","855420","0.0-2.0-4.0-1.34","602078cdd1b8f26894a32bb2","E1","batch5","spm_respsonse","26563.699999809265","img/question_5_11.jpeg","4","mat_59","4","0","0","26563.699999809265","","","","","","","","","","","","","","","","","","","","",""
"","","","","","html-keyboard-response","123","856497","0.0-2.0-4.0-0.35","602078cdd1b8f26894a32bb2","E1","batch5","spm_show_trial_num","null","<p class=block-text>Trial 60 out of 60</p>","null","","","","","","","","","","","","","","","","","","","","","","","","","",""
"","","","","","image-button-response","124","890628","0.0-2.0-4.0-1.35","602078cdd1b8f26894a32bb2","E1","batch5","spm_respsonse","34127.59999990463","img/question_5_12.jpeg","1","mat_60","5","0","0","34127.59999990463","","","","","","","","","","","","","","","","","","","","",""
"","","","","","html-button-response","125","893689","0.0-2.0-5.0","602078cdd1b8f26894a32bb2","E1","batch5","spm_goodbye","2794.2999999523163","<p class= block-text>This concludes the Standard Progressive Matrix game. Thank you for your responses!<br> When you are ready, click the button continue</p>","0","","","","","","","","","","","","","","","","","","","","","","","","","",""
"true","","","","","fullscreen","126","896792","0.0-3.0-0.0","602078cdd1b8f26894a32bb2","E1","batch5","","","","","","","","","","","","","","","","","","","","","","","","","","","","","",""
"","","","","","instructions","127","959643","0.0-3.0-1.0-0.0-0.0","602078cdd1b8f26894a32bb2","E1","batch5","tol-instructions","62849.40000009537","","","","","","","","[{""page_index"":0,""viewing_time"":12585.299999952316},{""page_index"":1,""viewing_time"":5676},{""page_index"":2,""viewing_time"":5379},{""page_index"":3,""viewing_time"":10540.300000190735},{""page_index"":4,""viewing_time"":8146.299999952316},{""page_index"":5,""viewing_time"":14708.200000047684},{""page_index"":6,""viewing_time"":5814}]","","","","","","","","","","","","","","","","","","","",""
"","","","","","html-button-response","128","961419","0.0-3.0-1.0-1.0-0.0","602078cdd1b8f26894a32bb2","E1","batch5","tol_enter_quiz","1775.4000000953674","<p class=block-text> Let's answer a few questions <br>","0","","","","","","","","","","","","","","","","","","","","","","","","","",""
"","","","","","html-button-response","129","966756","0.0-3.0-1.0-1.0-1.0","602078cdd1b8f26894a32bb2","E1","batch5","tol_quiz","5336.100000143051","<p class = block-text>True or False: You can only move the ball on top of a peg. <br></p>","1","","","false","","","","","","","","","","","","","","","","","","","","","","",""
"","","","","","html-button-response","130","969401","0.0-3.0-1.0-1.0-2.0","602078cdd1b8f26894a32bb2","E1","batch5","tol_quiz_feedback","2643.0999999046326","<p class = block-text>Incorrect. Remember, you can only move the ball on top of a peg.</p>","0","","","","","","","","","","","","","","","","","","","","","","","","","",""
"","","","","","html-button-response","131","973146","0.0-3.0-1.0-1.0-3.0","602078cdd1b8f26894a32bb2","E1","batch5","tol_quiz","3744.5","<p class = block-text>True or False: You should try to match your board with the target board with fewest moves possible. <br></p>","0","","","true","","","","","","","","","","","","","","","","","","","","","","",""
"","","","","","html-button-response","132","974187","0.0-3.0-1.0-1.0-4.0","602078cdd1b8f26894a32bb2","E1","batch5","tol_quiz_feedback","1040.1000001430511","<p class = block-text>Correct! </p>","0","","","","","","","","","","","","","","","","","","","","","","","","","",""
"","","","","","html-button-response","133","977423","0.0-3.0-1.0-2.0-0.0","602078cdd1b8f26894a32bb2","E1","batch5","","3235","<p class = block-text>You made too many incorrect choices.</p><p class = block-text>You will now repeat the instructions and quiz</p>","0","","","","","","","","","","","","","","","","","","","","","","","","","",""
"","","","","","instructions","134","989389","0.0-3.0-1.1-0.1-0.1","602078cdd1b8f26894a32bb2","E1","batch5","tol-instructions","11965.099999904633","","","","","","","","[{""page_index"":0,""viewing_time"":2750.7999999523163},{""page_index"":1,""viewing_time"":1652.2000000476837},{""page_index"":2,""viewing_time"":1753.5999999046326},{""page_index"":3,""viewing_time"":1162.5},{""page_index"":4,""viewing_time"":1023.7000000476837},{""page_index"":5,""viewing_time"":1208.2000000476837},{""page_index"":6,""viewing_time"":2414}]","","","","","","","","","","","","","","","","","","","",""
"","","","","","html-button-response","135","990633","0.0-3.0-1.1-1.1-0.1","602078cdd1b8f26894a32bb2","E1","batch5","tol_enter_quiz","1243.7999999523163","<p class=block-text> Let's answer a few questions <br>","0","","","","","","","","","","","","","","","","","","","","","","","","","",""
"","","","","","html-button-response","136","993663","0.0-3.0-1.1-1.1-1.1","602078cdd1b8f26894a32bb2","E1","batch5","tol_quiz","3028","<p class = block-text>True or False: You can only move the ball on top of a peg. <br></p>","0","","","true","","","","","","","","","","","","","","","","","","","","","","",""
"","","","","","html-button-response","137","994637","0.0-3.0-1.1-1.1-2.1","602078cdd1b8f26894a32bb2","E1","batch5","tol_quiz_feedback","973.4000000953674","<p class = block-text>Correct! You can only move the ball on top of a peg.</p>","0","","","","","","","","","","","","","","","","","","","","","","","","","",""
"","","","","","html-button-response","138","996925","0.0-3.0-1.1-1.1-3.1","602078cdd1b8f26894a32bb2","E1","batch5","tol_quiz","2287","<p class = block-text>True or False: You should try to match your board with the target board with fewest moves possible. <br></p>","0","","","true","","","","","","","","","","","","","","","","","","","","","","",""
"","","","","","html-button-response","139","997645","0.0-3.0-1.1-1.1-4.1","602078cdd1b8f26894a32bb2","E1","batch5","tol_quiz_feedback","719","<p class = block-text>Correct! </p>","0","","","","","","","","","","","","","","","","","","","","","","","","","",""
"","","","","","html-button-response","140","999017","0.0-3.0-2.0","602078cdd1b8f26894a32bb2","E1","batch5","","1371.4000000953674","<p class=block-text> Now that you've understood the game, let's practice a few easier examples before we start!<br> <br>","0","","","","","","","","","","","","","","","","","","","","","","","","","",""
"","","","","","single-stim-button","141","1002329","0.0-3.0-3.0-0.0","602078cdd1b8f26894a32bb2","E1","batch5","tol_practice","3310","","","","","","","","","tol_peg_2","3310","3310","0","[[1,2,0],[0,0],[0]]","1","[[1,2,0],[0,0],[3]]","practice","3310","","","","","","","","","","",""
"","","","","","single-stim-button","142","1005015","0.0-3.0-3.0-1.0","602078cdd1b8f26894a32bb2","E1","batch5","tol_practice","2685","","","","","","","","","tol_peg_3","2685","2685","0","[[1,2,0],[0,0],[3]]","1","[[1,2,0],[0,0],[3]]","practice","2685","","","","","","","","","","",""
"","","","","","poldrack-single-stim","143","1006030","0.0-3.0-4.0","602078cdd1b8f26894a32bb2","E1","batch5","tol_feedback","-1","","","","","true","","","","","1000","1000","500","","","","","","-1","none","true","","0","","","","","",""
"","","","","","single-stim-button","144","1010105","0.0-3.0-5.0-0.0","602078cdd1b8f26894a32bb2","E1","batch5","tol_practice","4074","","","","","","","","","tol_peg_1","4074","4074","0","[[1,0,0],[3,0],[0]]","2","[[0,0,0],[3,1],[2]]","practice","4074","","","","","","","","","","",""
"","","","","","single-stim-button","145","1011673","0.0-3.0-5.0-1.0","602078cdd1b8f26894a32bb2","E1","batch5","tol_practice","1567","","","","","","","","","tol_peg_3","1567","1567","0","[[1,0,0],[3,0],[2]]","2","[[0,0,0],[3,1],[2]]","practice","1567","","","","","","","","","","",""
"","","","","","single-stim-button","146","1013022","0.0-3.0-5.1-0.1","602078cdd1b8f26894a32bb2","E1","batch5","tol_practice","1348","","","","","","","","","tol_peg_1","1348","1348","0","[[0,0,0],[3,0],[2]]","3","[[0,0,0],[3,1],[2]]","practice","1348","","","","","","","","","","",""
"","","","","","single-stim-button","147","1014318","0.0-3.0-5.1-1.1","602078cdd1b8f26894a32bb2","E1","batch5","tol_practice","1295","","","","","","","","","tol_peg_2","1295","1295","0","[[0,0,0],[3,1],[2]]","3","[[0,0,0],[3,1],[2]]","practice","1295","","","","","","","","","","",""
"","","","","","poldrack-single-stim","148","1015319","0.0-3.0-6.0","602078cdd1b8f26894a32bb2","E1","batch5","tol_feedback","-1","","","","","true","","","","","1000","1000","500","","","","","","-1","none","true","","0","","","","","",""
"","","","","","single-stim-button","149","1018815","0.0-3.0-7.0-0.0","602078cdd1b8f26894a32bb2","E1","batch5","tol_practice","3494","","","","","","","","","tol_peg_2","3494","3494","0","[[1,2,0],[0,0],[0]]","4","[[1,0,0],[2,0],[3]]","practice","3494","","","","","","","","","","",""
"","","","","","single-stim-button","150","1020097","0.0-3.0-7.0-1.0","602078cdd1b8f26894a32bb2","E1","batch5","tol_practice","1281","","","","","","","","","tol_peg_3","1281","1281","0","[[1,2,0],[0,0],[3]]","4","[[1,0,0],[2,0],[3]]","practice","1281","","","","","","","","","","",""
"","","","","","single-stim-button","151","1020981","0.0-3.0-7.1-0.1","602078cdd1b8f26894a32bb2","E1","batch5","tol_practice","883","","","","","","","","","tol_peg_1","883","883","0","[[1,0,0],[0,0],[3]]","5","[[1,0,0],[2,0],[3]]","practice","883","","","","","","","","","","",""
"","","","","","single-stim-button","152","1021901","0.0-3.0-7.1-1.1","602078cdd1b8f26894a32bb2","E1","batch5","tol_practice","920","","","","","","","","","tol_peg_2","920","920","0","[[1,0,0],[2,0],[3]]","5","[[1,0,0],[2,0],[3]]","practice","920","","","","","","","","","","",""
"","","","","","poldrack-single-stim","153","1022903","0.0-3.0-8.0","602078cdd1b8f26894a32bb2","E1","batch5","tol_feedback","-1","","","","","true","","","","","1000","1000","500","","","","","","-1","none","true","","0","","","","","",""
"","","","","","html-button-response","154","1026306","0.0-3.0-9.0","602078cdd1b8f26894a32bb2","E1","batch5","tol_instruction","3401.5999999046326","<div class = centerbox><p class = center-block-text>Great job! You are done with practice trials<br>You are about to start official trials.<br> <br> Problem <strong>1</strong> out of 25 problems</p></div>","0","","","","","","","","","","","","","","","","","","","","","","","","","",""
"","","","","","single-stim-button","155","1040348","0.0-3.0-10.0-0.0","602078cdd1b8f26894a32bb2","E1","batch5","tol_tohand","13041","","","","","","","","","tol_peg_1","13041","13041","0","[[1,0,0],[3,0],[0]]","1","[[1,3,0],[2,0],[0]]","0","0","","","","","","3","","","","",""
"","","","","","single-stim-button","156","1042261","0.0-3.0-10.0-1.0","602078cdd1b8f26894a32bb2","E1","batch5","tol_toboard","1911","","","","","","","","","tol_peg_3","1911","1911","0","[[1,0,0],[3,0],[2]]","1","[[1,3,0],[2,0],[0]]","0","0","","","","","","3","","","","",""
"","","","","","single-stim-button","157","1043283","0.0-3.0-10.1-0.1","602078cdd1b8f26894a32bb2","E1","batch5","tol_tohand","1022","","","","","","","","","tol_peg_2","1022","1022","0","[[1,0,0],[0,0],[2]]","2","[[1,3,0],[2,0],[0]]","0","0","","","","","","3","","","","",""
"","","","","","single-stim-button","158","1044446","0.0-3.0-10.1-1.1","602078cdd1b8f26894a32bb2","E1","batch5","tol_toboard","1163","","","","","","","","","tol_peg_1","1163","1163","0","[[1,3,0],[0,0],[2]]","2","[[1,3,0],[2,0],[0]]","0","0","","","","","","3","","","","",""
"","","","","","single-stim-button","159","1045614","0.0-3.0-10.2-0.2","602078cdd1b8f26894a32bb2","E1","batch5","tol_tohand","1168","","","","","","","","","tol_peg_3","1168","1168","0","[[1,3,0],[0,0],[0]]","3","[[1,3,0],[2,0],[0]]","0","0","","","","","","3","","","","",""
"","","","","","single-stim-button","160","1046505","0.0-3.0-10.2-1.2","602078cdd1b8f26894a32bb2","E1","batch5","tol_toboard","891","","","","","","","","","tol_peg_2","891","891","0","[[1,3,0],[2,0],[0]]","3","[[1,3,0],[2,0],[0]]","0","0","","","","","","3","","","","",""
"","","","","","poldrack-single-stim","161","1047506","0.0-3.0-11.0","602078cdd1b8f26894a32bb2","E1","batch5","tol_feedback","-1","","","","","true","","","","","1000","1000","500","","","","","","-1","none","true","13041","15231","","","","","",""
"","","","","","html-button-response","162","1048547","0.0-3.0-12.0","602078cdd1b8f26894a32bb2","E1","batch5","tol_trial_num","1039.7000000476837","<div class = centerbox><p class = center-block-text>problem <strong>2</strong> out of 25 problems</p></div>","0","","","","","","","","","","","","","","","","","","","","","","","","","",""
"","","","","","single-stim-button","163","1053195","0.0-3.0-13.0-0.0","602078cdd1b8f26894a32bb2","E1","batch5","tol_tohand","4648","","","","","","","","","tol_peg_1","4648","4648","0","[[1,0,0],[3,0],[0]]","1","[[2,1,3],[0,0],[0]]","1","0","","","","","","5","","","","",""
"","","","","","single-stim-button","164","1056557","0.0-3.0-13.0-1.0","602078cdd1b8f26894a32bb2","E1","batch5","tol_toboard","3362","","","","","","","","","tol_peg_3","3362","3362","0","[[1,0,0],[3,0],[2]]","1","[[2,1,3],[0,0],[0]]","1","0","","","","","","5","","","","",""
"","","","","","single-stim-button","165","1057675","0.0-3.0-13.1-0.1","602078cdd1b8f26894a32bb2","E1","batch5","tol_tohand","1117","","","","","","","","","tol_peg_1","1117","1117","0","[[0,0,0],[3,0],[2]]","2","[[2,1,3],[0,0],[0]]","1","0","","","","","","5","","","","",""
"","","","","","single-stim-button","166","1058419","0.0-3.0-13.1-1.1","602078cdd1b8f26894a32bb2","E1","batch5","tol_toboard","744","","","","","","","","","tol_peg_2","744","744","0","[[0,0,0],[3,1],[2]]","2","[[2,1,3],[0,0],[0]]","1","0","","","","","","5","","","","",""
"","","","","","single-stim-button","167","1059299","0.0-3.0-13.2-0.2","602078cdd1b8f26894a32bb2","E1","batch5","tol_tohand","880","","","","","","","","","tol_peg_3","880","880","0","[[0,0,0],[3,1],[0]]","3","[[2,1,3],[0,0],[0]]","1","0","","","","","","5","","","","",""
"","","","","","single-stim-button","168","1060541","0.0-3.0-13.2-1.2","602078cdd1b8f26894a32bb2","E1","batch5","tol_toboard","1242","","","","","","","","","tol_peg_1","1242","1242","0","[[2,0,0],[3,1],[0]]","3","[[2,1,3],[0,0],[0]]","1","0","","","","","","5","","","","",""
"","","","","","single-stim-button","169","1061600","0.0-3.0-13.3-0.3","602078cdd1b8f26894a32bb2","E1","batch5","tol_tohand","1058","","","","","","","","","tol_peg_2","1058","1058","0","[[2,0,0],[3,0],[0]]","4","[[2,1,3],[0,0],[0]]","1","0","","","","","","5","","","","",""
"","","","","","single-stim-button","170","1062576","0.0-3.0-13.3-1.3","602078cdd1b8f26894a32bb2","E1","batch5","tol_toboard","975","","","","","","","","","tol_peg_1","975","975","0","[[2,1,0],[3,0],[0]]","4","[[2,1,3],[0,0],[0]]","1","0","","","","","","5","","","","",""
"","","","","","single-stim-button","171","1063386","0.0-3.0-13.4-0.4","602078cdd1b8f26894a32bb2","E1","batch5","tol_tohand","809","","","","","","","","","tol_peg_2","809","809","0","[[2,1,0],[0,0],[0]]","5","[[2,1,3],[0,0],[0]]","1","0","","","","","","5","","","","",""
"","","","","","single-stim-button","172","1064303","0.0-3.0-13.4-1.4","602078cdd1b8f26894a32bb2","E1","batch5","tol_toboard","917","","","","","","","","","tol_peg_1","917","917","0","[[2,1,3],[0,0],[0]]","5","[[2,1,3],[0,0],[0]]","1","0","","","","","","5","","","","",""
"","","","","","poldrack-single-stim","173","1065304","0.0-3.0-14.0","602078cdd1b8f26894a32bb2","E1","batch5","tol_feedback","-1","","","","","true","","","","","1000","1000","500","","","","","","-1","none","true","4648","8512","","","","","",""
"","","","","","html-button-response","174","1066120","0.0-3.0-15.0","602078cdd1b8f26894a32bb2","E1","batch5","tol_trial_num","815.5","<div class = centerbox><p class = center-block-text>problem <strong>3</strong> out of 25 problems</p></div>","0","","","","","","","","","","","","","","","","","","","","","","","","","",""
"","","","","","single-stim-button","175","1070699","0.0-3.0-16.0-0.0","602078cdd1b8f26894a32bb2","E1","batch5","tol_tohand","4578","","","","","","","","","tol_peg_1","4578","4578","0","[[2,0,0],[0,0],[1]]","1","[[1,2,0],[3,0],[0]]","2","0","","","","","","4","","","","",""
"","","","","","single-stim-button","176","1072205","0.0-3.0-16.0-1.0","602078cdd1b8f26894a32bb2","E1","batch5","tol_toboard","1504","","","","","","","","","tol_peg_2","1504","1504","0","[[2,0,0],[3,0],[1]]","1","[[1,2,0],[3,0],[0]]","2","0","","","","","","4","","","","",""
"","","","","","single-stim-button","177","1074189","0.0-3.0-16.1-0.1","602078cdd1b8f26894a32bb2","E1","batch5","tol_tohand","1983","","","","","","","","","tol_peg_1","1983","1983","0","[[0,0,0],[3,0],[1]]","2","[[1,2,0],[3,0],[0]]","2","0","","","","","","4","","","","",""
"","","","","","single-stim-button","178","1075182","0.0-3.0-16.1-1.1","602078cdd1b8f26894a32bb2","E1","batch5","tol_toboard","993","","","","","","","","","tol_peg_2","993","993","0","[[0,0,0],[3,2],[1]]","2","[[1,2,0],[3,0],[0]]","2","0","","","","","","4","","","","",""
"","","","","","single-stim-button","179","1075961","0.0-3.0-16.2-0.2","602078cdd1b8f26894a32bb2","E1","batch5","tol_tohand","778","","","","","","","","","tol_peg_3","778","778","0","[[0,0,0],[3,2],[0]]","3","[[1,2,0],[3,0],[0]]","2","0","","","","","","4","","","","",""
"","","","","","single-stim-button","180","1077201","0.0-3.0-16.2-1.2","602078cdd1b8f26894a32bb2","E1","batch5","tol_toboard","1239","","","","","","","","","tol_peg_1","1239","1239","0","[[1,0,0],[3,2],[0]]","3","[[1,2,0],[3,0],[0]]","2","0","","","","","","4","","","","",""
"","","","","","single-stim-button","181","1078235","0.0-3.0-16.3-0.3","602078cdd1b8f26894a32bb2","E1","batch5","tol_tohand","1033","","","","","","","","","tol_peg_2","1033","1033","0","[[1,0,0],[3,0],[0]]","4","[[1,2,0],[3,0],[0]]","2","0","","","","","","4","","","","",""
"","","","","","single-stim-button","182","1079438","0.0-3.0-16.3-1.3","602078cdd1b8f26894a32bb2","E1","batch5","tol_toboard","1203","","","","","","","","","tol_peg_1","1203","1203","0","[[1,2,0],[3,0],[0]]","4","[[1,2,0],[3,0],[0]]","2","0","","","","","","4","","","","",""
"","","","","","poldrack-single-stim","183","1080440","0.0-3.0-17.0","602078cdd1b8f26894a32bb2","E1","batch5","tol_feedback","-1","","","","","true","","","","","1000","1000","500","","","","","","-1","none","true","4578","8372","","","","","",""
"","","","","","html-button-response","184","1081258","0.0-3.0-18.0","602078cdd1b8f26894a32bb2","E1","batch5","tol_trial_num","817.7000000476837","<div class = centerbox><p class = center-block-text>problem <strong>4</strong> out of 25 problems</p></div>","0","","","","","","","","","","","","","","","","","","","","","","","","","",""
"","","","","","single-stim-button","185","1085922","0.0-3.0-19.0-0.0","602078cdd1b8f26894a32bb2","E1","batch5","tol_tohand","4663","","","","","","","","","tol_peg_2","4663","4663","0","[[3,0,0],[2,0],[0]]","1","[[3,0,0],[1,0],[2]]","3","0","","","","","","3","","","","",""
"","","","","","single-stim-button","186","1087053","0.0-3.0-19.0-1.0","602078cdd1b8f26894a32bb2","E1","batch5","tol_toboard","1131","","","","","","","","","tol_peg_1","1131","1131","0","[[3,1,0],[2,0],[0]]","1","[[3,0,0],[1,0],[2]]","3","0","","","","","","3","","","","",""
"","","","","","single-stim-button","187","1087867","0.0-3.0-19.1-0.1","602078cdd1b8f26894a32bb2","E1","batch5","tol_tohand","814","","","","","","","","","tol_peg_2","814","814","0","[[3,1,0],[0,0],[0]]","2","[[3,0,0],[1,0],[2]]","3","0","","","","","","3","","","","",""
"","","","","","single-stim-button","188","1088891","0.0-3.0-19.1-1.1","602078cdd1b8f26894a32bb2","E1","batch5","tol_toboard","1023","","","","","","","","","tol_peg_3","1023","1023","0","[[3,1,0],[0,0],[2]]","2","[[3,0,0],[1,0],[2]]","3","0","","","","","","3","","","","",""
"","","","","","single-stim-button","189","1089676","0.0-3.0-19.2-0.2","602078cdd1b8f26894a32bb2","E1","batch5","tol_tohand","785","","","","","","","","","tol_peg_1","785","785","0","[[3,0,0],[0,0],[2]]","3","[[3,0,0],[1,0],[2]]","3","0","","","","","","3","","","","",""
"","","","","","single-stim-button","190","1090561","0.0-3.0-19.2-1.2","602078cdd1b8f26894a32bb2","E1","batch5","tol_toboard","885","","","","","","","","","tol_peg_2","885","885","0","[[3,0,0],[1,0],[2]]","3","[[3,0,0],[1,0],[2]]","3","0","","","","","","3","","","","",""
"","","","","","poldrack-single-stim","191","1091563","0.0-3.0-20.0","602078cdd1b8f26894a32bb2","E1","batch5","tol_feedback","-1","","","","","true","","","","","1000","1000","500","","","","","","-1","none","true","4663","6262","","","","","",""
"","","","","","html-button-response","192","1092343","0.0-3.0-21.0","602078cdd1b8f26894a32bb2","E1","batch5","tol_trial_num","778.2999999523163","<div class = centerbox><p class = center-block-text>problem <strong>5</strong> out of 25 problems</p></div>","0","","","","","","","","","","","","","","","","","","","","","","","","","",""
"","","","","","single-stim-button","193","1150505","0.0-3.0-22.0-0.0","602078cdd1b8f26894a32bb2","E1","batch5","tol_tohand","58162","","","","","","","","","tol_peg_3","58162","58162","0","[[1,0,0],[2,0],[0]]","1","[[0,0,0],[1,2],[3]]","4","0","","","","","","7","","","","",""
"","","","","","single-stim-button","194","1151579","0.0-3.0-22.0-1.0","602078cdd1b8f26894a32bb2","E1","batch5","tol_toboard","1074","","","","","","","","","tol_peg_2","1074","1074","0","[[1,0,0],[2,3],[0]]","1","[[0,0,0],[1,2],[3]]","4","0","","","","","","7","","","","",""
"","","","","","single-stim-button","195","1153431","0.0-3.0-22.1-0.1","602078cdd1b8f26894a32bb2","E1","batch5","tol_tohand","1851","","","","","","","","","tol_peg_1","1851","1851","0","[[0,0,0],[2,3],[0]]","2","[[0,0,0],[1,2],[3]]","4","0","","","","","","7","","","","",""
"","","","","","single-stim-button","196","1156369","0.0-3.0-22.1-1.1","602078cdd1b8f26894a32bb2","E1","batch5","tol_toboard","2937","","","","","","","","","tol_peg_3","2937","2937","0","[[0,0,0],[2,3],[1]]","2","[[0,0,0],[1,2],[3]]","4","0","","","","","","7","","","","",""
"","","","","","single-stim-button","197","1157471","0.0-3.0-22.2-0.2","602078cdd1b8f26894a32bb2","E1","batch5","tol_tohand","1101","","","","","","","","","tol_peg_2","1101","1101","0","[[0,0,0],[2,0],[1]]","3","[[0,0,0],[1,2],[3]]","4","0","","","","","","7","","","","",""
"","","","","","single-stim-button","198","1158259","0.0-3.0-22.2-1.2","602078cdd1b8f26894a32bb2","E1","batch5","tol_toboard","787","","","","","","","","","tol_peg_1","787","787","0","[[3,0,0],[2,0],[1]]","3","[[0,0,0],[1,2],[3]]","4","0","","","","","","7","","","","",""
"","","","","","single-stim-button","199","1159009","0.0-3.0-22.3-0.3","602078cdd1b8f26894a32bb2","E1","batch5","tol_tohand","748","","","","","","","","","tol_peg_2","748","748","0","[[3,0,0],[0,0],[1]]","4","[[0,0,0],[1,2],[3]]","4","0","","","","","","7","","","","",""
"","","","","","single-stim-button","200","1160261","0.0-3.0-22.3-1.3","602078cdd1b8f26894a32bb2","E1","batch5","tol_toboard","1252","","","","","","","","","tol_peg_1","1252","1252","0","[[3,2,0],[0,0],[1]]","4","[[0,0,0],[1,2],[3]]","4","0","","","","","","7","","","","",""
"","","","","","single-stim-button","201","1161541","0.0-3.0-22.4-0.4","602078cdd1b8f26894a32bb2","E1","batch5","tol_tohand","1279","","","","","","","","","tol_peg_3","1279","1279","0","[[3,2,0],[0,0],[0]]","5","[[0,0,0],[1,2],[3]]","4","0","","","","","","7","","","","",""
"","","","","","single-stim-button","202","1162383","0.0-3.0-22.4-1.4","602078cdd1b8f26894a32bb2","E1","batch5","tol_toboard","842","","","","","","","","","tol_peg_2","842","842","0","[[3,2,0],[1,0],[0]]","5","[[0,0,0],[1,2],[3]]","4","0","","","","","","7","","","","",""
"","","","","","single-stim-button","203","1163511","0.0-3.0-22.5-0.5","602078cdd1b8f26894a32bb2","E1","batch5","tol_tohand","1127","","","","","","","","","tol_peg_1","1127","1127","0","[[3,0,0],[1,0],[0]]","6","[[0,0,0],[1,2],[3]]","4","0","","","","","","7","","","","",""
"","","","","","single-stim-button","204","1164681","0.0-3.0-22.5-1.5","602078cdd1b8f26894a32bb2","E1","batch5","tol_toboard","1170","","","","","","","","","tol_peg_2","1170","1170","0","[[3,0,0],[1,2],[0]]","6","[[0,0,0],[1,2],[3]]","4","0","","","","","","7","","","","",""
"","","","","","single-stim-button","205","1165351","0.0-3.0-22.6-0.6","602078cdd1b8f26894a32bb2","E1","batch5","tol_tohand","668","","","","","","","","","tol_peg_1","668","668","0","[[0,0,0],[1,2],[0]]","7","[[0,0,0],[1,2],[3]]","4","0","","","","","","7","","","","",""
"","","","","","single-stim-button","206","1166333","0.0-3.0-22.6-1.6","602078cdd1b8f26894a32bb2","E1","batch5","tol_toboard","982","","","","","","","","","tol_peg_3","982","982","0","[[0,0,0],[1,2],[3]]","7","[[0,0,0],[1,2],[3]]","4","0","","","","","","7","","","","",""
"","","","","","poldrack-single-stim","207","1167334","0.0-3.0-23.0","602078cdd1b8f26894a32bb2","E1","batch5","tol_feedback","-1","","","","","true","","","","","1000","1000","500","","","","","","-1","none","true","58162","64936","","","","","",""
"","","","","","html-button-response","208","1168639","0.0-3.0-24.0","602078cdd1b8f26894a32bb2","E1","batch5","tol_trial_num","1303.9000000953674","<div class = centerbox><p class = center-block-text>problem <strong>6</strong> out of 25 problems</p></div>","0","","","","","","","","","","","","","","","","","","","","","","","","","",""
"","","","","","single-stim-button","209","1179271","0.0-3.0-25.0-0.0","602078cdd1b8f26894a32bb2","E1","batch5","tol_tohand","10631","","","","","","","","","tol_peg_3","10631","10631","0","[[0,0,0],[1,2],[0]]","1","[[1,0,0],[2,3],[0]]","5","0","","","","","","6","","","","",""
"","","","","","single-stim-button","210","1182227","0.0-3.0-25.0-1.0","602078cdd1b8f26894a32bb2","E1","batch5","tol_toboard","2956","","","","","","","","","tol_peg_1","2956","2956","0","[[3,0,0],[1,2],[0]]","1","[[1,0,0],[2,3],[0]]","5","0","","","","","","6","","","","",""
"","","","","","single-stim-button","211","1184516","0.0-3.0-25.1-0.1","602078cdd1b8f26894a32bb2","E1","batch5","tol_tohand","2287","","","","","","","","","tol_peg_2","2287","2287","0","[[3,0,0],[1,0],[0]]","2","[[1,0,0],[2,3],[0]]","5","0","","","","","","6","","","","",""
"","","","","","single-stim-button","212","1205843","0.0-3.0-25.1-1.1","602078cdd1b8f26894a32bb2","E1","batch5","tol_toboard","21327","","","","","","","","","tol_peg_3","21327","21327","0","[[3,0,0],[1,0],[2]]","2","[[1,0,0],[2,3],[0]]","5","0","","","","","","6","","","","",""
"","","","","","single-stim-button","213","1225227","0.0-3.0-25.2-0.2","602078cdd1b8f26894a32bb2","E1","batch5","tol_tohand","19383","","","","","","","","","tol_peg_3","19383","19383","0","[[3,0,0],[1,0],[0]]","3","[[1,0,0],[2,3],[0]]","5","0","","","","","","6","","","","",""
"","","","","","single-stim-button","214","1226287","0.0-3.0-25.2-1.2","602078cdd1b8f26894a32bb2","E1","batch5","tol_toboard","1059","","","","","","","","","tol_peg_1","1059","1059","0","[[3,2,0],[1,0],[0]]","3","[[1,0,0],[2,3],[0]]","5","0","","","","","","6","","","","",""
"","","","","","single-stim-button","215","1226931","0.0-3.0-25.3-0.3","602078cdd1b8f26894a32bb2","E1","batch5","tol_tohand","643","","","","","","","","","tol_peg_2","643","643","0","[[3,2,0],[0,0],[0]]","4","[[1,0,0],[2,3],[0]]","5","0","","","","","","6","","","","",""
"","","","","","single-stim-button","216","1227777","0.0-3.0-25.3-1.3","602078cdd1b8f26894a32bb2","E1","batch5","tol_toboard","845","","","","","","","","","tol_peg_3","845","845","0","[[3,2,0],[0,0],[1]]","4","[[1,0,0],[2,3],[0]]","5","0","","","","","","6","","","","",""
"","","","","","single-stim-button","217","1228766","0.0-3.0-25.4-0.4","602078cdd1b8f26894a32bb2","E1","batch5","tol_tohand","987","","","","","","","","","tol_peg_1","987","987","0","[[3,0,0],[0,0],[1]]","5","[[1,0,0],[2,3],[0]]","5","0","","","","","","6","","","","",""
"","","","","","single-stim-button","218","1229757","0.0-3.0-25.4-1.4","602078cdd1b8f26894a32bb2","E1","batch5","tol_toboard","991","","","","","","","","","tol_peg_2","991","991","0","[[3,0,0],[2,0],[1]]","5","[[1,0,0],[2,3],[0]]","5","0","","","","","","6","","","","",""
"","","","","","single-stim-button","219","1230591","0.0-3.0-25.5-0.5","602078cdd1b8f26894a32bb2","E1","batch5","tol_tohand","832","","","","","","","","","tol_peg_1","832","832","0","[[0,0,0],[2,0],[1]]","6","[[1,0,0],[2,3],[0]]","5","0","","","","","","6","","","","",""
"","","","","","single-stim-button","220","1231467","0.0-3.0-25.5-1.5","602078cdd1b8f26894a32bb2","E1","batch5","tol_toboard","876","","","","","","","","","tol_peg_2","876","876","0","[[0,0,0],[2,3],[1]]","6","[[1,0,0],[2,3],[0]]","5","0","","","","","","6","","","","",""
"","","","","","single-stim-button","221","1232044","0.0-3.0-25.6-0.6","602078cdd1b8f26894a32bb2","E1","batch5","tol_tohand","576","","","","","","","","","tol_peg_3","576","576","0","[[0,0,0],[2,3],[0]]","7","[[1,0,0],[2,3],[0]]","5","0","","","","","","6","","","","",""
"","","","","","single-stim-button","222","1233433","0.0-3.0-25.6-1.6","602078cdd1b8f26894a32bb2","E1","batch5","tol_toboard","1389","","","","","","","","","tol_peg_1","1389","1389","0","[[1,0,0],[2,3],[0]]","7","[[1,0,0],[2,3],[0]]","5","0","","","","","","6","","","","",""
"","","","","","poldrack-single-stim","223","1234435","0.0-3.0-26.0","602078cdd1b8f26894a32bb2","E1","batch5","tol_feedback","-1","","","","","true","","","","","1000","1000","500","","","","","","-1","none","true","10631","35339","","","","","",""
"","","","","","html-button-response","224","1235349","0.0-3.0-27.0","602078cdd1b8f26894a32bb2","E1","batch5","tol_trial_num","912.5999999046326","<div class = centerbox><p class = center-block-text>problem <strong>7</strong> out of 25 problems</p></div>","0","","","","","","","","","","","","","","","","","","","","","","","","","",""
"","","","","","single-stim-button","225","1241742","0.0-3.0-28.0-0.0","602078cdd1b8f26894a32bb2","E1","batch5","tol_tohand","6392","","","","","","","","","tol_peg_3","6392","6392","0","[[2,1,0],[0,0],[0]]","1","[[1,2,0],[3,0],[0]]","6","0","","","","","","5","","","","",""
"","","","","","single-stim-button","226","1242751","0.0-3.0-28.0-1.0","602078cdd1b8f26894a32bb2","E1","batch5","tol_toboard","1008","","","","","","","","","tol_peg_2","1008","1008","0","[[2,1,0],[3,0],[0]]","1","[[1,2,0],[3,0],[0]]","6","0","","","","","","5","","","","",""
"","","","","","single-stim-button","227","1244713","0.0-3.0-28.1-0.1","602078cdd1b8f26894a32bb2","E1","batch5","tol_tohand","1961","","","","","","","","","tol_peg_1","1961","1961","0","[[2,0,0],[3,0],[0]]","2","[[1,2,0],[3,0],[0]]","6","0","","","","","","5","","","","",""
"","","","","","single-stim-button","228","1245553","0.0-3.0-28.1-1.1","602078cdd1b8f26894a32bb2","E1","batch5","tol_toboard","839","","","","","","","","","tol_peg_2","839","839","0","[[2,0,0],[3,1],[0]]","2","[[1,2,0],[3,0],[0]]","6","0","","","","","","5","","","","",""
"","","","","","single-stim-button","229","1246624","0.0-3.0-28.2-0.2","602078cdd1b8f26894a32bb2","E1","batch5","tol_tohand","1069","","","","","","","","","tol_peg_1","1069","1069","0","[[0,0,0],[3,1],[0]]","3","[[1,2,0],[3,0],[0]]","6","0","","","","","","5","","","","",""
"","","","","","single-stim-button","230","1247579","0.0-3.0-28.2-1.2","602078cdd1b8f26894a32bb2","E1","batch5","tol_toboard","955","","","","","","","","","tol_peg_3","955","955","0","[[0,0,0],[3,1],[2]]","3","[[1,2,0],[3,0],[0]]","6","0","","","","","","5","","","","",""
"","","","","","single-stim-button","231","1248397","0.0-3.0-28.3-0.3","602078cdd1b8f26894a32bb2","E1","batch5","tol_tohand","817","","","","","","","","","tol_peg_2","817","817","0","[[0,0,0],[3,0],[2]]","4","[[1,2,0],[3,0],[0]]","6","0","","","","","","5","","","","",""
"","","","","","single-stim-button","232","1249397","0.0-3.0-28.3-1.3","602078cdd1b8f26894a32bb2","E1","batch5","tol_toboard","999","","","","","","","","","tol_peg_1","999","999","0","[[1,0,0],[3,0],[2]]","4","[[1,2,0],[3,0],[0]]","6","0","","","","","","5","","","","",""
"","","","","","single-stim-button","233","1250596","0.0-3.0-28.4-0.4","602078cdd1b8f26894a32bb2","E1","batch5","tol_tohand","1198","","","","","","","","","tol_peg_3","1198","1198","0","[[1,0,0],[3,0],[0]]","5","[[1,2,0],[3,0],[0]]","6","0","","","","","","5","","","","",""
"","","","","","single-stim-button","234","1251555","0.0-3.0-28.4-1.4","602078cdd1b8f26894a32bb2","E1","batch5","tol_toboard","959","","","","","","","","","tol_peg_1","959","959","0","[[1,2,0],[3,0],[0]]","5","[[1,2,0],[3,0],[0]]","6","0","","","","","","5","","","","",""
"","","","","","poldrack-single-stim","235","1252557","0.0-3.0-29.0","602078cdd1b8f26894a32bb2","E1","batch5","tol_feedback","-1","","","","","true","","","","","1000","1000","500","","","","","","-1","none","true","6392","11437","","","","","",""
"","","","","","html-button-response","236","1253171","0.0-3.0-30.0","602078cdd1b8f26894a32bb2","E1","batch5","tol_trial_num","614","<div class = centerbox><p class = center-block-text>problem <strong>8</strong> out of 25 problems</p></div>","0","","","","","","","","","","","","","","","","","","","","","","","","","",""
"","","","","","single-stim-button","237","1256926","0.0-3.0-31.0-0.0","602078cdd1b8f26894a32bb2","E1","batch5","tol_tohand","3753","","","","","","","","","tol_peg_3","3753","3753","0","[[0,0,0],[2,3],[0]]","1","[[1,2,0],[3,0],[0]]","7","0","","","","","","4","","","","",""
"","","","","","single-stim-button","238","1257891","0.0-3.0-31.0-1.0","602078cdd1b8f26894a32bb2","E1","batch5","tol_toboard","964","","","","","","","","","tol_peg_1","964","964","0","[[1,0,0],[2,3],[0]]","1","[[1,2,0],[3,0],[0]]","7","0","","","","","","4","","","","",""
"","","","","","single-stim-button","239","1258770","0.0-3.0-31.1-0.1","602078cdd1b8f26894a32bb2","E1","batch5","tol_tohand","878","","","","","","","","","tol_peg_2","878","878","0","[[1,0,0],[2,0],[0]]","2","[[1,2,0],[3,0],[0]]","7","0","","","","","","4","","","","",""
"","","","","","single-stim-button","240","1259568","0.0-3.0-31.1-1.1","602078cdd1b8f26894a32bb2","E1","batch5","tol_toboard","797","","","","","","","","","tol_peg_3","797","797","0","[[1,0,0],[2,0],[3]]","2","[[1,2,0],[3,0],[0]]","7","0","","","","","","4","","","","",""
"","","","","","single-stim-button","241","1260351","0.0-3.0-31.2-0.2","602078cdd1b8f26894a32bb2","E1","batch5","tol_tohand","783","","","","","","","","","tol_peg_2","783","783","0","[[1,0,0],[0,0],[3]]","3","[[1,2,0],[3,0],[0]]","7","0","","","","","","4","","","","",""
"","","","","","single-stim-button","242","1261029","0.0-3.0-31.2-1.2","602078cdd1b8f26894a32bb2","E1","batch5","tol_toboard","678","","","","","","","","","tol_peg_1","678","678","0","[[1,2,0],[0,0],[3]]","3","[[1,2,0],[3,0],[0]]","7","0","","","","","","4","","","","",""
"","","","","","single-stim-button","243","1266603","0.0-3.0-31.3-0.3","602078cdd1b8f26894a32bb2","E1","batch5","tol_tohand","5573","","","","","","","","","tol_peg_3","5573","5573","0","[[1,2,0],[0,0],[0]]","4","[[1,2,0],[3,0],[0]]","7","0","","","","","","4","","","","",""
"","","","","","single-stim-button","244","1267717","0.0-3.0-31.3-1.3","602078cdd1b8f26894a32bb2","E1","batch5","tol_toboard","1113","","","","","","","","","tol_peg_2","1113","1113","0","[[1,2,0],[3,0],[0]]","4","[[1,2,0],[3,0],[0]]","7","0","","","","","","4","","","","",""
"","","","","","poldrack-single-stim","245","1268719","0.0-3.0-32.0","602078cdd1b8f26894a32bb2","E1","batch5","tol_feedback","-1","","","","","true","","","","","1000","1000","500","","","","","","-1","none","true","3753","10987","","","","","",""
"","","","","","html-button-response","246","1269789","0.0-3.0-33.0","602078cdd1b8f26894a32bb2","E1","batch5","tol_trial_num","1069.6000001430511","<div class = centerbox><p class = center-block-text>problem <strong>9</strong> out of 25 problems</p></div>","0","","","","","","","","","","","","","","","","","","","","","","","","","",""
"","","","","","single-stim-button","247","1288711","0.0-3.0-34.0-0.0","602078cdd1b8f26894a32bb2","E1","batch5","tol_tohand","18922","","","","","","","","","tol_peg_3","18922","18922","0","[[3,2,0],[0,0],[0]]","1","[[2,1,0],[3,0],[0]]","8","0","","","","","","6","","","","",""
"","","","","","single-stim-button","248","1289811","0.0-3.0-34.0-1.0","602078cdd1b8f26894a32bb2","E1","batch5","tol_toboard","1099","","","","","","","","","tol_peg_2","1099","1099","0","[[3,2,0],[1,0],[0]]","1","[[2,1,0],[3,0],[0]]","8","0","","","","","","6","","","","",""
"","","","","","single-stim-button","249","1291531","0.0-3.0-34.1-0.1","602078cdd1b8f26894a32bb2","E1","batch5","tol_tohand","1720","","","","","","","","","tol_peg_1","1720","1720","0","[[3,0,0],[1,0],[0]]","2","[[2,1,0],[3,0],[0]]","8","0","","","","","","6","","","","",""
"","","","","","single-stim-button","250","1292411","0.0-3.0-34.1-1.1","602078cdd1b8f26894a32bb2","E1","batch5","tol_toboard","879","","","","","","","","","tol_peg_2","879","879","0","[[3,0,0],[1,2],[0]]","2","[[2,1,0],[3,0],[0]]","8","0","","","","","","6","","","","",""
"","","","","","single-stim-button","251","1293127","0.0-3.0-34.2-0.2","602078cdd1b8f26894a32bb2","E1","batch5","tol_tohand","716","","","","","","","","","tol_peg_1","716","716","0","[[0,0,0],[1,2],[0]]","3","[[2,1,0],[3,0],[0]]","8","0","","","","","","6","","","","",""
"","","","","","single-stim-button","252","1294447","0.0-3.0-34.2-1.2","602078cdd1b8f26894a32bb2","E1","batch5","tol_toboard","1320","","","","","","","","","tol_peg_3","1320","1320","0","[[0,0,0],[1,2],[3]]","3","[[2,1,0],[3,0],[0]]","8","0","","","","","","6","","","","",""
"","","","","","single-stim-button","253","1295389","0.0-3.0-34.3-0.3","602078cdd1b8f26894a32bb2","E1","batch5","tol_tohand","942","","","","","","","","","tol_peg_2","942","942","0","[[0,0,0],[1,0],[3]]","4","[[2,1,0],[3,0],[0]]","8","0","","","","","","6","","","","",""
"","","","","","single-stim-button","254","1296599","0.0-3.0-34.3-1.3","602078cdd1b8f26894a32bb2","E1","batch5","tol_toboard","1208","","","","","","","","","tol_peg_1","1208","1208","0","[[2,0,0],[1,0],[3]]","4","[[2,1,0],[3,0],[0]]","8","0","","","","","","6","","","","",""
"","","","","","single-stim-button","255","1297516","0.0-3.0-34.4-0.4","602078cdd1b8f26894a32bb2","E1","batch5","tol_tohand","917","","","","","","","","","tol_peg_2","917","917","0","[[2,0,0],[0,0],[3]]","5","[[2,1,0],[3,0],[0]]","8","0","","","","","","6","","","","",""
"","","","","","single-stim-button","256","1298527","0.0-3.0-34.4-1.4","602078cdd1b8f26894a32bb2","E1","batch5","tol_toboard","1011","","","","","","","","","tol_peg_1","1011","1011","0","[[2,1,0],[0,0],[3]]","5","[[2,1,0],[3,0],[0]]","8","0","","","","","","6","","","","",""
"","","","","","single-stim-button","257","1299377","0.0-3.0-34.5-0.5","602078cdd1b8f26894a32bb2","E1","batch5","tol_tohand","849","","","","","","","","","tol_peg_3","849","849","0","[[2,1,0],[0,0],[0]]","6","[[2,1,0],[3,0],[0]]","8","0","","","","","","6","","","","",""
"","","","","","single-stim-button","258","1300129","0.0-3.0-34.5-1.5","602078cdd1b8f26894a32bb2","E1","batch5","tol_toboard","752","","","","","","","","","tol_peg_2","752","752","0","[[2,1,0],[3,0],[0]]","6","[[2,1,0],[3,0],[0]]","8","0","","","","","","6","","","","",""
"","","","","","poldrack-single-stim","259","1301131","0.0-3.0-35.0","602078cdd1b8f26894a32bb2","E1","batch5","tol_feedback","-1","","","","","true","","","","","1000","1000","500","","","","","","-1","none","true","18922","24066","","","","","",""
"","","","","","html-button-response","260","1301985","0.0-3.0-36.0","602078cdd1b8f26894a32bb2","E1","batch5","tol_trial_num","852.6000001430511","<div class = centerbox><p class = center-block-text>problem <strong>10</strong> out of 25 problems</p></div>","0","","","","","","","","","","","","","","","","","","","","","","","","","",""
"","","","","","single-stim-button","261","1308581","0.0-3.0-37.0-0.0","602078cdd1b8f26894a32bb2","E1","batch5","tol_tohand","6596","","","","","","","","","tol_peg_2","6596","6596","0","[[3,0,0],[0,0],[2]]","1","[[3,0,0],[2,1],[0]]","9","0","","","","","","3","","","","",""
"","","","","","single-stim-button","262","1309277","0.0-3.0-37.0-1.0","602078cdd1b8f26894a32bb2","E1","batch5","tol_toboard","695","","","","","","","","","tol_peg_1","695","695","0","[[3,1,0],[0,0],[2]]","1","[[3,0,0],[2,1],[0]]","9","0","","","","","","3","","","","",""
"","","","","","single-stim-button","263","1309983","0.0-3.0-37.1-0.1","602078cdd1b8f26894a32bb2","E1","batch5","tol_tohand","706","","","","","","","","","tol_peg_3","706","706","0","[[3,1,0],[0,0],[0]]","2","[[3,0,0],[2,1],[0]]","9","0","","","","","","3","","","","",""
"","","","","","single-stim-button","264","1310935","0.0-3.0-37.1-1.1","602078cdd1b8f26894a32bb2","E1","batch5","tol_toboard","951","","","","","","","","","tol_peg_2","951","951","0","[[3,1,0],[2,0],[0]]","2","[[3,0,0],[2,1],[0]]","9","0","","","","","","3","","","","",""
"","","","","","single-stim-button","265","1311595","0.0-3.0-37.2-0.2","602078cdd1b8f26894a32bb2","E1","batch5","tol_tohand","660","","","","","","","","","tol_peg_1","660","660","0","[[3,0,0],[2,0],[0]]","3","[[3,0,0],[2,1],[0]]","9","0","","","","","","3","","","","",""
"","","","","","single-stim-button","266","1312337","0.0-3.0-37.2-1.2","602078cdd1b8f26894a32bb2","E1","batch5","tol_toboard","741","","","","","","","","","tol_peg_2","741","741","0","[[3,0,0],[2,1],[0]]","3","[[3,0,0],[2,1],[0]]","9","0","","","","","","3","","","","",""
"","","","","","poldrack-single-stim","267","1313339","0.0-3.0-38.0","602078cdd1b8f26894a32bb2","E1","batch5","tol_feedback","-1","","","","","true","","","","","1000","1000","500","","","","","","-1","none","true","6596","7962","","","","","",""
"","","","","","html-button-response","268","1314019","0.0-3.0-39.0","602078cdd1b8f26894a32bb2","E1","batch5","tol_trial_num","678.5","<div class = centerbox><p class = center-block-text>problem <strong>11</strong> out of 25 problems</p></div>","0","","","","","","","","","","","","","","","","","","","","","","","","","",""
"","","","","","single-stim-button","269","1332858","0.0-3.0-40.0-0.0","602078cdd1b8f26894a32bb2","E1","batch5","tol_tohand","18839","","","","","","","","","tol_peg_1","18839","18839","0","[[1,0,0],[3,0],[0]]","1","[[2,0,0],[1,3],[0]]","10","0","","","","","","6","","","","",""
"","","","","","single-stim-button","270","1333858","0.0-3.0-40.0-1.0","602078cdd1b8f26894a32bb2","E1","batch5","tol_toboard","998","","","","","","","","","tol_peg_2","998","998","0","[[1,0,0],[3,2],[0]]","1","[[2,0,0],[1,3],[0]]","10","0","","","","","","6","","","","",""
"","","","","","single-stim-button","271","1334736","0.0-3.0-40.1-0.1","602078cdd1b8f26894a32bb2","E1","batch5","tol_tohand","877","","","","","","","","","tol_peg_1","877","877","0","[[0,0,0],[3,2],[0]]","2","[[2,0,0],[1,3],[0]]","10","0","","","","","","6","","","","",""
"","","","","","single-stim-button","272","1336114","0.0-3.0-40.1-1.1","602078cdd1b8f26894a32bb2","E1","batch5","tol_toboard","1378","","","","","","","","","tol_peg_3","1378","1378","0","[[0,0,0],[3,2],[1]]","2","[[2,0,0],[1,3],[0]]","10","0","","","","","","6","","","","",""
"","","","","","single-stim-button","273","1339383","0.0-3.0-40.2-0.2","602078cdd1b8f26894a32bb2","E1","batch5","tol_tohand","3269","","","","","","","","","tol_peg_2","3269","3269","0","[[0,0,0],[3,0],[1]]","3","[[2,0,0],[1,3],[0]]","10","0","","","","","","6","","","","",""
"","","","","","single-stim-button","274","1341573","0.0-3.0-40.2-1.2","602078cdd1b8f26894a32bb2","E1","batch5","tol_toboard","2190","","","","","","","","","tol_peg_1","2190","2190","0","[[2,0,0],[3,0],[1]]","3","[[2,0,0],[1,3],[0]]","10","0","","","","","","6","","","","",""
"","","","","","single-stim-button","275","1342588","0.0-3.0-40.3-0.3","602078cdd1b8f26894a32bb2","E1","batch5","tol_tohand","1015","","","","","","","","","tol_peg_2","1015","1015","0","[[2,0,0],[0,0],[1]]","4","[[2,0,0],[1,3],[0]]","10","0","","","","","","6","","","","",""
"","","","","","single-stim-button","276","1343483","0.0-3.0-40.3-1.3","602078cdd1b8f26894a32bb2","E1","batch5","tol_toboard","894","","","","","","","","","tol_peg_1","894","894","0","[[2,3,0],[0,0],[1]]","4","[[2,0,0],[1,3],[0]]","10","0","","","","","","6","","","","",""
"","","","","","single-stim-button","277","1344339","0.0-3.0-40.4-0.4","602078cdd1b8f26894a32bb2","E1","batch5","tol_tohand","855","","","","","","","","","tol_peg_3","855","855","0","[[2,3,0],[0,0],[0]]","5","[[2,0,0],[1,3],[0]]","10","0","","","","","","6","","","","",""
"","","","","","single-stim-button","278","1345588","0.0-3.0-40.4-1.4","602078cdd1b8f26894a32bb2","E1","batch5","tol_toboard","1248","","","","","","","","","tol_peg_2","1248","1248","0","[[2,3,0],[1,0],[0]]","5","[[2,0,0],[1,3],[0]]","10","0","","","","","","6","","","","",""
"","","","","","single-stim-button","279","1346199","0.0-3.0-40.5-0.5","602078cdd1b8f26894a32bb2","E1","batch5","tol_tohand","611","","","","","","","","","tol_peg_1","611","611","0","[[2,0,0],[1,0],[0]]","6","[[2,0,0],[1,3],[0]]","10","0","","","","","","6","","","","",""
"","","","","","single-stim-button","280","1347276","0.0-3.0-40.5-1.5","602078cdd1b8f26894a32bb2","E1","batch5","tol_toboard","1076","","","","","","","","","tol_peg_2","1076","1076","0","[[2,0,0],[1,3],[0]]","6","[[2,0,0],[1,3],[0]]","10","0","","","","","","6","","","","",""
"","","","","","poldrack-single-stim","281","1348286","0.0-3.0-41.0","602078cdd1b8f26894a32bb2","E1","batch5","tol_feedback","-1","","","","","true","","","","","1000","1000","500","","","","","","-1","none","true","18839","25466","","","","","",""
"","","","","","html-button-response","282","1349159","0.0-3.0-42.0","602078cdd1b8f26894a32bb2","E1","batch5","tol_trial_num","872.1999998092651","<div class = centerbox><p class = center-block-text>problem <strong>12</strong> out of 25 problems</p></div>","0","","","","","","","","","","","","","","","","","","","","","","","","","",""
"","","","","","single-stim-button","283","1354789","0.0-3.0-43.0-0.0","602078cdd1b8f26894a32bb2","E1","batch5","tol_tohand","5629","","","","","","","","","tol_peg_1","5629","5629","0","[[1,0,0],[3,0],[0]]","1","[[2,3,0],[0,0],[1]]","11","0","","","","","","4","","","","",""
"","","","","","single-stim-button","284","1355701","0.0-3.0-43.0-1.0","602078cdd1b8f26894a32bb2","E1","batch5","tol_toboard","911","","","","","","","","","tol_peg_2","911","911","0","[[1,0,0],[3,2],[0]]","1","[[2,3,0],[0,0],[1]]","11","0","","","","","","4","","","","",""
"","","","","","single-stim-button","285","1356789","0.0-3.0-43.1-0.1","602078cdd1b8f26894a32bb2","E1","batch5","tol_tohand","1087","","","","","","","","","tol_peg_1","1087","1087","0","[[0,0,0],[3,2],[0]]","2","[[2,3,0],[0,0],[1]]","11","0","","","","","","4","","","","",""
"","","","","","single-stim-button","286","1357707","0.0-3.0-43.1-1.1","602078cdd1b8f26894a32bb2","E1","batch5","tol_toboard","917","","","","","","","","","tol_peg_3","917","917","0","[[0,0,0],[3,2],[1]]","2","[[2,3,0],[0,0],[1]]","11","0","","","","","","4","","","","",""
"","","","","","single-stim-button","287","1358232","0.0-3.0-43.2-0.2","602078cdd1b8f26894a32bb2","E1","batch5","tol_tohand","525","","","","","","","","","tol_peg_2","525","525","0","[[0,0,0],[3,0],[1]]","3","[[2,3,0],[0,0],[1]]","11","0","","","","","","4","","","","",""
"","","","","","single-stim-button","288","1359080","0.0-3.0-43.2-1.2","602078cdd1b8f26894a32bb2","E1","batch5","tol_toboard","846","","","","","","","","","tol_peg_1","846","846","0","[[2,0,0],[3,0],[1]]","3","[[2,3,0],[0,0],[1]]","11","0","","","","","","4","","","","",""
"","","","","","single-stim-button","289","1359603","0.0-3.0-43.3-0.3","602078cdd1b8f26894a32bb2","E1","batch5","tol_tohand","523","","","","","","","","","tol_peg_2","523","523","0","[[2,0,0],[0,0],[1]]","4","[[2,3,0],[0,0],[1]]","11","0","","","","","","4","","","","",""
"","","","","","single-stim-button","290","1360241","0.0-3.0-43.3-1.3","602078cdd1b8f26894a32bb2","E1","batch5","tol_toboard","638","","","","","","","","","tol_peg_1","638","638","0","[[2,3,0],[0,0],[1]]","4","[[2,3,0],[0,0],[1]]","11","0","","","","","","4","","","","",""
"","","","","","poldrack-single-stim","291","1361243","0.0-3.0-44.0","602078cdd1b8f26894a32bb2","E1","batch5","tol_feedback","-1","","","","","true","","","","","1000","1000","500","","","","","","-1","none","true","5629","7764","","","","","",""
"","","","","","html-button-response","292","1362209","0.0-3.0-45.0","602078cdd1b8f26894a32bb2","E1","batch5","tol_trial_num","965.3999998569489","<div class = centerbox><p class = center-block-text>problem <strong>13</strong> out of 25 problems</p></div>","0","","","","","","","","","","","","","","","","","","","","","","","","","",""
"","","","","","single-stim-button","293","1370320","0.0-3.0-46.0-0.0","602078cdd1b8f26894a32bb2","E1","batch5","tol_tohand","8109","","","","","","","","","tol_peg_2","8109","8109","0","[[1,2,0],[0,0],[0]]","1","[[0,0,0],[2,3],[1]]","12","0","","","","","","4","","","","",""
"","","","","","single-stim-button","294","1371605","0.0-3.0-46.0-1.0","602078cdd1b8f26894a32bb2","E1","batch5","tol_toboard","1285","","","","","","","","","tol_peg_3","1285","1285","0","[[1,2,0],[0,0],[3]]","1","[[0,0,0],[2,3],[1]]","12","0","","","","","","4","","","","",""
"","","","","","single-stim-button","295","1372379","0.0-3.0-46.1-0.1","602078cdd1b8f26894a32bb2","E1","batch5","tol_tohand","773","","","","","","","","","tol_peg_1","773","773","0","[[1,0,0],[0,0],[3]]","2","[[0,0,0],[2,3],[1]]","12","0","","","","","","4","","","","",""
"","","","","","single-stim-button","296","1373207","0.0-3.0-46.1-1.1","602078cdd1b8f26894a32bb2","E1","batch5","tol_toboard","828","","","","","","","","","tol_peg_2","828","828","0","[[1,0,0],[2,0],[3]]","2","[[0,0,0],[2,3],[1]]","12","0","","","","","","4","","","","",""
"","","","","","single-stim-button","297","1373802","0.0-3.0-46.2-0.2","602078cdd1b8f26894a32bb2","E1","batch5","tol_tohand","594","","","","","","","","","tol_peg_3","594","594","0","[[1,0,0],[2,0],[0]]","3","[[0,0,0],[2,3],[1]]","12","0","","","","","","4","","","","",""
"","","","","","single-stim-button","298","1374956","0.0-3.0-46.2-1.2","602078cdd1b8f26894a32bb2","E1","batch5","tol_toboard","1152","","","","","","","","","tol_peg_2","1152","1152","0","[[1,0,0],[2,3],[0]]","3","[[0,0,0],[2,3],[1]]","12","0","","","","","","4","","","","",""
"","","","","","single-stim-button","299","1375843","0.0-3.0-46.3-0.3","602078cdd1b8f26894a32bb2","E1","batch5","tol_tohand","887","","","","","","","","","tol_peg_1","887","887","0","[[0,0,0],[2,3],[0]]","4","[[0,0,0],[2,3],[1]]","12","0","","","","","","4","","","","",""
"","","","","","single-stim-button","300","1376633","0.0-3.0-46.3-1.3","602078cdd1b8f26894a32bb2","E1","batch5","tol_toboard","789","","","","","","","","","tol_peg_3","789","789","0","[[0,0,0],[2,3],[1]]","4","[[0,0,0],[2,3],[1]]","12","0","","","","","","4","","","","",""
"","","","","","poldrack-single-stim","301","1377643","0.0-3.0-47.0","602078cdd1b8f26894a32bb2","E1","batch5","tol_feedback","-1","","","","","true","","","","","1000","1000","500","","","","","","-1","none","true","8109","10363","","","","","",""
"","","","","","html-button-response","302","1381218","0.0-3.0-48.0","602078cdd1b8f26894a32bb2","E1","batch5","attention_check","3573.0999999046326","<p class = block-text>How many balls are in your board<br></p>","1","","","true","","","","","","","","","","","","","","","","","","","","","","",""
"","","","","","html-button-response","303","1383311","0.0-3.0-49.0","602078cdd1b8f26894a32bb2","E1","batch5","tol_trial_num","2092.5","<div class = centerbox><p class = center-block-text>problem <strong>14</strong> out of 25 problems</p></div>","0","","","","","","","","","","","","","","","","","","","","","","","","","",""
"","","","","","single-stim-button","304","1391523","0.0-3.0-50.0-0.0","602078cdd1b8f26894a32bb2","E1","batch5","tol_tohand","8211","","","","","","","","","tol_peg_1","8211","8211","0","[[2,0,0],[3,0],[0]]","1","[[1,2,0],[3,0],[0]]","13","0","","","","","","4","","","","",""
"","","","","","single-stim-button","305","1392823","0.0-3.0-50.0-1.0","602078cdd1b8f26894a32bb2","E1","batch5","tol_toboard","1300","","","","","","","","","tol_peg_3","1300","1300","0","[[2,0,0],[3,0],[1]]","1","[[1,2,0],[3,0],[0]]","13","0","","","","","","4","","","","",""
"","","","","","single-stim-button","306","1393399","0.0-3.0-50.1-0.1","602078cdd1b8f26894a32bb2","E1","batch5","tol_tohand","575","","","","","","","","","tol_peg_1","575","575","0","[[0,0,0],[3,0],[1]]","2","[[1,2,0],[3,0],[0]]","13","0","","","","","","4","","","","",""
"","","","","","single-stim-button","307","1394371","0.0-3.0-50.1-1.1","602078cdd1b8f26894a32bb2","E1","batch5","tol_toboard","972","","","","","","","","","tol_peg_2","972","972","0","[[0,0,0],[3,2],[1]]","2","[[1,2,0],[3,0],[0]]","13","0","","","","","","4","","","","",""
"","","","","","single-stim-button","308","1395125","0.0-3.0-50.2-0.2","602078cdd1b8f26894a32bb2","E1","batch5","tol_tohand","753","","","","","","","","","tol_peg_3","753","753","0","[[0,0,0],[3,2],[0]]","3","[[1,2,0],[3,0],[0]]","13","0","","","","","","4","","","","",""
"","","","","","single-stim-button","309","1396337","0.0-3.0-50.2-1.2","602078cdd1b8f26894a32bb2","E1","batch5","tol_toboard","1212","","","","","","","","","tol_peg_1","1212","1212","0","[[1,0,0],[3,2],[0]]","3","[[1,2,0],[3,0],[0]]","13","0","","","","","","4","","","","",""
"","","","","","single-stim-button","310","1396977","0.0-3.0-50.3-0.3","602078cdd1b8f26894a32bb2","E1","batch5","tol_tohand","639","","","","","","","","","tol_peg_2","639","639","0","[[1,0,0],[3,0],[0]]","4","[[1,2,0],[3,0],[0]]","13","0","","","","","","4","","","","",""
"","","","","","single-stim-button","311","1398147","0.0-3.0-50.3-1.3","602078cdd1b8f26894a32bb2","E1","batch5","tol_toboard","1170","","","","","","","","","tol_peg_1","1170","1170","0","[[1,2,0],[3,0],[0]]","4","[[1,2,0],[3,0],[0]]","13","0","","","","","","4","","","","",""
"","","","","","poldrack-single-stim","312","1399149","0.0-3.0-51.0","602078cdd1b8f26894a32bb2","E1","batch5","tol_feedback","-1","","","","","true","","","","","1000","1000","500","","","","","","-1","none","true","8211","10178","","","","","",""
"","","","","","html-button-response","313","1399899","0.0-3.0-52.0","602078cdd1b8f26894a32bb2","E1","batch5","tol_trial_num","749.6000001430511","<div class = centerbox><p class = center-block-text>problem <strong>15</strong> out of 25 problems</p></div>","0","","","","","","","","","","","","","","","","","","","","","","","","","",""
"","","","","","single-stim-button","314","1403736","0.0-3.0-53.0-0.0","602078cdd1b8f26894a32bb2","E1","batch5","tol_tohand","3836","","","","","","","","","tol_peg_1","3836","3836","0","[[1,0,0],[3,0],[0]]","1","[[2,0,0],[3,0],[1]]","14","0","","","","","","3","","","","",""
"","","","","","single-stim-button","315","1404495","0.0-3.0-53.0-1.0","602078cdd1b8f26894a32bb2","E1","batch5","tol_toboard","758","","","","","","","","","tol_peg_2","758","758","0","[[1,0,0],[3,2],[0]]","1","[[2,0,0],[3,0],[1]]","14","0","","","","","","3","","","","",""
"","","","","","single-stim-button","316","1405032","0.0-3.0-53.1-0.1","602078cdd1b8f26894a32bb2","E1","batch5","tol_tohand","536","","","","","","","","","tol_peg_1","536","536","0","[[0,0,0],[3,2],[0]]","2","[[2,0,0],[3,0],[1]]","14","0","","","","","","3","","","","",""
"","","","","","single-stim-button","317","1405803","0.0-3.0-53.1-1.1","602078cdd1b8f26894a32bb2","E1","batch5","tol_toboard","770","","","","","","","","","tol_peg_3","770","770","0","[[0,0,0],[3,2],[1]]","2","[[2,0,0],[3,0],[1]]","14","0","","","","","","3","","","","",""
"","","","","","single-stim-button","318","1406391","0.0-3.0-53.2-0.2","602078cdd1b8f26894a32bb2","E1","batch5","tol_tohand","588","","","","","","","","","tol_peg_2","588","588","0","[[0,0,0],[3,0],[1]]","3","[[2,0,0],[3,0],[1]]","14","0","","","","","","3","","","","",""
"","","","","","single-stim-button","319","1407233","0.0-3.0-53.2-1.2","602078cdd1b8f26894a32bb2","E1","batch5","tol_toboard","841","","","","","","","","","tol_peg_1","841","841","0","[[2,0,0],[3,0],[1]]","3","[[2,0,0],[3,0],[1]]","14","0","","","","","","3","","","","",""
"","","","","","poldrack-single-stim","320","1408235","0.0-3.0-54.0","602078cdd1b8f26894a32bb2","E1","batch5","tol_feedback","-1","","","","","true","","","","","1000","1000","500","","","","","","-1","none","true","3836","4960","","","","","",""
"","","","","","html-button-response","321","1409119","0.0-3.0-55.0","602078cdd1b8f26894a32bb2","E1","batch5","tol_trial_num","883","<div class = centerbox><p class = center-block-text>problem <strong>16</strong> out of 25 problems</p></div>","0","","","","","","","","","","","","","","","","","","","","","","","","","",""
"","","","","","single-stim-button","322","1446748","0.0-3.0-56.0-0.0","602078cdd1b8f26894a32bb2","E1","batch5","tol_tohand","37628","","","","","","","","","tol_peg_3","37628","37628","0","[[0,0,0],[2,3],[0]]","1","[[2,3,0],[1,0],[0]]","15","0","","","","","","7","","","","",""
"","","","","","single-stim-button","323","1448642","0.0-3.0-56.0-1.0","602078cdd1b8f26894a32bb2","E1","batch5","tol_toboard","1894","","","","","","","","","tol_peg_1","1894","1894","0","[[1,0,0],[2,3],[0]]","1","[[2,3,0],[1,0],[0]]","15","0","","","","","","7","","","","",""
"","","","","","single-stim-button","324","1449685","0.0-3.0-56.1-0.1","602078cdd1b8f26894a32bb2","E1","batch5","tol_tohand","1042","","","","","","","","","tol_peg_2","1042","1042","0","[[1,0,0],[2,0],[0]]","2","[[2,3,0],[1,0],[0]]","15","0","","","","","","7","","","","",""
"","","","","","single-stim-button","325","1450571","0.0-3.0-56.1-1.1","602078cdd1b8f26894a32bb2","E1","batch5","tol_toboard","886","","","","","","","","","tol_peg_1","886","886","0","[[1,3,0],[2,0],[0]]","2","[[2,3,0],[1,0],[0]]","15","0","","","","","","7","","","","",""
"","","","","","single-stim-button","326","1451992","0.0-3.0-56.2-0.2","602078cdd1b8f26894a32bb2","E1","batch5","tol_tohand","1420","","","","","","","","","tol_peg_2","1420","1420","0","[[1,3,0],[0,0],[0]]","3","[[2,3,0],[1,0],[0]]","15","0","","","","","","7","","","","",""
"","","","","","single-stim-button","327","1453134","0.0-3.0-56.2-1.2","602078cdd1b8f26894a32bb2","E1","batch5","tol_toboard","1141","","","","","","","","","tol_peg_3","1141","1141","0","[[1,3,0],[0,0],[2]]","3","[[2,3,0],[1,0],[0]]","15","0","","","","","","7","","","","",""
"","","","","","single-stim-button","328","1457816","0.0-3.0-56.3-0.3","602078cdd1b8f26894a32bb2","E1","batch5","tol_tohand","4682","","","","","","","","","tol_peg_1","4682","4682","0","[[1,0,0],[0,0],[2]]","4","[[2,3,0],[1,0],[0]]","15","0","","","","","","7","","","","",""
"","","","","","single-stim-button","329","1458838","0.0-3.0-56.3-1.3","602078cdd1b8f26894a32bb2","E1","batch5","tol_toboard","1020","","","","","","","","","tol_peg_2","1020","1020","0","[[1,0,0],[3,0],[2]]","4","[[2,3,0],[1,0],[0]]","15","0","","","","","","7","","","","",""
"","","","","","single-stim-button","330","1459540","0.0-3.0-56.4-0.4","602078cdd1b8f26894a32bb2","E1","batch5","tol_tohand","701","","","","","","","","","tol_peg_1","701","701","0","[[0,0,0],[3,0],[2]]","5","[[2,3,0],[1,0],[0]]","15","0","","","","","","7","","","","",""
"","","","","","single-stim-button","331","1460331","0.0-3.0-56.4-1.4","602078cdd1b8f26894a32bb2","E1","batch5","tol_toboard","791","","","","","","","","","tol_peg_2","791","791","0","[[0,0,0],[3,1],[2]]","5","[[2,3,0],[1,0],[0]]","15","0","","","","","","7","","","","",""
"","","","","","single-stim-button","332","1460953","0.0-3.0-56.5-0.5","602078cdd1b8f26894a32bb2","E1","batch5","tol_tohand","621","","","","","","","","","tol_peg_3","621","621","0","[[0,0,0],[3,1],[0]]","6","[[2,3,0],[1,0],[0]]","15","0","","","","","","7","","","","",""
"","","","","","single-stim-button","333","1462185","0.0-3.0-56.5-1.5","602078cdd1b8f26894a32bb2","E1","batch5","tol_toboard","1231","","","","","","","","","tol_peg_1","1231","1231","0","[[2,0,0],[3,1],[0]]","6","[[2,3,0],[1,0],[0]]","15","0","","","","","","7","","","","",""
"","","","","","single-stim-button","334","1463629","0.0-3.0-56.6-0.6","602078cdd1b8f26894a32bb2","E1","batch5","tol_tohand","1443","","","","","","","","","tol_peg_2","1443","1443","0","[[2,0,0],[3,0],[0]]","7","[[2,3,0],[1,0],[0]]","15","0","","","","","","7","","","","",""
"","","","","","single-stim-button","335","1464779","0.0-3.0-56.6-1.6","602078cdd1b8f26894a32bb2","E1","batch5","tol_toboard","1149","","","","","","","","","tol_peg_3","1149","1149","0","[[2,0,0],[3,0],[1]]","7","[[2,3,0],[1,0],[0]]","15","0","","","","","","7","","","","",""
"","","","","","single-stim-button","336","1465400","0.0-3.0-56.7-0.7","602078cdd1b8f26894a32bb2","E1","batch5","tol_tohand","620","","","","","","","","","tol_peg_2","620","620","0","[[2,0,0],[0,0],[1]]","8","[[2,3,0],[1,0],[0]]","15","0","","","","","","7","","","","",""
"","","","","","single-stim-button","337","1466719","0.0-3.0-56.7-1.7","602078cdd1b8f26894a32bb2","E1","batch5","tol_toboard","1319","","","","","","","","","tol_peg_1","1319","1319","0","[[2,3,0],[0,0],[1]]","8","[[2,3,0],[1,0],[0]]","15","0","","","","","","7","","","","",""
"","","","","","single-stim-button","338","1467865","0.0-3.0-56.8-0.8","602078cdd1b8f26894a32bb2","E1","batch5","tol_tohand","1146","","","","","","","","","tol_peg_3","1146","1146","0","[[2,3,0],[0,0],[0]]","9","[[2,3,0],[1,0],[0]]","15","0","","","","","","7","","","","",""
"","","","","","single-stim-button","339","1468669","0.0-3.0-56.8-1.8","602078cdd1b8f26894a32bb2","E1","batch5","tol_toboard","804","","","","","","","","","tol_peg_2","804","804","0","[[2,3,0],[1,0],[0]]","9","[[2,3,0],[1,0],[0]]","15","0","","","","","","7","","","","",""
"","","","","","poldrack-single-stim","340","1469680","0.0-3.0-57.0","602078cdd1b8f26894a32bb2","E1","batch5","tol_feedback","-1","","","","","true","","","","","1000","1000","500","","","","","","-1","none","true","37628","49303","","","","","",""
"","","","","","html-button-response","341","1470521","0.0-3.0-58.0","602078cdd1b8f26894a32bb2","E1","batch5","tol_trial_num","840.3000001907349","<div class = centerbox><p class = center-block-text>problem <strong>17</strong> out of 25 problems</p></div>","0","","","","","","","","","","","","","","","","","","","","","","","","","",""
"","","","","","single-stim-button","342","1485085","0.0-3.0-59.0-0.0","602078cdd1b8f26894a32bb2","E1","batch5","tol_tohand","14563","","","","","","","","","tol_peg_2","14563","14563","0","[[1,2,0],[0,0],[0]]","1","[[3,1,0],[2,0],[0]]","16","0","","","","","","5","","","","",""
"","","","","","single-stim-button","343","1485932","0.0-3.0-59.0-1.0","602078cdd1b8f26894a32bb2","E1","batch5","tol_toboard","846","","","","","","","","","tol_peg_3","846","846","0","[[1,2,0],[0,0],[3]]","1","[[3,1,0],[2,0],[0]]","16","0","","","","","","5","","","","",""
"","","","","","single-stim-button","344","1487421","0.0-3.0-59.1-0.1","602078cdd1b8f26894a32bb2","E1","batch5","tol_tohand","1488","","","","","","","","","tol_peg_1","1488","1488","0","[[1,0,0],[0,0],[3]]","2","[[3,1,0],[2,0],[0]]","16","0","","","","","","5","","","","",""
"","","","","","single-stim-button","345","1488134","0.0-3.0-59.1-1.1","602078cdd1b8f26894a32bb2","E1","batch5","tol_toboard","712","","","","","","","","","tol_peg_2","712","712","0","[[1,0,0],[2,0],[3]]","2","[[3,1,0],[2,0],[0]]","16","0","","","","","","5","","","","",""
"","","","","","single-stim-button","346","1489079","0.0-3.0-59.2-0.2","602078cdd1b8f26894a32bb2","E1","batch5","tol_tohand","945","","","","","","","","","tol_peg_1","945","945","0","[[0,0,0],[2,0],[3]]","3","[[3,1,0],[2,0],[0]]","16","0","","","","","","5","","","","",""
"","","","","","single-stim-button","347","1489847","0.0-3.0-59.2-1.2","602078cdd1b8f26894a32bb2","E1","batch5","tol_toboard","768","","","","","","","","","tol_peg_2","768","768","0","[[0,0,0],[2,1],[3]]","3","[[3,1,0],[2,0],[0]]","16","0","","","","","","5","","","","",""
"","","","","","single-stim-button","348","1490423","0.0-3.0-59.3-0.3","602078cdd1b8f26894a32bb2","E1","batch5","tol_tohand","575","","","","","","","","","tol_peg_3","575","575","0","[[0,0,0],[2,1],[0]]","4","[[3,1,0],[2,0],[0]]","16","0","","","","","","5","","","","",""
"","","","","","single-stim-button","349","1491242","0.0-3.0-59.3-1.3","602078cdd1b8f26894a32bb2","E1","batch5","tol_toboard","818","","","","","","","","","tol_peg_1","818","818","0","[[3,0,0],[2,1],[0]]","4","[[3,1,0],[2,0],[0]]","16","0","","","","","","5","","","","",""
"","","","","","single-stim-button","350","1491931","0.0-3.0-59.4-0.4","602078cdd1b8f26894a32bb2","E1","batch5","tol_tohand","688","","","","","","","","","tol_peg_2","688","688","0","[[3,0,0],[2,0],[0]]","5","[[3,1,0],[2,0],[0]]","16","0","","","","","","5","","","","",""
"","","","","","single-stim-button","351","1492723","0.0-3.0-59.4-1.4","602078cdd1b8f26894a32bb2","E1","batch5","tol_toboard","791","","","","","","","","","tol_peg_1","791","791","0","[[3,1,0],[2,0],[0]]","5","[[3,1,0],[2,0],[0]]","16","0","","","","","","5","","","","",""
