"success","timeout","failed_images","failed_audio","failed_video","trial_type","trial_index","time_elapsed","internal_node_id","subject_id","study_id","session_id","task","rt","stimulus","response","item","answer","correct","spm_correct","spm_rt","view_history","mouse_click","stim_duration","block_duration","timing_post_trial","current_position","tol_num_moves_made","tol_target","tol_problem_id","tol_rt","key_press","possible_responses","tol_correct","preplanning","tol_rt_per_trial","tol_min_moves","fiar_detect_rt","fiar_detect_correct","total_correct_fiar_detect","post_trial_gap","choices"
"true","false","[]","[]","[]","preload","0","14265","0.0-0.0","6033fd8bc8659800086d87b0","B2","batch2","","","","","","","","","","","","","","","","","","","","","","","","","","","","","",""
"true","","","","","fullscreen","1","23498","0.0-1.0-0.0","6033fd8bc8659800086d87b0","B2","batch2","","","","","","","","","","","","","","","","","","","","","","","","","","","","","",""
"true","","","","","fullscreen","2","26545","0.0-2.0-0.0","6033fd8bc8659800086d87b0","B2","batch2","spm_fullscreen","","","","","","","","","","","","","","","","","","","","","","","","","","","","",""
"","","","","","html-button-response","3","37749","0.0-2.0-1.0","6033fd8bc8659800086d87b0","B2","batch2","","11201.59999999404","<p class = block-text><b>Instructions</b> <br>This is a widely used intelligence test in research. <br>In this test, a figure with a missing piece will be presented.<br>Below the figure are alternative pieces to complete the figure, only one of which is correct.<br> Different figures might involve different principles for obtaining the missing piece<br>Your job is to select the most logical piece to complete the figure.</p>","0","","","","","","","","","","","","","","","","","","","","","","","","","",""
"","","","","","html-keyboard-response","4","38563","0.0-2.0-2.0-0.0","6033fd8bc8659800086d87b0","B2","batch2","spm_show_trial_num","null","<p class=block-text>Trial 1 out of 60</p>","null","","","","","","","","","","","","","","","","","","","","","","","","","",""
"","","","","","image-button-response","5","43454","0.0-2.0-2.0-1.0","6033fd8bc8659800086d87b0","B2","batch2","spm_respsonse","4884.299999982119","img/question_1_1.jpeg","3","mat_01","4","1","1","4884.299999982119","","","","","","","","","","","","","","","","","","","","",""
"","","","","","html-keyboard-response","6","44522","0.0-2.0-2.0-0.1","6033fd8bc8659800086d87b0","B2","batch2","spm_show_trial_num","null","<p class=block-text>Trial 2 out of 60</p>","null","","","","","","","","","","","","","","","","","","","","","","","","","",""
"","","","","","image-button-response","7","47158","0.0-2.0-2.0-1.1","6033fd8bc8659800086d87b0","B2","batch2","spm_respsonse","2633.199999988079","img/question_1_2.jpeg","4","mat_02","5","1","1","2633.199999988079","","","","","","","","","","","","","","","","","","","","",""
"","","","","","html-keyboard-response","8","48222","0.0-2.0-2.0-0.2","6033fd8bc8659800086d87b0","B2","batch2","spm_show_trial_num","null","<p class=block-text>Trial 3 out of 60</p>","null","","","","","","","","","","","","","","","","","","","","","","","","","",""
"","","","","","image-button-response","9","50661","0.0-2.0-2.0-1.2","6033fd8bc8659800086d87b0","B2","batch2","spm_respsonse","2436.0999999940395","img/question_1_3.jpeg","0","mat_03","1","1","1","2436.0999999940395","","","","","","","","","","","","","","","","","","","","",""
"","","","","","html-keyboard-response","10","51720","0.0-2.0-2.0-0.3","6033fd8bc8659800086d87b0","B2","batch2","spm_show_trial_num","null","<p class=block-text>Trial 4 out of 60</p>","null","","","","","","","","","","","","","","","","","","","","","","","","","",""
"","","","","","image-button-response","11","68134","0.0-2.0-2.0-1.3","6033fd8bc8659800086d87b0","B2","batch2","spm_respsonse","16410.80000001192","img/question_1_4.jpeg","1","mat_04","2","1","1","16410.80000001192","","","","","","","","","","","","","","","","","","","","",""
"","","","","","html-keyboard-response","12","69201","0.0-2.0-2.0-0.4","6033fd8bc8659800086d87b0","B2","batch2","spm_show_trial_num","null","<p class=block-text>Trial 5 out of 60</p>","null","","","","","","","","","","","","","","","","","","","","","","","","","",""
"","","","","","image-button-response","13","72014","0.0-2.0-2.0-1.4","6033fd8bc8659800086d87b0","B2","batch2","spm_respsonse","2809.300000011921","img/question_1_5.jpeg","5","mat_05","6","1","1","2809.300000011921","","","","","","","","","","","","","","","","","","","","",""
"","","","","","html-keyboard-response","14","73072","0.0-2.0-2.0-0.5","6033fd8bc8659800086d87b0","B2","batch2","spm_show_trial_num","null","<p class=block-text>Trial 6 out of 60</p>","null","","","","","","","","","","","","","","","","","","","","","","","","","",""
"","","","","","image-button-response","15","75493","0.0-2.0-2.0-1.5","6033fd8bc8659800086d87b0","B2","batch2","spm_respsonse","2417.9000000059605","img/question_1_6.jpeg","2","mat_06","3","1","1","2417.9000000059605","","","","","","","","","","","","","","","","","","","","",""
"","","","","","html-keyboard-response","16","76554","0.0-2.0-2.0-0.6","6033fd8bc8659800086d87b0","B2","batch2","spm_show_trial_num","null","<p class=block-text>Trial 7 out of 60</p>","null","","","","","","","","","","","","","","","","","","","","","","","","","",""
"","","","","","image-button-response","17","80838","0.0-2.0-2.0-1.6","6033fd8bc8659800086d87b0","B2","batch2","spm_respsonse","4280.699999988079","img/question_1_7.jpeg","5","mat_07","6","1","1","4280.699999988079","","","","","","","","","","","","","","","","","","","","",""
"","","","","","html-keyboard-response","18","81896","0.0-2.0-2.0-0.7","6033fd8bc8659800086d87b0","B2","batch2","spm_show_trial_num","null","<p class=block-text>Trial 8 out of 60</p>","null","","","","","","","","","","","","","","","","","","","","","","","","","",""
"","","","","","image-button-response","19","87614","0.0-2.0-2.0-1.7","6033fd8bc8659800086d87b0","B2","batch2","spm_respsonse","5715.100000023842","img/question_1_8.jpeg","1","mat_08","2","1","1","5715.100000023842","","","","","","","","","","","","","","","","","","","","",""
"","","","","","html-keyboard-response","20","88683","0.0-2.0-2.0-0.8","6033fd8bc8659800086d87b0","B2","batch2","spm_show_trial_num","null","<p class=block-text>Trial 9 out of 60</p>","null","","","","","","","","","","","","","","","","","","","","","","","","","",""
"","","","","","image-button-response","21","92927","0.0-2.0-2.0-1.8","6033fd8bc8659800086d87b0","B2","batch2","spm_respsonse","4240.5999999940395","img/question_1_9.jpeg","3","mat_09","1","0","0","4240.5999999940395","","","","","","","","","","","","","","","","","","","","",""
"","","","","","html-keyboard-response","22","94004","0.0-2.0-2.0-0.9","6033fd8bc8659800086d87b0","B2","batch2","spm_show_trial_num","null","<p class=block-text>Trial 10 out of 60</p>","null","","","","","","","","","","","","","","","","","","","","","","","","","",""
"","","","","","image-button-response","23","101182","0.0-2.0-2.0-1.9","6033fd8bc8659800086d87b0","B2","batch2","spm_respsonse","7174.299999982119","img/question_1_10.jpeg","2","mat_10","3","1","1","7174.299999982119","","","","","","","","","","","","","","","","","","","","",""
"","","","","","html-keyboard-response","24","102251","0.0-2.0-2.0-0.10","6033fd8bc8659800086d87b0","B2","batch2","spm_show_trial_num","null","<p class=block-text>Trial 11 out of 60</p>","null","","","","","","","","","","","","","","","","","","","","","","","","","",""
"","","","","","image-button-response","25","112284","0.0-2.0-2.0-1.10","6033fd8bc8659800086d87b0","B2","batch2","spm_respsonse","10030.699999988079","img/question_1_11.jpeg","3","mat_11","4","1","1","10030.699999988079","","","","","","","","","","","","","","","","","","","","",""
"","","","","","html-keyboard-response","26","113352","0.0-2.0-2.0-0.11","6033fd8bc8659800086d87b0","B2","batch2","spm_show_trial_num","null","<p class=block-text>Trial 12 out of 60</p>","null","","","","","","","","","","","","","","","","","","","","","","","","","",""
"","","","","","image-button-response","27","127453","0.0-2.0-2.0-1.11","6033fd8bc8659800086d87b0","B2","batch2","spm_respsonse","14099.5","img/question_1_12.jpeg","4","mat_12","5","1","1","14099.5","","","","","","","","","","","","","","","","","","","","",""
"","","","","","html-keyboard-response","28","128513","0.0-2.0-2.0-0.12","6033fd8bc8659800086d87b0","B2","batch2","spm_show_trial_num","null","<p class=block-text>Trial 13 out of 60</p>","null","","","","","","","","","","","","","","","","","","","","","","","","","",""
"","","","","","image-button-response","29","131101","0.0-2.0-2.0-1.12","6033fd8bc8659800086d87b0","B2","batch2","spm_respsonse","2584.800000011921","img/question_2_1.jpeg","1","mat_13","2","1","1","2584.800000011921","","","","","","","","","","","","","","","","","","","","",""
"","","","","","html-keyboard-response","30","132166","0.0-2.0-2.0-0.13","6033fd8bc8659800086d87b0","B2","batch2","spm_show_trial_num","null","<p class=block-text>Trial 14 out of 60</p>","null","","","","","","","","","","","","","","","","","","","","","","","","","",""
"","","","","","image-button-response","31","135094","0.0-2.0-2.0-1.13","6033fd8bc8659800086d87b0","B2","batch2","spm_respsonse","2924.800000011921","img/question_2_2.jpeg","5","mat_14","6","1","1","2924.800000011921","","","","","","","","","","","","","","","","","","","","",""
"","","","","","html-keyboard-response","32","136147","0.0-2.0-2.0-0.14","6033fd8bc8659800086d87b0","B2","batch2","spm_show_trial_num","null","<p class=block-text>Trial 15 out of 60</p>","null","","","","","","","","","","","","","","","","","","","","","","","","","",""
"","","","","","image-button-response","33","138844","0.0-2.0-2.0-1.14","6033fd8bc8659800086d87b0","B2","batch2","spm_respsonse","2694.5","img/question_2_3.jpeg","0","mat_15","1","1","1","2694.5","","","","","","","","","","","","","","","","","","","","",""
"","","","","","html-keyboard-response","34","139910","0.0-2.0-2.0-0.15","6033fd8bc8659800086d87b0","B2","batch2","spm_show_trial_num","null","<p class=block-text>Trial 16 out of 60</p>","null","","","","","","","","","","","","","","","","","","","","","","","","","",""
"","","","","","image-button-response","35","144252","0.0-2.0-2.0-1.15","6033fd8bc8659800086d87b0","B2","batch2","spm_respsonse","4339","img/question_2_4.jpeg","1","mat_16","2","1","1","4339","","","","","","","","","","","","","","","","","","","","",""
"","","","","","html-keyboard-response","36","145306","0.0-2.0-2.0-0.16","6033fd8bc8659800086d87b0","B2","batch2","spm_show_trial_num","null","<p class=block-text>Trial 17 out of 60</p>","null","","","","","","","","","","","","","","","","","","","","","","","","","",""
"","","","","","image-button-response","37","151028","0.0-2.0-2.0-1.16","6033fd8bc8659800086d87b0","B2","batch2","spm_respsonse","5720.299999982119","img/question_2_5.jpeg","0","mat_17","1","1","1","5720.299999982119","","","","","","","","","","","","","","","","","","","","",""
"","","","","","html-keyboard-response","38","152092","0.0-2.0-2.0-0.17","6033fd8bc8659800086d87b0","B2","batch2","spm_show_trial_num","null","<p class=block-text>Trial 18 out of 60</p>","null","","","","","","","","","","","","","","","","","","","","","","","","","",""
"","","","","","image-button-response","39","156541","0.0-2.0-2.0-1.17","6033fd8bc8659800086d87b0","B2","batch2","spm_respsonse","4446.4000000059605","img/question_2_6.jpeg","2","mat_18","3","1","1","4446.4000000059605","","","","","","","","","","","","","","","","","","","","",""
"","","","","","html-keyboard-response","40","157612","0.0-2.0-2.0-0.18","6033fd8bc8659800086d87b0","B2","batch2","spm_show_trial_num","null","<p class=block-text>Trial 19 out of 60</p>","null","","","","","","","","","","","","","","","","","","","","","","","","","",""
"","","","","","image-button-response","41","168420","0.0-2.0-2.0-1.18","6033fd8bc8659800086d87b0","B2","batch2","spm_respsonse","10805.800000011921","img/question_2_7.jpeg","0","mat_19","5","0","0","10805.800000011921","","","","","","","","","","","","","","","","","","","","",""
"","","","","","html-keyboard-response","42","169496","0.0-2.0-2.0-0.19","6033fd8bc8659800086d87b0","B2","batch2","spm_show_trial_num","null","<p class=block-text>Trial 20 out of 60</p>","null","","","","","","","","","","","","","","","","","","","","","","","","","",""
"","","","","","image-button-response","43","173772","0.0-2.0-2.0-1.19","6033fd8bc8659800086d87b0","B2","batch2","spm_respsonse","4274.4000000059605","img/question_2_8.jpeg","5","mat_20","6","1","1","4274.4000000059605","","","","","","","","","","","","","","","","","","","","",""
"","","","","","html-keyboard-response","44","174827","0.0-2.0-2.0-0.20","6033fd8bc8659800086d87b0","B2","batch2","spm_show_trial_num","null","<p class=block-text>Trial 21 out of 60</p>","null","","","","","","","","","","","","","","","","","","","","","","","","","",""
"","","","","","image-button-response","45","179628","0.0-2.0-2.0-1.20","6033fd8bc8659800086d87b0","B2","batch2","spm_respsonse","4799.199999988079","img/question_2_9.jpeg","3","mat_21","4","1","1","4799.199999988079","","","","","","","","","","","","","","","","","","","","",""
"","","","","","html-keyboard-response","46","180706","0.0-2.0-2.0-0.21","6033fd8bc8659800086d87b0","B2","batch2","spm_show_trial_num","null","<p class=block-text>Trial 22 out of 60</p>","null","","","","","","","","","","","","","","","","","","","","","","","","","",""
"","","","","","image-button-response","47","185188","0.0-2.0-2.0-1.21","6033fd8bc8659800086d87b0","B2","batch2","spm_respsonse","4479.5","img/question_2_10.jpeg","2","mat_22","3","1","1","4479.5","","","","","","","","","","","","","","","","","","","","",""
"","","","","","html-keyboard-response","48","186256","0.0-2.0-2.0-0.22","6033fd8bc8659800086d87b0","B2","batch2","spm_show_trial_num","null","<p class=block-text>Trial 23 out of 60</p>","null","","","","","","","","","","","","","","","","","","","","","","","","","",""
"","","","","","image-button-response","49","195708","0.0-2.0-2.0-1.22","6033fd8bc8659800086d87b0","B2","batch2","spm_respsonse","9450","img/question_2_11.jpeg","3","mat_23","4","1","1","9450","","","","","","","","","","","","","","","","","","","","",""
"","","","","","html-keyboard-response","50","196775","0.0-2.0-2.0-0.23","6033fd8bc8659800086d87b0","B2","batch2","spm_show_trial_num","null","<p class=block-text>Trial 24 out of 60</p>","null","","","","","","","","","","","","","","","","","","","","","","","","","",""
"","","","","","image-button-response","51","208390","0.0-2.0-2.0-1.23","6033fd8bc8659800086d87b0","B2","batch2","spm_respsonse","11612.90000000596","img/question_2_12.jpeg","4","mat_24","5","1","1","11612.90000000596","","","","","","","","","","","","","","","","","","","","",""
"","","","","","html-button-response","52","210933","0.0-2.0-3.0","6033fd8bc8659800086d87b0","B2","batch2","attention_check","2287.100000023842","<p class = block-text>Attention check: Please choose 1<br></p>","0","","","true","","","","","","","","","","","","","","","","","","","","","","",""
"","","","","","html-keyboard-response","53","211734","0.0-2.0-4.0-0.0","6033fd8bc8659800086d87b0","B2","batch2","spm_show_trial_num","null","<p class=block-text>Trial 25 out of 60</p>","null","","","","","","","","","","","","","","","","","","","","","","","","","",""
"","","","","","image-button-response","54","217036","0.0-2.0-4.0-1.0","6033fd8bc8659800086d87b0","B2","batch2","spm_respsonse","5300.0999999940395","img/question_3_1.jpeg","7","mat_25","8","1","1","5300.0999999940395","","","","","","","","","","","","","","","","","","","","",""
"","","","","","html-keyboard-response","55","218100","0.0-2.0-4.0-0.1","6033fd8bc8659800086d87b0","B2","batch2","spm_show_trial_num","null","<p class=block-text>Trial 26 out of 60</p>","null","","","","","","","","","","","","","","","","","","","","","","","","","",""
"","","","","","image-button-response","56","221765","0.0-2.0-4.0-1.1","6033fd8bc8659800086d87b0","B2","batch2","spm_respsonse","3662.5","img/question_3_2.jpeg","1","mat_26","2","1","1","3662.5","","","","","","","","","","","","","","","","","","","","",""
"","","","","","html-keyboard-response","57","222833","0.0-2.0-4.0-0.2","6033fd8bc8659800086d87b0","B2","batch2","spm_show_trial_num","null","<p class=block-text>Trial 27 out of 60</p>","null","","","","","","","","","","","","","","","","","","","","","","","","","",""
"","","","","","image-button-response","58","237245","0.0-2.0-4.0-1.2","6033fd8bc8659800086d87b0","B2","batch2","spm_respsonse","14409.899999976158","img/question_3_3.jpeg","2","mat_27","3","1","1","14409.899999976158","","","","","","","","","","","","","","","","","","","","",""
"","","","","","html-keyboard-response","59","238306","0.0-2.0-4.0-0.3","6033fd8bc8659800086d87b0","B2","batch2","spm_show_trial_num","null","<p class=block-text>Trial 28 out of 60</p>","null","","","","","","","","","","","","","","","","","","","","","","","","","",""
"","","","","","image-button-response","60","246293","0.0-2.0-4.0-1.3","6033fd8bc8659800086d87b0","B2","batch2","spm_respsonse","7983.899999976158","img/question_3_4.jpeg","7","mat_28","8","1","1","7983.899999976158","","","","","","","","","","","","","","","","","","","","",""
"","","","","","html-keyboard-response","61","247356","0.0-2.0-4.0-0.4","6033fd8bc8659800086d87b0","B2","batch2","spm_show_trial_num","null","<p class=block-text>Trial 29 out of 60</p>","null","","","","","","","","","","","","","","","","","","","","","","","","","",""
"","","","","","image-button-response","62","260173","0.0-2.0-4.0-1.4","6033fd8bc8659800086d87b0","B2","batch2","spm_respsonse","12814.09999999404","img/question_3_5.jpeg","6","mat_29","7","1","1","12814.09999999404","","","","","","","","","","","","","","","","","","","","",""
"","","","","","html-keyboard-response","63","261245","0.0-2.0-4.0-0.5","6033fd8bc8659800086d87b0","B2","batch2","spm_show_trial_num","null","<p class=block-text>Trial 30 out of 60</p>","null","","","","","","","","","","","","","","","","","","","","","","","","","",""
"","","","","","image-button-response","64","266486","0.0-2.0-4.0-1.5","6033fd8bc8659800086d87b0","B2","batch2","spm_respsonse","5238.5999999940395","img/question_3_6.jpeg","3","mat_30","4","1","1","5238.5999999940395","","","","","","","","","","","","","","","","","","","","",""
"","","","","","html-keyboard-response","65","267550","0.0-2.0-4.0-0.6","6033fd8bc8659800086d87b0","B2","batch2","spm_show_trial_num","null","<p class=block-text>Trial 31 out of 60</p>","null","","","","","","","","","","","","","","","","","","","","","","","","","",""
"","","","","","image-button-response","66","281136","0.0-2.0-4.0-1.6","6033fd8bc8659800086d87b0","B2","batch2","spm_respsonse","13583","img/question_3_7.jpeg","4","mat_31","5","1","1","13583","","","","","","","","","","","","","","","","","","","","",""
"","","","","","html-keyboard-response","67","282212","0.0-2.0-4.0-0.7","6033fd8bc8659800086d87b0","B2","batch2","spm_show_trial_num","null","<p class=block-text>Trial 32 out of 60</p>","null","","","","","","","","","","","","","","","","","","","","","","","","","",""
"","","","","","image-button-response","68","300485","0.0-2.0-4.0-1.7","6033fd8bc8659800086d87b0","B2","batch2","spm_respsonse","18270.59999999404","img/question_3_8.jpeg","6","mat_32","1","0","0","18270.59999999404","","","","","","","","","","","","","","","","","","","","",""
"","","","","","html-keyboard-response","69","301548","0.0-2.0-4.0-0.8","6033fd8bc8659800086d87b0","B2","batch2","spm_show_trial_num","null","<p class=block-text>Trial 33 out of 60</p>","null","","","","","","","","","","","","","","","","","","","","","","","","","",""
"","","","","","image-button-response","70","314427","0.0-2.0-4.0-1.8","6033fd8bc8659800086d87b0","B2","batch2","spm_respsonse","12876","img/question_3_9.jpeg","6","mat_33","7","1","1","12876","","","","","","","","","","","","","","","","","","","","",""
"","","","","","html-keyboard-response","71","315490","0.0-2.0-4.0-0.9","6033fd8bc8659800086d87b0","B2","batch2","spm_show_trial_num","null","<p class=block-text>Trial 34 out of 60</p>","null","","","","","","","","","","","","","","","","","","","","","","","","","",""
"","","","","","image-button-response","72","332117","0.0-2.0-4.0-1.9","6033fd8bc8659800086d87b0","B2","batch2","spm_respsonse","16623.59999999404","img/question_3_10.jpeg","3","mat_34","6","0","0","16623.59999999404","","","","","","","","","","","","","","","","","","","","",""
"","","","","","html-keyboard-response","73","333185","0.0-2.0-4.0-0.10","6033fd8bc8659800086d87b0","B2","batch2","spm_show_trial_num","null","<p class=block-text>Trial 35 out of 60</p>","null","","","","","","","","","","","","","","","","","","","","","","","","","",""
"","","","","","image-button-response","74","390396","0.0-2.0-4.0-1.10","6033fd8bc8659800086d87b0","B2","batch2","spm_respsonse","57208.30000001192","img/question_3_11.jpeg","0","mat_35","1","1","1","57208.30000001192","","","","","","","","","","","","","","","","","","","","",""
"","","","","","html-keyboard-response","75","391454","0.0-2.0-4.0-0.11","6033fd8bc8659800086d87b0","B2","batch2","spm_show_trial_num","null","<p class=block-text>Trial 36 out of 60</p>","null","","","","","","","","","","","","","","","","","","","","","","","","","",""
"","","","","","image-button-response","76","397156","0.0-2.0-4.0-1.11","6033fd8bc8659800086d87b0","B2","batch2","spm_respsonse","5700.799999982119","img/question_3_12.jpeg","6","mat_36","2","0","0","5700.799999982119","","","","","","","","","","","","","","","","","","","","",""
"","","","","","html-keyboard-response","77","398219","0.0-2.0-4.0-0.12","6033fd8bc8659800086d87b0","B2","batch2","spm_show_trial_num","null","<p class=block-text>Trial 37 out of 60</p>","null","","","","","","","","","","","","","","","","","","","","","","","","","",""
"","","","","","image-button-response","78","401035","0.0-2.0-4.0-1.12","6033fd8bc8659800086d87b0","B2","batch2","spm_respsonse","2813.0999999940395","img/question_4_1.jpeg","2","mat_37","3","1","1","2813.0999999940395","","","","","","","","","","","","","","","","","","","","",""
"","","","","","html-keyboard-response","79","402115","0.0-2.0-4.0-0.13","6033fd8bc8659800086d87b0","B2","batch2","spm_show_trial_num","null","<p class=block-text>Trial 38 out of 60</p>","null","","","","","","","","","","","","","","","","","","","","","","","","","",""
"","","","","","image-button-response","80","405103","0.0-2.0-4.0-1.13","6033fd8bc8659800086d87b0","B2","batch2","spm_respsonse","2985.199999988079","img/question_4_2.jpeg","3","mat_38","4","1","1","2985.199999988079","","","","","","","","","","","","","","","","","","","","",""
"","","","","","html-keyboard-response","81","406169","0.0-2.0-4.0-0.14","6033fd8bc8659800086d87b0","B2","batch2","spm_show_trial_num","null","<p class=block-text>Trial 39 out of 60</p>","null","","","","","","","","","","","","","","","","","","","","","","","","","",""
"","","","","","image-button-response","82","410717","0.0-2.0-4.0-1.14","6033fd8bc8659800086d87b0","B2","batch2","spm_respsonse","4545","img/question_4_3.jpeg","2","mat_39","3","1","1","4545","","","","","","","","","","","","","","","","","","","","",""
"","","","","","html-keyboard-response","83","411771","0.0-2.0-4.0-0.15","6033fd8bc8659800086d87b0","B2","batch2","spm_show_trial_num","null","<p class=block-text>Trial 40 out of 60</p>","null","","","","","","","","","","","","","","","","","","","","","","","","","",""
"","","","","","image-button-response","84","418692","0.0-2.0-4.0-1.15","6033fd8bc8659800086d87b0","B2","batch2","spm_respsonse","6918.0999999940395","img/question_4_4.jpeg","6","mat_40","7","1","1","6918.0999999940395","","","","","","","","","","","","","","","","","","","","",""
"","","","","","html-keyboard-response","85","419752","0.0-2.0-4.0-0.16","6033fd8bc8659800086d87b0","B2","batch2","spm_show_trial_num","null","<p class=block-text>Trial 41 out of 60</p>","null","","","","","","","","","","","","","","","","","","","","","","","","","",""
"","","","","","image-button-response","86","452188","0.0-2.0-4.0-1.16","6033fd8bc8659800086d87b0","B2","batch2","spm_respsonse","32432.40000000596","img/question_4_5.jpeg","7","mat_41","8","1","1","32432.40000000596","","","","","","","","","","","","","","","","","","","","",""
"","","","","","html-keyboard-response","87","453252","0.0-2.0-4.0-0.17","6033fd8bc8659800086d87b0","B2","batch2","spm_show_trial_num","null","<p class=block-text>Trial 42 out of 60</p>","null","","","","","","","","","","","","","","","","","","","","","","","","","",""
"","","","","","image-button-response","88","464316","0.0-2.0-4.0-1.17","6033fd8bc8659800086d87b0","B2","batch2","spm_respsonse","11060.5","img/question_4_6.jpeg","5","mat_42","6","1","1","11060.5","","","","","","","","","","","","","","","","","","","","",""
"","","","","","html-keyboard-response","89","465373","0.0-2.0-4.0-0.18","6033fd8bc8659800086d87b0","B2","batch2","spm_show_trial_num","null","<p class=block-text>Trial 43 out of 60</p>","null","","","","","","","","","","","","","","","","","","","","","","","","","",""
"","","","","","image-button-response","90","472636","0.0-2.0-4.0-1.18","6033fd8bc8659800086d87b0","B2","batch2","spm_respsonse","7259.200000017881","img/question_4_7.jpeg","4","mat_43","5","1","1","7259.200000017881","","","","","","","","","","","","","","","","","","","","",""
"","","","","","html-keyboard-response","91","473697","0.0-2.0-4.0-0.19","6033fd8bc8659800086d87b0","B2","batch2","spm_show_trial_num","null","<p class=block-text>Trial 44 out of 60</p>","null","","","","","","","","","","","","","","","","","","","","","","","","","",""
"","","","","","image-button-response","92","484276","0.0-2.0-4.0-1.19","6033fd8bc8659800086d87b0","B2","batch2","spm_respsonse","10575.299999982119","img/question_4_8.jpeg","3","mat_44","4","1","1","10575.299999982119","","","","","","","","","","","","","","","","","","","","",""
"","","","","","html-keyboard-response","93","485349","0.0-2.0-4.0-0.20","6033fd8bc8659800086d87b0","B2","batch2","spm_show_trial_num","null","<p class=block-text>Trial 45 out of 60</p>","null","","","","","","","","","","","","","","","","","","","","","","","","","",""
"","","","","","image-button-response","94","500260","0.0-2.0-4.0-1.20","6033fd8bc8659800086d87b0","B2","batch2","spm_respsonse","14907.5","img/question_4_9.jpeg","0","mat_45","1","1","1","14907.5","","","","","","","","","","","","","","","","","","","","",""
"","","","","","html-keyboard-response","95","501312","0.0-2.0-4.0-0.21","6033fd8bc8659800086d87b0","B2","batch2","spm_show_trial_num","null","<p class=block-text>Trial 46 out of 60</p>","null","","","","","","","","","","","","","","","","","","","","","","","","","",""
"","","","","","image-button-response","96","517516","0.0-2.0-4.0-1.21","6033fd8bc8659800086d87b0","B2","batch2","spm_respsonse","16200.699999988079","img/question_4_10.jpeg","1","mat_46","2","1","1","16200.699999988079","","","","","","","","","","","","","","","","","","","","",""
"","","","","","html-keyboard-response","97","518574","0.0-2.0-4.0-0.22","6033fd8bc8659800086d87b0","B2","batch2","spm_show_trial_num","null","<p class=block-text>Trial 47 out of 60</p>","null","","","","","","","","","","","","","","","","","","","","","","","","","",""
"","","","","","image-button-response","98","536005","0.0-2.0-4.0-1.22","6033fd8bc8659800086d87b0","B2","batch2","spm_respsonse","17428.59999999404","img/question_4_11.jpeg","5","mat_47","5","0","0","17428.59999999404","","","","","","","","","","","","","","","","","","","","",""
"","","","","","html-keyboard-response","99","537067","0.0-2.0-4.0-0.23","6033fd8bc8659800086d87b0","B2","batch2","spm_show_trial_num","null","<p class=block-text>Trial 48 out of 60</p>","null","","","","","","","","","","","","","","","","","","","","","","","","","",""
"","","","","","image-button-response","100","555940","0.0-2.0-4.0-1.23","6033fd8bc8659800086d87b0","B2","batch2","spm_respsonse","18869.600000023842","img/question_4_12.jpeg","0","mat_48","6","0","0","18869.600000023842","","","","","","","","","","","","","","","","","","","","",""
"","","","","","html-keyboard-response","101","557000","0.0-2.0-4.0-0.24","6033fd8bc8659800086d87b0","B2","batch2","spm_show_trial_num","null","<p class=block-text>Trial 49 out of 60</p>","null","","","","","","","","","","","","","","","","","","","","","","","","","",""
"","","","","","image-button-response","102","564420","0.0-2.0-4.0-1.24","6033fd8bc8659800086d87b0","B2","batch2","spm_respsonse","7415.9000000059605","img/question_5_1.jpeg","3","mat_49","7","0","0","7415.9000000059605","","","","","","","","","","","","","","","","","","","","",""
"","","","","","html-keyboard-response","103","565482","0.0-2.0-4.0-0.25","6033fd8bc8659800086d87b0","B2","batch2","spm_show_trial_num","null","<p class=block-text>Trial 50 out of 60</p>","null","","","","","","","","","","","","","","","","","","","","","","","","","",""
"","","","","","image-button-response","104","579948","0.0-2.0-4.0-1.25","6033fd8bc8659800086d87b0","B2","batch2","spm_respsonse","14463.59999999404","img/question_5_2.jpeg","5","mat_50","6","1","1","14463.59999999404","","","","","","","","","","","","","","","","","","","","",""
"","","","","","html-keyboard-response","105","581015","0.0-2.0-4.0-0.26","6033fd8bc8659800086d87b0","B2","batch2","spm_show_trial_num","null","<p class=block-text>Trial 51 out of 60</p>","null","","","","","","","","","","","","","","","","","","","","","","","","","",""
"","","","","","image-button-response","106","601468","0.0-2.0-4.0-1.26","6033fd8bc8659800086d87b0","B2","batch2","spm_respsonse","20451","img/question_5_3.jpeg","4","mat_51","8","0","0","20451","","","","","","","","","","","","","","","","","","","","",""
"","","","","","html-keyboard-response","107","602527","0.0-2.0-4.0-0.27","6033fd8bc8659800086d87b0","B2","batch2","spm_show_trial_num","null","<p class=block-text>Trial 52 out of 60</p>","null","","","","","","","","","","","","","","","","","","","","","","","","","",""
"","","","","","image-button-response","108","611948","0.0-2.0-4.0-1.27","6033fd8bc8659800086d87b0","B2","batch2","spm_respsonse","9417.40000000596","img/question_5_4.jpeg","2","mat_52","2","0","0","9417.40000000596","","","","","","","","","","","","","","","","","","","","",""
"","","","","","html-keyboard-response","109","613014","0.0-2.0-4.0-0.28","6033fd8bc8659800086d87b0","B2","batch2","spm_show_trial_num","null","<p class=block-text>Trial 53 out of 60</p>","null","","","","","","","","","","","","","","","","","","","","","","","","","",""
"","","","","","image-button-response","110","627900","0.0-2.0-4.0-1.28","6033fd8bc8659800086d87b0","B2","batch2","spm_respsonse","14882","img/question_5_5.jpeg","6","mat_53","1","0","0","14882","","","","","","","","","","","","","","","","","","","","",""
"","","","","","html-keyboard-response","111","628960","0.0-2.0-4.0-0.29","6033fd8bc8659800086d87b0","B2","batch2","spm_show_trial_num","null","<p class=block-text>Trial 54 out of 60</p>","null","","","","","","","","","","","","","","","","","","","","","","","","","",""
"","","","","","image-button-response","112","636082","0.0-2.0-4.0-1.29","6033fd8bc8659800086d87b0","B2","batch2","spm_respsonse","7119.199999988079","img/question_5_6.jpeg","1","mat_54","5","0","0","7119.199999988079","","","","","","","","","","","","","","","","","","","","",""
"","","","","","html-keyboard-response","113","637141","0.0-2.0-4.0-0.30","6033fd8bc8659800086d87b0","B2","batch2","spm_show_trial_num","null","<p class=block-text>Trial 55 out of 60</p>","null","","","","","","","","","","","","","","","","","","","","","","","","","",""
"","","","","","image-button-response","114","645499","0.0-2.0-4.0-1.30","6033fd8bc8659800086d87b0","B2","batch2","spm_respsonse","8355.09999999404","img/question_5_7.jpeg","2","mat_55","1","0","0","8355.09999999404","","","","","","","","","","","","","","","","","","","","",""
"","","","","","html-keyboard-response","115","646561","0.0-2.0-4.0-0.31","6033fd8bc8659800086d87b0","B2","batch2","spm_show_trial_num","null","<p class=block-text>Trial 56 out of 60</p>","null","","","","","","","","","","","","","","","","","","","","","","","","","",""
"","","","","","image-button-response","116","652643","0.0-2.0-4.0-1.31","6033fd8bc8659800086d87b0","B2","batch2","spm_respsonse","6078.199999988079","img/question_5_8.jpeg","7","mat_56","6","0","0","6078.199999988079","","","","","","","","","","","","","","","","","","","","",""
"","","","","","html-keyboard-response","117","653695","0.0-2.0-4.0-0.32","6033fd8bc8659800086d87b0","B2","batch2","spm_show_trial_num","null","<p class=block-text>Trial 57 out of 60</p>","null","","","","","","","","","","","","","","","","","","","","","","","","","",""
"","","","","","image-button-response","118","664532","0.0-2.0-4.0-1.32","6033fd8bc8659800086d87b0","B2","batch2","spm_respsonse","10833.59999999404","img/question_5_9.jpeg","6","mat_57","3","0","0","10833.59999999404","","","","","","","","","","","","","","","","","","","","",""
"","","","","","html-keyboard-response","119","665598","0.0-2.0-4.0-0.33","6033fd8bc8659800086d87b0","B2","batch2","spm_show_trial_num","null","<p class=block-text>Trial 58 out of 60</p>","null","","","","","","","","","","","","","","","","","","","","","","","","","",""
"","","","","","image-button-response","120","676396","0.0-2.0-4.0-1.33","6033fd8bc8659800086d87b0","B2","batch2","spm_respsonse","10794","img/question_5_10.jpeg","2","mat_58","2","0","0","10794","","","","","","","","","","","","","","","","","","","","",""
"","","","","","html-keyboard-response","121","677452","0.0-2.0-4.0-0.34","6033fd8bc8659800086d87b0","B2","batch2","spm_show_trial_num","null","<p class=block-text>Trial 59 out of 60</p>","null","","","","","","","","","","","","","","","","","","","","","","","","","",""
"","","","","","image-button-response","122","682331","0.0-2.0-4.0-1.34","6033fd8bc8659800086d87b0","B2","batch2","spm_respsonse","4876.0999999940395","img/question_5_11.jpeg","2","mat_59","4","0","0","4876.0999999940395","","","","","","","","","","","","","","","","","","","","",""
"","","","","","html-keyboard-response","123","683397","0.0-2.0-4.0-0.35","6033fd8bc8659800086d87b0","B2","batch2","spm_show_trial_num","null","<p class=block-text>Trial 60 out of 60</p>","null","","","","","","","","","","","","","","","","","","","","","","","","","",""
"","","","","","image-button-response","124","701867","0.0-2.0-4.0-1.35","6033fd8bc8659800086d87b0","B2","batch2","spm_respsonse","18466.80000001192","img/question_5_12.jpeg","0","mat_60","5","0","0","18466.80000001192","","","","","","","","","","","","","","","","","","","","",""
"","","","","","html-button-response","125","704651","0.0-2.0-5.0","6033fd8bc8659800086d87b0","B2","batch2","spm_goodbye","2528.4000000059605","<p class= block-text>This concludes the Standard Progressive Matrix game. Thank you for your responses!<br> When you are ready, click the button continue</p>","0","","","","","","","","","","","","","","","","","","","","","","","","","",""
"true","","","","","fullscreen","126","709660","0.0-3.0-0.0","6033fd8bc8659800086d87b0","B2","batch2","","","","","","","","","","","","","","","","","","","","","","","","","","","","","",""
"","","","","","instructions","127","768067","0.0-3.0-1.0-0.0-0.0","6033fd8bc8659800086d87b0","B2","batch2","tol-instructions","58406.19999998808","","","","","","","","[{""page_index"":0,""viewing_time"":7966.5},{""page_index"":1,""viewing_time"":5007.799999982119},{""page_index"":2,""viewing_time"":3201.7000000178814},{""page_index"":3,""viewing_time"":8036.9000000059605},{""page_index"":4,""viewing_time"":8448.299999982119},{""page_index"":5,""viewing_time"":17303.80000001192},{""page_index"":6,""viewing_time"":8440.699999988079}]","","","","","","","","","","","","","","","","","","","",""
"","","","","","html-button-response","128","769739","0.0-3.0-1.0-1.0-0.0","6033fd8bc8659800086d87b0","B2","batch2","tol_enter_quiz","1670.5","<p class=block-text> Let's answer a few questions <br>","0","","","","","","","","","","","","","","","","","","","","","","","","","",""
"","","","","","html-button-response","129","776202","0.0-3.0-1.0-1.0-1.0","6033fd8bc8659800086d87b0","B2","batch2","tol_quiz","6461.299999982119","<p class = block-text>True or False: You can only move the ball on top of a peg. <br></p>","0","","","true","","","","","","","","","","","","","","","","","","","","","","",""
"","","","","","html-button-response","130","777747","0.0-3.0-1.0-1.0-2.0","6033fd8bc8659800086d87b0","B2","batch2","tol_quiz_feedback","1541.9000000059605","<p class = block-text>Correct! You can only move the ball on top of a peg.</p>","0","","","","","","","","","","","","","","","","","","","","","","","","","",""
"","","","","","html-button-response","131","782115","0.0-3.0-1.0-1.0-3.0","6033fd8bc8659800086d87b0","B2","batch2","tol_quiz","4366.800000011921","<p class = block-text>True or False: You should try to match your board with the target board with fewest moves possible. <br></p>","0","","","true","","","","","","","","","","","","","","","","","","","","","","",""
"","","","","","html-button-response","132","782884","0.0-3.0-1.0-1.0-4.0","6033fd8bc8659800086d87b0","B2","batch2","tol_quiz_feedback","767.0999999940395","<p class = block-text>Correct! </p>","0","","","","","","","","","","","","","","","","","","","","","","","","","",""
"","","","","","html-button-response","133","784803","0.0-3.0-2.0","6033fd8bc8659800086d87b0","B2","batch2","","1915.5999999940395","<p class=block-text> Now that you've understood the game, let's practice a few easier examples before we start!<br> <br>","0","","","","","","","","","","","","","","","","","","","","","","","","","",""
"","","","","","single-stim-button","134","787815","0.0-3.0-3.0-0.0","6033fd8bc8659800086d87b0","B2","batch2","tol_practice","3009","","","","","","","","","tol_peg_2","3009","3009","0","[[1,2,0],[0,0],[0]]","1","[[1,2,0],[0,0],[3]]","practice","3009","","","","","","","","","","",""
"","","","","","single-stim-button","135","789836","0.0-3.0-3.0-1.0","6033fd8bc8659800086d87b0","B2","batch2","tol_practice","2020","","","","","","","","","tol_peg_3","2020","2020","0","[[1,2,0],[0,0],[3]]","1","[[1,2,0],[0,0],[3]]","practice","2020","","","","","","","","","","",""
"","","","","","poldrack-single-stim","136","790838","0.0-3.0-4.0","6033fd8bc8659800086d87b0","B2","batch2","tol_feedback","-1","","","","","true","","","","","1000","1000","500","","","","","","-1","none","true","","0","","","","","",""
"","","","","","single-stim-button","137","796675","0.0-3.0-5.0-0.0","6033fd8bc8659800086d87b0","B2","batch2","tol_practice","5835","","","","","","","","","tol_peg_1","5835","5835","0","[[1,0,0],[3,0],[0]]","2","[[0,0,0],[3,1],[2]]","practice","5835","","","","","","","","","","",""
"","","","","","single-stim-button","138","797794","0.0-3.0-5.0-1.0","6033fd8bc8659800086d87b0","B2","batch2","tol_practice","1118","","","","","","","","","tol_peg_3","1118","1118","0","[[1,0,0],[3,0],[2]]","2","[[0,0,0],[3,1],[2]]","practice","1118","","","","","","","","","","",""
"","","","","","single-stim-button","139","798996","0.0-3.0-5.1-0.1","6033fd8bc8659800086d87b0","B2","batch2","tol_practice","1200","","","","","","","","","tol_peg_1","1200","1200","0","[[0,0,0],[3,0],[2]]","3","[[0,0,0],[3,1],[2]]","practice","1200","","","","","","","","","","",""
"","","","","","single-stim-button","140","799732","0.0-3.0-5.1-1.1","6033fd8bc8659800086d87b0","B2","batch2","tol_practice","735","","","","","","","","","tol_peg_2","735","735","0","[[0,0,0],[3,1],[2]]","3","[[0,0,0],[3,1],[2]]","practice","735","","","","","","","","","","",""
"","","","","","poldrack-single-stim","141","800734","0.0-3.0-6.0","6033fd8bc8659800086d87b0","B2","batch2","tol_feedback","-1","","","","","true","","","","","1000","1000","500","","","","","","-1","none","true","","0","","","","","",""
"","","","","","single-stim-button","142","804234","0.0-3.0-7.0-0.0","6033fd8bc8659800086d87b0","B2","batch2","tol_practice","3500","","","","","","","","","tol_peg_2","3500","3500","0","[[1,2,0],[0,0],[0]]","4","[[1,0,0],[2,0],[3]]","practice","3500","","","","","","","","","","",""
"","","","","","single-stim-button","143","805060","0.0-3.0-7.0-1.0","6033fd8bc8659800086d87b0","B2","batch2","tol_practice","826","","","","","","","","","tol_peg_3","826","826","0","[[1,2,0],[0,0],[3]]","4","[[1,0,0],[2,0],[3]]","practice","826","","","","","","","","","","",""
"","","","","","single-stim-button","144","805964","0.0-3.0-7.1-0.1","6033fd8bc8659800086d87b0","B2","batch2","tol_practice","902","","","","","","","","","tol_peg_1","902","902","0","[[1,0,0],[0,0],[3]]","5","[[1,0,0],[2,0],[3]]","practice","902","","","","","","","","","","",""
"","","","","","single-stim-button","145","806795","0.0-3.0-7.1-1.1","6033fd8bc8659800086d87b0","B2","batch2","tol_practice","829","","","","","","","","","tol_peg_2","829","829","0","[[1,0,0],[2,0],[3]]","5","[[1,0,0],[2,0],[3]]","practice","829","","","","","","","","","","",""
"","","","","","poldrack-single-stim","146","807797","0.0-3.0-8.0","6033fd8bc8659800086d87b0","B2","batch2","tol_feedback","-1","","","","","true","","","","","1000","1000","500","","","","","","-1","none","true","","0","","","","","",""
"","","","","","html-button-response","147","813644","0.0-3.0-9.0","6033fd8bc8659800086d87b0","B2","batch2","tol_instruction","5845.5","<div class = centerbox><p class = center-block-text>Great job! You are done with practice trials<br>You are about to start official trials.<br> <br> Problem <strong>1</strong> out of 25 problems</p></div>","0","","","","","","","","","","","","","","","","","","","","","","","","","",""
"","","","","","single-stim-button","148","837667","0.0-3.0-10.0-0.0","6033fd8bc8659800086d87b0","B2","batch2","tol_tohand","23017","","","","","","","","","tol_peg_2","23017","23017","0","[[1,2,0],[0,0],[0]]","1","[[1,3,0],[2,0],[0]]","0","0","","","","","","3","","","","",""
"","","","","","single-stim-button","149","838547","0.0-3.0-10.0-1.0","6033fd8bc8659800086d87b0","B2","batch2","tol_toboard","878","","","","","","","","","tol_peg_3","878","878","0","[[1,2,0],[0,0],[3]]","1","[[1,3,0],[2,0],[0]]","0","0","","","","","","3","","","","",""
"","","","","","single-stim-button","150","839858","0.0-3.0-10.1-0.1","6033fd8bc8659800086d87b0","B2","batch2","tol_tohand","1310","","","","","","","","","tol_peg_1","1310","1310","0","[[1,0,0],[0,0],[3]]","2","[[1,3,0],[2,0],[0]]","0","0","","","","","","3","","","","",""
"","","","","","single-stim-button","151","840590","0.0-3.0-10.1-1.1","6033fd8bc8659800086d87b0","B2","batch2","tol_toboard","730","","","","","","","","","tol_peg_2","730","730","0","[[1,0,0],[2,0],[3]]","2","[[1,3,0],[2,0],[0]]","0","0","","","","","","3","","","","",""
"","","","","","single-stim-button","152","841228","0.0-3.0-10.2-0.2","6033fd8bc8659800086d87b0","B2","batch2","tol_tohand","638","","","","","","","","","tol_peg_3","638","638","0","[[1,0,0],[2,0],[0]]","3","[[1,3,0],[2,0],[0]]","0","0","","","","","","3","","","","",""
"","","","","","single-stim-button","153","841699","0.0-3.0-10.2-1.2","6033fd8bc8659800086d87b0","B2","batch2","tol_toboard","469","","","","","","","","","tol_peg_1","469","469","0","[[1,3,0],[2,0],[0]]","3","[[1,3,0],[2,0],[0]]","0","0","","","","","","3","","","","",""
"","","","","","poldrack-single-stim","154","842714","0.0-3.0-11.0","6033fd8bc8659800086d87b0","B2","batch2","tol_feedback","-1","","","","","true","","","","","1000","1000","500","","","","","","-1","none","true","23017","24965","","","","","",""
"","","","","","html-button-response","155","843915","0.0-3.0-12.0","6033fd8bc8659800086d87b0","B2","batch2","tol_trial_num","1198.699999988079","<div class = centerbox><p class = center-block-text>problem <strong>2</strong> out of 25 problems</p></div>","0","","","","","","","","","","","","","","","","","","","","","","","","","",""
"","","","","","single-stim-button","156","848323","0.0-3.0-13.0-0.0","6033fd8bc8659800086d87b0","B2","batch2","tol_tohand","4406","","","","","","","","","tol_peg_1","4406","4406","0","[[1,0,0],[3,0],[0]]","1","[[2,1,3],[0,0],[0]]","1","0","","","","","","5","","","","",""
"","","","","","single-stim-button","157","852898","0.0-3.0-13.0-1.0","6033fd8bc8659800086d87b0","B2","batch2","tol_toboard","4574","","","","","","","","","tol_peg_3","4574","4574","0","[[1,0,0],[3,0],[2]]","1","[[2,1,3],[0,0],[0]]","1","0","","","","","","5","","","","",""
"","","","","","single-stim-button","158","854082","0.0-3.0-13.1-0.1","6033fd8bc8659800086d87b0","B2","batch2","tol_tohand","1183","","","","","","","","","tol_peg_1","1183","1183","0","[[0,0,0],[3,0],[2]]","2","[[2,1,3],[0,0],[0]]","1","0","","","","","","5","","","","",""
"","","","","","single-stim-button","159","854723","0.0-3.0-13.1-1.1","6033fd8bc8659800086d87b0","B2","batch2","tol_toboard","639","","","","","","","","","tol_peg_2","639","639","0","[[0,0,0],[3,1],[2]]","2","[[2,1,3],[0,0],[0]]","1","0","","","","","","5","","","","",""
"","","","","","single-stim-button","160","855371","0.0-3.0-13.2-0.2","6033fd8bc8659800086d87b0","B2","batch2","tol_tohand","647","","","","","","","","","tol_peg_3","647","647","0","[[0,0,0],[3,1],[0]]","3","[[2,1,3],[0,0],[0]]","1","0","","","","","","5","","","","",""
"","","","","","single-stim-button","161","856275","0.0-3.0-13.2-1.2","6033fd8bc8659800086d87b0","B2","batch2","tol_toboard","903","","","","","","","","","tol_peg_1","903","903","0","[[2,0,0],[3,1],[0]]","3","[[2,1,3],[0,0],[0]]","1","0","","","","","","5","","","","",""
"","","","","","single-stim-button","162","856964","0.0-3.0-13.3-0.3","6033fd8bc8659800086d87b0","B2","batch2","tol_tohand","687","","","","","","","","","tol_peg_2","687","687","0","[[2,0,0],[3,0],[0]]","4","[[2,1,3],[0,0],[0]]","1","0","","","","","","5","","","","",""
"","","","","","single-stim-button","163","857555","0.0-3.0-13.3-1.3","6033fd8bc8659800086d87b0","B2","batch2","tol_toboard","591","","","","","","","","","tol_peg_1","591","591","0","[[2,1,0],[3,0],[0]]","4","[[2,1,3],[0,0],[0]]","1","0","","","","","","5","","","","",""
"","","","","","single-stim-button","164","858115","0.0-3.0-13.4-0.4","6033fd8bc8659800086d87b0","B2","batch2","tol_tohand","558","","","","","","","","","tol_peg_2","558","558","0","[[2,1,0],[0,0],[0]]","5","[[2,1,3],[0,0],[0]]","1","0","","","","","","5","","","","",""
"","","","","","single-stim-button","165","858811","0.0-3.0-13.4-1.4","6033fd8bc8659800086d87b0","B2","batch2","tol_toboard","695","","","","","","","","","tol_peg_1","695","695","0","[[2,1,3],[0,0],[0]]","5","[[2,1,3],[0,0],[0]]","1","0","","","","","","5","","","","",""
"","","","","","poldrack-single-stim","166","859829","0.0-3.0-14.0","6033fd8bc8659800086d87b0","B2","batch2","tol_feedback","-1","","","","","true","","","","","1000","1000","500","","","","","","-1","none","true","4406","7481","","","","","",""
"","","","","","html-button-response","167","860963","0.0-3.0-15.0","6033fd8bc8659800086d87b0","B2","batch2","tol_trial_num","1132.699999988079","<div class = centerbox><p class = center-block-text>problem <strong>3</strong> out of 25 problems</p></div>","0","","","","","","","","","","","","","","","","","","","","","","","","","",""
"","","","","","single-stim-button","168","875674","0.0-3.0-16.0-0.0","6033fd8bc8659800086d87b0","B2","batch2","tol_tohand","14710","","","","","","","","","tol_peg_1","14710","14710","0","[[2,0,0],[0,0],[1]]","1","[[1,2,0],[3,0],[0]]","2","0","","","","","","4","","","","",""
"","","","","","single-stim-button","169","878922","0.0-3.0-16.0-1.0","6033fd8bc8659800086d87b0","B2","batch2","tol_toboard","3247","","","","","","","","","tol_peg_2","3247","3247","0","[[2,0,0],[3,0],[1]]","1","[[1,2,0],[3,0],[0]]","2","0","","","","","","4","","","","",""
"","","","","","single-stim-button","170","879874","0.0-3.0-16.1-0.1","6033fd8bc8659800086d87b0","B2","batch2","tol_tohand","951","","","","","","","","","tol_peg_1","951","951","0","[[0,0,0],[3,0],[1]]","2","[[1,2,0],[3,0],[0]]","2","0","","","","","","4","","","","",""
"","","","","","single-stim-button","171","881250","0.0-3.0-16.1-1.1","6033fd8bc8659800086d87b0","B2","batch2","tol_toboard","1375","","","","","","","","","tol_peg_2","1375","1375","0","[[0,0,0],[3,2],[1]]","2","[[1,2,0],[3,0],[0]]","2","0","","","","","","4","","","","",""
"","","","","","single-stim-button","172","881947","0.0-3.0-16.2-0.2","6033fd8bc8659800086d87b0","B2","batch2","tol_tohand","696","","","","","","","","","tol_peg_3","696","696","0","[[0,0,0],[3,2],[0]]","3","[[1,2,0],[3,0],[0]]","2","0","","","","","","4","","","","",""
"","","","","","single-stim-button","173","882979","0.0-3.0-16.2-1.2","6033fd8bc8659800086d87b0","B2","batch2","tol_toboard","1030","","","","","","","","","tol_peg_1","1030","1030","0","[[1,0,0],[3,2],[0]]","3","[[1,2,0],[3,0],[0]]","2","0","","","","","","4","","","","",""
"","","","","","single-stim-button","174","883572","0.0-3.0-16.3-0.3","6033fd8bc8659800086d87b0","B2","batch2","tol_tohand","592","","","","","","","","","tol_peg_2","592","592","0","[[1,0,0],[3,0],[0]]","4","[[1,2,0],[3,0],[0]]","2","0","","","","","","4","","","","",""
"","","","","","single-stim-button","175","884218","0.0-3.0-16.3-1.3","6033fd8bc8659800086d87b0","B2","batch2","tol_toboard","645","","","","","","","","","tol_peg_1","645","645","0","[[1,2,0],[3,0],[0]]","4","[[1,2,0],[3,0],[0]]","2","0","","","","","","4","","","","",""
"","","","","","poldrack-single-stim","176","885220","0.0-3.0-17.0","6033fd8bc8659800086d87b0","B2","batch2","tol_feedback","-1","","","","","true","","","","","1000","1000","500","","","","","","-1","none","true","14710","16949","","","","","",""
"","","","","","html-button-response","177","886026","0.0-3.0-18.0","6033fd8bc8659800086d87b0","B2","batch2","tol_trial_num","805.0999999940395","<div class = centerbox><p class = center-block-text>problem <strong>4</strong> out of 25 problems</p></div>","0","","","","","","","","","","","","","","","","","","","","","","","","","",""
"","","","","","single-stim-button","178","888947","0.0-3.0-19.0-0.0","6033fd8bc8659800086d87b0","B2","batch2","tol_tohand","2919","","","","","","","","","tol_peg_2","2919","2919","0","[[3,0,0],[2,0],[0]]","1","[[3,0,0],[1,0],[2]]","3","0","","","","","","3","","","","",""
"","","","","","single-stim-button","179","891236","0.0-3.0-19.0-1.0","6033fd8bc8659800086d87b0","B2","batch2","tol_toboard","2288","","","","","","","","","tol_peg_3","2288","2288","0","[[3,0,0],[2,0],[1]]","1","[[3,0,0],[1,0],[2]]","3","0","","","","","","3","","","","",""
"","","","","","single-stim-button","180","891866","0.0-3.0-19.1-0.1","6033fd8bc8659800086d87b0","B2","batch2","tol_tohand","629","","","","","","","","","tol_peg_2","629","629","0","[[3,0,0],[0,0],[1]]","2","[[3,0,0],[1,0],[2]]","3","0","","","","","","3","","","","",""
"","","","","","single-stim-button","181","892333","0.0-3.0-19.1-1.1","6033fd8bc8659800086d87b0","B2","batch2","tol_toboard","466","","","","","","","","","tol_peg_1","466","466","0","[[3,2,0],[0,0],[1]]","2","[[3,0,0],[1,0],[2]]","3","0","","","","","","3","","","","",""
"","","","","","single-stim-button","182","893050","0.0-3.0-19.2-0.2","6033fd8bc8659800086d87b0","B2","batch2","tol_tohand","716","","","","","","","","","tol_peg_3","716","716","0","[[3,2,0],[0,0],[0]]","3","[[3,0,0],[1,0],[2]]","3","0","","","","","","3","","","","",""
"","","","","","single-stim-button","183","893809","0.0-3.0-19.2-1.2","6033fd8bc8659800086d87b0","B2","batch2","tol_toboard","757","","","","","","","","","tol_peg_2","757","757","0","[[3,2,0],[1,0],[0]]","3","[[3,0,0],[1,0],[2]]","3","0","","","","","","3","","","","",""
"","","","","","single-stim-button","184","894410","0.0-3.0-19.3-0.3","6033fd8bc8659800086d87b0","B2","batch2","tol_tohand","600","","","","","","","","","tol_peg_1","600","600","0","[[3,0,0],[1,0],[0]]","4","[[3,0,0],[1,0],[2]]","3","0","","","","","","3","","","","",""
"","","","","","single-stim-button","185","895058","0.0-3.0-19.3-1.3","6033fd8bc8659800086d87b0","B2","batch2","tol_toboard","647","","","","","","","","","tol_peg_3","647","647","0","[[3,0,0],[1,0],[2]]","4","[[3,0,0],[1,0],[2]]","3","0","","","","","","3","","","","",""
"","","","","","poldrack-single-stim","186","896072","0.0-3.0-20.0","6033fd8bc8659800086d87b0","B2","batch2","tol_feedback","-1","","","","","true","","","","","1000","1000","500","","","","","","-1","none","true","2919","4864","","","","","",""
"","","","","","html-button-response","187","896842","0.0-3.0-21.0","6033fd8bc8659800086d87b0","B2","batch2","tol_trial_num","768","<div class = centerbox><p class = center-block-text>problem <strong>5</strong> out of 25 problems</p></div>","0","","","","","","","","","","","","","","","","","","","","","","","","","",""
"","","","","","single-stim-button","188","927195","0.0-3.0-22.0-0.0","6033fd8bc8659800086d87b0","B2","batch2","tol_tohand","30352","","","","","","","","","tol_peg_1","30352","30352","0","[[0,0,0],[2,0],[3]]","1","[[0,0,0],[1,2],[3]]","4","0","","","","","","7","","","","",""
"","","","","","single-stim-button","189","928402","0.0-3.0-22.0-1.0","6033fd8bc8659800086d87b0","B2","batch2","tol_toboard","1205","","","","","","","","","tol_peg_2","1205","1205","0","[[0,0,0],[2,1],[3]]","1","[[0,0,0],[1,2],[3]]","4","0","","","","","","7","","","","",""
"","","","","","single-stim-button","190","929290","0.0-3.0-22.1-0.1","6033fd8bc8659800086d87b0","B2","batch2","tol_tohand","887","","","","","","","","","tol_peg_3","887","887","0","[[0,0,0],[2,1],[0]]","2","[[0,0,0],[1,2],[3]]","4","0","","","","","","7","","","","",""
"","","","","","single-stim-button","191","930138","0.0-3.0-22.1-1.1","6033fd8bc8659800086d87b0","B2","batch2","tol_toboard","846","","","","","","","","","tol_peg_1","846","846","0","[[3,0,0],[2,1],[0]]","2","[[0,0,0],[1,2],[3]]","4","0","","","","","","7","","","","",""
"","","","","","single-stim-button","192","931483","0.0-3.0-22.2-0.2","6033fd8bc8659800086d87b0","B2","batch2","tol_tohand","1345","","","","","","","","","tol_peg_2","1345","1345","0","[[3,0,0],[2,0],[0]]","3","[[0,0,0],[1,2],[3]]","4","0","","","","","","7","","","","",""
"","","","","","single-stim-button","193","932564","0.0-3.0-22.2-1.2","6033fd8bc8659800086d87b0","B2","batch2","tol_toboard","1079","","","","","","","","","tol_peg_3","1079","1079","0","[[3,0,0],[2,0],[1]]","3","[[0,0,0],[1,2],[3]]","4","0","","","","","","7","","","","",""
"","","","","","single-stim-button","194","933129","0.0-3.0-22.3-0.3","6033fd8bc8659800086d87b0","B2","batch2","tol_tohand","563","","","","","","","","","tol_peg_2","563","563","0","[[3,0,0],[0,0],[1]]","4","[[0,0,0],[1,2],[3]]","4","0","","","","","","7","","","","",""
"","","","","","single-stim-button","195","933890","0.0-3.0-22.3-1.3","6033fd8bc8659800086d87b0","B2","batch2","tol_toboard","759","","","","","","","","","tol_peg_1","759","759","0","[[3,2,0],[0,0],[1]]","4","[[0,0,0],[1,2],[3]]","4","0","","","","","","7","","","","",""
"","","","","","single-stim-button","196","934515","0.0-3.0-22.4-0.4","6033fd8bc8659800086d87b0","B2","batch2","tol_tohand","624","","","","","","","","","tol_peg_3","624","624","0","[[3,2,0],[0,0],[0]]","5","[[0,0,0],[1,2],[3]]","4","0","","","","","","7","","","","",""
"","","","","","single-stim-button","197","935026","0.0-3.0-22.4-1.4","6033fd8bc8659800086d87b0","B2","batch2","tol_toboard","510","","","","","","","","","tol_peg_2","510","510","0","[[3,2,0],[1,0],[0]]","5","[[0,0,0],[1,2],[3]]","4","0","","","","","","7","","","","",""
"","","","","","single-stim-button","198","935739","0.0-3.0-22.5-0.5","6033fd8bc8659800086d87b0","B2","batch2","tol_tohand","711","","","","","","","","","tol_peg_1","711","711","0","[[3,0,0],[1,0],[0]]","6","[[0,0,0],[1,2],[3]]","4","0","","","","","","7","","","","",""
"","","","","","single-stim-button","199","936298","0.0-3.0-22.5-1.5","6033fd8bc8659800086d87b0","B2","batch2","tol_toboard","558","","","","","","","","","tol_peg_2","558","558","0","[[3,0,0],[1,2],[0]]","6","[[0,0,0],[1,2],[3]]","4","0","","","","","","7","","","","",""
"","","","","","single-stim-button","200","936866","0.0-3.0-22.6-0.6","6033fd8bc8659800086d87b0","B2","batch2","tol_tohand","566","","","","","","","","","tol_peg_1","566","566","0","[[0,0,0],[1,2],[0]]","7","[[0,0,0],[1,2],[3]]","4","0","","","","","","7","","","","",""
"","","","","","single-stim-button","201","937521","0.0-3.0-22.6-1.6","6033fd8bc8659800086d87b0","B2","batch2","tol_toboard","655","","","","","","","","","tol_peg_3","655","655","0","[[0,0,0],[1,2],[3]]","7","[[0,0,0],[1,2],[3]]","4","0","","","","","","7","","","","",""
"","","","","","poldrack-single-stim","202","938525","0.0-3.0-23.0","6033fd8bc8659800086d87b0","B2","batch2","tol_feedback","-1","","","","","true","","","","","1000","1000","500","","","","","","-1","none","true","30352","35048","","","","","",""
"","","","","","html-button-response","203","939297","0.0-3.0-24.0","6033fd8bc8659800086d87b0","B2","batch2","tol_trial_num","770.9000000059605","<div class = centerbox><p class = center-block-text>problem <strong>6</strong> out of 25 problems</p></div>","0","","","","","","","","","","","","","","","","","","","","","","","","","",""
"","","","","","single-stim-button","204","960489","0.0-3.0-25.0-0.0","6033fd8bc8659800086d87b0","B2","batch2","tol_tohand","21191","","","","","","","","","tol_peg_3","21191","21191","0","[[0,0,0],[1,2],[0]]","1","[[1,0,0],[2,3],[0]]","5","0","","","","","","6","","","","",""
"","","","","","single-stim-button","205","961282","0.0-3.0-25.0-1.0","6033fd8bc8659800086d87b0","B2","batch2","tol_toboard","791","","","","","","","","","tol_peg_1","791","791","0","[[3,0,0],[1,2],[0]]","1","[[1,0,0],[2,3],[0]]","5","0","","","","","","6","","","","",""
"","","","","","single-stim-button","206","963033","0.0-3.0-25.1-0.1","6033fd8bc8659800086d87b0","B2","batch2","tol_tohand","1751","","","","","","","","","tol_peg_2","1751","1751","0","[[3,0,0],[1,0],[0]]","2","[[1,0,0],[2,3],[0]]","5","0","","","","","","6","","","","",""
"","","","","","single-stim-button","207","963593","0.0-3.0-25.1-1.1","6033fd8bc8659800086d87b0","B2","batch2","tol_toboard","558","","","","","","","","","tol_peg_3","558","558","0","[[3,0,0],[1,0],[2]]","2","[[1,0,0],[2,3],[0]]","5","0","","","","","","6","","","","",""
"","","","","","single-stim-button","208","965970","0.0-3.0-25.2-0.2","6033fd8bc8659800086d87b0","B2","batch2","tol_tohand","2376","","","","","","","","","tol_peg_2","2376","2376","0","[[3,0,0],[0,0],[2]]","3","[[1,0,0],[2,3],[0]]","5","0","","","","","","6","","","","",""
"","","","","","single-stim-button","209","966874","0.0-3.0-25.2-1.2","6033fd8bc8659800086d87b0","B2","batch2","tol_toboard","902","","","","","","","","","tol_peg_1","902","902","0","[[3,1,0],[0,0],[2]]","3","[[1,0,0],[2,3],[0]]","5","0","","","","","","6","","","","",""
"","","","","","single-stim-button","210","968049","0.0-3.0-25.3-0.3","6033fd8bc8659800086d87b0","B2","batch2","tol_tohand","1173","","","","","","","","","tol_peg_1","1173","1173","0","[[3,0,0],[0,0],[2]]","4","[[1,0,0],[2,3],[0]]","5","0","","","","","","6","","","","",""
"","","","","","single-stim-button","211","969321","0.0-3.0-25.3-1.3","6033fd8bc8659800086d87b0","B2","batch2","tol_toboard","1272","","","","","","","","","tol_peg_2","1272","1272","0","[[3,0,0],[1,0],[2]]","4","[[1,0,0],[2,3],[0]]","5","0","","","","","","6","","","","",""
"","","","","","single-stim-button","212","970802","0.0-3.0-25.4-0.4","6033fd8bc8659800086d87b0","B2","batch2","tol_tohand","1479","","","","","","","","","tol_peg_1","1479","1479","0","[[0,0,0],[1,0],[2]]","5","[[1,0,0],[2,3],[0]]","5","0","","","","","","6","","","","",""
"","","","","","single-stim-button","213","974242","0.0-3.0-25.4-1.4","6033fd8bc8659800086d87b0","B2","batch2","tol_toboard","3439","","","","","","","","","tol_peg_2","3439","3439","0","[[0,0,0],[1,3],[2]]","5","[[1,0,0],[2,3],[0]]","5","0","","","","","","6","","","","",""
"","","","","","single-stim-button","214","976314","0.0-3.0-25.5-0.5","6033fd8bc8659800086d87b0","B2","batch2","tol_tohand","2071","","","","","","","","","tol_peg_2","2071","2071","0","[[0,0,0],[1,0],[2]]","6","[[1,0,0],[2,3],[0]]","5","0","","","","","","6","","","","",""
"","","","","","single-stim-button","215","978161","0.0-3.0-25.5-1.5","6033fd8bc8659800086d87b0","B2","batch2","tol_toboard","1847","","","","","","","","","tol_peg_1","1847","1847","0","[[3,0,0],[1,0],[2]]","6","[[1,0,0],[2,3],[0]]","5","0","","","","","","6","","","","",""
"","","","","","single-stim-button","216","978849","0.0-3.0-25.6-0.6","6033fd8bc8659800086d87b0","B2","batch2","tol_tohand","687","","","","","","","","","tol_peg_2","687","687","0","[[3,0,0],[0,0],[2]]","7","[[1,0,0],[2,3],[0]]","5","0","","","","","","6","","","","",""
"","","","","","single-stim-button","217","979873","0.0-3.0-25.6-1.6","6033fd8bc8659800086d87b0","B2","batch2","tol_toboard","1023","","","","","","","","","tol_peg_1","1023","1023","0","[[3,1,0],[0,0],[2]]","7","[[1,0,0],[2,3],[0]]","5","0","","","","","","6","","","","",""
"","","","","","single-stim-button","218","982434","0.0-3.0-25.7-0.7","6033fd8bc8659800086d87b0","B2","batch2","tol_tohand","2559","","","","","","","","","tol_peg_3","2559","2559","0","[[3,1,0],[0,0],[0]]","8","[[1,0,0],[2,3],[0]]","5","0","","","","","","6","","","","",""
"","","","","","single-stim-button","219","983283","0.0-3.0-25.7-1.7","6033fd8bc8659800086d87b0","B2","batch2","tol_toboard","848","","","","","","","","","tol_peg_1","848","848","0","[[3,1,2],[0,0],[0]]","8","[[1,0,0],[2,3],[0]]","5","0","","","","","","6","","","","",""
"","","","","","single-stim-button","220","985713","0.0-3.0-25.8-0.8","6033fd8bc8659800086d87b0","B2","batch2","tol_tohand","2429","","","","","","","","","tol_peg_1","2429","2429","0","[[3,1,0],[0,0],[0]]","9","[[1,0,0],[2,3],[0]]","5","0","","","","","","6","","","","",""
"","","","","","single-stim-button","221","986490","0.0-3.0-25.8-1.8","6033fd8bc8659800086d87b0","B2","batch2","tol_toboard","777","","","","","","","","","tol_peg_2","777","777","0","[[3,1,0],[2,0],[0]]","9","[[1,0,0],[2,3],[0]]","5","0","","","","","","6","","","","",""
"","","","","","single-stim-button","222","987619","0.0-3.0-25.9-0.9","6033fd8bc8659800086d87b0","B2","batch2","tol_tohand","1127","","","","","","","","","tol_peg_1","1127","1127","0","[[3,0,0],[2,0],[0]]","10","[[1,0,0],[2,3],[0]]","5","0","","","","","","6","","","","",""
"","","","","","single-stim-button","223","988369","0.0-3.0-25.9-1.9","6033fd8bc8659800086d87b0","B2","batch2","tol_toboard","749","","","","","","","","","tol_peg_2","749","749","0","[[3,0,0],[2,1],[0]]","10","[[1,0,0],[2,3],[0]]","5","0","","","","","","6","","","","",""
"","","","","","single-stim-button","224","988914","0.0-3.0-25.10-0.10","6033fd8bc8659800086d87b0","B2","batch2","tol_tohand","543","","","","","","","","","tol_peg_1","543","543","0","[[0,0,0],[2,1],[0]]","11","[[1,0,0],[2,3],[0]]","5","0","","","","","","6","","","","",""
"","","","","","single-stim-button","225","990121","0.0-3.0-25.10-1.10","6033fd8bc8659800086d87b0","B2","batch2","tol_toboard","1206","","","","","","","","","tol_peg_3","1206","1206","0","[[0,0,0],[2,1],[3]]","11","[[1,0,0],[2,3],[0]]","5","0","","","","","","6","","","","",""
"","","","","","single-stim-button","226","990690","0.0-3.0-25.11-0.11","6033fd8bc8659800086d87b0","B2","batch2","tol_tohand","568","","","","","","","","","tol_peg_2","568","568","0","[[0,0,0],[2,0],[3]]","12","[[1,0,0],[2,3],[0]]","5","0","","","","","","6","","","","",""
"","","","","","single-stim-button","227","991193","0.0-3.0-25.11-1.11","6033fd8bc8659800086d87b0","B2","batch2","tol_toboard","502","","","","","","","","","tol_peg_1","502","502","0","[[1,0,0],[2,0],[3]]","12","[[1,0,0],[2,3],[0]]","5","0","","","","","","6","","","","",""
"","","","","","single-stim-button","228","991787","0.0-3.0-25.12-0.12","6033fd8bc8659800086d87b0","B2","batch2","tol_tohand","593","","","","","","","","","tol_peg_3","593","593","0","[[1,0,0],[2,0],[0]]","13","[[1,0,0],[2,3],[0]]","5","0","","","","","","6","","","","",""
"","","","","","single-stim-button","229","992458","0.0-3.0-25.12-1.12","6033fd8bc8659800086d87b0","B2","batch2","tol_toboard","670","","","","","","","","","tol_peg_2","670","670","0","[[1,0,0],[2,3],[0]]","13","[[1,0,0],[2,3],[0]]","5","0","","","","","","6","","","","",""
"","","","","","poldrack-single-stim","230","993462","0.0-3.0-26.0","6033fd8bc8659800086d87b0","B2","batch2","tol_feedback","-1","","","","","true","","","","","1000","1000","500","","","","","","-1","none","true","21191","38547","","","","","",""
"","","","","","html-button-response","231","994290","0.0-3.0-27.0","6033fd8bc8659800086d87b0","B2","batch2","tol_trial_num","827.1999999880791","<div class = centerbox><p class = center-block-text>problem <strong>7</strong> out of 25 problems</p></div>","0","","","","","","","","","","","","","","","","","","","","","","","","","",""
"","","","","","single-stim-button","232","996546","0.0-3.0-28.0-0.0","6033fd8bc8659800086d87b0","B2","batch2","tol_tohand","2254","","","","","","","","","tol_peg_1","2254","2254","0","[[2,0,0],[0,0],[3]]","1","[[1,2,0],[3,0],[0]]","6","0","","","","","","5","","","","",""
"","","","","","single-stim-button","233","997323","0.0-3.0-28.0-1.0","6033fd8bc8659800086d87b0","B2","batch2","tol_toboard","776","","","","","","","","","tol_peg_2","776","776","0","[[2,0,0],[1,0],[3]]","1","[[1,2,0],[3,0],[0]]","6","0","","","","","","5","","","","",""
"","","","","","single-stim-button","234","998426","0.0-3.0-28.1-0.1","6033fd8bc8659800086d87b0","B2","batch2","tol_tohand","1101","","","","","","","","","tol_peg_1","1101","1101","0","[[0,0,0],[1,0],[3]]","2","[[1,2,0],[3,0],[0]]","6","0","","","","","","5","","","","",""
"","","","","","single-stim-button","235","1001338","0.0-3.0-28.1-1.1","6033fd8bc8659800086d87b0","B2","batch2","tol_toboard","2912","","","","","","","","","tol_peg_2","2912","2912","0","[[0,0,0],[1,2],[3]]","2","[[1,2,0],[3,0],[0]]","6","0","","","","","","5","","","","",""
"","","","","","single-stim-button","236","1003722","0.0-3.0-28.2-0.2","6033fd8bc8659800086d87b0","B2","batch2","tol_tohand","2383","","","","","","","","","tol_peg_3","2383","2383","0","[[0,0,0],[1,2],[0]]","3","[[1,2,0],[3,0],[0]]","6","0","","","","","","5","","","","",""
"","","","","","single-stim-button","237","1005725","0.0-3.0-28.2-1.2","6033fd8bc8659800086d87b0","B2","batch2","tol_toboard","2001","","","","","","","","","tol_peg_1","2001","2001","0","[[3,0,0],[1,2],[0]]","3","[[1,2,0],[3,0],[0]]","6","0","","","","","","5","","","","",""
"","","","","","single-stim-button","238","1006355","0.0-3.0-28.3-0.3","6033fd8bc8659800086d87b0","B2","batch2","tol_tohand","628","","","","","","","","","tol_peg_2","628","628","0","[[3,0,0],[1,0],[0]]","4","[[1,2,0],[3,0],[0]]","6","0","","","","","","5","","","","",""
"","","","","","single-stim-button","239","1006722","0.0-3.0-28.3-1.3","6033fd8bc8659800086d87b0","B2","batch2","tol_toboard","366","","","","","","","","","tol_peg_1","366","366","0","[[3,2,0],[1,0],[0]]","4","[[1,2,0],[3,0],[0]]","6","0","","","","","","5","","","","",""
"","","","","","single-stim-button","240","1007410","0.0-3.0-28.4-0.4","6033fd8bc8659800086d87b0","B2","batch2","tol_tohand","687","","","","","","","","","tol_peg_2","687","687","0","[[3,2,0],[0,0],[0]]","5","[[1,2,0],[3,0],[0]]","6","0","","","","","","5","","","","",""
"","","","","","single-stim-button","241","1008058","0.0-3.0-28.4-1.4","6033fd8bc8659800086d87b0","B2","batch2","tol_toboard","646","","","","","","","","","tol_peg_3","646","646","0","[[3,2,0],[0,0],[1]]","5","[[1,2,0],[3,0],[0]]","6","0","","","","","","5","","","","",""
"","","","","","single-stim-button","242","1009122","0.0-3.0-28.5-0.5","6033fd8bc8659800086d87b0","B2","batch2","tol_tohand","1064","","","","","","","","","tol_peg_1","1064","1064","0","[[3,0,0],[0,0],[1]]","6","[[1,2,0],[3,0],[0]]","6","0","","","","","","5","","","","",""
"","","","","","single-stim-button","243","1010778","0.0-3.0-28.5-1.5","6033fd8bc8659800086d87b0","B2","batch2","tol_toboard","1655","","","","","","","","","tol_peg_2","1655","1655","0","[[3,0,0],[2,0],[1]]","6","[[1,2,0],[3,0],[0]]","6","0","","","","","","5","","","","",""
"","","","","","single-stim-button","244","1011388","0.0-3.0-28.6-0.6","6033fd8bc8659800086d87b0","B2","batch2","tol_tohand","609","","","","","","","","","tol_peg_1","609","609","0","[[0,0,0],[2,0],[1]]","7","[[1,2,0],[3,0],[0]]","6","0","","","","","","5","","","","",""
"","","","","","single-stim-button","245","1011954","0.0-3.0-28.6-1.6","6033fd8bc8659800086d87b0","B2","batch2","tol_toboard","564","","","","","","","","","tol_peg_2","564","564","0","[[0,0,0],[2,3],[1]]","7","[[1,2,0],[3,0],[0]]","6","0","","","","","","5","","","","",""
"","","","","","single-stim-button","246","1012396","0.0-3.0-28.7-0.7","6033fd8bc8659800086d87b0","B2","batch2","tol_tohand","441","","","","","","","","","tol_peg_3","441","441","0","[[0,0,0],[2,3],[0]]","8","[[1,2,0],[3,0],[0]]","6","0","","","","","","5","","","","",""
"","","","","","single-stim-button","247","1013162","0.0-3.0-28.7-1.7","6033fd8bc8659800086d87b0","B2","batch2","tol_toboard","766","","","","","","","","","tol_peg_1","766","766","0","[[1,0,0],[2,3],[0]]","8","[[1,2,0],[3,0],[0]]","6","0","","","","","","5","","","","",""
"","","","","","single-stim-button","248","1013667","0.0-3.0-28.8-0.8","6033fd8bc8659800086d87b0","B2","batch2","tol_tohand","504","","","","","","","","","tol_peg_2","504","504","0","[[1,0,0],[2,0],[0]]","9","[[1,2,0],[3,0],[0]]","6","0","","","","","","5","","","","",""
"","","","","","single-stim-button","249","1015106","0.0-3.0-28.8-1.8","6033fd8bc8659800086d87b0","B2","batch2","tol_toboard","1438","","","","","","","","","tol_peg_3","1438","1438","0","[[1,0,0],[2,0],[3]]","9","[[1,2,0],[3,0],[0]]","6","0","","","","","","5","","","","",""
"","","","","","single-stim-button","250","1016267","0.0-3.0-28.9-0.9","6033fd8bc8659800086d87b0","B2","batch2","tol_tohand","1160","","","","","","","","","tol_peg_2","1160","1160","0","[[1,0,0],[0,0],[3]]","10","[[1,2,0],[3,0],[0]]","6","0","","","","","","5","","","","",""
"","","","","","single-stim-button","251","1016802","0.0-3.0-28.9-1.9","6033fd8bc8659800086d87b0","B2","batch2","tol_toboard","533","","","","","","","","","tol_peg_1","533","533","0","[[1,2,0],[0,0],[3]]","10","[[1,2,0],[3,0],[0]]","6","0","","","","","","5","","","","",""
"","","","","","single-stim-button","252","1017274","0.0-3.0-28.10-0.10","6033fd8bc8659800086d87b0","B2","batch2","tol_tohand","472","","","","","","","","","tol_peg_3","472","472","0","[[1,2,0],[0,0],[0]]","11","[[1,2,0],[3,0],[0]]","6","0","","","","","","5","","","","",""
"","","","","","single-stim-button","253","1017667","0.0-3.0-28.10-1.10","6033fd8bc8659800086d87b0","B2","batch2","tol_toboard","391","","","","","","","","","tol_peg_2","391","391","0","[[1,2,0],[3,0],[0]]","11","[[1,2,0],[3,0],[0]]","6","0","","","","","","5","","","","",""
"","","","","","poldrack-single-stim","254","1018670","0.0-3.0-29.0","6033fd8bc8659800086d87b0","B2","batch2","tol_feedback","-1","","","","","true","","","","","1000","1000","500","","","","","","-1","none","true","2254","11303","","","","","",""
"","","","","","html-button-response","255","1019266","0.0-3.0-30.0","6033fd8bc8659800086d87b0","B2","batch2","tol_trial_num","594.6999999880791","<div class = centerbox><p class = center-block-text>problem <strong>8</strong> out of 25 problems</p></div>","0","","","","","","","","","","","","","","","","","","","","","","","","","",""
"","","","","","single-stim-button","256","1025618","0.0-3.0-31.0-0.0","6033fd8bc8659800086d87b0","B2","batch2","tol_tohand","6350","","","","","","","","","tol_peg_3","6350","6350","0","[[0,0,0],[2,3],[0]]","1","[[1,2,0],[3,0],[0]]","7","0","","","","","","4","","","","",""
"","","","","","single-stim-button","257","1026370","0.0-3.0-31.0-1.0","6033fd8bc8659800086d87b0","B2","batch2","tol_toboard","751","","","","","","","","","tol_peg_1","751","751","0","[[1,0,0],[2,3],[0]]","1","[[1,2,0],[3,0],[0]]","7","0","","","","","","4","","","","",""
"","","","","","single-stim-button","258","1027603","0.0-3.0-31.1-0.1","6033fd8bc8659800086d87b0","B2","batch2","tol_tohand","1232","","","","","","","","","tol_peg_2","1232","1232","0","[[1,0,0],[2,0],[0]]","2","[[1,2,0],[3,0],[0]]","7","0","","","","","","4","","","","",""
"","","","","","single-stim-button","259","1028218","0.0-3.0-31.1-1.1","6033fd8bc8659800086d87b0","B2","batch2","tol_toboard","613","","","","","","","","","tol_peg_3","613","613","0","[[1,0,0],[2,0],[3]]","2","[[1,2,0],[3,0],[0]]","7","0","","","","","","4","","","","",""
"","","","","","single-stim-button","260","1028619","0.0-3.0-31.2-0.2","6033fd8bc8659800086d87b0","B2","batch2","tol_tohand","400","","","","","","","","","tol_peg_2","400","400","0","[[1,0,0],[0,0],[3]]","3","[[1,2,0],[3,0],[0]]","7","0","","","","","","4","","","","",""
"","","","","","single-stim-button","261","1028986","0.0-3.0-31.2-1.2","6033fd8bc8659800086d87b0","B2","batch2","tol_toboard","366","","","","","","","","","tol_peg_1","366","366","0","[[1,2,0],[0,0],[3]]","3","[[1,2,0],[3,0],[0]]","7","0","","","","","","4","","","","",""
"","","","","","single-stim-button","262","1029549","0.0-3.0-31.3-0.3","6033fd8bc8659800086d87b0","B2","batch2","tol_tohand","562","","","","","","","","","tol_peg_3","562","562","0","[[1,2,0],[0,0],[0]]","4","[[1,2,0],[3,0],[0]]","7","0","","","","","","4","","","","",""
"","","","","","single-stim-button","263","1029930","0.0-3.0-31.3-1.3","6033fd8bc8659800086d87b0","B2","batch2","tol_toboard","381","","","","","","","","","tol_peg_2","381","381","0","[[1,2,0],[3,0],[0]]","4","[[1,2,0],[3,0],[0]]","7","0","","","","","","4","","","","",""
"","","","","","poldrack-single-stim","264","1030932","0.0-3.0-32.0","6033fd8bc8659800086d87b0","B2","batch2","tol_feedback","-1","","","","","true","","","","","1000","1000","500","","","","","","-1","none","true","6350","8544","","","","","",""
"","","","","","html-button-response","265","1031697","0.0-3.0-33.0","6033fd8bc8659800086d87b0","B2","batch2","tol_trial_num","764.3000000119209","<div class = centerbox><p class = center-block-text>problem <strong>9</strong> out of 25 problems</p></div>","0","","","","","","","","","","","","","","","","","","","","","","","","","",""
"","","","","","single-stim-button","266","1034284","0.0-3.0-34.0-0.0","6033fd8bc8659800086d87b0","B2","batch2","tol_tohand","2585","","","","","","","","","tol_peg_1","2585","2585","0","[[3,0,0],[0,0],[1]]","1","[[2,1,0],[3,0],[0]]","8","0","","","","","","6","","","","",""
"","","","","","single-stim-button","267","1035218","0.0-3.0-34.0-1.0","6033fd8bc8659800086d87b0","B2","batch2","tol_toboard","933","","","","","","","","","tol_peg_2","933","933","0","[[3,0,0],[2,0],[1]]","1","[[2,1,0],[3,0],[0]]","8","0","","","","","","6","","","","",""
"","","","","","single-stim-button","268","1036226","0.0-3.0-34.1-0.1","6033fd8bc8659800086d87b0","B2","batch2","tol_tohand","1007","","","","","","","","","tol_peg_3","1007","1007","0","[[3,0,0],[2,0],[0]]","2","[[2,1,0],[3,0],[0]]","8","0","","","","","","6","","","","",""
"","","","","","single-stim-button","269","1039338","0.0-3.0-34.1-1.1","6033fd8bc8659800086d87b0","B2","batch2","tol_toboard","3111","","","","","","","","","tol_peg_2","3111","3111","0","[[3,0,0],[2,1],[0]]","2","[[2,1,0],[3,0],[0]]","8","0","","","","","","6","","","","",""
"","","","","","single-stim-button","270","1039955","0.0-3.0-34.2-0.2","6033fd8bc8659800086d87b0","B2","batch2","tol_tohand","615","","","","","","","","","tol_peg_1","615","615","0","[[0,0,0],[2,1],[0]]","3","[[2,1,0],[3,0],[0]]","8","0","","","","","","6","","","","",""
"","","","","","single-stim-button","271","1040994","0.0-3.0-34.2-1.2","6033fd8bc8659800086d87b0","B2","batch2","tol_toboard","1038","","","","","","","","","tol_peg_3","1038","1038","0","[[0,0,0],[2,1],[3]]","3","[[2,1,0],[3,0],[0]]","8","0","","","","","","6","","","","",""
"","","","","","single-stim-button","272","1044386","0.0-3.0-34.3-0.3","6033fd8bc8659800086d87b0","B2","batch2","tol_tohand","3390","","","","","","","","","tol_peg_2","3390","3390","0","[[0,0,0],[2,0],[3]]","4","[[2,1,0],[3,0],[0]]","8","0","","","","","","6","","","","",""
"","","","","","single-stim-button","273","1045642","0.0-3.0-34.3-1.3","6033fd8bc8659800086d87b0","B2","batch2","tol_toboard","1254","","","","","","","","","tol_peg_1","1254","1254","0","[[1,0,0],[2,0],[3]]","4","[[2,1,0],[3,0],[0]]","8","0","","","","","","6","","","","",""
"","","","","","single-stim-button","274","1046217","0.0-3.0-34.4-0.4","6033fd8bc8659800086d87b0","B2","batch2","tol_tohand","574","","","","","","","","","tol_peg_3","574","574","0","[[1,0,0],[2,0],[0]]","5","[[2,1,0],[3,0],[0]]","8","0","","","","","","6","","","","",""
"","","","","","single-stim-button","275","1046753","0.0-3.0-34.4-1.4","6033fd8bc8659800086d87b0","B2","batch2","tol_toboard","536","","","","","","","","","tol_peg_1","536","536","0","[[1,3,0],[2,0],[0]]","5","[[2,1,0],[3,0],[0]]","8","0","","","","","","6","","","","",""
"","","","","","single-stim-button","276","1047530","0.0-3.0-34.5-0.5","6033fd8bc8659800086d87b0","B2","batch2","tol_tohand","775","","","","","","","","","tol_peg_2","775","775","0","[[1,3,0],[0,0],[0]]","6","[[2,1,0],[3,0],[0]]","8","0","","","","","","6","","","","",""
"","","","","","single-stim-button","277","1047923","0.0-3.0-34.5-1.5","6033fd8bc8659800086d87b0","B2","batch2","tol_toboard","392","","","","","","","","","tol_peg_3","392","392","0","[[1,3,0],[0,0],[2]]","6","[[2,1,0],[3,0],[0]]","8","0","","","","","","6","","","","",""
"","","","","","single-stim-button","278","1048996","0.0-3.0-34.6-0.6","6033fd8bc8659800086d87b0","B2","batch2","tol_tohand","1072","","","","","","","","","tol_peg_1","1072","1072","0","[[1,0,0],[0,0],[2]]","7","[[2,1,0],[3,0],[0]]","8","0","","","","","","6","","","","",""
"","","","","","single-stim-button","279","1049564","0.0-3.0-34.6-1.6","6033fd8bc8659800086d87b0","B2","batch2","tol_toboard","566","","","","","","","","","tol_peg_2","566","566","0","[[1,0,0],[3,0],[2]]","7","[[2,1,0],[3,0],[0]]","8","0","","","","","","6","","","","",""
"","","","","","single-stim-button","280","1050114","0.0-3.0-34.7-0.7","6033fd8bc8659800086d87b0","B2","batch2","tol_tohand","548","","","","","","","","","tol_peg_1","548","548","0","[[0,0,0],[3,0],[2]]","8","[[2,1,0],[3,0],[0]]","8","0","","","","","","6","","","","",""
"","","","","","single-stim-button","281","1050587","0.0-3.0-34.7-1.7","6033fd8bc8659800086d87b0","B2","batch2","tol_toboard","472","","","","","","","","","tol_peg_2","472","472","0","[[0,0,0],[3,1],[2]]","8","[[2,1,0],[3,0],[0]]","8","0","","","","","","6","","","","",""
"","","","","","single-stim-button","282","1051050","0.0-3.0-34.8-0.8","6033fd8bc8659800086d87b0","B2","batch2","tol_tohand","463","","","","","","","","","tol_peg_3","463","463","0","[[0,0,0],[3,1],[0]]","9","[[2,1,0],[3,0],[0]]","8","0","","","","","","6","","","","",""
"","","","","","single-stim-button","283","1051482","0.0-3.0-34.8-1.8","6033fd8bc8659800086d87b0","B2","batch2","tol_toboard","430","","","","","","","","","tol_peg_1","430","430","0","[[2,0,0],[3,1],[0]]","9","[[2,1,0],[3,0],[0]]","8","0","","","","","","6","","","","",""
"","","","","","single-stim-button","284","1052268","0.0-3.0-34.9-0.9","6033fd8bc8659800086d87b0","B2","batch2","tol_tohand","784","","","","","","","","","tol_peg_2","784","784","0","[[2,0,0],[3,0],[0]]","10","[[2,1,0],[3,0],[0]]","8","0","","","","","","6","","","","",""
"","","","","","single-stim-button","285","1052729","0.0-3.0-34.9-1.9","6033fd8bc8659800086d87b0","B2","batch2","tol_toboard","461","","","","","","","","","tol_peg_1","461","461","0","[[2,1,0],[3,0],[0]]","10","[[2,1,0],[3,0],[0]]","8","0","","","","","","6","","","","",""
"","","","","","poldrack-single-stim","286","1053746","0.0-3.0-35.0","6033fd8bc8659800086d87b0","B2","batch2","tol_feedback","-1","","","","","true","","","","","1000","1000","500","","","","","","-1","none","true","2585","11813","","","","","",""
"","","","","","html-button-response","287","1055676","0.0-3.0-36.0","6033fd8bc8659800086d87b0","B2","batch2","tol_trial_num","1928.5","<div class = centerbox><p class = center-block-text>problem <strong>10</strong> out of 25 problems</p></div>","0","","","","","","","","","","","","","","","","","","","","","","","","","",""
"","","","","","single-stim-button","288","1110480","0.0-3.0-37.0-0.0","6033fd8bc8659800086d87b0","B2","batch2","tol_tohand","54803","","","","","","","","","tol_peg_2","54803","54803","0","[[3,0,0],[0,0],[2]]","1","[[3,0,0],[2,1],[0]]","9","0","","","","","","3","","","","",""
"","","","","","single-stim-button","289","1111210","0.0-3.0-37.0-1.0","6033fd8bc8659800086d87b0","B2","batch2","tol_toboard","729","","","","","","","","","tol_peg_1","729","729","0","[[3,1,0],[0,0],[2]]","1","[[3,0,0],[2,1],[0]]","9","0","","","","","","3","","","","",""
"","","","","","single-stim-button","290","1112171","0.0-3.0-37.1-0.1","6033fd8bc8659800086d87b0","B2","batch2","tol_tohand","960","","","","","","","","","tol_peg_3","960","960","0","[[3,1,0],[0,0],[0]]","2","[[3,0,0],[2,1],[0]]","9","0","","","","","","3","","","","",""
"","","","","","single-stim-button","291","1112730","0.0-3.0-37.1-1.1","6033fd8bc8659800086d87b0","B2","batch2","tol_toboard","558","","","","","","","","","tol_peg_2","558","558","0","[[3,1,0],[2,0],[0]]","2","[[3,0,0],[2,1],[0]]","9","0","","","","","","3","","","","",""
"","","","","","single-stim-button","292","1113338","0.0-3.0-37.2-0.2","6033fd8bc8659800086d87b0","B2","batch2","tol_tohand","608","","","","","","","","","tol_peg_1","608","608","0","[[3,0,0],[2,0],[0]]","3","[[3,0,0],[2,1],[0]]","9","0","","","","","","3","","","","",""
"","","","","","single-stim-button","293","1114187","0.0-3.0-37.2-1.2","6033fd8bc8659800086d87b0","B2","batch2","tol_toboard","847","","","","","","","","","tol_peg_2","847","847","0","[[3,0,0],[2,1],[0]]","3","[[3,0,0],[2,1],[0]]","9","0","","","","","","3","","","","",""
"","","","","","poldrack-single-stim","294","1115189","0.0-3.0-38.0","6033fd8bc8659800086d87b0","B2","batch2","tol_feedback","-1","","","","","true","","","","","1000","1000","500","","","","","","-1","none","true","54803","56371","","","","","",""
"","","","","","html-button-response","295","1116129","0.0-3.0-39.0","6033fd8bc8659800086d87b0","B2","batch2","tol_trial_num","938.8000000119209","<div class = centerbox><p class = center-block-text>problem <strong>11</strong> out of 25 problems</p></div>","0","","","","","","","","","","","","","","","","","","","","","","","","","",""
"","","","","","single-stim-button","296","1119962","0.0-3.0-40.0-0.0","6033fd8bc8659800086d87b0","B2","batch2","tol_tohand","3832","","","","","","","","","tol_peg_1","3832","3832","0","[[1,0,0],[3,0],[0]]","1","[[2,0,0],[1,3],[0]]","10","0","","","","","","6","","","","",""
"","","","","","single-stim-button","297","1120682","0.0-3.0-40.0-1.0","6033fd8bc8659800086d87b0","B2","batch2","tol_toboard","719","","","","","","","","","tol_peg_2","719","719","0","[[1,0,0],[3,2],[0]]","1","[[2,0,0],[1,3],[0]]","10","0","","","","","","6","","","","",""
"","","","","","single-stim-button","298","1121322","0.0-3.0-40.1-0.1","6033fd8bc8659800086d87b0","B2","batch2","tol_tohand","639","","","","","","","","","tol_peg_1","639","639","0","[[0,0,0],[3,2],[0]]","2","[[2,0,0],[1,3],[0]]","10","0","","","","","","6","","","","",""
"","","","","","single-stim-button","299","1122121","0.0-3.0-40.1-1.1","6033fd8bc8659800086d87b0","B2","batch2","tol_toboard","798","","","","","","","","","tol_peg_3","798","798","0","[[0,0,0],[3,2],[1]]","2","[[2,0,0],[1,3],[0]]","10","0","","","","","","6","","","","",""
"","","","","","single-stim-button","300","1122627","0.0-3.0-40.2-0.2","6033fd8bc8659800086d87b0","B2","batch2","tol_tohand","504","","","","","","","","","tol_peg_2","504","504","0","[[0,0,0],[3,0],[1]]","3","[[2,0,0],[1,3],[0]]","10","0","","","","","","6","","","","",""
"","","","","","single-stim-button","301","1122939","0.0-3.0-40.2-1.2","6033fd8bc8659800086d87b0","B2","batch2","tol_toboard","310","","","","","","","","","tol_peg_1","310","310","0","[[2,0,0],[3,0],[1]]","3","[[2,0,0],[1,3],[0]]","10","0","","","","","","6","","","","",""
"","","","","","single-stim-button","302","1123744","0.0-3.0-40.3-0.3","6033fd8bc8659800086d87b0","B2","batch2","tol_tohand","804","","","","","","","","","tol_peg_2","804","804","0","[[2,0,0],[0,0],[1]]","4","[[2,0,0],[1,3],[0]]","10","0","","","","","","6","","","","",""
"","","","","","single-stim-button","303","1124330","0.0-3.0-40.3-1.3","6033fd8bc8659800086d87b0","B2","batch2","tol_toboard","585","","","","","","","","","tol_peg_1","585","585","0","[[2,3,0],[0,0],[1]]","4","[[2,0,0],[1,3],[0]]","10","0","","","","","","6","","","","",""
"","","","","","single-stim-button","304","1125122","0.0-3.0-40.4-0.4","6033fd8bc8659800086d87b0","B2","batch2","tol_tohand","791","","","","","","","","","tol_peg_3","791","791","0","[[2,3,0],[0,0],[0]]","5","[[2,0,0],[1,3],[0]]","10","0","","","","","","6","","","","",""
"","","","","","single-stim-button","305","1125595","0.0-3.0-40.4-1.4","6033fd8bc8659800086d87b0","B2","batch2","tol_toboard","472","","","","","","","","","tol_peg_2","472","472","0","[[2,3,0],[1,0],[0]]","5","[[2,0,0],[1,3],[0]]","10","0","","","","","","6","","","","",""
"","","","","","single-stim-button","306","1125841","0.0-3.0-40.5-0.5","6033fd8bc8659800086d87b0","B2","batch2","tol_tohand","245","","","","","","","","","tol_peg_2","245","245","0","[[2,3,0],[0,0],[0]]","6","[[2,0,0],[1,3],[0]]","10","0","","","","","","6","","","","",""
"","","","","","single-stim-button","307","1126258","0.0-3.0-40.5-1.5","6033fd8bc8659800086d87b0","B2","batch2","tol_toboard","417","","","","","","","","","tol_peg_1","417","417","0","[[2,3,1],[0,0],[0]]","6","[[2,0,0],[1,3],[0]]","10","0","","","","","","6","","","","",""
"","","","","","single-stim-button","308","1127194","0.0-3.0-40.6-0.6","6033fd8bc8659800086d87b0","B2","batch2","tol_tohand","934","","","","","","","","","tol_peg_1","934","934","0","[[2,3,0],[0,0],[0]]","7","[[2,0,0],[1,3],[0]]","10","0","","","","","","6","","","","",""
"","","","","","single-stim-button","309","1127721","0.0-3.0-40.6-1.6","6033fd8bc8659800086d87b0","B2","batch2","tol_toboard","527","","","","","","","","","tol_peg_2","527","527","0","[[2,3,0],[1,0],[0]]","7","[[2,0,0],[1,3],[0]]","10","0","","","","","","6","","","","",""
"","","","","","single-stim-button","310","1128171","0.0-3.0-40.7-0.7","6033fd8bc8659800086d87b0","B2","batch2","tol_tohand","448","","","","","","","","","tol_peg_1","448","448","0","[[2,0,0],[1,0],[0]]","8","[[2,0,0],[1,3],[0]]","10","0","","","","","","6","","","","",""
"","","","","","single-stim-button","311","1128825","0.0-3.0-40.7-1.7","6033fd8bc8659800086d87b0","B2","batch2","tol_toboard","653","","","","","","","","","tol_peg_2","653","653","0","[[2,0,0],[1,3],[0]]","8","[[2,0,0],[1,3],[0]]","10","0","","","","","","6","","","","",""
"","","","","","poldrack-single-stim","312","1129828","0.0-3.0-41.0","6033fd8bc8659800086d87b0","B2","batch2","tol_feedback","-1","","","","","true","","","","","1000","1000","500","","","","","","-1","none","true","3832","8197","","","","","",""
"","","","","","html-button-response","313","1130506","0.0-3.0-42.0","6033fd8bc8659800086d87b0","B2","batch2","tol_trial_num","676.5999999940395","<div class = centerbox><p class = center-block-text>problem <strong>12</strong> out of 25 problems</p></div>","0","","","","","","","","","","","","","","","","","","","","","","","","","",""
"","","","","","single-stim-button","314","1132329","0.0-3.0-43.0-0.0","6033fd8bc8659800086d87b0","B2","batch2","tol_tohand","1822","","","","","","","","","tol_peg_1","1822","1822","0","[[1,0,0],[3,0],[0]]","1","[[2,3,0],[0,0],[1]]","11","0","","","","","","4","","","","",""
"","","","","","single-stim-button","315","1133657","0.0-3.0-43.0-1.0","6033fd8bc8659800086d87b0","B2","batch2","tol_toboard","1327","","","","","","","","","tol_peg_2","1327","1327","0","[[1,0,0],[3,2],[0]]","1","[[2,3,0],[0,0],[1]]","11","0","","","","","","4","","","","",""
"","","","","","single-stim-button","316","1134434","0.0-3.0-43.1-0.1","6033fd8bc8659800086d87b0","B2","batch2","tol_tohand","776","","","","","","","","","tol_peg_1","776","776","0","[[0,0,0],[3,2],[0]]","2","[[2,3,0],[0,0],[1]]","11","0","","","","","","4","","","","",""
"","","","","","single-stim-button","317","1135057","0.0-3.0-43.1-1.1","6033fd8bc8659800086d87b0","B2","batch2","tol_toboard","621","","","","","","","","","tol_peg_3","621","621","0","[[0,0,0],[3,2],[1]]","2","[[2,3,0],[0,0],[1]]","11","0","","","","","","4","","","","",""
"","","","","","single-stim-button","318","1135929","0.0-3.0-43.2-0.2","6033fd8bc8659800086d87b0","B2","batch2","tol_tohand","872","","","","","","","","","tol_peg_2","872","872","0","[[0,0,0],[3,0],[1]]","3","[[2,3,0],[0,0],[1]]","11","0","","","","","","4","","","","",""
"","","","","","single-stim-button","319","1136514","0.0-3.0-43.2-1.2","6033fd8bc8659800086d87b0","B2","batch2","tol_toboard","584","","","","","","","","","tol_peg_1","584","584","0","[[2,0,0],[3,0],[1]]","3","[[2,3,0],[0,0],[1]]","11","0","","","","","","4","","","","",""
"","","","","","single-stim-button","320","1136995","0.0-3.0-43.3-0.3","6033fd8bc8659800086d87b0","B2","batch2","tol_tohand","479","","","","","","","","","tol_peg_2","479","479","0","[[2,0,0],[0,0],[1]]","4","[[2,3,0],[0,0],[1]]","11","0","","","","","","4","","","","",""
"","","","","","single-stim-button","321","1137498","0.0-3.0-43.3-1.3","6033fd8bc8659800086d87b0","B2","batch2","tol_toboard","502","","","","","","","","","tol_peg_1","502","502","0","[[2,3,0],[0,0],[1]]","4","[[2,3,0],[0,0],[1]]","11","0","","","","","","4","","","","",""
"","","","","","poldrack-single-stim","322","1138501","0.0-3.0-44.0","6033fd8bc8659800086d87b0","B2","batch2","tol_feedback","-1","","","","","true","","","","","1000","1000","500","","","","","","-1","none","true","1822","3949","","","","","",""
"","","","","","html-button-response","323","1139161","0.0-3.0-45.0","6033fd8bc8659800086d87b0","B2","batch2","tol_trial_num","658.9000000059605","<div class = centerbox><p class = center-block-text>problem <strong>13</strong> out of 25 problems</p></div>","0","","","","","","","","","","","","","","","","","","","","","","","","","",""
"","","","","","single-stim-button","324","1142793","0.0-3.0-46.0-0.0","6033fd8bc8659800086d87b0","B2","batch2","tol_tohand","3632","","","","","","","","","tol_peg_1","3632","3632","0","[[1,0,0],[3,0],[0]]","1","[[0,0,0],[2,3],[1]]","12","0","","","","","","4","","","","",""
"","","","","","single-stim-button","325","1143970","0.0-3.0-46.0-1.0","6033fd8bc8659800086d87b0","B2","batch2","tol_toboard","1175","","","","","","","","","tol_peg_2","1175","1175","0","[[1,0,0],[3,2],[0]]","1","[[0,0,0],[2,3],[1]]","12","0","","","","","","4","","","","",""
"","","","","","single-stim-button","326","1144377","0.0-3.0-46.1-0.1","6033fd8bc8659800086d87b0","B2","batch2","tol_tohand","406","","","","","","","","","tol_peg_1","406","406","0","[[0,0,0],[3,2],[0]]","2","[[0,0,0],[2,3],[1]]","12","0","","","","","","4","","","","",""
"","","","","","single-stim-button","327","1145217","0.0-3.0-46.1-1.1","6033fd8bc8659800086d87b0","B2","batch2","tol_toboard","838","","","","","","","","","tol_peg_3","838","838","0","[[0,0,0],[3,2],[1]]","2","[[0,0,0],[2,3],[1]]","12","0","","","","","","4","","","","",""
"","","","","","single-stim-button","328","1146635","0.0-3.0-46.2-0.2","6033fd8bc8659800086d87b0","B2","batch2","tol_tohand","1418","","","","","","","","","tol_peg_2","1418","1418","0","[[0,0,0],[3,0],[1]]","3","[[0,0,0],[2,3],[1]]","12","0","","","","","","4","","","","",""
"","","","","","single-stim-button","329","1147082","0.0-3.0-46.2-1.2","6033fd8bc8659800086d87b0","B2","batch2","tol_toboard","445","","","","","","","","","tol_peg_1","445","445","0","[[2,0,0],[3,0],[1]]","3","[[0,0,0],[2,3],[1]]","12","0","","","","","","4","","","","",""
"","","","","","single-stim-button","330","1147689","0.0-3.0-46.3-0.3","6033fd8bc8659800086d87b0","B2","batch2","tol_tohand","606","","","","","","","","","tol_peg_2","606","606","0","[[2,0,0],[0,0],[1]]","4","[[0,0,0],[2,3],[1]]","12","0","","","","","","4","","","","",""
"","","","","","single-stim-button","331","1148201","0.0-3.0-46.3-1.3","6033fd8bc8659800086d87b0","B2","batch2","tol_toboard","511","","","","","","","","","tol_peg_1","511","511","0","[[2,3,0],[0,0],[1]]","4","[[0,0,0],[2,3],[1]]","12","0","","","","","","4","","","","",""
"","","","","","single-stim-button","332","1149793","0.0-3.0-46.4-0.4","6033fd8bc8659800086d87b0","B2","batch2","tol_tohand","1591","","","","","","","","","tol_peg_1","1591","1591","0","[[2,0,0],[0,0],[1]]","5","[[0,0,0],[2,3],[1]]","12","0","","","","","","4","","","","",""
"","","","","","single-stim-button","333","1150626","0.0-3.0-46.4-1.4","6033fd8bc8659800086d87b0","B2","batch2","tol_toboard","832","","","","","","","","","tol_peg_1","832","832","0","[[2,3,0],[0,0],[1]]","5","[[0,0,0],[2,3],[1]]","12","0","","","","","","4","","","","",""
"","","","","","single-stim-button","334","1151345","0.0-3.0-46.5-0.5","6033fd8bc8659800086d87b0","B2","batch2","tol_tohand","718","","","","","","","","","tol_peg_1","718","718","0","[[2,0,0],[0,0],[1]]","6","[[0,0,0],[2,3],[1]]","12","0","","","","","","4","","","","",""
"","","","","","single-stim-button","335","1151969","0.0-3.0-46.5-1.5","6033fd8bc8659800086d87b0","B2","batch2","tol_toboard","622","","","","","","","","","tol_peg_1","622","622","0","[[2,3,0],[0,0],[1]]","6","[[0,0,0],[2,3],[1]]","12","0","","","","","","4","","","","",""
"","","","","","single-stim-button","336","1152515","0.0-3.0-46.6-0.6","6033fd8bc8659800086d87b0","B2","batch2","tol_tohand","544","","","","","","","","","tol_peg_1","544","544","0","[[2,0,0],[0,0],[1]]","7","[[0,0,0],[2,3],[1]]","12","0","","","","","","4","","","","",""
"","","","","","single-stim-button","337","1157146","0.0-3.0-46.6-1.6","6033fd8bc8659800086d87b0","B2","batch2","tol_toboard","4629","","","","","","","","","tol_peg_2","4629","4629","0","[[2,0,0],[3,0],[1]]","7","[[0,0,0],[2,3],[1]]","12","0","","","","","","4","","","","",""
"","","","","","single-stim-button","338","1158026","0.0-3.0-46.7-0.7","6033fd8bc8659800086d87b0","B2","batch2","tol_tohand","878","","","","","","","","","tol_peg_1","878","878","0","[[0,0,0],[3,0],[1]]","8","[[0,0,0],[2,3],[1]]","12","0","","","","","","4","","","","",""
"","","","","","single-stim-button","339","1159145","0.0-3.0-46.7-1.7","6033fd8bc8659800086d87b0","B2","batch2","tol_toboard","1119","","","","","","","","","tol_peg_2","1119","1119","0","[[0,0,0],[3,2],[1]]","8","[[0,0,0],[2,3],[1]]","12","0","","","","","","4","","","","",""
"","","","","","single-stim-button","340","1159617","0.0-3.0-46.8-0.8","6033fd8bc8659800086d87b0","B2","batch2","tol_tohand","470","","","","","","","","","tol_peg_3","470","470","0","[[0,0,0],[3,2],[0]]","9","[[0,0,0],[2,3],[1]]","12","0","","","","","","4","","","","",""
"","","","","","single-stim-button","341","1160282","0.0-3.0-46.8-1.8","6033fd8bc8659800086d87b0","B2","batch2","tol_toboard","663","","","","","","","","","tol_peg_1","663","663","0","[[1,0,0],[3,2],[0]]","9","[[0,0,0],[2,3],[1]]","12","0","","","","","","4","","","","",""
"","","","","","single-stim-button","342","1160864","0.0-3.0-46.9-0.9","6033fd8bc8659800086d87b0","B2","batch2","tol_tohand","581","","","","","","","","","tol_peg_2","581","581","0","[[1,0,0],[3,0],[0]]","10","[[0,0,0],[2,3],[1]]","12","0","","","","","","4","","","","",""
"","","","","","single-stim-button","343","1161425","0.0-3.0-46.9-1.9","6033fd8bc8659800086d87b0","B2","batch2","tol_toboard","559","","","","","","","","","tol_peg_3","559","559","0","[[1,0,0],[3,0],[2]]","10","[[0,0,0],[2,3],[1]]","12","0","","","","","","4","","","","",""
"","","","","","single-stim-button","344","1161808","0.0-3.0-46.10-0.10","6033fd8bc8659800086d87b0","B2","batch2","tol_tohand","382","","","","","","","","","tol_peg_2","382","382","0","[[1,0,0],[0,0],[2]]","11","[[0,0,0],[2,3],[1]]","12","0","","","","","","4","","","","",""
"","","","","","single-stim-button","345","1162416","0.0-3.0-46.10-1.10","6033fd8bc8659800086d87b0","B2","batch2","tol_toboard","607","","","","","","","","","tol_peg_1","607","607","0","[[1,3,0],[0,0],[2]]","11","[[0,0,0],[2,3],[1]]","12","0","","","","","","4","","","","",""
"","","","","","single-stim-button","346","1163834","0.0-3.0-46.11-0.11","6033fd8bc8659800086d87b0","B2","batch2","tol_tohand","1418","","","","","","","","","tol_peg_3","1418","1418","0","[[1,3,0],[0,0],[0]]","12","[[0,0,0],[2,3],[1]]","12","0","","","","","","4","","","","",""
"","","","","","single-stim-button","347","1164424","0.0-3.0-46.11-1.11","6033fd8bc8659800086d87b0","B2","batch2","tol_toboard","588","","","","","","","","","tol_peg_2","588","588","0","[[1,3,0],[2,0],[0]]","12","[[0,0,0],[2,3],[1]]","12","0","","","","","","4","","","","",""
"","","","","","single-stim-button","348","1164857","0.0-3.0-46.12-0.12","6033fd8bc8659800086d87b0","B2","batch2","tol_tohand","433","","","","","","","","","tol_peg_1","433","433","0","[[1,0,0],[2,0],[0]]","13","[[0,0,0],[2,3],[1]]","12","0","","","","","","4","","","","",""
"","","","","","single-stim-button","349","1165433","0.0-3.0-46.12-1.12","6033fd8bc8659800086d87b0","B2","batch2","tol_toboard","574","","","","","","","","","tol_peg_2","574","574","0","[[1,0,0],[2,3],[0]]","13","[[0,0,0],[2,3],[1]]","12","0","","","","","","4","","","","",""
"","","","","","single-stim-button","350","1168333","0.0-3.0-46.13-0.13","6033fd8bc8659800086d87b0","B2","batch2","tol_tohand","2899","","","","","","","","","tol_peg_1","2899","2899","0","[[0,0,0],[2,3],[0]]","14","[[0,0,0],[2,3],[1]]","12","0","","","","","","4","","","","",""
"","","","","","single-stim-button","351","1168905","0.0-3.0-46.13-1.13","6033fd8bc8659800086d87b0","B2","batch2","tol_toboard","572","","","","","","","","","tol_peg_3","572","572","0","[[0,0,0],[2,3],[1]]","14","[[0,0,0],[2,3],[1]]","12","0","","","","","","4","","","","",""
"","","","","","poldrack-single-stim","352","1169908","0.0-3.0-47.0","6033fd8bc8659800086d87b0","B2","batch2","tol_feedback","-1","","","","","true","","","","","1000","1000","500","","","","","","-1","none","true","3632","15976","","","","","",""
"","","","","","html-button-response","353","1175133","0.0-3.0-48.0","6033fd8bc8659800086d87b0","B2","batch2","attention_check","5223.5999999940395","<p class = block-text>How many balls are in your board<br></p>","1","","","true","","","","","","","","","","","","","","","","","","","","","","",""
"","","","","","html-button-response","354","1176041","0.0-3.0-49.0","6033fd8bc8659800086d87b0","B2","batch2","tol_trial_num","906.3000000119209","<div class = centerbox><p class = center-block-text>problem <strong>14</strong> out of 25 problems</p></div>","0","","","","","","","","","","","","","","","","","","","","","","","","","",""
