"success","timeout","failed_images","failed_audio","failed_video","trial_type","trial_index","time_elapsed","internal_node_id","subject_id","study_id","session_id","view_history","rt","task","stimulus","response","correct","mouse_click","stim_duration","block_duration","timing_post_trial","current_position","tol_num_moves_made","tol_target","tol_problem_id","tol_rt","key_press","possible_responses","tol_correct","preplanning","tol_rt_per_trial","tol_min_moves","item","answer","spm_correct","spm_rt","fiar_detect_rt","fiar_detect_correct","total_correct_fiar_detect","post_trial_gap","choices"
"true","false","[]","[]","[]","preload","0","22506","0.0-0.0","60368a80844cd3d1a83d0123","C3","batch3","","","","","","","","","","","","","","","","","","","","","","","","","","","","","",""
"true","","","","","fullscreen","1","28834","0.0-1.0-0.0","60368a80844cd3d1a83d0123","C3","batch3","","","","","","","","","","","","","","","","","","","","","","","","","","","","","",""
"true","","","","","fullscreen","2","32071","0.0-2.0-0.0","60368a80844cd3d1a83d0123","C3","batch3","","","","","","","","","","","","","","","","","","","","","","","","","","","","","",""
"","","","","","instructions","3","78130","0.0-2.0-1.0-0.0-0.0","60368a80844cd3d1a83d0123","C3","batch3","[{""page_index"":0,""viewing_time"":10010.89999961853},{""page_index"":1,""viewing_time"":5120.800000190735},{""page_index"":2,""viewing_time"":2339.0999994277954},{""page_index"":3,""viewing_time"":9097.800000190735},{""page_index"":4,""viewing_time"":7906.199999809265},{""page_index"":5,""viewing_time"":8610.20000076294},{""page_index"":6,""viewing_time"":2973.5}]","46058.89999961853","tol-instructions","","","","","","","","","","","","","","","","","","","","","","","","","","",""
"","","","","","html-button-response","4","79010","0.0-2.0-1.0-1.0-0.0","60368a80844cd3d1a83d0123","C3","batch3","","878.6999998092651","tol_enter_quiz","<p class=block-text> Let's answer a few questions <br>","0","","","","","","","","","","","","","","","","","","","","","","","","",""
"","","","","","html-button-response","5","82209","0.0-2.0-1.0-1.0-1.0","60368a80844cd3d1a83d0123","C3","batch3","","3197.300000190735","tol_quiz","<p class = block-text>True or False: You can only move the ball on top of a peg. <br></p>","0","true","","","","","","","","","","","","","","","","","","","","","","","",""
"","","","","","html-button-response","6","83195","0.0-2.0-1.0-1.0-2.0","60368a80844cd3d1a83d0123","C3","batch3","","984.3000001907349","tol_quiz_feedback","<p class = block-text>Correct! You can only move the ball on top of a peg.</p>","0","","","","","","","","","","","","","","","","","","","","","","","","",""
"","","","","","html-button-response","7","85951","0.0-2.0-1.0-1.0-3.0","60368a80844cd3d1a83d0123","C3","batch3","","2755","tol_quiz","<p class = block-text>True or False: You should try to match your board with the target board with fewest moves possible. <br></p>","0","true","","","","","","","","","","","","","","","","","","","","","","","",""
"","","","","","html-button-response","8","86623","0.0-2.0-1.0-1.0-4.0","60368a80844cd3d1a83d0123","C3","batch3","","670.5999994277954","tol_quiz_feedback","<p class = block-text>Correct! </p>","0","","","","","","","","","","","","","","","","","","","","","","","","",""
"","","","","","html-button-response","9","87953","0.0-2.0-2.0","60368a80844cd3d1a83d0123","C3","batch3","","1328.5","","<p class=block-text> Now that you've understood the game, let's practice a few easier examples before we start!<br> <br>","0","","","","","","","","","","","","","","","","","","","","","","","","",""
"","","","","","single-stim-button","10","89790","0.0-2.0-3.0-0.0","60368a80844cd3d1a83d0123","C3","batch3","","1835","tol_practice","","","","tol_peg_2","1835","1835","0","[[1,2,0],[0,0],[0]]","1","[[1,2,0],[0,0],[3]]","practice","1835","","","","","","","","","","","","","","",""
"","","","","","single-stim-button","11","90965","0.0-2.0-3.0-1.0","60368a80844cd3d1a83d0123","C3","batch3","","1173","tol_practice","","","","tol_peg_3","1173","1173","0","[[1,2,0],[0,0],[3]]","1","[[1,2,0],[0,0],[3]]","practice","1173","","","","","","","","","","","","","","",""
"","","","","","poldrack-single-stim","12","91974","0.0-2.0-4.0","60368a80844cd3d1a83d0123","C3","batch3","","-1","tol_feedback","","","true","","1000","1000","500","","","","","","-1","none","true","","0","","","","","","","","","",""
"","","","","","single-stim-button","13","95339","0.0-2.0-5.0-0.0","60368a80844cd3d1a83d0123","C3","batch3","","3363","tol_practice","","","","tol_peg_1","3363","3363","0","[[1,0,0],[3,0],[0]]","2","[[0,0,0],[3,1],[2]]","practice","3363","","","","","","","","","","","","","","",""
"","","","","","single-stim-button","14","96525","0.0-2.0-5.0-1.0","60368a80844cd3d1a83d0123","C3","batch3","","1186","tol_practice","","","","tol_peg_3","1186","1186","0","[[1,0,0],[3,0],[2]]","2","[[0,0,0],[3,1],[2]]","practice","1186","","","","","","","","","","","","","","",""
"","","","","","single-stim-button","15","97181","0.0-2.0-5.1-0.1","60368a80844cd3d1a83d0123","C3","batch3","","655","tol_practice","","","","tol_peg_1","655","655","0","[[0,0,0],[3,0],[2]]","3","[[0,0,0],[3,1],[2]]","practice","655","","","","","","","","","","","","","","",""
"","","","","","single-stim-button","16","97887","0.0-2.0-5.1-1.1","60368a80844cd3d1a83d0123","C3","batch3","","705","tol_practice","","","","tol_peg_2","705","705","0","[[0,0,0],[3,1],[2]]","3","[[0,0,0],[3,1],[2]]","practice","705","","","","","","","","","","","","","","",""
"","","","","","poldrack-single-stim","17","98889","0.0-2.0-6.0","60368a80844cd3d1a83d0123","C3","batch3","","-1","tol_feedback","","","true","","1000","1000","500","","","","","","-1","none","true","","0","","","","","","","","","",""
"","","","","","single-stim-button","18","101482","0.0-2.0-7.0-0.0","60368a80844cd3d1a83d0123","C3","batch3","","2592","tol_practice","","","","tol_peg_2","2592","2592","0","[[1,2,0],[0,0],[0]]","4","[[1,0,0],[2,0],[3]]","practice","2592","","","","","","","","","","","","","","",""
"","","","","","single-stim-button","19","102204","0.0-2.0-7.0-1.0","60368a80844cd3d1a83d0123","C3","batch3","","721","tol_practice","","","","tol_peg_3","721","721","0","[[1,2,0],[0,0],[3]]","4","[[1,0,0],[2,0],[3]]","practice","721","","","","","","","","","","","","","","",""
"","","","","","single-stim-button","20","102797","0.0-2.0-7.1-0.1","60368a80844cd3d1a83d0123","C3","batch3","","591","tol_practice","","","","tol_peg_1","591","591","0","[[1,0,0],[0,0],[3]]","5","[[1,0,0],[2,0],[3]]","practice","591","","","","","","","","","","","","","","",""
"","","","","","single-stim-button","21","103487","0.0-2.0-7.1-1.1","60368a80844cd3d1a83d0123","C3","batch3","","690","tol_practice","","","","tol_peg_2","690","690","0","[[1,0,0],[2,0],[3]]","5","[[1,0,0],[2,0],[3]]","practice","690","","","","","","","","","","","","","","",""
"","","","","","poldrack-single-stim","22","104495","0.0-2.0-8.0","60368a80844cd3d1a83d0123","C3","batch3","","-1","tol_feedback","","","true","","1000","1000","500","","","","","","-1","none","true","","0","","","","","","","","","",""
"","","","","","html-button-response","23","106016","0.0-2.0-9.0","60368a80844cd3d1a83d0123","C3","batch3","","1520.4000005722046","tol_instruction","<div class = centerbox><p class = center-block-text>Great job! You are done with practice trials<br>You are about to start official trials.<br> <br> Problem <strong>1</strong> out of 25 problems</p></div>","0","","","","","","","","","","","","","","","","","","","","","","","","",""
"","","","","","single-stim-button","24","114417","0.0-2.0-10.0-0.0","60368a80844cd3d1a83d0123","C3","batch3","","7396","tol_tohand","","","","tol_peg_2","7396","7396","0","[[1,2,0],[0,0],[0]]","1","[[1,3,0],[2,0],[0]]","0","0","","","","","","3","","","","","","","","",""
"","","","","","single-stim-button","25","115088","0.0-2.0-10.0-1.0","60368a80844cd3d1a83d0123","C3","batch3","","670","tol_toboard","","","","tol_peg_3","670","670","0","[[1,2,0],[0,0],[3]]","1","[[1,3,0],[2,0],[0]]","0","0","","","","","","3","","","","","","","","",""
"","","","","","single-stim-button","26","116235","0.0-2.0-10.1-0.1","60368a80844cd3d1a83d0123","C3","batch3","","1146","tol_tohand","","","","tol_peg_1","1146","1146","0","[[1,0,0],[0,0],[3]]","2","[[1,3,0],[2,0],[0]]","0","0","","","","","","3","","","","","","","","",""
"","","","","","single-stim-button","27","118093","0.0-2.0-10.1-1.1","60368a80844cd3d1a83d0123","C3","batch3","","1858","tol_toboard","","","","tol_peg_2","1858","1858","0","[[1,0,0],[2,0],[3]]","2","[[1,3,0],[2,0],[0]]","0","0","","","","","","3","","","","","","","","",""
"","","","","","single-stim-button","28","118589","0.0-2.0-10.2-0.2","60368a80844cd3d1a83d0123","C3","batch3","","495","tol_tohand","","","","tol_peg_3","495","495","0","[[1,0,0],[2,0],[0]]","3","[[1,3,0],[2,0],[0]]","0","0","","","","","","3","","","","","","","","",""
"","","","","","single-stim-button","29","119327","0.0-2.0-10.2-1.2","60368a80844cd3d1a83d0123","C3","batch3","","738","tol_toboard","","","","tol_peg_1","738","738","0","[[1,3,0],[2,0],[0]]","3","[[1,3,0],[2,0],[0]]","0","0","","","","","","3","","","","","","","","",""
"","","","","","poldrack-single-stim","30","120331","0.0-2.0-11.0","60368a80844cd3d1a83d0123","C3","batch3","","-1","tol_feedback","","","true","","1000","1000","500","","","","","","-1","none","true","7396","9037","","","","","","","","","",""
"","","","","","html-button-response","31","121129","0.0-2.0-12.0","60368a80844cd3d1a83d0123","C3","batch3","","796.6000003814697","tol_trial_num","<div class = centerbox><p class = center-block-text>problem <strong>2</strong> out of 25 problems</p></div>","0","","","","","","","","","","","","","","","","","","","","","","","","",""
"","","","","","single-stim-button","32","125665","0.0-2.0-13.0-0.0","60368a80844cd3d1a83d0123","C3","batch3","","4535","tol_tohand","","","","tol_peg_1","4535","4535","0","[[1,0,0],[3,0],[0]]","1","[[2,1,3],[0,0],[0]]","1","0","","","","","","5","","","","","","","","",""
"","","","","","single-stim-button","33","126273","0.0-2.0-13.0-1.0","60368a80844cd3d1a83d0123","C3","batch3","","607","tol_toboard","","","","tol_peg_3","607","607","0","[[1,0,0],[3,0],[2]]","1","[[2,1,3],[0,0],[0]]","1","0","","","","","","5","","","","","","","","",""
"","","","","","single-stim-button","34","130337","0.0-2.0-13.1-0.1","60368a80844cd3d1a83d0123","C3","batch3","","4063","tol_tohand","","","","tol_peg_1","4063","4063","0","[[0,0,0],[3,0],[2]]","2","[[2,1,3],[0,0],[0]]","1","0","","","","","","5","","","","","","","","",""
"","","","","","single-stim-button","35","130881","0.0-2.0-13.1-1.1","60368a80844cd3d1a83d0123","C3","batch3","","542","tol_toboard","","","","tol_peg_2","542","542","0","[[0,0,0],[3,1],[2]]","2","[[2,1,3],[0,0],[0]]","1","0","","","","","","5","","","","","","","","",""
"","","","","","single-stim-button","36","131524","0.0-2.0-13.2-0.2","60368a80844cd3d1a83d0123","C3","batch3","","643","tol_tohand","","","","tol_peg_3","643","643","0","[[0,0,0],[3,1],[0]]","3","[[2,1,3],[0,0],[0]]","1","0","","","","","","5","","","","","","","","",""
"","","","","","single-stim-button","37","133493","0.0-2.0-13.2-1.2","60368a80844cd3d1a83d0123","C3","batch3","","1969","tol_toboard","","","","tol_peg_1","1969","1969","0","[[2,0,0],[3,1],[0]]","3","[[2,1,3],[0,0],[0]]","1","0","","","","","","5","","","","","","","","",""
"","","","","","single-stim-button","38","134215","0.0-2.0-13.3-0.3","60368a80844cd3d1a83d0123","C3","batch3","","720","tol_tohand","","","","tol_peg_2","720","720","0","[[2,0,0],[3,0],[0]]","4","[[2,1,3],[0,0],[0]]","1","0","","","","","","5","","","","","","","","",""
"","","","","","single-stim-button","39","135055","0.0-2.0-13.3-1.3","60368a80844cd3d1a83d0123","C3","batch3","","840","tol_toboard","","","","tol_peg_1","840","840","0","[[2,1,0],[3,0],[0]]","4","[[2,1,3],[0,0],[0]]","1","0","","","","","","5","","","","","","","","",""
"","","","","","single-stim-button","40","135745","0.0-2.0-13.4-0.4","60368a80844cd3d1a83d0123","C3","batch3","","688","tol_tohand","","","","tol_peg_2","688","688","0","[[2,1,0],[0,0],[0]]","5","[[2,1,3],[0,0],[0]]","1","0","","","","","","5","","","","","","","","",""
"","","","","","single-stim-button","41","136193","0.0-2.0-13.4-1.4","60368a80844cd3d1a83d0123","C3","batch3","","448","tol_toboard","","","","tol_peg_1","448","448","0","[[2,1,3],[0,0],[0]]","5","[[2,1,3],[0,0],[0]]","1","0","","","","","","5","","","","","","","","",""
"","","","","","poldrack-single-stim","42","137199","0.0-2.0-14.0","60368a80844cd3d1a83d0123","C3","batch3","","-1","tol_feedback","","","true","","1000","1000","500","","","","","","-1","none","true","4535","10649","","","","","","","","","",""
"","","","","","html-button-response","43","138083","0.0-2.0-15.0","60368a80844cd3d1a83d0123","C3","batch3","","883.0999994277954","tol_trial_num","<div class = centerbox><p class = center-block-text>problem <strong>3</strong> out of 25 problems</p></div>","0","","","","","","","","","","","","","","","","","","","","","","","","",""
"","","","","","single-stim-button","44","141704","0.0-2.0-16.0-0.0","60368a80844cd3d1a83d0123","C3","batch3","","3620","tol_tohand","","","","tol_peg_1","3620","3620","0","[[2,0,0],[0,0],[1]]","1","[[1,2,0],[3,0],[0]]","2","0","","","","","","4","","","","","","","","",""
"","","","","","single-stim-button","45","142600","0.0-2.0-16.0-1.0","60368a80844cd3d1a83d0123","C3","batch3","","895","tol_toboard","","","","tol_peg_2","895","895","0","[[2,0,0],[3,0],[1]]","1","[[1,2,0],[3,0],[0]]","2","0","","","","","","4","","","","","","","","",""
"","","","","","single-stim-button","46","145630","0.0-2.0-16.1-0.1","60368a80844cd3d1a83d0123","C3","batch3","","3029","tol_tohand","","","","tol_peg_1","3029","3029","0","[[0,0,0],[3,0],[1]]","2","[[1,2,0],[3,0],[0]]","2","0","","","","","","4","","","","","","","","",""
"","","","","","single-stim-button","47","146094","0.0-2.0-16.1-1.1","60368a80844cd3d1a83d0123","C3","batch3","","464","tol_toboard","","","","tol_peg_2","464","464","0","[[0,0,0],[3,2],[1]]","2","[[1,2,0],[3,0],[0]]","2","0","","","","","","4","","","","","","","","",""
"","","","","","single-stim-button","48","146609","0.0-2.0-16.2-0.2","60368a80844cd3d1a83d0123","C3","batch3","","514","tol_tohand","","","","tol_peg_3","514","514","0","[[0,0,0],[3,2],[0]]","3","[[1,2,0],[3,0],[0]]","2","0","","","","","","4","","","","","","","","",""
"","","","","","single-stim-button","49","147217","0.0-2.0-16.2-1.2","60368a80844cd3d1a83d0123","C3","batch3","","607","tol_toboard","","","","tol_peg_1","607","607","0","[[1,0,0],[3,2],[0]]","3","[[1,2,0],[3,0],[0]]","2","0","","","","","","4","","","","","","","","",""
"","","","","","single-stim-button","50","149347","0.0-2.0-16.3-0.3","60368a80844cd3d1a83d0123","C3","batch3","","2129","tol_tohand","","","","tol_peg_2","2129","2129","0","[[1,0,0],[3,0],[0]]","4","[[1,2,0],[3,0],[0]]","2","0","","","","","","4","","","","","","","","",""
"","","","","","single-stim-button","51","149925","0.0-2.0-16.3-1.3","60368a80844cd3d1a83d0123","C3","batch3","","577","tol_toboard","","","","tol_peg_1","577","577","0","[[1,2,0],[3,0],[0]]","4","[[1,2,0],[3,0],[0]]","2","0","","","","","","4","","","","","","","","",""
"","","","","","poldrack-single-stim","52","150928","0.0-2.0-17.0","60368a80844cd3d1a83d0123","C3","batch3","","-1","tol_feedback","","","true","","1000","1000","500","","","","","","-1","none","true","3620","9292","","","","","","","","","",""
"","","","","","html-button-response","53","151606","0.0-2.0-18.0","60368a80844cd3d1a83d0123","C3","batch3","","676.6999998092651","tol_trial_num","<div class = centerbox><p class = center-block-text>problem <strong>4</strong> out of 25 problems</p></div>","0","","","","","","","","","","","","","","","","","","","","","","","","",""
"","","","","","single-stim-button","54","155876","0.0-2.0-19.0-0.0","60368a80844cd3d1a83d0123","C3","batch3","","4269","tol_tohand","","","","tol_peg_2","4269","4269","0","[[3,0,0],[2,0],[0]]","1","[[3,0,0],[1,0],[2]]","3","0","","","","","","3","","","","","","","","",""
"","","","","","single-stim-button","55","156629","0.0-2.0-19.0-1.0","60368a80844cd3d1a83d0123","C3","batch3","","751","tol_toboard","","","","tol_peg_3","751","751","0","[[3,0,0],[2,0],[1]]","1","[[3,0,0],[1,0],[2]]","3","0","","","","","","3","","","","","","","","",""
"","","","","","single-stim-button","56","157061","0.0-2.0-19.1-0.1","60368a80844cd3d1a83d0123","C3","batch3","","432","tol_tohand","","","","tol_peg_2","432","432","0","[[3,0,0],[0,0],[1]]","2","[[3,0,0],[1,0],[2]]","3","0","","","","","","3","","","","","","","","",""
"","","","","","single-stim-button","57","157623","0.0-2.0-19.1-1.1","60368a80844cd3d1a83d0123","C3","batch3","","562","tol_toboard","","","","tol_peg_1","562","562","0","[[3,2,0],[0,0],[1]]","2","[[3,0,0],[1,0],[2]]","3","0","","","","","","3","","","","","","","","",""
"","","","","","single-stim-button","58","158119","0.0-2.0-19.2-0.2","60368a80844cd3d1a83d0123","C3","batch3","","495","tol_tohand","","","","tol_peg_3","495","495","0","[[3,2,0],[0,0],[0]]","3","[[3,0,0],[1,0],[2]]","3","0","","","","","","3","","","","","","","","",""
"","","","","","single-stim-button","59","158889","0.0-2.0-19.2-1.2","60368a80844cd3d1a83d0123","C3","batch3","","769","tol_toboard","","","","tol_peg_2","769","769","0","[[3,2,0],[1,0],[0]]","3","[[3,0,0],[1,0],[2]]","3","0","","","","","","3","","","","","","","","",""
"","","","","","single-stim-button","60","159369","0.0-2.0-19.3-0.3","60368a80844cd3d1a83d0123","C3","batch3","","479","tol_tohand","","","","tol_peg_1","479","479","0","[[3,0,0],[1,0],[0]]","4","[[3,0,0],[1,0],[2]]","3","0","","","","","","3","","","","","","","","",""
"","","","","","single-stim-button","61","160057","0.0-2.0-19.3-1.3","60368a80844cd3d1a83d0123","C3","batch3","","688","tol_toboard","","","","tol_peg_3","688","688","0","[[3,0,0],[1,0],[2]]","4","[[3,0,0],[1,0],[2]]","3","0","","","","","","3","","","","","","","","",""
"","","","","","poldrack-single-stim","62","161061","0.0-2.0-20.0","60368a80844cd3d1a83d0123","C3","batch3","","-1","tol_feedback","","","true","","1000","1000","500","","","","","","-1","none","true","4269","5675","","","","","","","","","",""
"","","","","","html-button-response","63","161981","0.0-2.0-21.0","60368a80844cd3d1a83d0123","C3","batch3","","918.8000001907349","tol_trial_num","<div class = centerbox><p class = center-block-text>problem <strong>5</strong> out of 25 problems</p></div>","0","","","","","","","","","","","","","","","","","","","","","","","","",""
"","","","","","single-stim-button","64","168854","0.0-2.0-22.0-0.0","60368a80844cd3d1a83d0123","C3","batch3","","6872","tol_tohand","","","","tol_peg_3","6872","6872","0","[[1,0,0],[2,0],[0]]","1","[[0,0,0],[1,2],[3]]","4","0","","","","","","7","","","","","","","","",""
"","","","","","single-stim-button","65","169654","0.0-2.0-22.0-1.0","60368a80844cd3d1a83d0123","C3","batch3","","799","tol_toboard","","","","tol_peg_1","799","799","0","[[1,3,0],[2,0],[0]]","1","[[0,0,0],[1,2],[3]]","4","0","","","","","","7","","","","","","","","",""
"","","","","","single-stim-button","66","170054","0.0-2.0-22.1-0.1","60368a80844cd3d1a83d0123","C3","batch3","","399","tol_tohand","","","","tol_peg_2","399","399","0","[[1,3,0],[0,0],[0]]","2","[[0,0,0],[1,2],[3]]","4","0","","","","","","7","","","","","","","","",""
"","","","","","single-stim-button","67","170601","0.0-2.0-22.1-1.1","60368a80844cd3d1a83d0123","C3","batch3","","546","tol_toboard","","","","tol_peg_3","546","546","0","[[1,3,0],[0,0],[2]]","2","[[0,0,0],[1,2],[3]]","4","0","","","","","","7","","","","","","","","",""
"","","","","","single-stim-button","68","171304","0.0-2.0-22.2-0.2","60368a80844cd3d1a83d0123","C3","batch3","","702","tol_tohand","","","","tol_peg_1","702","702","0","[[1,0,0],[0,0],[2]]","3","[[0,0,0],[1,2],[3]]","4","0","","","","","","7","","","","","","","","",""
"","","","","","single-stim-button","69","183227","0.0-2.0-22.2-1.2","60368a80844cd3d1a83d0123","C3","batch3","","11921","tol_toboard","","","","tol_peg_2","11921","11921","0","[[1,0,0],[3,0],[2]]","3","[[0,0,0],[1,2],[3]]","4","0","","","","","","7","","","","","","","","",""
"","","","","","single-stim-button","70","183580","0.0-2.0-22.3-0.3","60368a80844cd3d1a83d0123","C3","batch3","","353","tol_tohand","","","","tol_peg_1","353","353","0","[[0,0,0],[3,0],[2]]","4","[[0,0,0],[1,2],[3]]","4","0","","","","","","7","","","","","","","","",""
"","","","","","single-stim-button","71","184108","0.0-2.0-22.3-1.3","60368a80844cd3d1a83d0123","C3","batch3","","527","tol_toboard","","","","tol_peg_2","527","527","0","[[0,0,0],[3,1],[2]]","4","[[0,0,0],[1,2],[3]]","4","0","","","","","","7","","","","","","","","",""
"","","","","","single-stim-button","72","184669","0.0-2.0-22.4-0.4","60368a80844cd3d1a83d0123","C3","batch3","","559","tol_tohand","","","","tol_peg_3","559","559","0","[[0,0,0],[3,1],[0]]","5","[[0,0,0],[1,2],[3]]","4","0","","","","","","7","","","","","","","","",""
"","","","","","single-stim-button","73","185391","0.0-2.0-22.4-1.4","60368a80844cd3d1a83d0123","C3","batch3","","721","tol_toboard","","","","tol_peg_1","721","721","0","[[2,0,0],[3,1],[0]]","5","[[0,0,0],[1,2],[3]]","4","0","","","","","","7","","","","","","","","",""
"","","","","","single-stim-button","74","185918","0.0-2.0-22.5-0.5","60368a80844cd3d1a83d0123","C3","batch3","","527","tol_tohand","","","","tol_peg_2","527","527","0","[[2,0,0],[3,0],[0]]","6","[[0,0,0],[1,2],[3]]","4","0","","","","","","7","","","","","","","","",""
"","","","","","single-stim-button","75","186464","0.0-2.0-22.5-1.5","60368a80844cd3d1a83d0123","C3","batch3","","545","tol_toboard","","","","tol_peg_3","545","545","0","[[2,0,0],[3,0],[1]]","6","[[0,0,0],[1,2],[3]]","4","0","","","","","","7","","","","","","","","",""
"","","","","","single-stim-button","76","187008","0.0-2.0-22.6-0.6","60368a80844cd3d1a83d0123","C3","batch3","","543","tol_tohand","","","","tol_peg_2","543","543","0","[[2,0,0],[0,0],[1]]","7","[[0,0,0],[1,2],[3]]","4","0","","","","","","7","","","","","","","","",""
"","","","","","single-stim-button","77","187744","0.0-2.0-22.6-1.6","60368a80844cd3d1a83d0123","C3","batch3","","735","tol_toboard","","","","tol_peg_1","735","735","0","[[2,3,0],[0,0],[1]]","7","[[0,0,0],[1,2],[3]]","4","0","","","","","","7","","","","","","","","",""
"","","","","","single-stim-button","78","188771","0.0-2.0-22.7-0.7","60368a80844cd3d1a83d0123","C3","batch3","","1025","tol_tohand","","","","tol_peg_3","1025","1025","0","[[2,3,0],[0,0],[0]]","8","[[0,0,0],[1,2],[3]]","4","0","","","","","","7","","","","","","","","",""
"","","","","","single-stim-button","79","189556","0.0-2.0-22.7-1.7","60368a80844cd3d1a83d0123","C3","batch3","","785","tol_toboard","","","","tol_peg_2","785","785","0","[[2,3,0],[1,0],[0]]","8","[[0,0,0],[1,2],[3]]","4","0","","","","","","7","","","","","","","","",""
"","","","","","single-stim-button","80","190068","0.0-2.0-22.8-0.8","60368a80844cd3d1a83d0123","C3","batch3","","511","tol_tohand","","","","tol_peg_1","511","511","0","[[2,0,0],[1,0],[0]]","9","[[0,0,0],[1,2],[3]]","4","0","","","","","","7","","","","","","","","",""
"","","","","","single-stim-button","81","190932","0.0-2.0-22.8-1.8","60368a80844cd3d1a83d0123","C3","batch3","","863","tol_toboard","","","","tol_peg_3","863","863","0","[[2,0,0],[1,0],[3]]","9","[[0,0,0],[1,2],[3]]","4","0","","","","","","7","","","","","","","","",""
"","","","","","single-stim-button","82","191430","0.0-2.0-22.9-0.9","60368a80844cd3d1a83d0123","C3","batch3","","497","tol_tohand","","","","tol_peg_1","497","497","0","[[0,0,0],[1,0],[3]]","10","[[0,0,0],[1,2],[3]]","4","0","","","","","","7","","","","","","","","",""
"","","","","","single-stim-button","83","191847","0.0-2.0-22.9-1.9","60368a80844cd3d1a83d0123","C3","batch3","","415","tol_toboard","","","","tol_peg_2","415","415","0","[[0,0,0],[1,2],[3]]","10","[[0,0,0],[1,2],[3]]","4","0","","","","","","7","","","","","","","","",""
"","","","","","poldrack-single-stim","84","192855","0.0-2.0-23.0","60368a80844cd3d1a83d0123","C3","batch3","","-1","tol_feedback","","","true","","1000","1000","500","","","","","","-1","none","true","6872","11988","","","","","","","","","",""
"","","","","","html-button-response","85","193705","0.0-2.0-24.0","60368a80844cd3d1a83d0123","C3","batch3","","848.8000001907349","tol_trial_num","<div class = centerbox><p class = center-block-text>problem <strong>6</strong> out of 25 problems</p></div>","0","","","","","","","","","","","","","","","","","","","","","","","","",""
"","","","","","single-stim-button","86","203394","0.0-2.0-25.0-0.0","60368a80844cd3d1a83d0123","C3","batch3","","9689","tol_tohand","","","","tol_peg_2","9689","9689","0","[[0,0,0],[1,0],[3]]","1","[[1,0,0],[2,3],[0]]","5","0","","","","","","6","","","","","","","","",""
"","","","","","single-stim-button","87","204354","0.0-2.0-25.0-1.0","60368a80844cd3d1a83d0123","C3","batch3","","959","tol_toboard","","","","tol_peg_1","959","959","0","[[2,0,0],[1,0],[3]]","1","[[1,0,0],[2,3],[0]]","5","0","","","","","","6","","","","","","","","",""
"","","","","","single-stim-button","88","204771","0.0-2.0-25.1-0.1","60368a80844cd3d1a83d0123","C3","batch3","","415","tol_tohand","","","","tol_peg_2","415","415","0","[[2,0,0],[0,0],[3]]","2","[[1,0,0],[2,3],[0]]","5","0","","","","","","6","","","","","","","","",""
"","","","","","single-stim-button","89","205380","0.0-2.0-25.1-1.1","60368a80844cd3d1a83d0123","C3","batch3","","609","tol_toboard","","","","tol_peg_1","609","609","0","[[2,1,0],[0,0],[3]]","2","[[1,0,0],[2,3],[0]]","5","0","","","","","","6","","","","","","","","",""
"","","","","","single-stim-button","90","205845","0.0-2.0-25.2-0.2","60368a80844cd3d1a83d0123","C3","batch3","","463","tol_tohand","","","","tol_peg_3","463","463","0","[[2,1,0],[0,0],[0]]","3","[[1,0,0],[2,3],[0]]","5","0","","","","","","6","","","","","","","","",""
"","","","","","single-stim-button","91","206710","0.0-2.0-25.2-1.2","60368a80844cd3d1a83d0123","C3","batch3","","865","tol_toboard","","","","tol_peg_2","865","865","0","[[2,1,0],[3,0],[0]]","3","[[1,0,0],[2,3],[0]]","5","0","","","","","","6","","","","","","","","",""
"","","","","","single-stim-button","92","207702","0.0-2.0-25.3-0.3","60368a80844cd3d1a83d0123","C3","batch3","","991","tol_tohand","","","","tol_peg_1","991","991","0","[[2,0,0],[3,0],[0]]","4","[[1,0,0],[2,3],[0]]","5","0","","","","","","6","","","","","","","","",""
"","","","","","single-stim-button","93","208296","0.0-2.0-25.3-1.3","60368a80844cd3d1a83d0123","C3","batch3","","592","tol_toboard","","","","tol_peg_3","592","592","0","[[2,0,0],[3,0],[1]]","4","[[1,0,0],[2,3],[0]]","5","0","","","","","","6","","","","","","","","",""
"","","","","","single-stim-button","94","208712","0.0-2.0-25.4-0.4","60368a80844cd3d1a83d0123","C3","batch3","","416","tol_tohand","","","","tol_peg_1","416","416","0","[[0,0,0],[3,0],[1]]","5","[[1,0,0],[2,3],[0]]","5","0","","","","","","6","","","","","","","","",""
"","","","","","single-stim-button","95","209016","0.0-2.0-25.4-1.4","60368a80844cd3d1a83d0123","C3","batch3","","302","tol_toboard","","","","tol_peg_2","302","302","0","[[0,0,0],[3,2],[1]]","5","[[1,0,0],[2,3],[0]]","5","0","","","","","","6","","","","","","","","",""
"","","","","","single-stim-button","96","209530","0.0-2.0-25.5-0.5","60368a80844cd3d1a83d0123","C3","batch3","","514","tol_tohand","","","","tol_peg_3","514","514","0","[[0,0,0],[3,2],[0]]","6","[[1,0,0],[2,3],[0]]","5","0","","","","","","6","","","","","","","","",""
"","","","","","single-stim-button","97","210571","0.0-2.0-25.5-1.5","60368a80844cd3d1a83d0123","C3","batch3","","1039","tol_toboard","","","","tol_peg_1","1039","1039","0","[[1,0,0],[3,2],[0]]","6","[[1,0,0],[2,3],[0]]","5","0","","","","","","6","","","","","","","","",""
"","","","","","single-stim-button","98","212380","0.0-2.0-25.6-0.6","60368a80844cd3d1a83d0123","C3","batch3","","1809","tol_tohand","","","","tol_peg_2","1809","1809","0","[[1,0,0],[3,0],[0]]","7","[[1,0,0],[2,3],[0]]","5","0","","","","","","6","","","","","","","","",""
"","","","","","single-stim-button","99","213198","0.0-2.0-25.6-1.6","60368a80844cd3d1a83d0123","C3","batch3","","818","tol_toboard","","","","tol_peg_3","818","818","0","[[1,0,0],[3,0],[2]]","7","[[1,0,0],[2,3],[0]]","5","0","","","","","","6","","","","","","","","",""
"","","","","","single-stim-button","100","213982","0.0-2.0-25.7-0.7","60368a80844cd3d1a83d0123","C3","batch3","","783","tol_tohand","","","","tol_peg_2","783","783","0","[[1,0,0],[0,0],[2]]","8","[[1,0,0],[2,3],[0]]","5","0","","","","","","6","","","","","","","","",""
"","","","","","single-stim-button","101","214400","0.0-2.0-25.7-1.7","60368a80844cd3d1a83d0123","C3","batch3","","417","tol_toboard","","","","tol_peg_1","417","417","0","[[1,3,0],[0,0],[2]]","8","[[1,0,0],[2,3],[0]]","5","0","","","","","","6","","","","","","","","",""
"","","","","","single-stim-button","102","215488","0.0-2.0-25.8-0.8","60368a80844cd3d1a83d0123","C3","batch3","","1087","tol_tohand","","","","tol_peg_3","1087","1087","0","[[1,3,0],[0,0],[0]]","9","[[1,0,0],[2,3],[0]]","5","0","","","","","","6","","","","","","","","",""
"","","","","","single-stim-button","103","216306","0.0-2.0-25.8-1.8","60368a80844cd3d1a83d0123","C3","batch3","","817","tol_toboard","","","","tol_peg_2","817","817","0","[[1,3,0],[2,0],[0]]","9","[[1,0,0],[2,3],[0]]","5","0","","","","","","6","","","","","","","","",""
"","","","","","single-stim-button","104","217074","0.0-2.0-25.9-0.9","60368a80844cd3d1a83d0123","C3","batch3","","767","tol_tohand","","","","tol_peg_1","767","767","0","[[1,0,0],[2,0],[0]]","10","[[1,0,0],[2,3],[0]]","5","0","","","","","","6","","","","","","","","",""
"","","","","","single-stim-button","105","217668","0.0-2.0-25.9-1.9","60368a80844cd3d1a83d0123","C3","batch3","","593","tol_toboard","","","","tol_peg_2","593","593","0","[[1,0,0],[2,3],[0]]","10","[[1,0,0],[2,3],[0]]","5","0","","","","","","6","","","","","","","","",""
"","","","","","poldrack-single-stim","106","218676","0.0-2.0-26.0","60368a80844cd3d1a83d0123","C3","batch3","","-1","tol_feedback","","","true","","1000","1000","500","","","","","","-1","none","true","9689","16934","","","","","","","","","",""
"","","","","","html-button-response","107","219350","0.0-2.0-27.0","60368a80844cd3d1a83d0123","C3","batch3","","673.2000007629395","tol_trial_num","<div class = centerbox><p class = center-block-text>problem <strong>7</strong> out of 25 problems</p></div>","0","","","","","","","","","","","","","","","","","","","","","","","","",""
"","","","","","single-stim-button","108","223204","0.0-2.0-28.0-0.0","60368a80844cd3d1a83d0123","C3","batch3","","3853","tol_tohand","","","","tol_peg_3","3853","3853","0","[[2,1,0],[0,0],[0]]","1","[[1,2,0],[3,0],[0]]","6","0","","","","","","5","","","","","","","","",""
"","","","","","single-stim-button","109","223956","0.0-2.0-28.0-1.0","60368a80844cd3d1a83d0123","C3","batch3","","751","tol_toboard","","","","tol_peg_2","751","751","0","[[2,1,0],[3,0],[0]]","1","[[1,2,0],[3,0],[0]]","6","0","","","","","","5","","","","","","","","",""
"","","","","","single-stim-button","110","224887","0.0-2.0-28.1-0.1","60368a80844cd3d1a83d0123","C3","batch3","","929","tol_tohand","","","","tol_peg_1","929","929","0","[[2,0,0],[3,0],[0]]","2","[[1,2,0],[3,0],[0]]","6","0","","","","","","5","","","","","","","","",""
"","","","","","single-stim-button","111","226904","0.0-2.0-28.1-1.1","60368a80844cd3d1a83d0123","C3","batch3","","2017","tol_toboard","","","","tol_peg_3","2017","2017","0","[[2,0,0],[3,0],[1]]","2","[[1,2,0],[3,0],[0]]","6","0","","","","","","5","","","","","","","","",""
"","","","","","single-stim-button","112","227499","0.0-2.0-28.2-0.2","60368a80844cd3d1a83d0123","C3","batch3","","593","tol_tohand","","","","tol_peg_1","593","593","0","[[0,0,0],[3,0],[1]]","3","[[1,2,0],[3,0],[0]]","6","0","","","","","","5","","","","","","","","",""
"","","","","","single-stim-button","113","227803","0.0-2.0-28.2-1.2","60368a80844cd3d1a83d0123","C3","batch3","","303","tol_toboard","","","","tol_peg_2","303","303","0","[[0,0,0],[3,2],[1]]","3","[[1,2,0],[3,0],[0]]","6","0","","","","","","5","","","","","","","","",""
"","","","","","single-stim-button","114","228586","0.0-2.0-28.3-0.3","60368a80844cd3d1a83d0123","C3","batch3","","783","tol_tohand","","","","tol_peg_3","783","783","0","[[0,0,0],[3,2],[0]]","4","[[1,2,0],[3,0],[0]]","6","0","","","","","","5","","","","","","","","",""
"","","","","","single-stim-button","115","229308","0.0-2.0-28.3-1.3","60368a80844cd3d1a83d0123","C3","batch3","","721","tol_toboard","","","","tol_peg_1","721","721","0","[[1,0,0],[3,2],[0]]","4","[[1,2,0],[3,0],[0]]","6","0","","","","","","5","","","","","","","","",""
"","","","","","single-stim-button","116","229869","0.0-2.0-28.4-0.4","60368a80844cd3d1a83d0123","C3","batch3","","559","tol_tohand","","","","tol_peg_2","559","559","0","[[1,0,0],[3,0],[0]]","5","[[1,2,0],[3,0],[0]]","6","0","","","","","","5","","","","","","","","",""
"","","","","","single-stim-button","117","230381","0.0-2.0-28.4-1.4","60368a80844cd3d1a83d0123","C3","batch3","","511","tol_toboard","","","","tol_peg_1","511","511","0","[[1,2,0],[3,0],[0]]","5","[[1,2,0],[3,0],[0]]","6","0","","","","","","5","","","","","","","","",""
"","","","","","poldrack-single-stim","118","231382","0.0-2.0-29.0","60368a80844cd3d1a83d0123","C3","batch3","","-1","tol_feedback","","","true","","1000","1000","500","","","","","","-1","none","true","3853","6717","","","","","","","","","",""
"","","","","","html-button-response","119","232040","0.0-2.0-30.0","60368a80844cd3d1a83d0123","C3","batch3","","657.5","tol_trial_num","<div class = centerbox><p class = center-block-text>problem <strong>8</strong> out of 25 problems</p></div>","0","","","","","","","","","","","","","","","","","","","","","","","","",""
"","","","","","single-stim-button","120","235996","0.0-2.0-31.0-0.0","60368a80844cd3d1a83d0123","C3","batch3","","3954","tol_tohand","","","","tol_peg_2","3954","3954","0","[[0,0,0],[2,0],[1]]","1","[[1,2,0],[3,0],[0]]","7","0","","","","","","4","","","","","","","","",""
"","","","","","single-stim-button","121","237007","0.0-2.0-31.0-1.0","60368a80844cd3d1a83d0123","C3","batch3","","1009","tol_toboard","","","","tol_peg_1","1009","1009","0","[[3,0,0],[2,0],[1]]","1","[[1,2,0],[3,0],[0]]","7","0","","","","","","4","","","","","","","","",""
"","","","","","single-stim-button","122","239034","0.0-2.0-31.1-0.1","60368a80844cd3d1a83d0123","C3","batch3","","2027","tol_tohand","","","","tol_peg_3","2027","2027","0","[[3,0,0],[2,0],[0]]","2","[[1,2,0],[3,0],[0]]","7","0","","","","","","4","","","","","","","","",""
"","","","","","single-stim-button","123","239563","0.0-2.0-31.1-1.1","60368a80844cd3d1a83d0123","C3","batch3","","528","tol_toboard","","","","tol_peg_2","528","528","0","[[3,0,0],[2,1],[0]]","2","[[1,2,0],[3,0],[0]]","7","0","","","","","","4","","","","","","","","",""
"","","","","","single-stim-button","124","240026","0.0-2.0-31.2-0.2","60368a80844cd3d1a83d0123","C3","batch3","","463","tol_tohand","","","","tol_peg_1","463","463","0","[[0,0,0],[2,1],[0]]","3","[[1,2,0],[3,0],[0]]","7","0","","","","","","4","","","","","","","","",""
"","","","","","single-stim-button","125","241100","0.0-2.0-31.2-1.2","60368a80844cd3d1a83d0123","C3","batch3","","1073","tol_toboard","","","","tol_peg_3","1073","1073","0","[[0,0,0],[2,1],[3]]","3","[[1,2,0],[3,0],[0]]","7","0","","","","","","4","","","","","","","","",""
"","","","","","single-stim-button","126","241533","0.0-2.0-31.3-0.3","60368a80844cd3d1a83d0123","C3","batch3","","432","tol_tohand","","","","tol_peg_2","432","432","0","[[0,0,0],[2,0],[3]]","4","[[1,2,0],[3,0],[0]]","7","0","","","","","","4","","","","","","","","",""
"","","","","","single-stim-button","127","241998","0.0-2.0-31.3-1.3","60368a80844cd3d1a83d0123","C3","batch3","","465","tol_toboard","","","","tol_peg_1","465","465","0","[[1,0,0],[2,0],[3]]","4","[[1,2,0],[3,0],[0]]","7","0","","","","","","4","","","","","","","","",""
"","","","","","single-stim-button","128","242431","0.0-2.0-31.4-0.4","60368a80844cd3d1a83d0123","C3","batch3","","432","tol_tohand","","","","tol_peg_2","432","432","0","[[1,0,0],[0,0],[3]]","5","[[1,2,0],[3,0],[0]]","7","0","","","","","","4","","","","","","","","",""
"","","","","","single-stim-button","129","242895","0.0-2.0-31.4-1.4","60368a80844cd3d1a83d0123","C3","batch3","","463","tol_toboard","","","","tol_peg_1","463","463","0","[[1,2,0],[0,0],[3]]","5","[[1,2,0],[3,0],[0]]","7","0","","","","","","4","","","","","","","","",""
"","","","","","single-stim-button","130","243522","0.0-2.0-31.5-0.5","60368a80844cd3d1a83d0123","C3","batch3","","627","tol_tohand","","","","tol_peg_3","627","627","0","[[1,2,0],[0,0],[0]]","6","[[1,2,0],[3,0],[0]]","7","0","","","","","","4","","","","","","","","",""
"","","","","","single-stim-button","131","244240","0.0-2.0-31.5-1.5","60368a80844cd3d1a83d0123","C3","batch3","","718","tol_toboard","","","","tol_peg_2","718","718","0","[[1,2,0],[3,0],[0]]","6","[[1,2,0],[3,0],[0]]","7","0","","","","","","4","","","","","","","","",""
"","","","","","poldrack-single-stim","132","245244","0.0-2.0-32.0","60368a80844cd3d1a83d0123","C3","batch3","","-1","tol_feedback","","","true","","1000","1000","500","","","","","","-1","none","true","3954","7935","","","","","","","","","",""
"","","","","","html-button-response","133","245772","0.0-2.0-33.0","60368a80844cd3d1a83d0123","C3","batch3","","526.3999996185303","tol_trial_num","<div class = centerbox><p class = center-block-text>problem <strong>9</strong> out of 25 problems</p></div>","0","","","","","","","","","","","","","","","","","","","","","","","","",""
"","","","","","single-stim-button","134","250619","0.0-2.0-34.0-0.0","60368a80844cd3d1a83d0123","C3","batch3","","4846","tol_tohand","","","","tol_peg_1","4846","4846","0","[[3,0,0],[0,0],[1]]","1","[[2,1,0],[3,0],[0]]","8","0","","","","","","6","","","","","","","","",""
"","","","","","single-stim-button","135","251133","0.0-2.0-34.0-1.0","60368a80844cd3d1a83d0123","C3","batch3","","514","tol_toboard","","","","tol_peg_2","514","514","0","[[3,0,0],[2,0],[1]]","1","[[2,1,0],[3,0],[0]]","8","0","","","","","","6","","","","","","","","",""
"","","","","","single-stim-button","136","252492","0.0-2.0-34.1-0.1","60368a80844cd3d1a83d0123","C3","batch3","","1359","tol_tohand","","","","tol_peg_3","1359","1359","0","[[3,0,0],[2,0],[0]]","2","[[2,1,0],[3,0],[0]]","8","0","","","","","","6","","","","","","","","",""
"","","","","","single-stim-button","137","253176","0.0-2.0-34.1-1.1","60368a80844cd3d1a83d0123","C3","batch3","","683","tol_toboard","","","","tol_peg_2","683","683","0","[[3,0,0],[2,1],[0]]","2","[[2,1,0],[3,0],[0]]","8","0","","","","","","6","","","","","","","","",""
"","","","","","single-stim-button","138","253815","0.0-2.0-34.2-0.2","60368a80844cd3d1a83d0123","C3","batch3","","639","tol_tohand","","","","tol_peg_1","639","639","0","[[0,0,0],[2,1],[0]]","3","[[2,1,0],[3,0],[0]]","8","0","","","","","","6","","","","","","","","",""
"","","","","","single-stim-button","139","254536","0.0-2.0-34.2-1.2","60368a80844cd3d1a83d0123","C3","batch3","","720","tol_toboard","","","","tol_peg_3","720","720","0","[[0,0,0],[2,1],[3]]","3","[[2,1,0],[3,0],[0]]","8","0","","","","","","6","","","","","","","","",""
"","","","","","single-stim-button","140","255994","0.0-2.0-34.3-0.3","60368a80844cd3d1a83d0123","C3","batch3","","1457","tol_tohand","","","","tol_peg_2","1457","1457","0","[[0,0,0],[2,0],[3]]","4","[[2,1,0],[3,0],[0]]","8","0","","","","","","6","","","","","","","","",""
"","","","","","single-stim-button","141","256979","0.0-2.0-34.3-1.3","60368a80844cd3d1a83d0123","C3","batch3","","984","tol_toboard","","","","tol_peg_1","984","984","0","[[1,0,0],[2,0],[3]]","4","[[2,1,0],[3,0],[0]]","8","0","","","","","","6","","","","","","","","",""
"","","","","","single-stim-button","142","257861","0.0-2.0-34.4-0.4","60368a80844cd3d1a83d0123","C3","batch3","","881","tol_tohand","","","","tol_peg_3","881","881","0","[[1,0,0],[2,0],[0]]","5","[[2,1,0],[3,0],[0]]","8","0","","","","","","6","","","","","","","","",""
"","","","","","single-stim-button","143","258212","0.0-2.0-34.4-1.4","60368a80844cd3d1a83d0123","C3","batch3","","351","tol_toboard","","","","tol_peg_2","351","351","0","[[1,0,0],[2,3],[0]]","5","[[2,1,0],[3,0],[0]]","8","0","","","","","","6","","","","","","","","",""
"","","","","","single-stim-button","144","258695","0.0-2.0-34.5-0.5","60368a80844cd3d1a83d0123","C3","batch3","","481","tol_tohand","","","","tol_peg_1","481","481","0","[[0,0,0],[2,3],[0]]","6","[[2,1,0],[3,0],[0]]","8","0","","","","","","6","","","","","","","","",""
"","","","","","single-stim-button","145","259623","0.0-2.0-34.5-1.5","60368a80844cd3d1a83d0123","C3","batch3","","928","tol_toboard","","","","tol_peg_3","928","928","0","[[0,0,0],[2,3],[1]]","6","[[2,1,0],[3,0],[0]]","8","0","","","","","","6","","","","","","","","",""
"","","","","","single-stim-button","146","260023","0.0-2.0-34.6-0.6","60368a80844cd3d1a83d0123","C3","batch3","","400","tol_tohand","","","","tol_peg_2","400","400","0","[[0,0,0],[2,0],[1]]","7","[[2,1,0],[3,0],[0]]","8","0","","","","","","6","","","","","","","","",""
"","","","","","single-stim-button","147","260457","0.0-2.0-34.6-1.6","60368a80844cd3d1a83d0123","C3","batch3","","432","tol_toboard","","","","tol_peg_2","432","432","0","[[0,0,0],[2,3],[1]]","7","[[2,1,0],[3,0],[0]]","8","0","","","","","","6","","","","","","","","",""
"","","","","","single-stim-button","148","261208","0.0-2.0-34.7-0.7","60368a80844cd3d1a83d0123","C3","batch3","","751","tol_tohand","","","","tol_peg_2","751","751","0","[[0,0,0],[2,0],[1]]","8","[[2,1,0],[3,0],[0]]","8","0","","","","","","6","","","","","","","","",""
"","","","","","single-stim-button","149","262154","0.0-2.0-34.7-1.7","60368a80844cd3d1a83d0123","C3","batch3","","945","tol_toboard","","","","tol_peg_1","945","945","0","[[3,0,0],[2,0],[1]]","8","[[2,1,0],[3,0],[0]]","8","0","","","","","","6","","","","","","","","",""
"","","","","","single-stim-button","150","262683","0.0-2.0-34.8-0.8","60368a80844cd3d1a83d0123","C3","batch3","","528","tol_tohand","","","","tol_peg_2","528","528","0","[[3,0,0],[0,0],[1]]","9","[[2,1,0],[3,0],[0]]","8","0","","","","","","6","","","","","","","","",""
"","","","","","single-stim-button","151","263165","0.0-2.0-34.8-1.8","60368a80844cd3d1a83d0123","C3","batch3","","481","tol_toboard","","","","tol_peg_1","481","481","0","[[3,2,0],[0,0],[1]]","9","[[2,1,0],[3,0],[0]]","8","0","","","","","","6","","","","","","","","",""
"","","","","","single-stim-button","152","264677","0.0-2.0-34.9-0.9","60368a80844cd3d1a83d0123","C3","batch3","","1512","tol_tohand","","","","tol_peg_3","1512","1512","0","[[3,2,0],[0,0],[0]]","10","[[2,1,0],[3,0],[0]]","8","0","","","","","","6","","","","","","","","",""
"","","","","","single-stim-button","153","265270","0.0-2.0-34.9-1.9","60368a80844cd3d1a83d0123","C3","batch3","","593","tol_toboard","","","","tol_peg_2","593","593","0","[[3,2,0],[1,0],[0]]","10","[[2,1,0],[3,0],[0]]","8","0","","","","","","6","","","","","","","","",""
"","","","","","single-stim-button","154","265830","0.0-2.0-34.10-0.10","60368a80844cd3d1a83d0123","C3","batch3","","559","tol_tohand","","","","tol_peg_1","559","559","0","[[3,0,0],[1,0],[0]]","11","[[2,1,0],[3,0],[0]]","8","0","","","","","","6","","","","","","","","",""
"","","","","","single-stim-button","155","266712","0.0-2.0-34.10-1.10","60368a80844cd3d1a83d0123","C3","batch3","","881","tol_toboard","","","","tol_peg_3","881","881","0","[[3,0,0],[1,0],[2]]","11","[[2,1,0],[3,0],[0]]","8","0","","","","","","6","","","","","","","","",""
"","","","","","single-stim-button","156","269173","0.0-2.0-34.11-0.11","60368a80844cd3d1a83d0123","C3","batch3","","2459","tol_tohand","","","","tol_peg_1","2459","2459","0","[[0,0,0],[1,0],[2]]","12","[[2,1,0],[3,0],[0]]","8","0","","","","","","6","","","","","","","","",""
"","","","","","single-stim-button","157","269981","0.0-2.0-34.11-1.11","60368a80844cd3d1a83d0123","C3","batch3","","807","tol_toboard","","","","tol_peg_2","807","807","0","[[0,0,0],[1,3],[2]]","12","[[2,1,0],[3,0],[0]]","8","0","","","","","","6","","","","","","","","",""
"","","","","","single-stim-button","158","270397","0.0-2.0-34.12-0.12","60368a80844cd3d1a83d0123","C3","batch3","","416","tol_tohand","","","","tol_peg_3","416","416","0","[[0,0,0],[1,3],[0]]","13","[[2,1,0],[3,0],[0]]","8","0","","","","","","6","","","","","","","","",""
"","","","","","single-stim-button","159","271423","0.0-2.0-34.12-1.12","60368a80844cd3d1a83d0123","C3","batch3","","1026","tol_toboard","","","","tol_peg_1","1026","1026","0","[[2,0,0],[1,3],[0]]","13","[[2,1,0],[3,0],[0]]","8","0","","","","","","6","","","","","","","","",""
"","","","","","single-stim-button","160","272014","0.0-2.0-34.13-0.13","60368a80844cd3d1a83d0123","C3","batch3","","591","tol_tohand","","","","tol_peg_2","591","591","0","[[2,0,0],[1,0],[0]]","14","[[2,1,0],[3,0],[0]]","8","0","","","","","","6","","","","","","","","",""
"","","","","","single-stim-button","161","272785","0.0-2.0-34.13-1.13","60368a80844cd3d1a83d0123","C3","batch3","","769","tol_toboard","","","","tol_peg_3","769","769","0","[[2,0,0],[1,0],[3]]","14","[[2,1,0],[3,0],[0]]","8","0","","","","","","6","","","","","","","","",""
"","","","","","single-stim-button","162","273312","0.0-2.0-34.14-0.14","60368a80844cd3d1a83d0123","C3","batch3","","527","tol_tohand","","","","tol_peg_2","527","527","0","[[2,0,0],[0,0],[3]]","15","[[2,1,0],[3,0],[0]]","8","0","","","","","","6","","","","","","","","",""
"","","","","","single-stim-button","163","273634","0.0-2.0-34.14-1.14","60368a80844cd3d1a83d0123","C3","batch3","","321","tol_toboard","","","","tol_peg_1","321","321","0","[[2,1,0],[0,0],[3]]","15","[[2,1,0],[3,0],[0]]","8","0","","","","","","6","","","","","","","","",""
"","","","","","single-stim-button","164","274739","0.0-2.0-34.15-0.15","60368a80844cd3d1a83d0123","C3","batch3","","1103","tol_tohand","","","","tol_peg_3","1103","1103","0","[[2,1,0],[0,0],[0]]","16","[[2,1,0],[3,0],[0]]","8","0","","","","","","6","","","","","","","","",""
"","","","","","single-stim-button","165","275701","0.0-2.0-34.15-1.15","60368a80844cd3d1a83d0123","C3","batch3","","961","tol_toboard","","","","tol_peg_2","961","961","0","[[2,1,0],[3,0],[0]]","16","[[2,1,0],[3,0],[0]]","8","0","","","","","","6","","","","","","","","",""
"","","","","","poldrack-single-stim","166","276707","0.0-2.0-35.0","60368a80844cd3d1a83d0123","C3","batch3","","-1","tol_feedback","","","true","","1000","1000","500","","","","","","-1","none","true","4846","18509","","","","","","","","","",""
"","","","","","html-button-response","167","277687","0.0-2.0-36.0","60368a80844cd3d1a83d0123","C3","batch3","","978.5","tol_trial_num","<div class = centerbox><p class = center-block-text>problem <strong>10</strong> out of 25 problems</p></div>","0","","","","","","","","","","","","","","","","","","","","","","","","",""
"","","","","","single-stim-button","168","281485","0.0-2.0-37.0-0.0","60368a80844cd3d1a83d0123","C3","batch3","","3798","tol_tohand","","","","tol_peg_2","3798","3798","0","[[3,0,0],[0,0],[2]]","1","[[3,0,0],[2,1],[0]]","9","0","","","","","","3","","","","","","","","",""
"","","","","","single-stim-button","169","281902","0.0-2.0-37.0-1.0","60368a80844cd3d1a83d0123","C3","batch3","","415","tol_toboard","","","","tol_peg_1","415","415","0","[[3,1,0],[0,0],[2]]","1","[[3,0,0],[2,1],[0]]","9","0","","","","","","3","","","","","","","","",""
"","","","","","single-stim-button","170","282446","0.0-2.0-37.1-0.1","60368a80844cd3d1a83d0123","C3","batch3","","544","tol_tohand","","","","tol_peg_3","544","544","0","[[3,1,0],[0,0],[0]]","2","[[3,0,0],[2,1],[0]]","9","0","","","","","","3","","","","","","","","",""
"","","","","","single-stim-button","171","283135","0.0-2.0-37.1-1.1","60368a80844cd3d1a83d0123","C3","batch3","","688","tol_toboard","","","","tol_peg_2","688","688","0","[[3,1,0],[2,0],[0]]","2","[[3,0,0],[2,1],[0]]","9","0","","","","","","3","","","","","","","","",""
"","","","","","single-stim-button","172","283662","0.0-2.0-37.2-0.2","60368a80844cd3d1a83d0123","C3","batch3","","527","tol_tohand","","","","tol_peg_1","527","527","0","[[3,0,0],[2,0],[0]]","3","[[3,0,0],[2,1],[0]]","9","0","","","","","","3","","","","","","","","",""
"","","","","","single-stim-button","173","284126","0.0-2.0-37.2-1.2","60368a80844cd3d1a83d0123","C3","batch3","","463","tol_toboard","","","","tol_peg_2","463","463","0","[[3,0,0],[2,1],[0]]","3","[[3,0,0],[2,1],[0]]","9","0","","","","","","3","","","","","","","","",""
"","","","","","poldrack-single-stim","174","285134","0.0-2.0-38.0","60368a80844cd3d1a83d0123","C3","batch3","","-1","tol_feedback","","","true","","1000","1000","500","","","","","","-1","none","true","3798","4869","","","","","","","","","",""
"","","","","","html-button-response","175","286082","0.0-2.0-39.0","60368a80844cd3d1a83d0123","C3","batch3","","947.1000003814697","tol_trial_num","<div class = centerbox><p class = center-block-text>problem <strong>11</strong> out of 25 problems</p></div>","0","","","","","","","","","","","","","","","","","","","","","","","","",""
"","","","","","single-stim-button","176","292154","0.0-2.0-40.0-0.0","60368a80844cd3d1a83d0123","C3","batch3","","6071","tol_tohand","","","","tol_peg_1","6071","6071","0","[[1,0,0],[3,0],[0]]","1","[[2,0,0],[1,3],[0]]","10","0","","","","","","6","","","","","","","","",""
"","","","","","single-stim-button","177","293373","0.0-2.0-40.0-1.0","60368a80844cd3d1a83d0123","C3","batch3","","1217","tol_toboard","","","","tol_peg_3","1217","1217","0","[[1,0,0],[3,0],[2]]","1","[[2,0,0],[1,3],[0]]","10","0","","","","","","6","","","","","","","","",""
"","","","","","single-stim-button","178","293870","0.0-2.0-40.1-0.1","60368a80844cd3d1a83d0123","C3","batch3","","497","tol_tohand","","","","tol_peg_1","497","497","0","[[0,0,0],[3,0],[2]]","2","[[2,0,0],[1,3],[0]]","10","0","","","","","","6","","","","","","","","",""
"","","","","","single-stim-button","179","294303","0.0-2.0-40.1-1.1","60368a80844cd3d1a83d0123","C3","batch3","","431","tol_toboard","","","","tol_peg_2","431","431","0","[[0,0,0],[3,1],[2]]","2","[[2,0,0],[1,3],[0]]","10","0","","","","","","6","","","","","","","","",""
"","","","","","single-stim-button","180","294910","0.0-2.0-40.2-0.2","60368a80844cd3d1a83d0123","C3","batch3","","607","tol_tohand","","","","tol_peg_3","607","607","0","[[0,0,0],[3,1],[0]]","3","[[2,0,0],[1,3],[0]]","10","0","","","","","","6","","","","","","","","",""
"","","","","","single-stim-button","181","295688","0.0-2.0-40.2-1.2","60368a80844cd3d1a83d0123","C3","batch3","","777","tol_toboard","","","","tol_peg_1","777","777","0","[[2,0,0],[3,1],[0]]","3","[[2,0,0],[1,3],[0]]","10","0","","","","","","6","","","","","","","","",""
"","","","","","single-stim-button","182","299465","0.0-2.0-40.3-0.3","60368a80844cd3d1a83d0123","C3","batch3","","3775","tol_tohand","","","","tol_peg_2","3775","3775","0","[[2,0,0],[3,0],[0]]","4","[[2,0,0],[1,3],[0]]","10","0","","","","","","6","","","","","","","","",""
"","","","","","single-stim-button","183","300058","0.0-2.0-40.3-1.3","60368a80844cd3d1a83d0123","C3","batch3","","592","tol_toboard","","","","tol_peg_1","592","592","0","[[2,1,0],[3,0],[0]]","4","[[2,0,0],[1,3],[0]]","10","0","","","","","","6","","","","","","","","",""
"","","","","","single-stim-button","184","300488","0.0-2.0-40.4-0.4","60368a80844cd3d1a83d0123","C3","batch3","","430","tol_tohand","","","","tol_peg_2","430","430","0","[[2,1,0],[0,0],[0]]","5","[[2,0,0],[1,3],[0]]","10","0","","","","","","6","","","","","","","","",""
"","","","","","single-stim-button","185","301322","0.0-2.0-40.4-1.4","60368a80844cd3d1a83d0123","C3","batch3","","833","tol_toboard","","","","tol_peg_3","833","833","0","[[2,1,0],[0,0],[3]]","5","[[2,0,0],[1,3],[0]]","10","0","","","","","","6","","","","","","","","",""
"","","","","","single-stim-button","186","301795","0.0-2.0-40.5-0.5","60368a80844cd3d1a83d0123","C3","batch3","","471","tol_tohand","","","","tol_peg_1","471","471","0","[[2,0,0],[0,0],[3]]","6","[[2,0,0],[1,3],[0]]","10","0","","","","","","6","","","","","","","","",""
"","","","","","single-stim-button","187","302436","0.0-2.0-40.5-1.5","60368a80844cd3d1a83d0123","C3","batch3","","641","tol_toboard","","","","tol_peg_2","641","641","0","[[2,0,0],[1,0],[3]]","6","[[2,0,0],[1,3],[0]]","10","0","","","","","","6","","","","","","","","",""
"","","","","","single-stim-button","188","302900","0.0-2.0-40.6-0.6","60368a80844cd3d1a83d0123","C3","batch3","","463","tol_tohand","","","","tol_peg_3","463","463","0","[[2,0,0],[1,0],[0]]","7","[[2,0,0],[1,3],[0]]","10","0","","","","","","6","","","","","","","","",""
"","","","","","single-stim-button","189","303284","0.0-2.0-40.6-1.6","60368a80844cd3d1a83d0123","C3","batch3","","383","tol_toboard","","","","tol_peg_2","383","383","0","[[2,0,0],[1,3],[0]]","7","[[2,0,0],[1,3],[0]]","10","0","","","","","","6","","","","","","","","",""
"","","","","","poldrack-single-stim","190","304286","0.0-2.0-41.0","60368a80844cd3d1a83d0123","C3","batch3","","-1","tol_feedback","","","true","","1000","1000","500","","","","","","-1","none","true","6071","12314","","","","","","","","","",""
"","","","","","html-button-response","191","304838","0.0-2.0-42.0","60368a80844cd3d1a83d0123","C3","batch3","","551.3999996185303","tol_trial_num","<div class = centerbox><p class = center-block-text>problem <strong>12</strong> out of 25 problems</p></div>","0","","","","","","","","","","","","","","","","","","","","","","","","",""
"","","","","","single-stim-button","192","307179","0.0-2.0-43.0-0.0","60368a80844cd3d1a83d0123","C3","batch3","","2339","tol_tohand","","","","tol_peg_1","2339","2339","0","[[1,0,0],[3,0],[0]]","1","[[2,3,0],[0,0],[1]]","11","0","","","","","","4","","","","","","","","",""
"","","","","","single-stim-button","193","307706","0.0-2.0-43.0-1.0","60368a80844cd3d1a83d0123","C3","batch3","","527","tol_toboard","","","","tol_peg_2","527","527","0","[[1,0,0],[3,2],[0]]","1","[[2,3,0],[0,0],[1]]","11","0","","","","","","4","","","","","","","","",""
"","","","","","single-stim-button","194","308283","0.0-2.0-43.1-0.1","60368a80844cd3d1a83d0123","C3","batch3","","576","tol_tohand","","","","tol_peg_1","576","576","0","[[0,0,0],[3,2],[0]]","2","[[2,3,0],[0,0],[1]]","11","0","","","","","","4","","","","","","","","",""
"","","","","","single-stim-button","195","309196","0.0-2.0-43.1-1.1","60368a80844cd3d1a83d0123","C3","batch3","","912","tol_toboard","","","","tol_peg_3","912","912","0","[[0,0,0],[3,2],[1]]","2","[[2,3,0],[0,0],[1]]","11","0","","","","","","4","","","","","","","","",""
"","","","","","single-stim-button","196","310174","0.0-2.0-43.2-0.2","60368a80844cd3d1a83d0123","C3","batch3","","977","tol_tohand","","","","tol_peg_2","977","977","0","[[0,0,0],[3,0],[1]]","3","[[2,3,0],[0,0],[1]]","11","0","","","","","","4","","","","","","","","",""
"","","","","","single-stim-button","197","310958","0.0-2.0-43.2-1.2","60368a80844cd3d1a83d0123","C3","batch3","","783","tol_toboard","","","","tol_peg_1","783","783","0","[[2,0,0],[3,0],[1]]","3","[[2,3,0],[0,0],[1]]","11","0","","","","","","4","","","","","","","","",""
"","","","","","single-stim-button","198","311664","0.0-2.0-43.3-0.3","60368a80844cd3d1a83d0123","C3","batch3","","705","tol_tohand","","","","tol_peg_2","705","705","0","[[2,0,0],[0,0],[1]]","4","[[2,3,0],[0,0],[1]]","11","0","","","","","","4","","","","","","","","",""
"","","","","","single-stim-button","199","312112","0.0-2.0-43.3-1.3","60368a80844cd3d1a83d0123","C3","batch3","","447","tol_toboard","","","","tol_peg_1","447","447","0","[[2,3,0],[0,0],[1]]","4","[[2,3,0],[0,0],[1]]","11","0","","","","","","4","","","","","","","","",""
"","","","","","poldrack-single-stim","200","313114","0.0-2.0-44.0","60368a80844cd3d1a83d0123","C3","batch3","","-1","tol_feedback","","","true","","1000","1000","500","","","","","","-1","none","true","2339","4597","","","","","","","","","",""
"","","","","","html-button-response","201","313626","0.0-2.0-45.0","60368a80844cd3d1a83d0123","C3","batch3","","510.80000019073486","tol_trial_num","<div class = centerbox><p class = center-block-text>problem <strong>13</strong> out of 25 problems</p></div>","0","","","","","","","","","","","","","","","","","","","","","","","","",""
"","","","","","single-stim-button","202","316303","0.0-2.0-46.0-0.0","60368a80844cd3d1a83d0123","C3","batch3","","2675","tol_tohand","","","","tol_peg_1","2675","2675","0","[[1,0,0],[3,0],[0]]","1","[[0,0,0],[2,3],[1]]","12","0","","","","","","4","","","","","","","","",""
"","","","","","single-stim-button","203","316784","0.0-2.0-46.0-1.0","60368a80844cd3d1a83d0123","C3","batch3","","480","tol_toboard","","","","tol_peg_2","480","480","0","[[1,0,0],[3,2],[0]]","1","[[0,0,0],[2,3],[1]]","12","0","","","","","","4","","","","","","","","",""
"","","","","","single-stim-button","204","317470","0.0-2.0-46.1-0.1","60368a80844cd3d1a83d0123","C3","batch3","","686","tol_tohand","","","","tol_peg_1","686","686","0","[[0,0,0],[3,2],[0]]","2","[[0,0,0],[2,3],[1]]","12","0","","","","","","4","","","","","","","","",""
"","","","","","single-stim-button","205","318320","0.0-2.0-46.1-1.1","60368a80844cd3d1a83d0123","C3","batch3","","849","tol_toboard","","","","tol_peg_3","849","849","0","[[0,0,0],[3,2],[1]]","2","[[0,0,0],[2,3],[1]]","12","0","","","","","","4","","","","","","","","",""
"","","","","","single-stim-button","206","318992","0.0-2.0-46.2-0.2","60368a80844cd3d1a83d0123","C3","batch3","","671","tol_tohand","","","","tol_peg_2","671","671","0","[[0,0,0],[3,0],[1]]","3","[[0,0,0],[2,3],[1]]","12","0","","","","","","4","","","","","","","","",""
"","","","","","single-stim-button","207","319602","0.0-2.0-46.2-1.2","60368a80844cd3d1a83d0123","C3","batch3","","609","tol_toboard","","","","tol_peg_1","609","609","0","[[2,0,0],[3,0],[1]]","3","[[0,0,0],[2,3],[1]]","12","0","","","","","","4","","","","","","","","",""
"","","","","","single-stim-button","208","324227","0.0-2.0-46.3-0.3","60368a80844cd3d1a83d0123","C3","batch3","","4623","tol_tohand","","","","tol_peg_3","4623","4623","0","[[2,0,0],[3,0],[0]]","4","[[0,0,0],[2,3],[1]]","12","0","","","","","","4","","","","","","","","",""
"","","","","","single-stim-button","209","324898","0.0-2.0-46.3-1.3","60368a80844cd3d1a83d0123","C3","batch3","","671","tol_toboard","","","","tol_peg_1","671","671","0","[[2,1,0],[3,0],[0]]","4","[[0,0,0],[2,3],[1]]","12","0","","","","","","4","","","","","","","","",""
"","","","","","single-stim-button","210","325268","0.0-2.0-46.4-0.4","60368a80844cd3d1a83d0123","C3","batch3","","369","tol_tohand","","","","tol_peg_2","369","369","0","[[2,1,0],[0,0],[0]]","5","[[0,0,0],[2,3],[1]]","12","0","","","","","","4","","","","","","","","",""
"","","","","","single-stim-button","211","326068","0.0-2.0-46.4-1.4","60368a80844cd3d1a83d0123","C3","batch3","","799","tol_toboard","","","","tol_peg_3","799","799","0","[[2,1,0],[0,0],[3]]","5","[[0,0,0],[2,3],[1]]","12","0","","","","","","4","","","","","","","","",""
"","","","","","single-stim-button","212","327366","0.0-2.0-46.5-0.5","60368a80844cd3d1a83d0123","C3","batch3","","1297","tol_tohand","","","","tol_peg_1","1297","1297","0","[[2,0,0],[0,0],[3]]","6","[[0,0,0],[2,3],[1]]","12","0","","","","","","4","","","","","","","","",""
"","","","","","single-stim-button","213","328552","0.0-2.0-46.5-1.5","60368a80844cd3d1a83d0123","C3","batch3","","1185","tol_toboard","","","","tol_peg_2","1185","1185","0","[[2,0,0],[1,0],[3]]","6","[[0,0,0],[2,3],[1]]","12","0","","","","","","4","","","","","","","","",""
"","","","","","single-stim-button","214","329272","0.0-2.0-46.6-0.6","60368a80844cd3d1a83d0123","C3","batch3","","719","tol_tohand","","","","tol_peg_1","719","719","0","[[0,0,0],[1,0],[3]]","7","[[0,0,0],[2,3],[1]]","12","0","","","","","","4","","","","","","","","",""
"","","","","","single-stim-button","215","329770","0.0-2.0-46.6-1.6","60368a80844cd3d1a83d0123","C3","batch3","","497","tol_toboard","","","","tol_peg_2","497","497","0","[[0,0,0],[1,2],[3]]","7","[[0,0,0],[2,3],[1]]","12","0","","","","","","4","","","","","","","","",""
"","","","","","single-stim-button","216","330266","0.0-2.0-46.7-0.7","60368a80844cd3d1a83d0123","C3","batch3","","495","tol_tohand","","","","tol_peg_3","495","495","0","[[0,0,0],[1,2],[0]]","8","[[0,0,0],[2,3],[1]]","12","0","","","","","","4","","","","","","","","",""
"","","","","","single-stim-button","217","331340","0.0-2.0-46.7-1.7","60368a80844cd3d1a83d0123","C3","batch3","","1073","tol_toboard","","","","tol_peg_1","1073","1073","0","[[3,0,0],[1,2],[0]]","8","[[0,0,0],[2,3],[1]]","12","0","","","","","","4","","","","","","","","",""
"","","","","","single-stim-button","218","331980","0.0-2.0-46.8-0.8","60368a80844cd3d1a83d0123","C3","batch3","","639","tol_tohand","","","","tol_peg_2","639","639","0","[[3,0,0],[1,0],[0]]","9","[[0,0,0],[2,3],[1]]","12","0","","","","","","4","","","","","","","","",""
"","","","","","single-stim-button","219","332782","0.0-2.0-46.8-1.8","60368a80844cd3d1a83d0123","C3","batch3","","801","tol_toboard","","","","tol_peg_1","801","801","0","[[3,2,0],[1,0],[0]]","9","[[0,0,0],[2,3],[1]]","12","0","","","","","","4","","","","","","","","",""
"","","","","","single-stim-button","220","333198","0.0-2.0-46.9-0.9","60368a80844cd3d1a83d0123","C3","batch3","","415","tol_tohand","","","","tol_peg_2","415","415","0","[[3,2,0],[0,0],[0]]","10","[[0,0,0],[2,3],[1]]","12","0","","","","","","4","","","","","","","","",""
"","","","","","single-stim-button","221","333808","0.0-2.0-46.9-1.9","60368a80844cd3d1a83d0123","C3","batch3","","608","tol_toboard","","","","tol_peg_3","608","608","0","[[3,2,0],[0,0],[1]]","10","[[0,0,0],[2,3],[1]]","12","0","","","","","","4","","","","","","","","",""
"","","","","","single-stim-button","222","334880","0.0-2.0-46.10-0.10","60368a80844cd3d1a83d0123","C3","batch3","","1072","tol_tohand","","","","tol_peg_1","1072","1072","0","[[3,0,0],[0,0],[1]]","11","[[0,0,0],[2,3],[1]]","12","0","","","","","","4","","","","","","","","",""
"","","","","","single-stim-button","223","335377","0.0-2.0-46.10-1.10","60368a80844cd3d1a83d0123","C3","batch3","","496","tol_toboard","","","","tol_peg_2","496","496","0","[[3,0,0],[2,0],[1]]","11","[[0,0,0],[2,3],[1]]","12","0","","","","","","4","","","","","","","","",""
"","","","","","single-stim-button","224","335842","0.0-2.0-46.11-0.11","60368a80844cd3d1a83d0123","C3","batch3","","464","tol_tohand","","","","tol_peg_1","464","464","0","[[0,0,0],[2,0],[1]]","12","[[0,0,0],[2,3],[1]]","12","0","","","","","","4","","","","","","","","",""
"","","","","","single-stim-button","225","336195","0.0-2.0-46.11-1.11","60368a80844cd3d1a83d0123","C3","batch3","","351","tol_toboard","","","","tol_peg_2","351","351","0","[[0,0,0],[2,3],[1]]","12","[[0,0,0],[2,3],[1]]","12","0","","","","","","4","","","","","","","","",""
"","","","","","poldrack-single-stim","226","337201","0.0-2.0-47.0","60368a80844cd3d1a83d0123","C3","batch3","","-1","tol_feedback","","","true","","1000","1000","500","","","","","","-1","none","true","2675","14125","","","","","","","","","",""
"","","","","","html-button-response","227","340272","0.0-2.0-48.0","60368a80844cd3d1a83d0123","C3","batch3","","3069.4000005722046","attention_check","<p class = block-text>How many balls are in your board<br></p>","1","true","","","","","","","","","","","","","","","","","","","","","","","",""
"","","","","","html-button-response","228","341008","0.0-2.0-49.0","60368a80844cd3d1a83d0123","C3","batch3","","734.6999998092651","tol_trial_num","<div class = centerbox><p class = center-block-text>problem <strong>14</strong> out of 25 problems</p></div>","0","","","","","","","","","","","","","","","","","","","","","","","","",""
"","","","","","single-stim-button","229","345095","0.0-2.0-50.0-0.0","60368a80844cd3d1a83d0123","C3","batch3","","4086","tol_tohand","","","","tol_peg_1","4086","4086","0","[[2,0,0],[3,0],[0]]","1","[[1,2,0],[3,0],[0]]","13","0","","","","","","4","","","","","","","","",""
"","","","","","single-stim-button","230","345784","0.0-2.0-50.0-1.0","60368a80844cd3d1a83d0123","C3","batch3","","688","tol_toboard","","","","tol_peg_3","688","688","0","[[2,0,0],[3,0],[1]]","1","[[1,2,0],[3,0],[0]]","13","0","","","","","","4","","","","","","","","",""
"","","","","","single-stim-button","231","346345","0.0-2.0-50.1-0.1","60368a80844cd3d1a83d0123","C3","batch3","","559","tol_tohand","","","","tol_peg_1","559","559","0","[[0,0,0],[3,0],[1]]","2","[[1,2,0],[3,0],[0]]","13","0","","","","","","4","","","","","","","","",""
"","","","","","single-stim-button","232","346664","0.0-2.0-50.1-1.1","60368a80844cd3d1a83d0123","C3","batch3","","319","tol_toboard","","","","tol_peg_2","319","319","0","[[0,0,0],[3,2],[1]]","2","[[1,2,0],[3,0],[0]]","13","0","","","","","","4","","","","","","","","",""
"","","","","","single-stim-button","233","347096","0.0-2.0-50.2-0.2","60368a80844cd3d1a83d0123","C3","batch3","","431","tol_tohand","","","","tol_peg_3","431","431","0","[[0,0,0],[3,2],[0]]","3","[[1,2,0],[3,0],[0]]","13","0","","","","","","4","","","","","","","","",""
"","","","","","single-stim-button","234","347819","0.0-2.0-50.2-1.2","60368a80844cd3d1a83d0123","C3","batch3","","722","tol_toboard","","","","tol_peg_1","722","722","0","[[1,0,0],[3,2],[0]]","3","[[1,2,0],[3,0],[0]]","13","0","","","","","","4","","","","","","","","",""
"","","","","","single-stim-button","235","348202","0.0-2.0-50.3-0.3","60368a80844cd3d1a83d0123","C3","batch3","","383","tol_tohand","","","","tol_peg_2","383","383","0","[[1,0,0],[3,0],[0]]","4","[[1,2,0],[3,0],[0]]","13","0","","","","","","4","","","","","","","","",""
"","","","","","single-stim-button","236","348747","0.0-2.0-50.3-1.3","60368a80844cd3d1a83d0123","C3","batch3","","543","tol_toboard","","","","tol_peg_1","543","543","0","[[1,2,0],[3,0],[0]]","4","[[1,2,0],[3,0],[0]]","13","0","","","","","","4","","","","","","","","",""
"","","","","","poldrack-single-stim","237","349757","0.0-2.0-51.0","60368a80844cd3d1a83d0123","C3","batch3","","-1","tol_feedback","","","true","","1000","1000","500","","","","","","-1","none","true","4086","5459","","","","","","","","","",""
"","","","","","html-button-response","238","350414","0.0-2.0-52.0","60368a80844cd3d1a83d0123","C3","batch3","","655.1000003814697","tol_trial_num","<div class = centerbox><p class = center-block-text>problem <strong>15</strong> out of 25 problems</p></div>","0","","","","","","","","","","","","","","","","","","","","","","","","",""
"","","","","","single-stim-button","239","353274","0.0-2.0-53.0-0.0","60368a80844cd3d1a83d0123","C3","batch3","","2859","tol_tohand","","","","tol_peg_1","2859","2859","0","[[1,0,0],[3,0],[0]]","1","[[2,0,0],[3,0],[1]]","14","0","","","","","","3","","","","","","","","",""
"","","","","","single-stim-button","240","353706","0.0-2.0-53.0-1.0","60368a80844cd3d1a83d0123","C3","batch3","","431","tol_toboard","","","","tol_peg_2","431","431","0","[[1,0,0],[3,2],[0]]","1","[[2,0,0],[3,0],[1]]","14","0","","","","","","3","","","","","","","","",""
"","","","","","single-stim-button","241","354090","0.0-2.0-53.1-0.1","60368a80844cd3d1a83d0123","C3","batch3","","383","tol_tohand","","","","tol_peg_1","383","383","0","[[0,0,0],[3,2],[0]]","2","[[2,0,0],[3,0],[1]]","14","0","","","","","","3","","","","","","","","",""
"","","","","","single-stim-button","242","354780","0.0-2.0-53.1-1.1","60368a80844cd3d1a83d0123","C3","batch3","","689","tol_toboard","","","","tol_peg_3","689","689","0","[[0,0,0],[3,2],[1]]","2","[[2,0,0],[3,0],[1]]","14","0","","","","","","3","","","","","","","","",""
"","","","","","single-stim-button","243","355213","0.0-2.0-53.2-0.2","60368a80844cd3d1a83d0123","C3","batch3","","431","tol_tohand","","","","tol_peg_2","431","431","0","[[0,0,0],[3,0],[1]]","3","[[2,0,0],[3,0],[1]]","14","0","","","","","","3","","","","","","","","",""
"","","","","","single-stim-button","244","355916","0.0-2.0-53.2-1.2","60368a80844cd3d1a83d0123","C3","batch3","","703","tol_toboard","","","","tol_peg_1","703","703","0","[[2,0,0],[3,0],[1]]","3","[[2,0,0],[3,0],[1]]","14","0","","","","","","3","","","","","","","","",""
"","","","","","poldrack-single-stim","245","356920","0.0-2.0-54.0","60368a80844cd3d1a83d0123","C3","batch3","","-1","tol_feedback","","","true","","1000","1000","500","","","","","","-1","none","true","2859","3673","","","","","","","","","",""
"","","","","","html-button-response","246","357342","0.0-2.0-55.0","60368a80844cd3d1a83d0123","C3","batch3","","420.6000003814697","tol_trial_num","<div class = centerbox><p class = center-block-text>problem <strong>16</strong> out of 25 problems</p></div>","0","","","","","","","","","","","","","","","","","","","","","","","","",""
"","","","","","single-stim-button","247","361987","0.0-2.0-56.0-0.0","60368a80844cd3d1a83d0123","C3","batch3","","4644","tol_tohand","","","","tol_peg_3","4644","4644","0","[[0,0,0],[2,3],[0]]","1","[[2,3,0],[1,0],[0]]","15","0","","","","","","7","","","","","","","","",""
"","","","","","single-stim-button","248","362581","0.0-2.0-56.0-1.0","60368a80844cd3d1a83d0123","C3","batch3","","593","tol_toboard","","","","tol_peg_1","593","593","0","[[1,0,0],[2,3],[0]]","1","[[2,3,0],[1,0],[0]]","15","0","","","","","","7","","","","","","","","",""
"","","","","","single-stim-button","249","363029","0.0-2.0-56.1-0.1","60368a80844cd3d1a83d0123","C3","batch3","","447","tol_tohand","","","","tol_peg_2","447","447","0","[[1,0,0],[2,0],[0]]","2","[[2,3,0],[1,0],[0]]","15","0","","","","","","7","","","","","","","","",""
"","","","","","single-stim-button","250","363687","0.0-2.0-56.1-1.1","60368a80844cd3d1a83d0123","C3","batch3","","658","tol_toboard","","","","tol_peg_1","658","658","0","[[1,3,0],[2,0],[0]]","2","[[2,3,0],[1,0],[0]]","15","0","","","","","","7","","","","","","","","",""
"","","","","","single-stim-button","251","364135","0.0-2.0-56.2-0.2","60368a80844cd3d1a83d0123","C3","batch3","","447","tol_tohand","","","","tol_peg_2","447","447","0","[[1,3,0],[0,0],[0]]","3","[[2,3,0],[1,0],[0]]","15","0","","","","","","7","","","","","","","","",""
"","","","","","single-stim-button","252","364839","0.0-2.0-56.2-1.2","60368a80844cd3d1a83d0123","C3","batch3","","703","tol_toboard","","","","tol_peg_3","703","703","0","[[1,3,0],[0,0],[2]]","3","[[2,3,0],[1,0],[0]]","15","0","","","","","","7","","","","","","","","",""
"","","","","","single-stim-button","253","365401","0.0-2.0-56.3-0.3","60368a80844cd3d1a83d0123","C3","batch3","","561","tol_tohand","","","","tol_peg_1","561","561","0","[[1,0,0],[0,0],[2]]","4","[[2,3,0],[1,0],[0]]","15","0","","","","","","7","","","","","","","","",""
"","","","","","single-stim-button","254","368045","0.0-2.0-56.3-1.3","60368a80844cd3d1a83d0123","C3","batch3","","2643","tol_toboard","","","","tol_peg_2","2643","2643","0","[[1,0,0],[3,0],[2]]","4","[[2,3,0],[1,0],[0]]","15","0","","","","","","7","","","","","","","","",""
"","","","","","single-stim-button","255","368799","0.0-2.0-56.4-0.4","60368a80844cd3d1a83d0123","C3","batch3","","753","tol_tohand","","","","tol_peg_1","753","753","0","[[0,0,0],[3,0],[2]]","5","[[2,3,0],[1,0],[0]]","15","0","","","","","","7","","","","","","","","",""
"","","","","","single-stim-button","256","369167","0.0-2.0-56.4-1.4","60368a80844cd3d1a83d0123","C3","batch3","","367","tol_toboard","","","","tol_peg_2","367","367","0","[[0,0,0],[3,1],[2]]","5","[[2,3,0],[1,0],[0]]","15","0","","","","","","7","","","","","","","","",""
"","","","","","single-stim-button","257","369887","0.0-2.0-56.5-0.5","60368a80844cd3d1a83d0123","C3","batch3","","719","tol_tohand","","","","tol_peg_3","719","719","0","[[0,0,0],[3,1],[0]]","6","[[2,3,0],[1,0],[0]]","15","0","","","","","","7","","","","","","","","",""
"","","","","","single-stim-button","258","370561","0.0-2.0-56.5-1.5","60368a80844cd3d1a83d0123","C3","batch3","","673","tol_toboard","","","","tol_peg_1","673","673","0","[[2,0,0],[3,1],[0]]","6","[[2,3,0],[1,0],[0]]","15","0","","","","","","7","","","","","","","","",""
"","","","","","single-stim-button","259","371025","0.0-2.0-56.6-0.6","60368a80844cd3d1a83d0123","C3","batch3","","463","tol_tohand","","","","tol_peg_2","463","463","0","[[2,0,0],[3,0],[0]]","7","[[2,3,0],[1,0],[0]]","15","0","","","","","","7","","","","","","","","",""
"","","","","","single-stim-button","260","371553","0.0-2.0-56.6-1.6","60368a80844cd3d1a83d0123","C3","batch3","","527","tol_toboard","","","","tol_peg_3","527","527","0","[[2,0,0],[3,0],[1]]","7","[[2,3,0],[1,0],[0]]","15","0","","","","","","7","","","","","","","","",""
"","","","","","single-stim-button","261","372083","0.0-2.0-56.7-0.7","60368a80844cd3d1a83d0123","C3","batch3","","529","tol_tohand","","","","tol_peg_2","529","529","0","[[2,0,0],[0,0],[1]]","8","[[2,3,0],[1,0],[0]]","15","0","","","","","","7","","","","","","","","",""
"","","","","","single-stim-button","262","372371","0.0-2.0-56.7-1.7","60368a80844cd3d1a83d0123","C3","batch3","","287","tol_toboard","","","","tol_peg_1","287","287","0","[[2,3,0],[0,0],[1]]","8","[[2,3,0],[1,0],[0]]","15","0","","","","","","7","","","","","","","","",""
"","","","","","single-stim-button","263","372803","0.0-2.0-56.8-0.8","60368a80844cd3d1a83d0123","C3","batch3","","431","tol_tohand","","","","tol_peg_3","431","431","0","[[2,3,0],[0,0],[0]]","9","[[2,3,0],[1,0],[0]]","15","0","","","","","","7","","","","","","","","",""
"","","","","","single-stim-button","264","373333","0.0-2.0-56.8-1.8","60368a80844cd3d1a83d0123","C3","batch3","","528","tol_toboard","","","","tol_peg_2","528","528","0","[[2,3,0],[1,0],[0]]","9","[[2,3,0],[1,0],[0]]","15","0","","","","","","7","","","","","","","","",""
"","","","","","poldrack-single-stim","265","374335","0.0-2.0-57.0","60368a80844cd3d1a83d0123","C3","batch3","","-1","tol_feedback","","","true","","1000","1000","500","","","","","","-1","none","true","4644","8994","","","","","","","","","",""
"","","","","","html-button-response","266","374951","0.0-2.0-58.0","60368a80844cd3d1a83d0123","C3","batch3","","615","tol_trial_num","<div class = centerbox><p class = center-block-text>problem <strong>17</strong> out of 25 problems</p></div>","0","","","","","","","","","","","","","","","","","","","","","","","","",""
"","","","","","single-stim-button","267","376881","0.0-2.0-59.0-0.0","60368a80844cd3d1a83d0123","C3","batch3","","1929","tol_tohand","","","","tol_peg_1","1929","1929","0","[[1,0,0],[3,0],[0]]","1","[[3,1,0],[2,0],[0]]","16","0","","","","","","5","","","","","","","","",""
"","","","","","single-stim-button","268","377867","0.0-2.0-59.0-1.0","60368a80844cd3d1a83d0123","C3","batch3","","985","tol_toboard","","","","tol_peg_3","985","985","0","[[1,0,0],[3,0],[2]]","1","[[3,1,0],[2,0],[0]]","16","0","","","","","","5","","","","","","","","",""
"","","","","","single-stim-button","269","379885","0.0-2.0-59.1-0.1","60368a80844cd3d1a83d0123","C3","batch3","","2017","tol_tohand","","","","tol_peg_1","2017","2017","0","[[0,0,0],[3,0],[2]]","2","[[3,1,0],[2,0],[0]]","16","0","","","","","","5","","","","","","","","",""
"","","","","","single-stim-button","270","380429","0.0-2.0-59.1-1.1","60368a80844cd3d1a83d0123","C3","batch3","","543","tol_toboard","","","","tol_peg_2","543","543","0","[[0,0,0],[3,1],[2]]","2","[[3,1,0],[2,0],[0]]","16","0","","","","","","5","","","","","","","","",""
"","","","","","single-stim-button","271","381633","0.0-2.0-59.2-0.2","60368a80844cd3d1a83d0123","C3","batch3","","1203","tol_tohand","","","","tol_peg_2","1203","1203","0","[[0,0,0],[3,0],[2]]","3","[[3,1,0],[2,0],[0]]","16","0","","","","","","5","","","","","","","","",""
"","","","","","single-stim-button","272","383171","0.0-2.0-59.2-1.2","60368a80844cd3d1a83d0123","C3","batch3","","1537","tol_toboard","","","","tol_peg_1","1537","1537","0","[[1,0,0],[3,0],[2]]","3","[[3,1,0],[2,0],[0]]","16","0","","","","","","5","","","","","","","","",""
"","","","","","single-stim-button","273","385381","0.0-2.0-59.3-0.3","60368a80844cd3d1a83d0123","C3","batch3","","2209","tol_tohand","","","","tol_peg_3","2209","2209","0","[[1,0,0],[3,0],[0]]","4","[[3,1,0],[2,0],[0]]","16","0","","","","","","5","","","","","","","","",""
"","","","","","single-stim-button","274","385800","0.0-2.0-59.3-1.3","60368a80844cd3d1a83d0123","C3","batch3","","418","tol_toboard","","","","tol_peg_2","418","418","0","[[1,0,0],[3,2],[0]]","4","[[3,1,0],[2,0],[0]]","16","0","","","","","","5","","","","","","","","",""
"","","","","","single-stim-button","275","386199","0.0-2.0-59.4-0.4","60368a80844cd3d1a83d0123","C3","batch3","","399","tol_tohand","","","","tol_peg_1","399","399","0","[[0,0,0],[3,2],[0]]","5","[[3,1,0],[2,0],[0]]","16","0","","","","","","5","","","","","","","","",""
"","","","","","single-stim-button","276","386887","0.0-2.0-59.4-1.4","60368a80844cd3d1a83d0123","C3","batch3","","687","tol_toboard","","","","tol_peg_3","687","687","0","[[0,0,0],[3,2],[1]]","5","[[3,1,0],[2,0],[0]]","16","0","","","","","","5","","","","","","","","",""
"","","","","","single-stim-button","277","387449","0.0-2.0-59.5-0.5","60368a80844cd3d1a83d0123","C3","batch3","","561","tol_tohand","","","","tol_peg_2","561","561","0","[[0,0,0],[3,0],[1]]","6","[[3,1,0],[2,0],[0]]","16","0","","","","","","5","","","","","","","","",""
"","","","","","single-stim-button","278","388393","0.0-2.0-59.5-1.5","60368a80844cd3d1a83d0123","C3","batch3","","943","tol_toboard","","","","tol_peg_1","943","943","0","[[2,0,0],[3,0],[1]]","6","[[3,1,0],[2,0],[0]]","16","0","","","","","","5","","","","","","","","",""
"","","","","","single-stim-button","279","389579","0.0-2.0-59.6-0.6","60368a80844cd3d1a83d0123","C3","batch3","","1185","tol_tohand","","","","tol_peg_2","1185","1185","0","[[2,0,0],[0,0],[1]]","7","[[3,1,0],[2,0],[0]]","16","0","","","","","","5","","","","","","","","",""
"","","","","","single-stim-button","280","390011","0.0-2.0-59.6-1.6","60368a80844cd3d1a83d0123","C3","batch3","","431","tol_toboard","","","","tol_peg_1","431","431","0","[[2,3,0],[0,0],[1]]","7","[[3,1,0],[2,0],[0]]","16","0","","","","","","5","","","","","","","","",""
"","","","","","single-stim-button","281","391029","0.0-2.0-59.7-0.7","60368a80844cd3d1a83d0123","C3","batch3","","1017","tol_tohand","","","","tol_peg_3","1017","1017","0","[[2,3,0],[0,0],[0]]","8","[[3,1,0],[2,0],[0]]","16","0","","","","","","5","","","","","","","","",""
"","","","","","single-stim-button","282","391605","0.0-2.0-59.7-1.7","60368a80844cd3d1a83d0123","C3","batch3","","575","tol_toboard","","","","tol_peg_2","575","575","0","[[2,3,0],[1,0],[0]]","8","[[3,1,0],[2,0],[0]]","16","0","","","","","","5","","","","","","","","",""
"","","","","","single-stim-button","283","392231","0.0-2.0-59.8-0.8","60368a80844cd3d1a83d0123","C3","batch3","","625","tol_tohand","","","","tol_peg_1","625","625","0","[[2,0,0],[1,0],[0]]","9","[[3,1,0],[2,0],[0]]","16","0","","","","","","5","","","","","","","","",""
"","","","","","single-stim-button","284","392855","0.0-2.0-59.8-1.8","60368a80844cd3d1a83d0123","C3","batch3","","624","tol_toboard","","","","tol_peg_3","624","624","0","[[2,0,0],[1,0],[3]]","9","[[3,1,0],[2,0],[0]]","16","0","","","","","","5","","","","","","","","",""
"","","","","","single-stim-button","285","394521","0.0-2.0-59.9-0.9","60368a80844cd3d1a83d0123","C3","batch3","","1665","tol_tohand","","","","tol_peg_1","1665","1665","0","[[0,0,0],[1,0],[3]]","10","[[3,1,0],[2,0],[0]]","16","0","","","","","","5","","","","","","","","",""
"","","","","","single-stim-button","286","395083","0.0-2.0-59.9-1.9","60368a80844cd3d1a83d0123","C3","batch3","","561","tol_toboard","","","","tol_peg_2","561","561","0","[[0,0,0],[1,2],[3]]","10","[[3,1,0],[2,0],[0]]","16","0","","","","","","5","","","","","","","","",""
"","","","","","single-stim-button","287","395611","0.0-2.0-59.10-0.10","60368a80844cd3d1a83d0123","C3","batch3","","527","tol_tohand","","","","tol_peg_3","527","527","0","[[0,0,0],[1,2],[0]]","11","[[3,1,0],[2,0],[0]]","16","0","","","","","","5","","","","","","","","",""
"","","","","","single-stim-button","288","396299","0.0-2.0-59.10-1.10","60368a80844cd3d1a83d0123","C3","batch3","","688","tol_toboard","","","","tol_peg_1","688","688","0","[[3,0,0],[1,2],[0]]","11","[[3,1,0],[2,0],[0]]","16","0","","","","","","5","","","","","","","","",""
"","","","","","single-stim-button","289","397213","0.0-2.0-59.11-0.11","60368a80844cd3d1a83d0123","C3","batch3","","913","tol_tohand","","","","tol_peg_2","913","913","0","[[3,0,0],[1,0],[0]]","12","[[3,1,0],[2,0],[0]]","16","0","","","","","","5","","","","","","","","",""
"","","","","","single-stim-button","290","397693","0.0-2.0-59.11-1.11","60368a80844cd3d1a83d0123","C3","batch3","","479","tol_toboard","","","","tol_peg_3","479","479","0","[[3,0,0],[1,0],[2]]","12","[[3,1,0],[2,0],[0]]","16","0","","","","","","5","","","","","","","","",""
"","","","","","single-stim-button","291","398064","0.0-2.0-59.12-0.12","60368a80844cd3d1a83d0123","C3","batch3","","370","tol_tohand","","","","tol_peg_2","370","370","0","[[3,0,0],[0,0],[2]]","13","[[3,1,0],[2,0],[0]]","16","0","","","","","","5","","","","","","","","",""
"","","","","","single-stim-button","292","398511","0.0-2.0-59.12-1.12","60368a80844cd3d1a83d0123","C3","batch3","","446","tol_toboard","","","","tol_peg_1","446","446","0","[[3,1,0],[0,0],[2]]","13","[[3,1,0],[2,0],[0]]","16","0","","","","","","5","","","","","","","","",""
"","","","","","single-stim-button","293","399970","0.0-2.0-59.13-0.13","60368a80844cd3d1a83d0123","C3","batch3","","1458","tol_tohand","","","","tol_peg_3","1458","1458","0","[[3,1,0],[0,0],[0]]","14","[[3,1,0],[2,0],[0]]","16","0","","","","","","5","","","","","","","","",""
"","","","","","single-stim-button","294","400705","0.0-2.0-59.13-1.13","60368a80844cd3d1a83d0123","C3","batch3","","734","tol_toboard","","","","tol_peg_2","734","734","0","[[3,1,0],[2,0],[0]]","14","[[3,1,0],[2,0],[0]]","16","0","","","","","","5","","","","","","","","",""
"","","","","","poldrack-single-stim","295","401721","0.0-2.0-60.0","60368a80844cd3d1a83d0123","C3","batch3","","-1","tol_feedback","","","true","","1000","1000","500","","","","","","-1","none","true","1929","16078","","","","","","","","","",""
"","","","","","html-button-response","296","402557","0.0-2.0-61.0","60368a80844cd3d1a83d0123","C3","batch3","","834.2000007629395","tol_trial_num","<div class = centerbox><p class = center-block-text>problem <strong>18</strong> out of 25 problems</p></div>","0","","","","","","","","","","","","","","","","","","","","","","","","",""
"","","","","","single-stim-button","297","405318","0.0-2.0-62.0-0.0","60368a80844cd3d1a83d0123","C3","batch3","","2760","tol_tohand","","","","tol_peg_1","2760","2760","0","[[1,0,0],[3,0],[0]]","1","[[3,0,0],[2,0],[1]]","17","0","","","","","","5","","","","","","","","",""
"","","","","","single-stim-button","298","405976","0.0-2.0-62.0-1.0","60368a80844cd3d1a83d0123","C3","batch3","","657","tol_toboard","","","","tol_peg_2","657","657","0","[[1,0,0],[3,2],[0]]","1","[[3,0,0],[2,0],[1]]","17","0","","","","","","5","","","","","","","","",""
"","","","","","single-stim-button","299","406456","0.0-2.0-62.1-0.1","60368a80844cd3d1a83d0123","C3","batch3","","479","tol_tohand","","","","tol_peg_1","479","479","0","[[0,0,0],[3,2],[0]]","2","[[3,0,0],[2,0],[1]]","17","0","","","","","","5","","","","","","","","",""
"","","","","","single-stim-button","300","407147","0.0-2.0-62.1-1.1","60368a80844cd3d1a83d0123","C3","batch3","","690","tol_toboard","","","","tol_peg_3","690","690","0","[[0,0,0],[3,2],[1]]","2","[[3,0,0],[2,0],[1]]","17","0","","","","","","5","","","","","","","","",""
"","","","","","single-stim-button","301","407740","0.0-2.0-62.2-0.2","60368a80844cd3d1a83d0123","C3","batch3","","592","tol_tohand","","","","tol_peg_2","592","592","0","[[0,0,0],[3,0],[1]]","3","[[3,0,0],[2,0],[1]]","17","0","","","","","","5","","","","","","","","",""
"","","","","","single-stim-button","302","409069","0.0-2.0-62.2-1.2","60368a80844cd3d1a83d0123","C3","batch3","","1329","tol_toboard","","","","tol_peg_1","1329","1329","0","[[2,0,0],[3,0],[1]]","3","[[3,0,0],[2,0],[1]]","17","0","","","","","","5","","","","","","","","",""
"","","","","","single-stim-button","303","409756","0.0-2.0-62.3-0.3","60368a80844cd3d1a83d0123","C3","batch3","","686","tol_tohand","","","","tol_peg_2","686","686","0","[[2,0,0],[0,0],[1]]","4","[[3,0,0],[2,0],[1]]","17","0","","","","","","5","","","","","","","","",""
"","","","","","single-stim-button","304","410351","0.0-2.0-62.3-1.3","60368a80844cd3d1a83d0123","C3","batch3","","594","tol_toboard","","","","tol_peg_1","594","594","0","[[2,3,0],[0,0],[1]]","4","[[3,0,0],[2,0],[1]]","17","0","","","","","","5","","","","","","","","",""
"","","","","","single-stim-button","305","411503","0.0-2.0-62.4-0.4","60368a80844cd3d1a83d0123","C3","batch3","","1152","tol_tohand","","","","tol_peg_3","1152","1152","0","[[2,3,0],[0,0],[0]]","5","[[3,0,0],[2,0],[1]]","17","0","","","","","","5","","","","","","","","",""
"","","","","","single-stim-button","306","412146","0.0-2.0-62.4-1.4","60368a80844cd3d1a83d0123","C3","batch3","","642","tol_toboard","","","","tol_peg_2","642","642","0","[[2,3,0],[1,0],[0]]","5","[[3,0,0],[2,0],[1]]","17","0","","","","","","5","","","","","","","","",""
"","","","","","single-stim-button","307","412545","0.0-2.0-62.5-0.5","60368a80844cd3d1a83d0123","C3","batch3","","399","tol_tohand","","","","tol_peg_1","399","399","0","[[2,0,0],[1,0],[0]]","6","[[3,0,0],[2,0],[1]]","17","0","","","","","","5","","","","","","","","",""
"","","","","","single-stim-button","308","413235","0.0-2.0-62.5-1.5","60368a80844cd3d1a83d0123","C3","batch3","","690","tol_toboard","","","","tol_peg_3","690","690","0","[[2,0,0],[1,0],[3]]","6","[[3,0,0],[2,0],[1]]","17","0","","","","","","5","","","","","","","","",""
"","","","","","single-stim-button","309","414115","0.0-2.0-62.6-0.6","60368a80844cd3d1a83d0123","C3","batch3","","879","tol_tohand","","","","tol_peg_1","879","879","0","[[0,0,0],[1,0],[3]]","7","[[3,0,0],[2,0],[1]]","17","0","","","","","","5","","","","","","","","",""
"","","","","","single-stim-button","310","414499","0.0-2.0-62.6-1.6","60368a80844cd3d1a83d0123","C3","batch3","","383","tol_toboard","","","","tol_peg_2","383","383","0","[[0,0,0],[1,2],[3]]","7","[[3,0,0],[2,0],[1]]","17","0","","","","","","5","","","","","","","","",""
"","","","","","single-stim-button","311","415877","0.0-2.0-62.7-0.7","60368a80844cd3d1a83d0123","C3","batch3","","1377","tol_tohand","","","","tol_peg_3","1377","1377","0","[[0,0,0],[1,2],[0]]","8","[[3,0,0],[2,0],[1]]","17","0","","","","","","5","","","","","","","","",""
"","","","","","single-stim-button","312","416631","0.0-2.0-62.7-1.7","60368a80844cd3d1a83d0123","C3","batch3","","754","tol_toboard","","","","tol_peg_1","754","754","0","[[3,0,0],[1,2],[0]]","8","[[3,0,0],[2,0],[1]]","17","0","","","","","","5","","","","","","","","",""
"","","","","","single-stim-button","313","417239","0.0-2.0-62.8-0.8","60368a80844cd3d1a83d0123","C3","batch3","","607","tol_tohand","","","","tol_peg_2","607","607","0","[[3,0,0],[1,0],[0]]","9","[[3,0,0],[2,0],[1]]","17","0","","","","","","5","","","","","","","","",""
"","","","","","single-stim-button","314","417865","0.0-2.0-62.8-1.8","60368a80844cd3d1a83d0123","C3","batch3","","625","tol_toboard","","","","tol_peg_1","625","625","0","[[3,2,0],[1,0],[0]]","9","[[3,0,0],[2,0],[1]]","17","0","","","","","","5","","","","","","","","",""
"","","","","","single-stim-button","315","418394","0.0-2.0-62.9-0.9","60368a80844cd3d1a83d0123","C3","batch3","","528","tol_tohand","","","","tol_peg_2","528","528","0","[[3,2,0],[0,0],[0]]","10","[[3,0,0],[2,0],[1]]","17","0","","","","","","5","","","","","","","","",""
"","","","","","single-stim-button","316","418985","0.0-2.0-62.9-1.9","60368a80844cd3d1a83d0123","C3","batch3","","590","tol_toboard","","","","tol_peg_3","590","590","0","[[3,2,0],[0,0],[1]]","10","[[3,0,0],[2,0],[1]]","17","0","","","","","","5","","","","","","","","",""
"","","","","","single-stim-button","317","419644","0.0-2.0-62.10-0.10","60368a80844cd3d1a83d0123","C3","batch3","","658","tol_tohand","","","","tol_peg_1","658","658","0","[[3,0,0],[0,0],[1]]","11","[[3,0,0],[2,0],[1]]","17","0","","","","","","5","","","","","","","","",""
"","","","","","single-stim-button","318","420269","0.0-2.0-62.10-1.10","60368a80844cd3d1a83d0123","C3","batch3","","623","tol_toboard","","","","tol_peg_2","623","623","0","[[3,0,0],[2,0],[1]]","11","[[3,0,0],[2,0],[1]]","17","0","","","","","","5","","","","","","","","",""
"","","","","","poldrack-single-stim","319","421270","0.0-2.0-63.0","60368a80844cd3d1a83d0123","C3","batch3","","-1","tol_feedback","","","true","","1000","1000","500","","","","","","-1","none","true","2760","10117","","","","","","","","","",""
"","","","","","html-button-response","320","422047","0.0-2.0-64.0","60368a80844cd3d1a83d0123","C3","batch3","","775.3999996185303","tol_trial_num","<div class = centerbox><p class = center-block-text>problem <strong>19</strong> out of 25 problems</p></div>","0","","","","","","","","","","","","","","","","","","","","","","","","",""
"","","","","","single-stim-button","321","424699","0.0-2.0-65.0-0.0","60368a80844cd3d1a83d0123","C3","batch3","","2650","tol_tohand","","","","tol_peg_2","2650","2650","0","[[1,2,0],[0,0],[0]]","1","[[0,0,0],[1,2],[3]]","18","0","","","","","","7","","","","","","","","",""
"","","","","","single-stim-button","322","427486","0.0-2.0-65.0-1.0","60368a80844cd3d1a83d0123","C3","batch3","","2787","tol_toboard","","","","tol_peg_2","2787","2787","0","[[1,2,0],[3,0],[0]]","1","[[0,0,0],[1,2],[3]]","18","0","","","","","","7","","","","","","","","",""
"","","","","","single-stim-button","323","428385","0.0-2.0-65.1-0.1","60368a80844cd3d1a83d0123","C3","batch3","","897","tol_tohand","","","","tol_peg_1","897","897","0","[[1,0,0],[3,0],[0]]","2","[[0,0,0],[1,2],[3]]","18","0","","","","","","7","","","","","","","","",""
"","","","","","single-stim-button","324","429505","0.0-2.0-65.1-1.1","60368a80844cd3d1a83d0123","C3","batch3","","1119","tol_toboard","","","","tol_peg_3","1119","1119","0","[[1,0,0],[3,0],[2]]","2","[[0,0,0],[1,2],[3]]","18","0","","","","","","7","","","","","","","","",""
"","","","","","single-stim-button","325","432822","0.0-2.0-65.2-0.2","60368a80844cd3d1a83d0123","C3","batch3","","3317","tol_tohand","","","","tol_peg_2","3317","3317","0","[[1,0,0],[0,0],[2]]","3","[[0,0,0],[1,2],[3]]","18","0","","","","","","7","","","","","","","","",""
"","","","","","single-stim-button","326","437958","0.0-2.0-65.2-1.2","60368a80844cd3d1a83d0123","C3","batch3","","5135","tol_toboard","","","","tol_peg_1","5135","5135","0","[[1,3,0],[0,0],[2]]","3","[[0,0,0],[1,2],[3]]","18","0","","","","","","7","","","","","","","","",""
"","","","","","single-stim-button","327","439816","0.0-2.0-65.3-0.3","60368a80844cd3d1a83d0123","C3","batch3","","1857","tol_tohand","","","","tol_peg_3","1857","1857","0","[[1,3,0],[0,0],[0]]","4","[[0,0,0],[1,2],[3]]","18","0","","","","","","7","","","","","","","","",""
"","","","","","single-stim-button","328","440458","0.0-2.0-65.3-1.3","60368a80844cd3d1a83d0123","C3","batch3","","641","tol_toboard","","","","tol_peg_2","641","641","0","[[1,3,0],[2,0],[0]]","4","[[0,0,0],[1,2],[3]]","18","0","","","","","","7","","","","","","","","",""
"","","","","","single-stim-button","329","440874","0.0-2.0-65.4-0.4","60368a80844cd3d1a83d0123","C3","batch3","","415","tol_tohand","","","","tol_peg_1","415","415","0","[[1,0,0],[2,0],[0]]","5","[[0,0,0],[1,2],[3]]","18","0","","","","","","7","","","","","","","","",""
"","","","","","single-stim-button","330","441629","0.0-2.0-65.4-1.4","60368a80844cd3d1a83d0123","C3","batch3","","753","tol_toboard","","","","tol_peg_3","753","753","0","[[1,0,0],[2,0],[3]]","5","[[0,0,0],[1,2],[3]]","18","0","","","","","","7","","","","","","","","",""
"","","","","","single-stim-button","331","442093","0.0-2.0-65.5-0.5","60368a80844cd3d1a83d0123","C3","batch3","","463","tol_tohand","","","","tol_peg_1","463","463","0","[[0,0,0],[2,0],[3]]","6","[[0,0,0],[1,2],[3]]","18","0","","","","","","7","","","","","","","","",""
"","","","","","single-stim-button","332","442540","0.0-2.0-65.5-1.5","60368a80844cd3d1a83d0123","C3","batch3","","447","tol_toboard","","","","tol_peg_2","447","447","0","[[0,0,0],[2,1],[3]]","6","[[0,0,0],[1,2],[3]]","18","0","","","","","","7","","","","","","","","",""
"","","","","","single-stim-button","333","443030","0.0-2.0-65.6-0.6","60368a80844cd3d1a83d0123","C3","batch3","","489","tol_tohand","","","","tol_peg_3","489","489","0","[[0,0,0],[2,1],[0]]","7","[[0,0,0],[1,2],[3]]","18","0","","","","","","7","","","","","","","","",""
"","","","","","single-stim-button","334","443958","0.0-2.0-65.6-1.6","60368a80844cd3d1a83d0123","C3","batch3","","927","tol_toboard","","","","tol_peg_1","927","927","0","[[3,0,0],[2,1],[0]]","7","[[0,0,0],[1,2],[3]]","18","0","","","","","","7","","","","","","","","",""
"","","","","","single-stim-button","335","444504","0.0-2.0-65.7-0.7","60368a80844cd3d1a83d0123","C3","batch3","","545","tol_tohand","","","","tol_peg_2","545","545","0","[[3,0,0],[2,0],[0]]","8","[[0,0,0],[1,2],[3]]","18","0","","","","","","7","","","","","","","","",""
"","","","","","single-stim-button","336","445954","0.0-2.0-65.7-1.7","60368a80844cd3d1a83d0123","C3","batch3","","1449","tol_toboard","","","","tol_peg_1","1449","1449","0","[[3,1,0],[2,0],[0]]","8","[[0,0,0],[1,2],[3]]","18","0","","","","","","7","","","","","","","","",""
"","","","","","single-stim-button","337","446387","0.0-2.0-65.8-0.8","60368a80844cd3d1a83d0123","C3","batch3","","431","tol_tohand","","","","tol_peg_2","431","431","0","[[3,1,0],[0,0],[0]]","9","[[0,0,0],[1,2],[3]]","18","0","","","","","","7","","","","","","","","",""
"","","","","","single-stim-button","338","447203","0.0-2.0-65.8-1.8","60368a80844cd3d1a83d0123","C3","batch3","","815","tol_toboard","","","","tol_peg_3","815","815","0","[[3,1,0],[0,0],[2]]","9","[[0,0,0],[1,2],[3]]","18","0","","","","","","7","","","","","","","","",""
"","","","","","single-stim-button","339","447652","0.0-2.0-65.9-0.9","60368a80844cd3d1a83d0123","C3","batch3","","449","tol_tohand","","","","tol_peg_1","449","449","0","[[3,0,0],[0,0],[2]]","10","[[0,0,0],[1,2],[3]]","18","0","","","","","","7","","","","","","","","",""
"","","","","","single-stim-button","340","448405","0.0-2.0-65.9-1.9","60368a80844cd3d1a83d0123","C3","batch3","","751","tol_toboard","","","","tol_peg_2","751","751","0","[[3,0,0],[1,0],[2]]","10","[[0,0,0],[1,2],[3]]","18","0","","","","","","7","","","","","","","","",""
"","","","","","single-stim-button","341","448725","0.0-2.0-65.10-0.10","60368a80844cd3d1a83d0123","C3","batch3","","319","tol_tohand","","","","tol_peg_3","319","319","0","[[3,0,0],[1,0],[0]]","11","[[0,0,0],[1,2],[3]]","18","0","","","","","","7","","","","","","","","",""
"","","","","","single-stim-button","342","449270","0.0-2.0-65.10-1.10","60368a80844cd3d1a83d0123","C3","batch3","","545","tol_toboard","","","","tol_peg_2","545","545","0","[[3,0,0],[1,2],[0]]","11","[[0,0,0],[1,2],[3]]","18","0","","","","","","7","","","","","","","","",""
"","","","","","single-stim-button","343","449687","0.0-2.0-65.11-0.11","60368a80844cd3d1a83d0123","C3","batch3","","415","tol_tohand","","","","tol_peg_1","415","415","0","[[0,0,0],[1,2],[0]]","12","[[0,0,0],[1,2],[3]]","18","0","","","","","","7","","","","","","","","",""
"","","","","","single-stim-button","344","450519","0.0-2.0-65.11-1.11","60368a80844cd3d1a83d0123","C3","batch3","","831","tol_toboard","","","","tol_peg_3","831","831","0","[[0,0,0],[1,2],[3]]","12","[[0,0,0],[1,2],[3]]","18","0","","","","","","7","","","","","","","","",""
"","","","","","poldrack-single-stim","345","451524","0.0-2.0-66.0","60368a80844cd3d1a83d0123","C3","batch3","","-1","tol_feedback","","","true","","1000","1000","500","","","","","","-1","none","true","2650","12247","","","","","","","","","",""
"","","","","","html-button-response","346","452234","0.0-2.0-67.0","60368a80844cd3d1a83d0123","C3","batch3","","708.8000001907349","tol_trial_num","<div class = centerbox><p class = center-block-text>problem <strong>20</strong> out of 25 problems</p></div>","0","","","","","","","","","","","","","","","","","","","","","","","","",""
"","","","","","single-stim-button","347","457066","0.0-2.0-68.0-0.0","60368a80844cd3d1a83d0123","C3","batch3","","4831","tol_tohand","","","","tol_peg_1","4831","4831","0","[[1,0,0],[3,0],[0]]","1","[[2,1,0],[0,0],[3]]","19","0","","","","","","5","","","","","","","","",""
"","","","","","single-stim-button","348","457723","0.0-2.0-68.0-1.0","60368a80844cd3d1a83d0123","C3","batch3","","655","tol_toboard","","","","tol_peg_3","655","655","0","[[1,0,0],[3,0],[2]]","1","[[2,1,0],[0,0],[3]]","19","0","","","","","","5","","","","","","","","",""
"","","","","","single-stim-button","349","458138","0.0-2.0-68.1-0.1","60368a80844cd3d1a83d0123","C3","batch3","","415","tol_tohand","","","","tol_peg_1","415","415","0","[[0,0,0],[3,0],[2]]","2","[[2,1,0],[0,0],[3]]","19","0","","","","","","5","","","","","","","","",""
"","","","","","single-stim-button","350","458572","0.0-2.0-68.1-1.1","60368a80844cd3d1a83d0123","C3","batch3","","433","tol_toboard","","","","tol_peg_2","433","433","0","[[0,0,0],[3,1],[2]]","2","[[2,1,0],[0,0],[3]]","19","0","","","","","","5","","","","","","","","",""
"","","","","","single-stim-button","351","458956","0.0-2.0-68.2-0.2","60368a80844cd3d1a83d0123","C3","batch3","","383","tol_tohand","","","","tol_peg_3","383","383","0","[[0,0,0],[3,1],[0]]","3","[[2,1,0],[0,0],[3]]","19","0","","","","","","5","","","","","","","","",""
"","","","","","single-stim-button","352","460046","0.0-2.0-68.2-1.2","60368a80844cd3d1a83d0123","C3","batch3","","1089","tol_toboard","","","","tol_peg_1","1089","1089","0","[[2,0,0],[3,1],[0]]","3","[[2,1,0],[0,0],[3]]","19","0","","","","","","5","","","","","","","","",""
"","","","","","single-stim-button","353","460558","0.0-2.0-68.3-0.3","60368a80844cd3d1a83d0123","C3","batch3","","511","tol_tohand","","","","tol_peg_2","511","511","0","[[2,0,0],[3,0],[0]]","4","[[2,1,0],[0,0],[3]]","19","0","","","","","","5","","","","","","","","",""
"","","","","","single-stim-button","354","461103","0.0-2.0-68.3-1.3","60368a80844cd3d1a83d0123","C3","batch3","","543","tol_toboard","","","","tol_peg_1","543","543","0","[[2,1,0],[3,0],[0]]","4","[[2,1,0],[0,0],[3]]","19","0","","","","","","5","","","","","","","","",""
"","","","","","single-stim-button","355","461456","0.0-2.0-68.4-0.4","60368a80844cd3d1a83d0123","C3","batch3","","353","tol_tohand","","","","tol_peg_2","353","353","0","[[2,1,0],[0,0],[0]]","5","[[2,1,0],[0,0],[3]]","19","0","","","","","","5","","","","","","","","",""
"","","","","","single-stim-button","356","462097","0.0-2.0-68.4-1.4","60368a80844cd3d1a83d0123","C3","batch3","","639","tol_toboard","","","","tol_peg_3","639","639","0","[[2,1,0],[0,0],[3]]","5","[[2,1,0],[0,0],[3]]","19","0","","","","","","5","","","","","","","","",""
