"success","timeout","failed_images","failed_audio","failed_video","trial_type","trial_index","time_elapsed","internal_node_id","subject_id","study_id","session_id","view_history","rt","task","stimulus","response","correct","mouse_click","stim_duration","block_duration","timing_post_trial","current_position","tol_num_moves_made","tol_target","tol_problem_id","tol_rt","key_press","possible_responses","tol_correct","preplanning","tol_rt_per_trial","tol_min_moves","answer","item","fiar_detect_rt","fiar_detect_correct","total_correct_fiar_detect","post_trial_gap","choices","spm_correct","spm_rt"
"true","false","[]","[]","[]","preload","0","1209","0.0-0.0","603e97018512c2f752512f0b","E1","batch5","","","","","","","","","","","","","","","","","","","","","","","","","","","","","",""
"true","","","","","fullscreen","1","98836","0.0-1.0-0.0","603e97018512c2f752512f0b","E1","batch5","","","","","","","","","","","","","","","","","","","","","","","","","","","","","",""
"true","","","","","fullscreen","2","101189","0.0-2.0-0.0","603e97018512c2f752512f0b","E1","batch5","","","","","","","","","","","","","","","","","","","","","","","","","","","","","",""
"","","","","","instructions","3","132111","0.0-2.0-1.0-0.0-0.0","603e97018512c2f752512f0b","E1","batch5","[{""page_index"":0,""viewing_time"":7647.5},{""page_index"":1,""viewing_time"":5685},{""page_index"":2,""viewing_time"":2928.60000000149},{""page_index"":3,""viewing_time"":5561.800000000745},{""page_index"":4,""viewing_time"":3217.199999999255},{""page_index"":5,""viewing_time"":3712.699999999255},{""page_index"":6,""viewing_time"":2167.800000000745}]","30920.900000002235","tol-instructions","","","","","","","","","","","","","","","","","","","","","","","","","","",""
"","","","","","html-button-response","4","133018","0.0-2.0-1.0-1.0-0.0","603e97018512c2f752512f0b","E1","batch5","","906.3000000007451","tol_enter_quiz","<p class=block-text> Let's answer a few questions <br>","0","","","","","","","","","","","","","","","","","","","","","","","","",""
"","","","","","html-button-response","5","136820","0.0-2.0-1.0-1.0-1.0","603e97018512c2f752512f0b","E1","batch5","","3801.800000000745","tol_quiz","<p class = block-text>True or False: You can only move the ball on top of a peg. <br></p>","0","true","","","","","","","","","","","","","","","","","","","","","","","",""
"","","","","","html-button-response","6","137833","0.0-2.0-1.0-1.0-2.0","603e97018512c2f752512f0b","E1","batch5","","1011.8999999985099","tol_quiz_feedback","<p class = block-text>Correct! You can only move the ball on top of a peg.</p>","0","","","","","","","","","","","","","","","","","","","","","","","","",""
"","","","","","html-button-response","7","139873","0.0-2.0-1.0-1.0-3.0","603e97018512c2f752512f0b","E1","batch5","","2038.8999999985099","tol_quiz","<p class = block-text>True or False: You should try to match your board with the target board with fewest moves possible. <br></p>","0","true","","","","","","","","","","","","","","","","","","","","","","","",""
"","","","","","html-button-response","8","140473","0.0-2.0-1.0-1.0-4.0","603e97018512c2f752512f0b","E1","batch5","","599.5999999977648","tol_quiz_feedback","<p class = block-text>Correct! </p>","0","","","","","","","","","","","","","","","","","","","","","","","","",""
"","","","","","html-button-response","9","141748","0.0-2.0-2.0","603e97018512c2f752512f0b","E1","batch5","","1274","","<p class=block-text> Now that you've understood the game, let's practice a few easier examples before we start!<br> <br>","0","","","","","","","","","","","","","","","","","","","","","","","","",""
"","","","","","single-stim-button","10","146991","0.0-2.0-3.0-0.0","603e97018512c2f752512f0b","E1","batch5","","5242","tol_practice","","","","tol_peg_2","5242","5242","0","[[1,2,0],[0,0],[0]]","1","[[1,2,0],[0,0],[3]]","practice","5242","","","","","","","","","","","","","","",""
"","","","","","single-stim-button","11","148851","0.0-2.0-3.0-1.0","603e97018512c2f752512f0b","E1","batch5","","1858","tol_practice","","","","tol_peg_3","1858","1858","0","[[1,2,0],[0,0],[3]]","1","[[1,2,0],[0,0],[3]]","practice","1858","","","","","","","","","","","","","","",""
"","","","","","poldrack-single-stim","12","149859","0.0-2.0-4.0","603e97018512c2f752512f0b","E1","batch5","","-1","tol_feedback","","","true","","1000","1000","500","","","","","","-1","none","true","","0","","","","","","","","","",""
"","","","","","single-stim-button","13","152623","0.0-2.0-5.0-0.0","603e97018512c2f752512f0b","E1","batch5","","2764","tol_practice","","","","tol_peg_1","2764","2764","0","[[1,0,0],[3,0],[0]]","2","[[0,0,0],[3,1],[2]]","practice","2764","","","","","","","","","","","","","","",""
"","","","","","single-stim-button","14","153517","0.0-2.0-5.0-1.0","603e97018512c2f752512f0b","E1","batch5","","892","tol_practice","","","","tol_peg_2","892","892","0","[[1,0,0],[3,2],[0]]","2","[[0,0,0],[3,1],[2]]","practice","892","","","","","","","","","","","","","","",""
"","","","","","single-stim-button","15","154963","0.0-2.0-5.1-0.1","603e97018512c2f752512f0b","E1","batch5","","1446","tol_practice","","","","tol_peg_2","1446","1446","0","[[1,0,0],[3,0],[0]]","3","[[0,0,0],[3,1],[2]]","practice","1446","","","","","","","","","","","","","","",""
"","","","","","single-stim-button","16","155938","0.0-2.0-5.1-1.1","603e97018512c2f752512f0b","E1","batch5","","975","tol_practice","","","","tol_peg_3","975","975","0","[[1,0,0],[3,0],[2]]","3","[[0,0,0],[3,1],[2]]","practice","975","","","","","","","","","","","","","","",""
"","","","","","single-stim-button","17","156688","0.0-2.0-5.2-0.2","603e97018512c2f752512f0b","E1","batch5","","749","tol_practice","","","","tol_peg_1","749","749","0","[[0,0,0],[3,0],[2]]","4","[[0,0,0],[3,1],[2]]","practice","749","","","","","","","","","","","","","","",""
"","","","","","single-stim-button","18","157453","0.0-2.0-5.2-1.2","603e97018512c2f752512f0b","E1","batch5","","764","tol_practice","","","","tol_peg_2","764","764","0","[[0,0,0],[3,1],[2]]","4","[[0,0,0],[3,1],[2]]","practice","764","","","","","","","","","","","","","","",""
"","","","","","poldrack-single-stim","19","158454","0.0-2.0-6.0","603e97018512c2f752512f0b","E1","batch5","","-1","tol_feedback","","","true","","1000","1000","500","","","","","","-1","none","true","","0","","","","","","","","","",""
"","","","","","single-stim-button","20","160258","0.0-2.0-7.0-0.0","603e97018512c2f752512f0b","E1","batch5","","1804","tol_practice","","","","tol_peg_2","1804","1804","0","[[1,2,0],[0,0],[0]]","5","[[1,0,0],[2,0],[3]]","practice","1804","","","","","","","","","","","","","","",""
"","","","","","single-stim-button","21","161099","0.0-2.0-7.0-1.0","603e97018512c2f752512f0b","E1","batch5","","839","tol_practice","","","","tol_peg_3","839","839","0","[[1,2,0],[0,0],[3]]","5","[[1,0,0],[2,0],[3]]","practice","839","","","","","","","","","","","","","","",""
"","","","","","single-stim-button","22","162149","0.0-2.0-7.1-0.1","603e97018512c2f752512f0b","E1","batch5","","1050","tol_practice","","","","tol_peg_1","1050","1050","0","[[1,0,0],[0,0],[3]]","6","[[1,0,0],[2,0],[3]]","practice","1050","","","","","","","","","","","","","","",""
"","","","","","single-stim-button","23","162666","0.0-2.0-7.1-1.1","603e97018512c2f752512f0b","E1","batch5","","517","tol_practice","","","","tol_peg_2","517","517","0","[[1,0,0],[2,0],[3]]","6","[[1,0,0],[2,0],[3]]","practice","517","","","","","","","","","","","","","","",""
"","","","","","poldrack-single-stim","24","163672","0.0-2.0-8.0","603e97018512c2f752512f0b","E1","batch5","","-1","tol_feedback","","","true","","1000","1000","500","","","","","","-1","none","true","","0","","","","","","","","","",""
"","","","","","html-button-response","25","170452","0.0-2.0-9.0","603e97018512c2f752512f0b","E1","batch5","","6779.900000002235","tol_instruction","<div class = centerbox><p class = center-block-text>Great job! You are done with practice trials<br>You are about to start official trials.<br> <br> Problem <strong>1</strong> out of 25 problems</p></div>","0","","","","","","","","","","","","","","","","","","","","","","","","",""
"","","","","","single-stim-button","26","173826","0.0-2.0-10.0-0.0","603e97018512c2f752512f0b","E1","batch5","","2373","tol_tohand","","","","tol_peg_1","2373","2373","0","[[1,0,0],[3,0],[0]]","1","[[1,3,0],[2,0],[0]]","0","0","","","","","","3","","","","","","","","",""
"","","","","","single-stim-button","27","174726","0.0-2.0-10.0-1.0","603e97018512c2f752512f0b","E1","batch5","","900","tol_toboard","","","","tol_peg_2","900","900","0","[[1,0,0],[3,2],[0]]","1","[[1,3,0],[2,0],[0]]","0","0","","","","","","3","","","","","","","","",""
"","","","","","single-stim-button","28","176113","0.0-2.0-10.1-0.1","603e97018512c2f752512f0b","E1","batch5","","1387","tol_tohand","","","","tol_peg_2","1387","1387","0","[[1,0,0],[3,0],[0]]","2","[[1,3,0],[2,0],[0]]","0","0","","","","","","3","","","","","","","","",""
"","","","","","single-stim-button","29","176729","0.0-2.0-10.1-1.1","603e97018512c2f752512f0b","E1","batch5","","615","tol_toboard","","","","tol_peg_3","615","615","0","[[1,0,0],[3,0],[2]]","2","[[1,3,0],[2,0],[0]]","0","0","","","","","","3","","","","","","","","",""
"","","","","","single-stim-button","30","177261","0.0-2.0-10.2-0.2","603e97018512c2f752512f0b","E1","batch5","","532","tol_tohand","","","","tol_peg_2","532","532","0","[[1,0,0],[0,0],[2]]","3","[[1,3,0],[2,0],[0]]","0","0","","","","","","3","","","","","","","","",""
"","","","","","single-stim-button","31","177936","0.0-2.0-10.2-1.2","603e97018512c2f752512f0b","E1","batch5","","675","tol_toboard","","","","tol_peg_1","675","675","0","[[1,3,0],[0,0],[2]]","3","[[1,3,0],[2,0],[0]]","0","0","","","","","","3","","","","","","","","",""
"","","","","","single-stim-button","32","178499","0.0-2.0-10.3-0.3","603e97018512c2f752512f0b","E1","batch5","","563","tol_tohand","","","","tol_peg_3","563","563","0","[[1,3,0],[0,0],[0]]","4","[[1,3,0],[2,0],[0]]","0","0","","","","","","3","","","","","","","","",""
"","","","","","single-stim-button","33","178919","0.0-2.0-10.3-1.3","603e97018512c2f752512f0b","E1","batch5","","419","tol_toboard","","","","tol_peg_2","419","419","0","[[1,3,0],[2,0],[0]]","4","[[1,3,0],[2,0],[0]]","0","0","","","","","","3","","","","","","","","",""
"","","","","","poldrack-single-stim","34","179919","0.0-2.0-11.0","603e97018512c2f752512f0b","E1","batch5","","-1","tol_feedback","","","true","","1000","1000","500","","","","","","-1","none","true","2373","4855","","","","","","","","","",""
"","","","","","html-button-response","35","180884","0.0-2.0-12.0","603e97018512c2f752512f0b","E1","batch5","","964","tol_trial_num","<div class = centerbox><p class = center-block-text>problem <strong>2</strong> out of 25 problems</p></div>","0","","","","","","","","","","","","","","","","","","","","","","","","",""
"","","","","","single-stim-button","36","183126","0.0-2.0-13.0-0.0","603e97018512c2f752512f0b","E1","batch5","","2242","tol_tohand","","","","tol_peg_1","2242","2242","0","[[1,0,0],[3,0],[0]]","1","[[2,1,3],[0,0],[0]]","1","0","","","","","","5","","","","","","","","",""
"","","","","","single-stim-button","37","185385","0.0-2.0-13.0-1.0","603e97018512c2f752512f0b","E1","batch5","","2258","tol_toboard","","","","tol_peg_2","2258","2258","0","[[1,0,0],[3,2],[0]]","1","[[2,1,3],[0,0],[0]]","1","0","","","","","","5","","","","","","","","",""
"","","","","","single-stim-button","38","185909","0.0-2.0-13.1-0.1","603e97018512c2f752512f0b","E1","batch5","","523","tol_tohand","","","","tol_peg_1","523","523","0","[[0,0,0],[3,2],[0]]","2","[[2,1,3],[0,0],[0]]","1","0","","","","","","5","","","","","","","","",""
"","","","","","single-stim-button","39","190109","0.0-2.0-13.1-1.1","603e97018512c2f752512f0b","E1","batch5","","4199","tol_toboard","","","","tol_peg_3","4199","4199","0","[[0,0,0],[3,2],[1]]","2","[[2,1,3],[0,0],[0]]","1","0","","","","","","5","","","","","","","","",""
"","","","","","single-stim-button","40","190994","0.0-2.0-13.2-0.2","603e97018512c2f752512f0b","E1","batch5","","884","tol_tohand","","","","tol_peg_2","884","884","0","[[0,0,0],[3,0],[1]]","3","[[2,1,3],[0,0],[0]]","1","0","","","","","","5","","","","","","","","",""
"","","","","","single-stim-button","41","191548","0.0-2.0-13.2-1.2","603e97018512c2f752512f0b","E1","batch5","","554","tol_toboard","","","","tol_peg_1","554","554","0","[[2,0,0],[3,0],[1]]","3","[[2,1,3],[0,0],[0]]","1","0","","","","","","5","","","","","","","","",""
"","","","","","single-stim-button","42","192381","0.0-2.0-13.3-0.3","603e97018512c2f752512f0b","E1","batch5","","832","tol_tohand","","","","tol_peg_3","832","832","0","[[2,0,0],[3,0],[0]]","4","[[2,1,3],[0,0],[0]]","1","0","","","","","","5","","","","","","","","",""
"","","","","","single-stim-button","43","193094","0.0-2.0-13.3-1.3","603e97018512c2f752512f0b","E1","batch5","","713","tol_toboard","","","","tol_peg_1","713","713","0","[[2,1,0],[3,0],[0]]","4","[[2,1,3],[0,0],[0]]","1","0","","","","","","5","","","","","","","","",""
"","","","","","single-stim-button","44","194076","0.0-2.0-13.4-0.4","603e97018512c2f752512f0b","E1","batch5","","982","tol_tohand","","","","tol_peg_2","982","982","0","[[2,1,0],[0,0],[0]]","5","[[2,1,3],[0,0],[0]]","1","0","","","","","","5","","","","","","","","",""
"","","","","","single-stim-button","45","194602","0.0-2.0-13.4-1.4","603e97018512c2f752512f0b","E1","batch5","","524","tol_toboard","","","","tol_peg_1","524","524","0","[[2,1,3],[0,0],[0]]","5","[[2,1,3],[0,0],[0]]","1","0","","","","","","5","","","","","","","","",""
"","","","","","poldrack-single-stim","46","195603","0.0-2.0-14.0","603e97018512c2f752512f0b","E1","batch5","","-1","tol_feedback","","","true","","1000","1000","500","","","","","","-1","none","true","2242","5463","","","","","","","","","",""
"","","","","","html-button-response","47","196484","0.0-2.0-15.0","603e97018512c2f752512f0b","E1","batch5","","880.3999999985099","tol_trial_num","<div class = centerbox><p class = center-block-text>problem <strong>3</strong> out of 25 problems</p></div>","0","","","","","","","","","","","","","","","","","","","","","","","","",""
"","","","","","single-stim-button","48","198426","0.0-2.0-16.0-0.0","603e97018512c2f752512f0b","E1","batch5","","1942","tol_tohand","","","","tol_peg_1","1942","1942","0","[[2,0,0],[0,0],[1]]","1","[[1,2,0],[3,0],[0]]","2","0","","","","","","4","","","","","","","","",""
"","","","","","single-stim-button","49","198974","0.0-2.0-16.0-1.0","603e97018512c2f752512f0b","E1","batch5","","547","tol_toboard","","","","tol_peg_2","547","547","0","[[2,0,0],[3,0],[1]]","1","[[1,2,0],[3,0],[0]]","2","0","","","","","","4","","","","","","","","",""
"","","","","","single-stim-button","50","199537","0.0-2.0-16.1-0.1","603e97018512c2f752512f0b","E1","batch5","","563","tol_tohand","","","","tol_peg_3","563","563","0","[[2,0,0],[3,0],[0]]","2","[[1,2,0],[3,0],[0]]","2","0","","","","","","4","","","","","","","","",""
"","","","","","single-stim-button","51","200137","0.0-2.0-16.1-1.1","603e97018512c2f752512f0b","E1","batch5","","599","tol_toboard","","","","tol_peg_1","599","599","0","[[2,1,0],[3,0],[0]]","2","[[1,2,0],[3,0],[0]]","2","0","","","","","","4","","","","","","","","",""
"","","","","","single-stim-button","52","201667","0.0-2.0-16.2-0.2","603e97018512c2f752512f0b","E1","batch5","","1530","tol_tohand","","","","tol_peg_1","1530","1530","0","[[2,0,0],[3,0],[0]]","3","[[1,2,0],[3,0],[0]]","2","0","","","","","","4","","","","","","","","",""
"","","","","","single-stim-button","53","202161","0.0-2.0-16.2-1.2","603e97018512c2f752512f0b","E1","batch5","","494","tol_toboard","","","","tol_peg_2","494","494","0","[[2,0,0],[3,1],[0]]","3","[[1,2,0],[3,0],[0]]","2","0","","","","","","4","","","","","","","","",""
"","","","","","single-stim-button","54","202702","0.0-2.0-16.3-0.3","603e97018512c2f752512f0b","E1","batch5","","540","tol_tohand","","","","tol_peg_1","540","540","0","[[0,0,0],[3,1],[0]]","4","[[1,2,0],[3,0],[0]]","2","0","","","","","","4","","","","","","","","",""
"","","","","","single-stim-button","55","203376","0.0-2.0-16.3-1.3","603e97018512c2f752512f0b","E1","batch5","","674","tol_toboard","","","","tol_peg_3","674","674","0","[[0,0,0],[3,1],[2]]","4","[[1,2,0],[3,0],[0]]","2","0","","","","","","4","","","","","","","","",""
"","","","","","single-stim-button","56","203752","0.0-2.0-16.4-0.4","603e97018512c2f752512f0b","E1","batch5","","375","tol_tohand","","","","tol_peg_2","375","375","0","[[0,0,0],[3,0],[2]]","5","[[1,2,0],[3,0],[0]]","2","0","","","","","","4","","","","","","","","",""
"","","","","","single-stim-button","57","204479","0.0-2.0-16.4-1.4","603e97018512c2f752512f0b","E1","batch5","","727","tol_toboard","","","","tol_peg_1","727","727","0","[[1,0,0],[3,0],[2]]","5","[[1,2,0],[3,0],[0]]","2","0","","","","","","4","","","","","","","","",""
"","","","","","single-stim-button","58","205198","0.0-2.0-16.5-0.5","603e97018512c2f752512f0b","E1","batch5","","719","tol_tohand","","","","tol_peg_3","719","719","0","[[1,0,0],[3,0],[0]]","6","[[1,2,0],[3,0],[0]]","2","0","","","","","","4","","","","","","","","",""
"","","","","","single-stim-button","59","205687","0.0-2.0-16.5-1.5","603e97018512c2f752512f0b","E1","batch5","","488","tol_toboard","","","","tol_peg_1","488","488","0","[[1,2,0],[3,0],[0]]","6","[[1,2,0],[3,0],[0]]","2","0","","","","","","4","","","","","","","","",""
"","","","","","poldrack-single-stim","60","206688","0.0-2.0-17.0","603e97018512c2f752512f0b","E1","batch5","","-1","tol_feedback","","","true","","1000","1000","500","","","","","","-1","none","true","1942","5669","","","","","","","","","",""
"","","","","","html-button-response","61","207546","0.0-2.0-18.0","603e97018512c2f752512f0b","E1","batch5","","857.6999999992549","tol_trial_num","<div class = centerbox><p class = center-block-text>problem <strong>4</strong> out of 25 problems</p></div>","0","","","","","","","","","","","","","","","","","","","","","","","","",""
"","","","","","single-stim-button","62","209594","0.0-2.0-19.0-0.0","603e97018512c2f752512f0b","E1","batch5","","2047","tol_tohand","","","","tol_peg_2","2047","2047","0","[[3,0,0],[2,0],[0]]","1","[[3,0,0],[1,0],[2]]","3","0","","","","","","3","","","","","","","","",""
"","","","","","single-stim-button","63","210172","0.0-2.0-19.0-1.0","603e97018512c2f752512f0b","E1","batch5","","578","tol_toboard","","","","tol_peg_3","578","578","0","[[3,0,0],[2,0],[1]]","1","[[3,0,0],[1,0],[2]]","3","0","","","","","","3","","","","","","","","",""
"","","","","","single-stim-button","64","212039","0.0-2.0-19.1-0.1","603e97018512c2f752512f0b","E1","batch5","","1867","tol_tohand","","","","tol_peg_2","1867","1867","0","[[3,0,0],[0,0],[1]]","2","[[3,0,0],[1,0],[2]]","3","0","","","","","","3","","","","","","","","",""
"","","","","","single-stim-button","65","212534","0.0-2.0-19.1-1.1","603e97018512c2f752512f0b","E1","batch5","","494","tol_toboard","","","","tol_peg_1","494","494","0","[[3,2,0],[0,0],[1]]","2","[[3,0,0],[1,0],[2]]","3","0","","","","","","3","","","","","","","","",""
"","","","","","single-stim-button","66","213223","0.0-2.0-19.2-0.2","603e97018512c2f752512f0b","E1","batch5","","689","tol_tohand","","","","tol_peg_3","689","689","0","[[3,2,0],[0,0],[0]]","3","[[3,0,0],[1,0],[2]]","3","0","","","","","","3","","","","","","","","",""
"","","","","","single-stim-button","67","213628","0.0-2.0-19.2-1.2","603e97018512c2f752512f0b","E1","batch5","","404","tol_toboard","","","","tol_peg_2","404","404","0","[[3,2,0],[1,0],[0]]","3","[[3,0,0],[1,0],[2]]","3","0","","","","","","3","","","","","","","","",""
"","","","","","single-stim-button","68","214416","0.0-2.0-19.3-0.3","603e97018512c2f752512f0b","E1","batch5","","787","tol_tohand","","","","tol_peg_1","787","787","0","[[3,0,0],[1,0],[0]]","4","[[3,0,0],[1,0],[2]]","3","0","","","","","","3","","","","","","","","",""
"","","","","","single-stim-button","69","215189","0.0-2.0-19.3-1.3","603e97018512c2f752512f0b","E1","batch5","","772","tol_toboard","","","","tol_peg_3","772","772","0","[[3,0,0],[1,0],[2]]","4","[[3,0,0],[1,0],[2]]","3","0","","","","","","3","","","","","","","","",""
"","","","","","poldrack-single-stim","70","216196","0.0-2.0-20.0","603e97018512c2f752512f0b","E1","batch5","","-1","tol_feedback","","","true","","1000","1000","500","","","","","","-1","none","true","2047","5390","","","","","","","","","",""
"","","","","","html-button-response","71","217911","0.0-2.0-21.0","603e97018512c2f752512f0b","E1","batch5","","1714.0999999977648","tol_trial_num","<div class = centerbox><p class = center-block-text>problem <strong>5</strong> out of 25 problems</p></div>","0","","","","","","","","","","","","","","","","","","","","","","","","",""
"","","","","","single-stim-button","72","223904","0.0-2.0-22.0-0.0","603e97018512c2f752512f0b","E1","batch5","","5993","tol_tohand","","","","tol_peg_1","5993","5993","0","[[0,0,0],[2,0],[3]]","1","[[0,0,0],[1,2],[3]]","4","0","","","","","","7","","","","","","","","",""
"","","","","","single-stim-button","73","226634","0.0-2.0-22.0-1.0","603e97018512c2f752512f0b","E1","batch5","","2729","tol_toboard","","","","tol_peg_2","2729","2729","0","[[0,0,0],[2,1],[3]]","1","[[0,0,0],[1,2],[3]]","4","0","","","","","","7","","","","","","","","",""
"","","","","","single-stim-button","74","227324","0.0-2.0-22.1-0.1","603e97018512c2f752512f0b","E1","batch5","","690","tol_tohand","","","","tol_peg_3","690","690","0","[[0,0,0],[2,1],[0]]","2","[[0,0,0],[1,2],[3]]","4","0","","","","","","7","","","","","","","","",""
"","","","","","single-stim-button","75","227879","0.0-2.0-22.1-1.1","603e97018512c2f752512f0b","E1","batch5","","555","tol_toboard","","","","tol_peg_1","555","555","0","[[3,0,0],[2,1],[0]]","2","[[0,0,0],[1,2],[3]]","4","0","","","","","","7","","","","","","","","",""
"","","","","","single-stim-button","76","228396","0.0-2.0-22.2-0.2","603e97018512c2f752512f0b","E1","batch5","","517","tol_tohand","","","","tol_peg_2","517","517","0","[[3,0,0],[2,0],[0]]","3","[[0,0,0],[1,2],[3]]","4","0","","","","","","7","","","","","","","","",""
"","","","","","single-stim-button","77","228876","0.0-2.0-22.2-1.2","603e97018512c2f752512f0b","E1","batch5","","480","tol_toboard","","","","tol_peg_3","480","480","0","[[3,0,0],[2,0],[1]]","3","[[0,0,0],[1,2],[3]]","4","0","","","","","","7","","","","","","","","",""
"","","","","","single-stim-button","78","230121","0.0-2.0-22.3-0.3","603e97018512c2f752512f0b","E1","batch5","","1245","tol_tohand","","","","tol_peg_2","1245","1245","0","[[3,0,0],[0,0],[1]]","4","[[0,0,0],[1,2],[3]]","4","0","","","","","","7","","","","","","","","",""
"","","","","","single-stim-button","79","230519","0.0-2.0-22.3-1.3","603e97018512c2f752512f0b","E1","batch5","","398","tol_toboard","","","","tol_peg_1","398","398","0","[[3,2,0],[0,0],[1]]","4","[[0,0,0],[1,2],[3]]","4","0","","","","","","7","","","","","","","","",""
"","","","","","single-stim-button","80","231216","0.0-2.0-22.4-0.4","603e97018512c2f752512f0b","E1","batch5","","697","tol_tohand","","","","tol_peg_3","697","697","0","[[3,2,0],[0,0],[0]]","5","[[0,0,0],[1,2],[3]]","4","0","","","","","","7","","","","","","","","",""
"","","","","","single-stim-button","81","231659","0.0-2.0-22.4-1.4","603e97018512c2f752512f0b","E1","batch5","","443","tol_toboard","","","","tol_peg_2","443","443","0","[[3,2,0],[1,0],[0]]","5","[[0,0,0],[1,2],[3]]","4","0","","","","","","7","","","","","","","","",""
"","","","","","single-stim-button","82","232101","0.0-2.0-22.5-0.5","603e97018512c2f752512f0b","E1","batch5","","442","tol_tohand","","","","tol_peg_1","442","442","0","[[3,0,0],[1,0],[0]]","6","[[0,0,0],[1,2],[3]]","4","0","","","","","","7","","","","","","","","",""
"","","","","","single-stim-button","83","232446","0.0-2.0-22.5-1.5","603e97018512c2f752512f0b","E1","batch5","","344","tol_toboard","","","","tol_peg_2","344","344","0","[[3,0,0],[1,2],[0]]","6","[[0,0,0],[1,2],[3]]","4","0","","","","","","7","","","","","","","","",""
"","","","","","single-stim-button","84","232881","0.0-2.0-22.6-0.6","603e97018512c2f752512f0b","E1","batch5","","434","tol_tohand","","","","tol_peg_1","434","434","0","[[0,0,0],[1,2],[0]]","7","[[0,0,0],[1,2],[3]]","4","0","","","","","","7","","","","","","","","",""
"","","","","","single-stim-button","85","233361","0.0-2.0-22.6-1.6","603e97018512c2f752512f0b","E1","batch5","","480","tol_toboard","","","","tol_peg_3","480","480","0","[[0,0,0],[1,2],[3]]","7","[[0,0,0],[1,2],[3]]","4","0","","","","","","7","","","","","","","","",""
"","","","","","poldrack-single-stim","86","234362","0.0-2.0-23.0","603e97018512c2f752512f0b","E1","batch5","","-1","tol_feedback","","","true","","1000","1000","500","","","","","","-1","none","true","5993","10018","","","","","","","","","",""
"","","","","","html-button-response","87","235176","0.0-2.0-24.0","603e97018512c2f752512f0b","E1","batch5","","813.6000000014901","tol_trial_num","<div class = centerbox><p class = center-block-text>problem <strong>6</strong> out of 25 problems</p></div>","0","","","","","","","","","","","","","","","","","","","","","","","","",""
"","","","","","single-stim-button","88","238791","0.0-2.0-25.0-0.0","603e97018512c2f752512f0b","E1","batch5","","3615","tol_tohand","","","","tol_peg_2","3615","3615","0","[[0,0,0],[1,0],[3]]","1","[[1,0,0],[2,3],[0]]","5","0","","","","","","6","","","","","","","","",""
"","","","","","single-stim-button","89","239519","0.0-2.0-25.0-1.0","603e97018512c2f752512f0b","E1","batch5","","728","tol_toboard","","","","tol_peg_1","728","728","0","[[2,0,0],[1,0],[3]]","1","[[1,0,0],[2,3],[0]]","5","0","","","","","","6","","","","","","","","",""
"","","","","","single-stim-button","90","240891","0.0-2.0-25.1-0.1","603e97018512c2f752512f0b","E1","batch5","","1371","tol_tohand","","","","tol_peg_3","1371","1371","0","[[2,0,0],[1,0],[0]]","2","[[1,0,0],[2,3],[0]]","5","0","","","","","","6","","","","","","","","",""
"","","","","","single-stim-button","91","242226","0.0-2.0-25.1-1.1","603e97018512c2f752512f0b","E1","batch5","","1334","tol_toboard","","","","tol_peg_1","1334","1334","0","[[2,3,0],[1,0],[0]]","2","[[1,0,0],[2,3],[0]]","5","0","","","","","","6","","","","","","","","",""
"","","","","","single-stim-button","92","242707","0.0-2.0-25.2-0.2","603e97018512c2f752512f0b","E1","batch5","","480","tol_tohand","","","","tol_peg_2","480","480","0","[[2,3,0],[0,0],[0]]","3","[[1,0,0],[2,3],[0]]","5","0","","","","","","6","","","","","","","","",""
"","","","","","single-stim-button","93","244289","0.0-2.0-25.2-1.2","603e97018512c2f752512f0b","E1","batch5","","1582","tol_toboard","","","","tol_peg_3","1582","1582","0","[[2,3,0],[0,0],[1]]","3","[[1,0,0],[2,3],[0]]","5","0","","","","","","6","","","","","","","","",""
"","","","","","single-stim-button","94","245346","0.0-2.0-25.3-0.3","603e97018512c2f752512f0b","E1","batch5","","1056","tol_tohand","","","","tol_peg_1","1056","1056","0","[[2,0,0],[0,0],[1]]","4","[[1,0,0],[2,3],[0]]","5","0","","","","","","6","","","","","","","","",""
"","","","","","single-stim-button","95","246246","0.0-2.0-25.3-1.3","603e97018512c2f752512f0b","E1","batch5","","900","tol_toboard","","","","tol_peg_2","900","900","0","[[2,0,0],[3,0],[1]]","4","[[1,0,0],[2,3],[0]]","5","0","","","","","","6","","","","","","","","",""
"","","","","","single-stim-button","96","247611","0.0-2.0-25.4-0.4","603e97018512c2f752512f0b","E1","batch5","","1364","tol_tohand","","","","tol_peg_1","1364","1364","0","[[0,0,0],[3,0],[1]]","5","[[1,0,0],[2,3],[0]]","5","0","","","","","","6","","","","","","","","",""
"","","","","","single-stim-button","97","248099","0.0-2.0-25.4-1.4","603e97018512c2f752512f0b","E1","batch5","","487","tol_toboard","","","","tol_peg_2","487","487","0","[[0,0,0],[3,2],[1]]","5","[[1,0,0],[2,3],[0]]","5","0","","","","","","6","","","","","","","","",""
"","","","","","single-stim-button","98","248520","0.0-2.0-25.5-0.5","603e97018512c2f752512f0b","E1","batch5","","420","tol_tohand","","","","tol_peg_3","420","420","0","[[0,0,0],[3,2],[0]]","6","[[1,0,0],[2,3],[0]]","5","0","","","","","","6","","","","","","","","",""
"","","","","","single-stim-button","99","249074","0.0-2.0-25.5-1.5","603e97018512c2f752512f0b","E1","batch5","","554","tol_toboard","","","","tol_peg_1","554","554","0","[[1,0,0],[3,2],[0]]","6","[[1,0,0],[2,3],[0]]","5","0","","","","","","6","","","","","","","","",""
"","","","","","single-stim-button","100","249929","0.0-2.0-25.6-0.6","603e97018512c2f752512f0b","E1","batch5","","855","tol_tohand","","","","tol_peg_2","855","855","0","[[1,0,0],[3,0],[0]]","7","[[1,0,0],[2,3],[0]]","5","0","","","","","","6","","","","","","","","",""
"","","","","","single-stim-button","101","250371","0.0-2.0-25.6-1.6","603e97018512c2f752512f0b","E1","batch5","","442","tol_toboard","","","","tol_peg_3","442","442","0","[[1,0,0],[3,0],[2]]","7","[[1,0,0],[2,3],[0]]","5","0","","","","","","6","","","","","","","","",""
"","","","","","single-stim-button","102","251459","0.0-2.0-25.7-0.7","603e97018512c2f752512f0b","E1","batch5","","1087","tol_tohand","","","","tol_peg_2","1087","1087","0","[[1,0,0],[0,0],[2]]","8","[[1,0,0],[2,3],[0]]","5","0","","","","","","6","","","","","","","","",""
"","","","","","single-stim-button","103","251819","0.0-2.0-25.7-1.7","603e97018512c2f752512f0b","E1","batch5","","360","tol_toboard","","","","tol_peg_1","360","360","0","[[1,3,0],[0,0],[2]]","8","[[1,0,0],[2,3],[0]]","5","0","","","","","","6","","","","","","","","",""
"","","","","","single-stim-button","104","252974","0.0-2.0-25.8-0.8","603e97018512c2f752512f0b","E1","batch5","","1155","tol_tohand","","","","tol_peg_3","1155","1155","0","[[1,3,0],[0,0],[0]]","9","[[1,0,0],[2,3],[0]]","5","0","","","","","","6","","","","","","","","",""
"","","","","","single-stim-button","105","253342","0.0-2.0-25.8-1.8","603e97018512c2f752512f0b","E1","batch5","","368","tol_toboard","","","","tol_peg_2","368","368","0","[[1,3,0],[2,0],[0]]","9","[[1,0,0],[2,3],[0]]","5","0","","","","","","6","","","","","","","","",""
"","","","","","single-stim-button","106","253987","0.0-2.0-25.9-0.9","603e97018512c2f752512f0b","E1","batch5","","643","tol_tohand","","","","tol_peg_1","643","643","0","[[1,0,0],[2,0],[0]]","10","[[1,0,0],[2,3],[0]]","5","0","","","","","","6","","","","","","","","",""
"","","","","","single-stim-button","107","254294","0.0-2.0-25.9-1.9","603e97018512c2f752512f0b","E1","batch5","","307","tol_toboard","","","","tol_peg_2","307","307","0","[[1,0,0],[2,3],[0]]","10","[[1,0,0],[2,3],[0]]","5","0","","","","","","6","","","","","","","","",""
"","","","","","poldrack-single-stim","108","255295","0.0-2.0-26.0","603e97018512c2f752512f0b","E1","batch5","","-1","tol_feedback","","","true","","1000","1000","500","","","","","","-1","none","true","3615","12046","","","","","","","","","",""
"","","","","","html-button-response","109","256064","0.0-2.0-27.0","603e97018512c2f752512f0b","E1","batch5","","767.8000000007451","tol_trial_num","<div class = centerbox><p class = center-block-text>problem <strong>7</strong> out of 25 problems</p></div>","0","","","","","","","","","","","","","","","","","","","","","","","","",""
"","","","","","single-stim-button","110","257572","0.0-2.0-28.0-0.0","603e97018512c2f752512f0b","E1","batch5","","1508","tol_tohand","","","","tol_peg_1","1508","1508","0","[[2,0,0],[0,0],[3]]","1","[[1,2,0],[3,0],[0]]","6","0","","","","","","5","","","","","","","","",""
"","","","","","single-stim-button","111","260819","0.0-2.0-28.0-1.0","603e97018512c2f752512f0b","E1","batch5","","3247","tol_toboard","","","","tol_peg_1","3247","3247","0","[[2,1,0],[0,0],[3]]","1","[[1,2,0],[3,0],[0]]","6","0","","","","","","5","","","","","","","","",""
"","","","","","single-stim-button","112","261832","0.0-2.0-28.1-0.1","603e97018512c2f752512f0b","E1","batch5","","1012","tol_tohand","","","","tol_peg_3","1012","1012","0","[[2,1,0],[0,0],[0]]","2","[[1,2,0],[3,0],[0]]","6","0","","","","","","5","","","","","","","","",""
"","","","","","single-stim-button","113","262223","0.0-2.0-28.1-1.1","603e97018512c2f752512f0b","E1","batch5","","391","tol_toboard","","","","tol_peg_2","391","391","0","[[2,1,0],[3,0],[0]]","2","[[1,2,0],[3,0],[0]]","6","0","","","","","","5","","","","","","","","",""
"","","","","","single-stim-button","114","262634","0.0-2.0-28.2-0.2","603e97018512c2f752512f0b","E1","batch5","","411","tol_tohand","","","","tol_peg_1","411","411","0","[[2,0,0],[3,0],[0]]","3","[[1,2,0],[3,0],[0]]","6","0","","","","","","5","","","","","","","","",""
"","","","","","single-stim-button","115","263332","0.0-2.0-28.2-1.2","603e97018512c2f752512f0b","E1","batch5","","697","tol_toboard","","","","tol_peg_3","697","697","0","[[2,0,0],[3,0],[1]]","3","[[1,2,0],[3,0],[0]]","6","0","","","","","","5","","","","","","","","",""
"","","","","","single-stim-button","116","263864","0.0-2.0-28.3-0.3","603e97018512c2f752512f0b","E1","batch5","","532","tol_tohand","","","","tol_peg_1","532","532","0","[[0,0,0],[3,0],[1]]","4","[[1,2,0],[3,0],[0]]","6","0","","","","","","5","","","","","","","","",""
"","","","","","single-stim-button","117","264277","0.0-2.0-28.3-1.3","603e97018512c2f752512f0b","E1","batch5","","412","tol_toboard","","","","tol_peg_2","412","412","0","[[0,0,0],[3,2],[1]]","4","[[1,2,0],[3,0],[0]]","6","0","","","","","","5","","","","","","","","",""
"","","","","","single-stim-button","118","264689","0.0-2.0-28.4-0.4","603e97018512c2f752512f0b","E1","batch5","","412","tol_tohand","","","","tol_peg_3","412","412","0","[[0,0,0],[3,2],[0]]","5","[[1,2,0],[3,0],[0]]","6","0","","","","","","5","","","","","","","","",""
"","","","","","single-stim-button","119","265199","0.0-2.0-28.4-1.4","603e97018512c2f752512f0b","E1","batch5","","509","tol_toboard","","","","tol_peg_1","509","509","0","[[1,0,0],[3,2],[0]]","5","[[1,2,0],[3,0],[0]]","6","0","","","","","","5","","","","","","","","",""
"","","","","","single-stim-button","120","265904","0.0-2.0-28.5-0.5","603e97018512c2f752512f0b","E1","batch5","","704","tol_tohand","","","","tol_peg_2","704","704","0","[[1,0,0],[3,0],[0]]","6","[[1,2,0],[3,0],[0]]","6","0","","","","","","5","","","","","","","","",""
"","","","","","single-stim-button","121","266422","0.0-2.0-28.5-1.5","603e97018512c2f752512f0b","E1","batch5","","516","tol_toboard","","","","tol_peg_1","516","516","0","[[1,2,0],[3,0],[0]]","6","[[1,2,0],[3,0],[0]]","6","0","","","","","","5","","","","","","","","",""
"","","","","","poldrack-single-stim","122","267422","0.0-2.0-29.0","603e97018512c2f752512f0b","E1","batch5","","-1","tol_feedback","","","true","","1000","1000","500","","","","","","-1","none","true","1508","4579","","","","","","","","","",""
"","","","","","html-button-response","123","268252","0.0-2.0-30.0","603e97018512c2f752512f0b","E1","batch5","","829","tol_trial_num","<div class = centerbox><p class = center-block-text>problem <strong>8</strong> out of 25 problems</p></div>","0","","","","","","","","","","","","","","","","","","","","","","","","",""
"","","","","","single-stim-button","124","277020","0.0-2.0-31.0-0.0","603e97018512c2f752512f0b","E1","batch5","","8768","tol_tohand","","","","tol_peg_2","8768","8768","0","[[0,0,0],[2,0],[1]]","1","[[1,2,0],[3,0],[0]]","7","0","","","","","","4","","","","","","","","",""
"","","","","","single-stim-button","125","278902","0.0-2.0-31.0-1.0","603e97018512c2f752512f0b","E1","batch5","","1882","tol_toboard","","","","tol_peg_1","1882","1882","0","[[3,0,0],[2,0],[1]]","1","[[1,2,0],[3,0],[0]]","7","0","","","","","","4","","","","","","","","",""
"","","","","","single-stim-button","126","279600","0.0-2.0-31.1-0.1","603e97018512c2f752512f0b","E1","batch5","","697","tol_tohand","","","","tol_peg_3","697","697","0","[[3,0,0],[2,0],[0]]","2","[[1,2,0],[3,0],[0]]","7","0","","","","","","4","","","","","","","","",""
"","","","","","single-stim-button","127","280155","0.0-2.0-31.1-1.1","603e97018512c2f752512f0b","E1","batch5","","555","tol_toboard","","","","tol_peg_2","555","555","0","[[3,0,0],[2,1],[0]]","2","[[1,2,0],[3,0],[0]]","7","0","","","","","","4","","","","","","","","",""
"","","","","","single-stim-button","128","283852","0.0-2.0-31.2-0.2","603e97018512c2f752512f0b","E1","batch5","","3696","tol_tohand","","","","tol_peg_2","3696","3696","0","[[3,0,0],[2,0],[0]]","3","[[1,2,0],[3,0],[0]]","7","0","","","","","","4","","","","","","","","",""
"","","","","","single-stim-button","129","284227","0.0-2.0-31.2-1.2","603e97018512c2f752512f0b","E1","batch5","","374","tol_toboard","","","","tol_peg_1","374","374","0","[[3,1,0],[2,0],[0]]","3","[[1,2,0],[3,0],[0]]","7","0","","","","","","4","","","","","","","","",""
"","","","","","single-stim-button","130","284677","0.0-2.0-31.3-0.3","603e97018512c2f752512f0b","E1","batch5","","450","tol_tohand","","","","tol_peg_2","450","450","0","[[3,1,0],[0,0],[0]]","4","[[1,2,0],[3,0],[0]]","7","0","","","","","","4","","","","","","","","",""
"","","","","","single-stim-button","131","285210","0.0-2.0-31.3-1.3","603e97018512c2f752512f0b","E1","batch5","","532","tol_toboard","","","","tol_peg_3","532","532","0","[[3,1,0],[0,0],[2]]","4","[[1,2,0],[3,0],[0]]","7","0","","","","","","4","","","","","","","","",""
"","","","","","single-stim-button","132","286358","0.0-2.0-31.4-0.4","603e97018512c2f752512f0b","E1","batch5","","1148","tol_tohand","","","","tol_peg_1","1148","1148","0","[[3,0,0],[0,0],[2]]","5","[[1,2,0],[3,0],[0]]","7","0","","","","","","4","","","","","","","","",""
"","","","","","single-stim-button","133","286823","0.0-2.0-31.4-1.4","603e97018512c2f752512f0b","E1","batch5","","465","tol_toboard","","","","tol_peg_2","465","465","0","[[3,0,0],[1,0],[2]]","5","[[1,2,0],[3,0],[0]]","7","0","","","","","","4","","","","","","","","",""
"","","","","","single-stim-button","134","287857","0.0-2.0-31.5-0.5","603e97018512c2f752512f0b","E1","batch5","","1033","tol_tohand","","","","tol_peg_1","1033","1033","0","[[0,0,0],[1,0],[2]]","6","[[1,2,0],[3,0],[0]]","7","0","","","","","","4","","","","","","","","",""
"","","","","","single-stim-button","135","289732","0.0-2.0-31.5-1.5","603e97018512c2f752512f0b","E1","batch5","","1874","tol_toboard","","","","tol_peg_2","1874","1874","0","[[0,0,0],[1,3],[2]]","6","[[1,2,0],[3,0],[0]]","7","0","","","","","","4","","","","","","","","",""
"","","","","","single-stim-button","136","290543","0.0-2.0-31.6-0.6","603e97018512c2f752512f0b","E1","batch5","","810","tol_tohand","","","","tol_peg_3","810","810","0","[[0,0,0],[1,3],[0]]","7","[[1,2,0],[3,0],[0]]","7","0","","","","","","4","","","","","","","","",""
"","","","","","single-stim-button","137","290978","0.0-2.0-31.6-1.6","603e97018512c2f752512f0b","E1","batch5","","434","tol_toboard","","","","tol_peg_1","434","434","0","[[2,0,0],[1,3],[0]]","7","[[1,2,0],[3,0],[0]]","7","0","","","","","","4","","","","","","","","",""
"","","","","","single-stim-button","138","291645","0.0-2.0-31.7-0.7","603e97018512c2f752512f0b","E1","batch5","","667","tol_tohand","","","","tol_peg_2","667","667","0","[[2,0,0],[1,0],[0]]","8","[[1,2,0],[3,0],[0]]","7","0","","","","","","4","","","","","","","","",""
"","","","","","single-stim-button","139","292853","0.0-2.0-31.7-1.7","603e97018512c2f752512f0b","E1","batch5","","1207","tol_toboard","","","","tol_peg_1","1207","1207","0","[[2,3,0],[1,0],[0]]","8","[[1,2,0],[3,0],[0]]","7","0","","","","","","4","","","","","","","","",""
"","","","","","single-stim-button","140","293272","0.0-2.0-31.8-0.8","603e97018512c2f752512f0b","E1","batch5","","419","tol_tohand","","","","tol_peg_2","419","419","0","[[2,3,0],[0,0],[0]]","9","[[1,2,0],[3,0],[0]]","7","0","","","","","","4","","","","","","","","",""
"","","","","","single-stim-button","141","293693","0.0-2.0-31.8-1.8","603e97018512c2f752512f0b","E1","batch5","","420","tol_toboard","","","","tol_peg_3","420","420","0","[[2,3,0],[0,0],[1]]","9","[[1,2,0],[3,0],[0]]","7","0","","","","","","4","","","","","","","","",""
"","","","","","single-stim-button","142","294645","0.0-2.0-31.9-0.9","603e97018512c2f752512f0b","E1","batch5","","951","tol_tohand","","","","tol_peg_1","951","951","0","[[2,0,0],[0,0],[1]]","10","[[1,2,0],[3,0],[0]]","7","0","","","","","","4","","","","","","","","",""
"","","","","","single-stim-button","143","295650","0.0-2.0-31.9-1.9","603e97018512c2f752512f0b","E1","batch5","","1005","tol_toboard","","","","tol_peg_2","1005","1005","0","[[2,0,0],[3,0],[1]]","10","[[1,2,0],[3,0],[0]]","7","0","","","","","","4","","","","","","","","",""
"","","","","","single-stim-button","144","296070","0.0-2.0-31.10-0.10","603e97018512c2f752512f0b","E1","batch5","","420","tol_tohand","","","","tol_peg_1","420","420","0","[[0,0,0],[3,0],[1]]","11","[[1,2,0],[3,0],[0]]","7","0","","","","","","4","","","","","","","","",""
"","","","","","single-stim-button","145","296438","0.0-2.0-31.10-1.10","603e97018512c2f752512f0b","E1","batch5","","367","tol_toboard","","","","tol_peg_2","367","367","0","[[0,0,0],[3,2],[1]]","11","[[1,2,0],[3,0],[0]]","7","0","","","","","","4","","","","","","","","",""
"","","","","","single-stim-button","146","296962","0.0-2.0-31.11-0.11","603e97018512c2f752512f0b","E1","batch5","","523","tol_tohand","","","","tol_peg_3","523","523","0","[[0,0,0],[3,2],[0]]","12","[[1,2,0],[3,0],[0]]","7","0","","","","","","4","","","","","","","","",""
"","","","","","single-stim-button","147","297480","0.0-2.0-31.11-1.11","603e97018512c2f752512f0b","E1","batch5","","517","tol_toboard","","","","tol_peg_1","517","517","0","[[1,0,0],[3,2],[0]]","12","[[1,2,0],[3,0],[0]]","7","0","","","","","","4","","","","","","","","",""
"","","","","","single-stim-button","148","297900","0.0-2.0-31.12-0.12","603e97018512c2f752512f0b","E1","batch5","","420","tol_tohand","","","","tol_peg_2","420","420","0","[[1,0,0],[3,0],[0]]","13","[[1,2,0],[3,0],[0]]","7","0","","","","","","4","","","","","","","","",""
"","","","","","single-stim-button","149","298350","0.0-2.0-31.12-1.12","603e97018512c2f752512f0b","E1","batch5","","450","tol_toboard","","","","tol_peg_1","450","450","0","[[1,2,0],[3,0],[0]]","13","[[1,2,0],[3,0],[0]]","7","0","","","","","","4","","","","","","","","",""
"","","","","","poldrack-single-stim","150","299351","0.0-2.0-32.0","603e97018512c2f752512f0b","E1","batch5","","-1","tol_feedback","","","true","","1000","1000","500","","","","","","-1","none","true","8768","20002","","","","","","","","","",""
"","","","","","html-button-response","151","300277","0.0-2.0-33.0","603e97018512c2f752512f0b","E1","batch5","","926","tol_trial_num","<div class = centerbox><p class = center-block-text>problem <strong>9</strong> out of 25 problems</p></div>","0","","","","","","","","","","","","","","","","","","","","","","","","",""
"","","","","","single-stim-button","152","302558","0.0-2.0-34.0-0.0","603e97018512c2f752512f0b","E1","batch5","","2280","tol_tohand","","","","tol_peg_1","2280","2280","0","[[3,0,0],[0,0],[1]]","1","[[2,1,0],[3,0],[0]]","8","0","","","","","","6","","","","","","","","",""
"","","","","","single-stim-button","153","303878","0.0-2.0-34.0-1.0","603e97018512c2f752512f0b","E1","batch5","","1319","tol_toboard","","","","tol_peg_2","1319","1319","0","[[3,0,0],[2,0],[1]]","1","[[2,1,0],[3,0],[0]]","8","0","","","","","","6","","","","","","","","",""
"","","","","","single-stim-button","154","304523","0.0-2.0-34.1-0.1","603e97018512c2f752512f0b","E1","batch5","","644","tol_tohand","","","","tol_peg_1","644","644","0","[[0,0,0],[2,0],[1]]","2","[[2,1,0],[3,0],[0]]","8","0","","","","","","6","","","","","","","","",""
"","","","","","single-stim-button","155","304995","0.0-2.0-34.1-1.1","603e97018512c2f752512f0b","E1","batch5","","472","tol_toboard","","","","tol_peg_2","472","472","0","[[0,0,0],[2,3],[1]]","2","[[2,1,0],[3,0],[0]]","8","0","","","","","","6","","","","","","","","",""
"","","","","","single-stim-button","156","305978","0.0-2.0-34.2-0.2","603e97018512c2f752512f0b","E1","batch5","","983","tol_tohand","","","","tol_peg_3","983","983","0","[[0,0,0],[2,3],[0]]","3","[[2,1,0],[3,0],[0]]","8","0","","","","","","6","","","","","","","","",""
"","","","","","single-stim-button","157","306691","0.0-2.0-34.2-1.2","603e97018512c2f752512f0b","E1","batch5","","713","tol_toboard","","","","tol_peg_1","713","713","0","[[1,0,0],[2,3],[0]]","3","[[2,1,0],[3,0],[0]]","8","0","","","","","","6","","","","","","","","",""
"","","","","","single-stim-button","158","307126","0.0-2.0-34.3-0.3","603e97018512c2f752512f0b","E1","batch5","","434","tol_tohand","","","","tol_peg_2","434","434","0","[[1,0,0],[2,0],[0]]","4","[[2,1,0],[3,0],[0]]","8","0","","","","","","6","","","","","","","","",""
"","","","","","single-stim-button","159","307568","0.0-2.0-34.3-1.3","603e97018512c2f752512f0b","E1","batch5","","442","tol_toboard","","","","tol_peg_3","442","442","0","[[1,0,0],[2,0],[3]]","4","[[2,1,0],[3,0],[0]]","8","0","","","","","","6","","","","","","","","",""
"","","","","","single-stim-button","160","308685","0.0-2.0-34.4-0.4","603e97018512c2f752512f0b","E1","batch5","","1117","tol_tohand","","","","tol_peg_2","1117","1117","0","[[1,0,0],[0,0],[3]]","5","[[2,1,0],[3,0],[0]]","8","0","","","","","","6","","","","","","","","",""
"","","","","","single-stim-button","161","309038","0.0-2.0-34.4-1.4","603e97018512c2f752512f0b","E1","batch5","","352","tol_toboard","","","","tol_peg_1","352","352","0","[[1,2,0],[0,0],[3]]","5","[[2,1,0],[3,0],[0]]","8","0","","","","","","6","","","","","","","","",""
"","","","","","single-stim-button","162","310785","0.0-2.0-34.5-0.5","603e97018512c2f752512f0b","E1","batch5","","1747","tol_tohand","","","","tol_peg_1","1747","1747","0","[[1,0,0],[0,0],[3]]","6","[[2,1,0],[3,0],[0]]","8","0","","","","","","6","","","","","","","","",""
"","","","","","single-stim-button","163","311588","0.0-2.0-34.5-1.5","603e97018512c2f752512f0b","E1","batch5","","803","tol_toboard","","","","tol_peg_2","803","803","0","[[1,0,0],[2,0],[3]]","6","[[2,1,0],[3,0],[0]]","8","0","","","","","","6","","","","","","","","",""
"","","","","","single-stim-button","164","312226","0.0-2.0-34.6-0.6","603e97018512c2f752512f0b","E1","batch5","","637","tol_tohand","","","","tol_peg_1","637","637","0","[[0,0,0],[2,0],[3]]","7","[[2,1,0],[3,0],[0]]","8","0","","","","","","6","","","","","","","","",""
"","","","","","single-stim-button","165","312540","0.0-2.0-34.6-1.6","603e97018512c2f752512f0b","E1","batch5","","314","tol_toboard","","","","tol_peg_2","314","314","0","[[0,0,0],[2,1],[3]]","7","[[2,1,0],[3,0],[0]]","8","0","","","","","","6","","","","","","","","",""
"","","","","","single-stim-button","166","313005","0.0-2.0-34.7-0.7","603e97018512c2f752512f0b","E1","batch5","","464","tol_tohand","","","","tol_peg_3","464","464","0","[[0,0,0],[2,1],[0]]","8","[[2,1,0],[3,0],[0]]","8","0","","","","","","6","","","","","","","","",""
"","","","","","single-stim-button","167","313455","0.0-2.0-34.7-1.7","603e97018512c2f752512f0b","E1","batch5","","450","tol_toboard","","","","tol_peg_1","450","450","0","[[3,0,0],[2,1],[0]]","8","[[2,1,0],[3,0],[0]]","8","0","","","","","","6","","","","","","","","",""
"","","","","","single-stim-button","168","313861","0.0-2.0-34.8-0.8","603e97018512c2f752512f0b","E1","batch5","","406","tol_tohand","","","","tol_peg_2","406","406","0","[[3,0,0],[2,0],[0]]","9","[[2,1,0],[3,0],[0]]","8","0","","","","","","6","","","","","","","","",""
"","","","","","single-stim-button","169","314273","0.0-2.0-34.8-1.8","603e97018512c2f752512f0b","E1","batch5","","412","tol_toboard","","","","tol_peg_3","412","412","0","[[3,0,0],[2,0],[1]]","9","[[2,1,0],[3,0],[0]]","8","0","","","","","","6","","","","","","","","",""
"","","","","","single-stim-button","170","315690","0.0-2.0-34.9-0.9","603e97018512c2f752512f0b","E1","batch5","","1417","tol_tohand","","","","tol_peg_2","1417","1417","0","[[3,0,0],[0,0],[1]]","10","[[2,1,0],[3,0],[0]]","8","0","","","","","","6","","","","","","","","",""
"","","","","","single-stim-button","171","316913","0.0-2.0-34.9-1.9","603e97018512c2f752512f0b","E1","batch5","","1222","tol_toboard","","","","tol_peg_2","1222","1222","0","[[3,0,0],[2,0],[1]]","10","[[2,1,0],[3,0],[0]]","8","0","","","","","","6","","","","","","","","",""
"","","","","","single-stim-button","172","317483","0.0-2.0-34.10-0.10","603e97018512c2f752512f0b","E1","batch5","","570","tol_tohand","","","","tol_peg_1","570","570","0","[[0,0,0],[2,0],[1]]","11","[[2,1,0],[3,0],[0]]","8","0","","","","","","6","","","","","","","","",""
"","","","","","single-stim-button","173","317783","0.0-2.0-34.10-1.10","603e97018512c2f752512f0b","E1","batch5","","300","tol_toboard","","","","tol_peg_2","300","300","0","[[0,0,0],[2,3],[1]]","11","[[2,1,0],[3,0],[0]]","8","0","","","","","","6","","","","","","","","",""
"","","","","","single-stim-button","174","318795","0.0-2.0-34.11-0.11","603e97018512c2f752512f0b","E1","batch5","","1012","tol_tohand","","","","tol_peg_3","1012","1012","0","[[0,0,0],[2,3],[0]]","12","[[2,1,0],[3,0],[0]]","8","0","","","","","","6","","","","","","","","",""
"","","","","","single-stim-button","175","319500","0.0-2.0-34.11-1.11","603e97018512c2f752512f0b","E1","batch5","","704","tol_toboard","","","","tol_peg_3","704","704","0","[[0,0,0],[2,3],[1]]","12","[[2,1,0],[3,0],[0]]","8","0","","","","","","6","","","","","","","","",""
"","","","","","single-stim-button","176","321945","0.0-2.0-34.12-0.12","603e97018512c2f752512f0b","E1","batch5","","2444","tol_tohand","","","","tol_peg_3","2444","2444","0","[[0,0,0],[2,3],[0]]","13","[[2,1,0],[3,0],[0]]","8","0","","","","","","6","","","","","","","","",""
"","","","","","single-stim-button","177","322388","0.0-2.0-34.12-1.12","603e97018512c2f752512f0b","E1","batch5","","442","tol_toboard","","","","tol_peg_1","442","442","0","[[1,0,0],[2,3],[0]]","13","[[2,1,0],[3,0],[0]]","8","0","","","","","","6","","","","","","","","",""
"","","","","","single-stim-button","178","323310","0.0-2.0-34.13-0.13","603e97018512c2f752512f0b","E1","batch5","","922","tol_tohand","","","","tol_peg_2","922","922","0","[[1,0,0],[2,0],[0]]","14","[[2,1,0],[3,0],[0]]","8","0","","","","","","6","","","","","","","","",""
"","","","","","single-stim-button","179","323798","0.0-2.0-34.13-1.13","603e97018512c2f752512f0b","E1","batch5","","487","tol_toboard","","","","tol_peg_3","487","487","0","[[1,0,0],[2,0],[3]]","14","[[2,1,0],[3,0],[0]]","8","0","","","","","","6","","","","","","","","",""
"","","","","","single-stim-button","180","324420","0.0-2.0-34.14-0.14","603e97018512c2f752512f0b","E1","batch5","","622","tol_tohand","","","","tol_peg_2","622","622","0","[[1,0,0],[0,0],[3]]","15","[[2,1,0],[3,0],[0]]","8","0","","","","","","6","","","","","","","","",""
"","","","","","single-stim-button","181","325276","0.0-2.0-34.14-1.14","603e97018512c2f752512f0b","E1","batch5","","855","tol_toboard","","","","tol_peg_1","855","855","0","[[1,2,0],[0,0],[3]]","15","[[2,1,0],[3,0],[0]]","8","0","","","","","","6","","","","","","","","",""
"","","","","","single-stim-button","182","325711","0.0-2.0-34.15-0.15","603e97018512c2f752512f0b","E1","batch5","","435","tol_tohand","","","","tol_peg_1","435","435","0","[[1,0,0],[0,0],[3]]","16","[[2,1,0],[3,0],[0]]","8","0","","","","","","6","","","","","","","","",""
"","","","","","single-stim-button","183","326085","0.0-2.0-34.15-1.15","603e97018512c2f752512f0b","E1","batch5","","374","tol_toboard","","","","tol_peg_2","374","374","0","[[1,0,0],[2,0],[3]]","16","[[2,1,0],[3,0],[0]]","8","0","","","","","","6","","","","","","","","",""
"","","","","","single-stim-button","184","326498","0.0-2.0-34.16-0.16","603e97018512c2f752512f0b","E1","batch5","","412","tol_tohand","","","","tol_peg_1","412","412","0","[[0,0,0],[2,0],[3]]","17","[[2,1,0],[3,0],[0]]","8","0","","","","","","6","","","","","","","","",""
"","","","","","single-stim-button","185","326850","0.0-2.0-34.16-1.16","603e97018512c2f752512f0b","E1","batch5","","352","tol_toboard","","","","tol_peg_2","352","352","0","[[0,0,0],[2,1],[3]]","17","[[2,1,0],[3,0],[0]]","8","0","","","","","","6","","","","","","","","",""
"","","","","","single-stim-button","186","328560","0.0-2.0-34.17-0.17","603e97018512c2f752512f0b","E1","batch5","","1709","tol_tohand","","","","tol_peg_3","1709","1709","0","[[0,0,0],[2,1],[0]]","18","[[2,1,0],[3,0],[0]]","8","0","","","","","","6","","","","","","","","",""
"","","","","","single-stim-button","187","329063","0.0-2.0-34.17-1.17","603e97018512c2f752512f0b","E1","batch5","","502","tol_toboard","","","","tol_peg_1","502","502","0","[[3,0,0],[2,1],[0]]","18","[[2,1,0],[3,0],[0]]","8","0","","","","","","6","","","","","","","","",""
"","","","","","single-stim-button","188","329588","0.0-2.0-34.18-0.18","603e97018512c2f752512f0b","E1","batch5","","525","tol_tohand","","","","tol_peg_2","525","525","0","[[3,0,0],[2,0],[0]]","19","[[2,1,0],[3,0],[0]]","8","0","","","","","","6","","","","","","","","",""
"","","","","","single-stim-button","189","329985","0.0-2.0-34.18-1.18","603e97018512c2f752512f0b","E1","batch5","","397","tol_toboard","","","","tol_peg_3","397","397","0","[[3,0,0],[2,0],[1]]","19","[[2,1,0],[3,0],[0]]","8","0","","","","","","6","","","","","","","","",""
"","","","","","single-stim-button","190","330443","0.0-2.0-34.19-0.19","603e97018512c2f752512f0b","E1","batch5","","457","tol_tohand","","","","tol_peg_1","457","457","0","[[0,0,0],[2,0],[1]]","20","[[2,1,0],[3,0],[0]]","8","0","","","","","","6","","","","","","","","",""
"","","","","","single-stim-button","191","331013","0.0-2.0-34.19-1.19","603e97018512c2f752512f0b","E1","batch5","","569","tol_toboard","","","","tol_peg_2","569","569","0","[[0,0,0],[2,3],[1]]","20","[[2,1,0],[3,0],[0]]","8","0","","","","","","6","","","","","","","","",""
"","","","","","single-stim-button","192","333173","0.0-2.0-34.20-0.20","603e97018512c2f752512f0b","E1","batch5","","2158","tol_tohand","","","","tol_peg_2","2158","2158","0","[[0,0,0],[2,0],[1]]","21","[[2,1,0],[3,0],[0]]","8","0","","","","","","6","","","","","","","","",""
"","","","","","single-stim-button","193","334568","0.0-2.0-34.20-1.20","603e97018512c2f752512f0b","E1","batch5","","1394","tol_toboard","","","","tol_peg_2","1394","1394","0","[[0,0,0],[2,3],[1]]","21","[[2,1,0],[3,0],[0]]","8","0","","","","","","6","","","","","","","","",""
"","","","","","single-stim-button","194","335010","0.0-2.0-34.21-0.21","603e97018512c2f752512f0b","E1","batch5","","442","tol_tohand","","","","tol_peg_3","442","442","0","[[0,0,0],[2,3],[0]]","22","[[2,1,0],[3,0],[0]]","8","0","","","","","","6","","","","","","","","",""
"","","","","","single-stim-button","195","335895","0.0-2.0-34.21-1.21","603e97018512c2f752512f0b","E1","batch5","","885","tol_toboard","","","","tol_peg_1","885","885","0","[[1,0,0],[2,3],[0]]","22","[[2,1,0],[3,0],[0]]","8","0","","","","","","6","","","","","","","","",""
"","","","","","single-stim-button","196","336353","0.0-2.0-34.22-0.22","603e97018512c2f752512f0b","E1","batch5","","457","tol_tohand","","","","tol_peg_2","457","457","0","[[1,0,0],[2,0],[0]]","23","[[2,1,0],[3,0],[0]]","8","0","","","","","","6","","","","","","","","",""
"","","","","","single-stim-button","197","336840","0.0-2.0-34.22-1.22","603e97018512c2f752512f0b","E1","batch5","","487","tol_toboard","","","","tol_peg_3","487","487","0","[[1,0,0],[2,0],[3]]","23","[[2,1,0],[3,0],[0]]","8","0","","","","","","6","","","","","","","","",""
"","","","","","single-stim-button","198","338370","0.0-2.0-34.23-0.23","603e97018512c2f752512f0b","E1","batch5","","1529","tol_tohand","","","","tol_peg_1","1529","1529","0","[[0,0,0],[2,0],[3]]","24","[[2,1,0],[3,0],[0]]","8","0","","","","","","6","","","","","","","","",""
"","","","","","single-stim-button","199","339923","0.0-2.0-34.23-1.23","603e97018512c2f752512f0b","E1","batch5","","1553","tol_toboard","","","","tol_peg_1","1553","1553","0","[[1,0,0],[2,0],[3]]","24","[[2,1,0],[3,0],[0]]","8","0","","","","","","6","","","","","","","","",""
"","","","","","single-stim-button","200","340290","0.0-2.0-34.24-0.24","603e97018512c2f752512f0b","E1","batch5","","367","tol_tohand","","","","tol_peg_2","367","367","0","[[1,0,0],[0,0],[3]]","25","[[2,1,0],[3,0],[0]]","8","0","","","","","","6","","","","","","","","",""
"","","","","","single-stim-button","201","340996","0.0-2.0-34.24-1.24","603e97018512c2f752512f0b","E1","batch5","","705","tol_toboard","","","","tol_peg_1","705","705","0","[[1,2,0],[0,0],[3]]","25","[[2,1,0],[3,0],[0]]","8","0","","","","","","6","","","","","","","","",""
"","","","","","single-stim-button","202","346808","0.0-2.0-34.25-0.25","603e97018512c2f752512f0b","E1","batch5","","5812","tol_tohand","","","","tol_peg_3","5812","5812","0","[[1,2,0],[0,0],[0]]","26","[[2,1,0],[3,0],[0]]","8","0","","","","","","6","","","","","","","","",""
"","","","","","single-stim-button","203","347460","0.0-2.0-34.25-1.25","603e97018512c2f752512f0b","E1","batch5","","652","tol_toboard","","","","tol_peg_2","652","652","0","[[1,2,0],[3,0],[0]]","26","[[2,1,0],[3,0],[0]]","8","0","","","","","","6","","","","","","","","",""
"","","","","","single-stim-button","204","349073","0.0-2.0-34.26-0.26","603e97018512c2f752512f0b","E1","batch5","","1612","tol_tohand","","","","tol_peg_1","1612","1612","0","[[1,0,0],[3,0],[0]]","27","[[2,1,0],[3,0],[0]]","8","0","","","","","","6","","","","","","","","",""
"","","","","","single-stim-button","205","349734","0.0-2.0-34.26-1.26","603e97018512c2f752512f0b","E1","batch5","","661","tol_toboard","","","","tol_peg_3","661","661","0","[[1,0,0],[3,0],[2]]","27","[[2,1,0],[3,0],[0]]","8","0","","","","","","6","","","","","","","","",""
"","","","","","single-stim-button","206","350423","0.0-2.0-34.27-0.27","603e97018512c2f752512f0b","E1","batch5","","688","tol_tohand","","","","tol_peg_1","688","688","0","[[0,0,0],[3,0],[2]]","28","[[2,1,0],[3,0],[0]]","8","0","","","","","","6","","","","","","","","",""
"","","","","","single-stim-button","207","350776","0.0-2.0-34.27-1.27","603e97018512c2f752512f0b","E1","batch5","","352","tol_toboard","","","","tol_peg_2","352","352","0","[[0,0,0],[3,1],[2]]","28","[[2,1,0],[3,0],[0]]","8","0","","","","","","6","","","","","","","","",""
"","","","","","single-stim-button","208","351173","0.0-2.0-34.28-0.28","603e97018512c2f752512f0b","E1","batch5","","397","tol_tohand","","","","tol_peg_3","397","397","0","[[0,0,0],[3,1],[0]]","29","[[2,1,0],[3,0],[0]]","8","0","","","","","","6","","","","","","","","",""
"","","","","","single-stim-button","209","351720","0.0-2.0-34.28-1.28","603e97018512c2f752512f0b","E1","batch5","","546","tol_toboard","","","","tol_peg_1","546","546","0","[[2,0,0],[3,1],[0]]","29","[[2,1,0],[3,0],[0]]","8","0","","","","","","6","","","","","","","","",""
"","","","","","single-stim-button","210","352590","0.0-2.0-34.29-0.29","603e97018512c2f752512f0b","E1","batch5","","869","tol_tohand","","","","tol_peg_2","869","869","0","[[2,0,0],[3,0],[0]]","30","[[2,1,0],[3,0],[0]]","8","0","","","","","","6","","","","","","","","",""
"","","","","","single-stim-button","211","352966","0.0-2.0-34.29-1.29","603e97018512c2f752512f0b","E1","batch5","","375","tol_toboard","","","","tol_peg_1","375","375","0","[[2,1,0],[3,0],[0]]","30","[[2,1,0],[3,0],[0]]","8","0","","","","","","6","","","","","","","","",""
"","","","","","poldrack-single-stim","212","353967","0.0-2.0-35.0","603e97018512c2f752512f0b","E1","batch5","","-1","tol_feedback","","","true","","1000","1000","500","","","","","","-1","none","true","2280","33568","","","","","","","","","",""
"","","","","","html-button-response","213","354736","0.0-2.0-36.0","603e97018512c2f752512f0b","E1","batch5","","767.8000000007451","tol_trial_num","<div class = centerbox><p class = center-block-text>problem <strong>10</strong> out of 25 problems</p></div>","0","","","","","","","","","","","","","","","","","","","","","","","","",""
"","","","","","single-stim-button","214","357384","0.0-2.0-37.0-0.0","603e97018512c2f752512f0b","E1","batch5","","2648","tol_tohand","","","","tol_peg_2","2648","2648","0","[[3,0,0],[0,0],[2]]","1","[[3,0,0],[2,1],[0]]","9","0","","","","","","3","","","","","","","","",""
"","","","","","single-stim-button","215","357878","0.0-2.0-37.0-1.0","603e97018512c2f752512f0b","E1","batch5","","493","tol_toboard","","","","tol_peg_1","493","493","0","[[3,1,0],[0,0],[2]]","1","[[3,0,0],[2,1],[0]]","9","0","","","","","","3","","","","","","","","",""
"","","","","","single-stim-button","216","358628","0.0-2.0-37.1-0.1","603e97018512c2f752512f0b","E1","batch5","","750","tol_tohand","","","","tol_peg_3","750","750","0","[[3,1,0],[0,0],[0]]","2","[[3,0,0],[2,1],[0]]","9","0","","","","","","3","","","","","","","","",""
"","","","","","single-stim-button","217","358958","0.0-2.0-37.1-1.1","603e97018512c2f752512f0b","E1","batch5","","330","tol_toboard","","","","tol_peg_2","330","330","0","[[3,1,0],[2,0],[0]]","2","[[3,0,0],[2,1],[0]]","9","0","","","","","","3","","","","","","","","",""
"","","","","","single-stim-button","218","359850","0.0-2.0-37.2-0.2","603e97018512c2f752512f0b","E1","batch5","","892","tol_tohand","","","","tol_peg_1","892","892","0","[[3,0,0],[2,0],[0]]","3","[[3,0,0],[2,1],[0]]","9","0","","","","","","3","","","","","","","","",""
"","","","","","single-stim-button","219","360518","0.0-2.0-37.2-1.2","603e97018512c2f752512f0b","E1","batch5","","667","tol_toboard","","","","tol_peg_2","667","667","0","[[3,0,0],[2,1],[0]]","3","[[3,0,0],[2,1],[0]]","9","0","","","","","","3","","","","","","","","",""
"","","","","","poldrack-single-stim","220","361527","0.0-2.0-38.0","603e97018512c2f752512f0b","E1","batch5","","-1","tol_feedback","","","true","","1000","1000","500","","","","","","-1","none","true","2648","4290","","","","","","","","","",""
"","","","","","html-button-response","221","362513","0.0-2.0-39.0","603e97018512c2f752512f0b","E1","batch5","","984.7000000029802","tol_trial_num","<div class = centerbox><p class = center-block-text>problem <strong>11</strong> out of 25 problems</p></div>","0","","","","","","","","","","","","","","","","","","","","","","","","",""
"","","","","","single-stim-button","222","364081","0.0-2.0-40.0-0.0","603e97018512c2f752512f0b","E1","batch5","","1567","tol_tohand","","","","tol_peg_2","1567","1567","0","[[1,2,0],[0,0],[0]]","1","[[2,0,0],[1,3],[0]]","10","0","","","","","","6","","","","","","","","",""
"","","","","","single-stim-button","223","364568","0.0-2.0-40.0-1.0","603e97018512c2f752512f0b","E1","batch5","","487","tol_toboard","","","","tol_peg_3","487","487","0","[[1,2,0],[0,0],[3]]","1","[[2,0,0],[1,3],[0]]","10","0","","","","","","6","","","","","","","","",""
"","","","","","single-stim-button","224","365401","0.0-2.0-40.1-0.1","603e97018512c2f752512f0b","E1","batch5","","833","tol_tohand","","","","tol_peg_1","833","833","0","[[1,0,0],[0,0],[3]]","2","[[2,0,0],[1,3],[0]]","10","0","","","","","","6","","","","","","","","",""
"","","","","","single-stim-button","225","366383","0.0-2.0-40.1-1.1","603e97018512c2f752512f0b","E1","batch5","","982","tol_toboard","","","","tol_peg_2","982","982","0","[[1,0,0],[2,0],[3]]","2","[[2,0,0],[1,3],[0]]","10","0","","","","","","6","","","","","","","","",""
"","","","","","single-stim-button","226","366803","0.0-2.0-40.2-0.2","603e97018512c2f752512f0b","E1","batch5","","420","tol_tohand","","","","tol_peg_1","420","420","0","[[0,0,0],[2,0],[3]]","3","[[2,0,0],[1,3],[0]]","10","0","","","","","","6","","","","","","","","",""
"","","","","","single-stim-button","227","367260","0.0-2.0-40.2-1.2","603e97018512c2f752512f0b","E1","batch5","","457","tol_toboard","","","","tol_peg_2","457","457","0","[[0,0,0],[2,1],[3]]","3","[[2,0,0],[1,3],[0]]","10","0","","","","","","6","","","","","","","","",""
"","","","","","single-stim-button","228","367996","0.0-2.0-40.3-0.3","603e97018512c2f752512f0b","E1","batch5","","734","tol_tohand","","","","tol_peg_3","734","734","0","[[0,0,0],[2,1],[0]]","4","[[2,0,0],[1,3],[0]]","10","0","","","","","","6","","","","","","","","",""
"","","","","","single-stim-button","229","369038","0.0-2.0-40.3-1.3","603e97018512c2f752512f0b","E1","batch5","","1042","tol_toboard","","","","tol_peg_1","1042","1042","0","[[3,0,0],[2,1],[0]]","4","[[2,0,0],[1,3],[0]]","10","0","","","","","","6","","","","","","","","",""
"","","","","","single-stim-button","230","369563","0.0-2.0-40.4-0.4","603e97018512c2f752512f0b","E1","batch5","","525","tol_tohand","","","","tol_peg_2","525","525","0","[[3,0,0],[2,0],[0]]","5","[[2,0,0],[1,3],[0]]","10","0","","","","","","6","","","","","","","","",""
"","","","","","single-stim-button","231","370193","0.0-2.0-40.4-1.4","603e97018512c2f752512f0b","E1","batch5","","630","tol_toboard","","","","tol_peg_3","630","630","0","[[3,0,0],[2,0],[1]]","5","[[2,0,0],[1,3],[0]]","10","0","","","","","","6","","","","","","","","",""
"","","","","","single-stim-button","232","371799","0.0-2.0-40.5-0.5","603e97018512c2f752512f0b","E1","batch5","","1605","tol_tohand","","","","tol_peg_1","1605","1605","0","[[0,0,0],[2,0],[1]]","6","[[2,0,0],[1,3],[0]]","10","0","","","","","","6","","","","","","","","",""
"","","","","","single-stim-button","233","373238","0.0-2.0-40.5-1.5","603e97018512c2f752512f0b","E1","batch5","","1439","tol_toboard","","","","tol_peg_1","1439","1439","0","[[3,0,0],[2,0],[1]]","6","[[2,0,0],[1,3],[0]]","10","0","","","","","","6","","","","","","","","",""
"","","","","","single-stim-button","234","375167","0.0-2.0-40.6-0.6","603e97018512c2f752512f0b","E1","batch5","","1929","tol_tohand","","","","tol_peg_3","1929","1929","0","[[3,0,0],[2,0],[0]]","7","[[2,0,0],[1,3],[0]]","10","0","","","","","","6","","","","","","","","",""
"","","","","","single-stim-button","235","375638","0.0-2.0-40.6-1.6","603e97018512c2f752512f0b","E1","batch5","","471","tol_toboard","","","","tol_peg_2","471","471","0","[[3,0,0],[2,1],[0]]","7","[[2,0,0],[1,3],[0]]","10","0","","","","","","6","","","","","","","","",""
"","","","","","single-stim-button","236","376013","0.0-2.0-40.7-0.7","603e97018512c2f752512f0b","E1","batch5","","374","tol_tohand","","","","tol_peg_1","374","374","0","[[0,0,0],[2,1],[0]]","8","[[2,0,0],[1,3],[0]]","10","0","","","","","","6","","","","","","","","",""
"","","","","","single-stim-button","237","376523","0.0-2.0-40.7-1.7","603e97018512c2f752512f0b","E1","batch5","","510","tol_toboard","","","","tol_peg_3","510","510","0","[[0,0,0],[2,1],[3]]","8","[[2,0,0],[1,3],[0]]","10","0","","","","","","6","","","","","","","","",""
"","","","","","single-stim-button","238","378008","0.0-2.0-40.8-0.8","603e97018512c2f752512f0b","E1","batch5","","1485","tol_tohand","","","","tol_peg_2","1485","1485","0","[[0,0,0],[2,0],[3]]","9","[[2,0,0],[1,3],[0]]","10","0","","","","","","6","","","","","","","","",""
"","","","","","single-stim-button","239","378391","0.0-2.0-40.8-1.8","603e97018512c2f752512f0b","E1","batch5","","381","tol_toboard","","","","tol_peg_1","381","381","0","[[1,0,0],[2,0],[3]]","9","[[2,0,0],[1,3],[0]]","10","0","","","","","","6","","","","","","","","",""
"","","","","","single-stim-button","240","383266","0.0-2.0-40.9-0.9","603e97018512c2f752512f0b","E1","batch5","","4875","tol_tohand","","","","tol_peg_2","4875","4875","0","[[1,0,0],[0,0],[3]]","10","[[2,0,0],[1,3],[0]]","10","0","","","","","","6","","","","","","","","",""
"","","","","","single-stim-button","241","383753","0.0-2.0-40.9-1.9","603e97018512c2f752512f0b","E1","batch5","","486","tol_toboard","","","","tol_peg_1","486","486","0","[[1,2,0],[0,0],[3]]","10","[[2,0,0],[1,3],[0]]","10","0","","","","","","6","","","","","","","","",""
"","","","","","single-stim-button","242","384331","0.0-2.0-40.10-0.10","603e97018512c2f752512f0b","E1","batch5","","577","tol_tohand","","","","tol_peg_3","577","577","0","[[1,2,0],[0,0],[0]]","11","[[2,0,0],[1,3],[0]]","10","0","","","","","","6","","","","","","","","",""
"","","","","","single-stim-button","243","384698","0.0-2.0-40.10-1.10","603e97018512c2f752512f0b","E1","batch5","","367","tol_toboard","","","","tol_peg_2","367","367","0","[[1,2,0],[3,0],[0]]","11","[[2,0,0],[1,3],[0]]","10","0","","","","","","6","","","","","","","","",""
"","","","","","single-stim-button","244","385389","0.0-2.0-40.11-0.11","603e97018512c2f752512f0b","E1","batch5","","690","tol_tohand","","","","tol_peg_1","690","690","0","[[1,0,0],[3,0],[0]]","12","[[2,0,0],[1,3],[0]]","10","0","","","","","","6","","","","","","","","",""
"","","","","","single-stim-button","245","386026","0.0-2.0-40.11-1.11","603e97018512c2f752512f0b","E1","batch5","","636","tol_toboard","","","","tol_peg_3","636","636","0","[[1,0,0],[3,0],[2]]","12","[[2,0,0],[1,3],[0]]","10","0","","","","","","6","","","","","","","","",""
"","","","","","single-stim-button","246","386604","0.0-2.0-40.12-0.12","603e97018512c2f752512f0b","E1","batch5","","577","tol_tohand","","","","tol_peg_1","577","577","0","[[0,0,0],[3,0],[2]]","13","[[2,0,0],[1,3],[0]]","10","0","","","","","","6","","","","","","","","",""
"","","","","","single-stim-button","247","387158","0.0-2.0-40.12-1.12","603e97018512c2f752512f0b","E1","batch5","","554","tol_toboard","","","","tol_peg_2","554","554","0","[[0,0,0],[3,1],[2]]","13","[[2,0,0],[1,3],[0]]","10","0","","","","","","6","","","","","","","","",""
"","","","","","single-stim-button","248","387602","0.0-2.0-40.13-0.13","603e97018512c2f752512f0b","E1","batch5","","442","tol_tohand","","","","tol_peg_3","442","442","0","[[0,0,0],[3,1],[0]]","14","[[2,0,0],[1,3],[0]]","10","0","","","","","","6","","","","","","","","",""
"","","","","","single-stim-button","249","388156","0.0-2.0-40.13-1.13","603e97018512c2f752512f0b","E1","batch5","","554","tol_toboard","","","","tol_peg_1","554","554","0","[[2,0,0],[3,1],[0]]","14","[[2,0,0],[1,3],[0]]","10","0","","","","","","6","","","","","","","","",""
"","","","","","single-stim-button","250","388696","0.0-2.0-40.14-0.14","603e97018512c2f752512f0b","E1","batch5","","539","tol_tohand","","","","tol_peg_2","539","539","0","[[2,0,0],[3,0],[0]]","15","[[2,0,0],[1,3],[0]]","10","0","","","","","","6","","","","","","","","",""
"","","","","","single-stim-button","251","389109","0.0-2.0-40.14-1.14","603e97018512c2f752512f0b","E1","batch5","","413","tol_toboard","","","","tol_peg_3","413","413","0","[[2,0,0],[3,0],[1]]","15","[[2,0,0],[1,3],[0]]","10","0","","","","","","6","","","","","","","","",""
"","","","","","single-stim-button","252","389528","0.0-2.0-40.15-0.15","603e97018512c2f752512f0b","E1","batch5","","418","tol_tohand","","","","tol_peg_2","418","418","0","[[2,0,0],[0,0],[1]]","16","[[2,0,0],[1,3],[0]]","10","0","","","","","","6","","","","","","","","",""
"","","","","","single-stim-button","253","389881","0.0-2.0-40.15-1.15","603e97018512c2f752512f0b","E1","batch5","","352","tol_toboard","","","","tol_peg_1","352","352","0","[[2,3,0],[0,0],[1]]","16","[[2,0,0],[1,3],[0]]","10","0","","","","","","6","","","","","","","","",""
"","","","","","single-stim-button","254","390308","0.0-2.0-40.16-0.16","603e97018512c2f752512f0b","E1","batch5","","427","tol_tohand","","","","tol_peg_3","427","427","0","[[2,3,0],[0,0],[0]]","17","[[2,0,0],[1,3],[0]]","10","0","","","","","","6","","","","","","","","",""
"","","","","","single-stim-button","255","390676","0.0-2.0-40.16-1.16","603e97018512c2f752512f0b","E1","batch5","","367","tol_toboard","","","","tol_peg_2","367","367","0","[[2,3,0],[1,0],[0]]","17","[[2,0,0],[1,3],[0]]","10","0","","","","","","6","","","","","","","","",""
"","","","","","single-stim-button","256","391066","0.0-2.0-40.17-0.17","603e97018512c2f752512f0b","E1","batch5","","390","tol_tohand","","","","tol_peg_1","390","390","0","[[2,0,0],[1,0],[0]]","18","[[2,0,0],[1,3],[0]]","10","0","","","","","","6","","","","","","","","",""
"","","","","","single-stim-button","257","391397","0.0-2.0-40.17-1.17","603e97018512c2f752512f0b","E1","batch5","","331","tol_toboard","","","","tol_peg_2","331","331","0","[[2,0,0],[1,3],[0]]","18","[[2,0,0],[1,3],[0]]","10","0","","","","","","6","","","","","","","","",""
"","","","","","poldrack-single-stim","258","392398","0.0-2.0-41.0","603e97018512c2f752512f0b","E1","batch5","","-1","tol_feedback","","","true","","1000","1000","500","","","","","","-1","none","true","1567","18407","","","","","","","","","",""
"","","","","","html-button-response","259","393413","0.0-2.0-42.0","603e97018512c2f752512f0b","E1","batch5","","1015.1000000014901","tol_trial_num","<div class = centerbox><p class = center-block-text>problem <strong>12</strong> out of 25 problems</p></div>","0","","","","","","","","","","","","","","","","","","","","","","","","",""
"","","","","","single-stim-button","260","399436","0.0-2.0-43.0-0.0","603e97018512c2f752512f0b","E1","batch5","","6023","tol_tohand","","","","tol_peg_1","6023","6023","0","[[1,0,0],[3,0],[0]]","1","[[2,3,0],[0,0],[1]]","11","0","","","","","","4","","","","","","","","",""
"","","","","","single-stim-button","261","399872","0.0-2.0-43.0-1.0","603e97018512c2f752512f0b","E1","batch5","","435","tol_toboard","","","","tol_peg_2","435","435","0","[[1,0,0],[3,2],[0]]","1","[[2,3,0],[0,0],[1]]","11","0","","","","","","4","","","","","","","","",""
"","","","","","single-stim-button","262","400426","0.0-2.0-43.1-0.1","603e97018512c2f752512f0b","E1","batch5","","554","tol_tohand","","","","tol_peg_1","554","554","0","[[0,0,0],[3,2],[0]]","2","[[2,3,0],[0,0],[1]]","11","0","","","","","","4","","","","","","","","",""
"","","","","","single-stim-button","263","401011","0.0-2.0-43.1-1.1","603e97018512c2f752512f0b","E1","batch5","","585","tol_toboard","","","","tol_peg_3","585","585","0","[[0,0,0],[3,2],[1]]","2","[[2,3,0],[0,0],[1]]","11","0","","","","","","4","","","","","","","","",""
"","","","","","single-stim-button","264","403276","0.0-2.0-43.2-0.2","603e97018512c2f752512f0b","E1","batch5","","2265","tol_tohand","","","","tol_peg_3","2265","2265","0","[[0,0,0],[3,2],[0]]","3","[[2,3,0],[0,0],[1]]","11","0","","","","","","4","","","","","","","","",""
"","","","","","single-stim-button","265","403756","0.0-2.0-43.2-1.2","603e97018512c2f752512f0b","E1","batch5","","480","tol_toboard","","","","tol_peg_1","480","480","0","[[1,0,0],[3,2],[0]]","3","[[2,3,0],[0,0],[1]]","11","0","","","","","","4","","","","","","","","",""
"","","","","","single-stim-button","266","404423","0.0-2.0-43.3-0.3","603e97018512c2f752512f0b","E1","batch5","","667","tol_tohand","","","","tol_peg_2","667","667","0","[[1,0,0],[3,0],[0]]","4","[[2,3,0],[0,0],[1]]","11","0","","","","","","4","","","","","","","","",""
"","","","","","single-stim-button","267","404942","0.0-2.0-43.3-1.3","603e97018512c2f752512f0b","E1","batch5","","518","tol_toboard","","","","tol_peg_3","518","518","0","[[1,0,0],[3,0],[2]]","4","[[2,3,0],[0,0],[1]]","11","0","","","","","","4","","","","","","","","",""
"","","","","","single-stim-button","268","406546","0.0-2.0-43.4-0.4","603e97018512c2f752512f0b","E1","batch5","","1604","tol_tohand","","","","tol_peg_1","1604","1604","0","[[0,0,0],[3,0],[2]]","5","[[2,3,0],[0,0],[1]]","11","0","","","","","","4","","","","","","","","",""
"","","","","","single-stim-button","269","407934","0.0-2.0-43.4-1.4","603e97018512c2f752512f0b","E1","batch5","","1387","tol_toboard","","","","tol_peg_2","1387","1387","0","[[0,0,0],[3,1],[2]]","5","[[2,3,0],[0,0],[1]]","11","0","","","","","","4","","","","","","","","",""
"","","","","","single-stim-button","270","408286","0.0-2.0-43.5-0.5","603e97018512c2f752512f0b","E1","batch5","","352","tol_tohand","","","","tol_peg_3","352","352","0","[[0,0,0],[3,1],[0]]","6","[[2,3,0],[0,0],[1]]","11","0","","","","","","4","","","","","","","","",""
"","","","","","single-stim-button","271","408811","0.0-2.0-43.5-1.5","603e97018512c2f752512f0b","E1","batch5","","525","tol_toboard","","","","tol_peg_1","525","525","0","[[2,0,0],[3,1],[0]]","6","[[2,3,0],[0,0],[1]]","11","0","","","","","","4","","","","","","","","",""
"","","","","","single-stim-button","272","409186","0.0-2.0-43.6-0.6","603e97018512c2f752512f0b","E1","batch5","","375","tol_tohand","","","","tol_peg_2","375","375","0","[[2,0,0],[3,0],[0]]","7","[[2,3,0],[0,0],[1]]","11","0","","","","","","4","","","","","","","","",""
"","","","","","single-stim-button","273","409561","0.0-2.0-43.6-1.6","603e97018512c2f752512f0b","E1","batch5","","375","tol_toboard","","","","tol_peg_3","375","375","0","[[2,0,0],[3,0],[1]]","7","[[2,3,0],[0,0],[1]]","11","0","","","","","","4","","","","","","","","",""
"","","","","","single-stim-button","274","409928","0.0-2.0-43.7-0.7","603e97018512c2f752512f0b","E1","batch5","","367","tol_tohand","","","","tol_peg_2","367","367","0","[[2,0,0],[0,0],[1]]","8","[[2,3,0],[0,0],[1]]","11","0","","","","","","4","","","","","","","","",""
"","","","","","single-stim-button","275","410386","0.0-2.0-43.7-1.7","603e97018512c2f752512f0b","E1","batch5","","457","tol_toboard","","","","tol_peg_1","457","457","0","[[2,3,0],[0,0],[1]]","8","[[2,3,0],[0,0],[1]]","11","0","","","","","","4","","","","","","","","",""
"","","","","","poldrack-single-stim","276","411387","0.0-2.0-44.0","603e97018512c2f752512f0b","E1","batch5","","-1","tol_feedback","","","true","","1000","1000","500","","","","","","-1","none","true","6023","12207","","","","","","","","","",""
"","","","","","html-button-response","277","412298","0.0-2.0-45.0","603e97018512c2f752512f0b","E1","batch5","","910.3999999985099","tol_trial_num","<div class = centerbox><p class = center-block-text>problem <strong>13</strong> out of 25 problems</p></div>","0","","","","","","","","","","","","","","","","","","","","","","","","",""
"","","","","","single-stim-button","278","425326","0.0-2.0-46.0-0.0","603e97018512c2f752512f0b","E1","batch5","","13028","tol_tohand","","","","tol_peg_1","13028","13028","0","[[1,0,0],[3,0],[0]]","1","[[0,0,0],[2,3],[1]]","12","0","","","","","","4","","","","","","","","",""
"","","","","","single-stim-button","279","426069","0.0-2.0-46.0-1.0","603e97018512c2f752512f0b","E1","batch5","","742","tol_toboard","","","","tol_peg_2","742","742","0","[[1,0,0],[3,2],[0]]","1","[[0,0,0],[2,3],[1]]","12","0","","","","","","4","","","","","","","","",""
"","","","","","single-stim-button","280","426684","0.0-2.0-46.1-0.1","603e97018512c2f752512f0b","E1","batch5","","615","tol_tohand","","","","tol_peg_1","615","615","0","[[0,0,0],[3,2],[0]]","2","[[0,0,0],[2,3],[1]]","12","0","","","","","","4","","","","","","","","",""
"","","","","","single-stim-button","281","427501","0.0-2.0-46.1-1.1","603e97018512c2f752512f0b","E1","batch5","","817","tol_toboard","","","","tol_peg_3","817","817","0","[[0,0,0],[3,2],[1]]","2","[[0,0,0],[2,3],[1]]","12","0","","","","","","4","","","","","","","","",""
"","","","","","single-stim-button","282","428544","0.0-2.0-46.2-0.2","603e97018512c2f752512f0b","E1","batch5","","1043","tol_tohand","","","","tol_peg_2","1043","1043","0","[[0,0,0],[3,0],[1]]","3","[[0,0,0],[2,3],[1]]","12","0","","","","","","4","","","","","","","","",""
"","","","","","single-stim-button","283","429369","0.0-2.0-46.2-1.2","603e97018512c2f752512f0b","E1","batch5","","825","tol_toboard","","","","tol_peg_1","825","825","0","[[2,0,0],[3,0],[1]]","3","[[0,0,0],[2,3],[1]]","12","0","","","","","","4","","","","","","","","",""
"","","","","","single-stim-button","284","431003","0.0-2.0-46.3-0.3","603e97018512c2f752512f0b","E1","batch5","","1634","tol_tohand","","","","tol_peg_3","1634","1634","0","[[2,0,0],[3,0],[0]]","4","[[0,0,0],[2,3],[1]]","12","0","","","","","","4","","","","","","","","",""
"","","","","","single-stim-button","285","431386","0.0-2.0-46.3-1.3","603e97018512c2f752512f0b","E1","batch5","","382","tol_toboard","","","","tol_peg_2","382","382","0","[[2,0,0],[3,1],[0]]","4","[[0,0,0],[2,3],[1]]","12","0","","","","","","4","","","","","","","","",""
"","","","","","single-stim-button","286","432054","0.0-2.0-46.4-0.4","603e97018512c2f752512f0b","E1","batch5","","667","tol_tohand","","","","tol_peg_1","667","667","0","[[0,0,0],[3,1],[0]]","5","[[0,0,0],[2,3],[1]]","12","0","","","","","","4","","","","","","","","",""
"","","","","","single-stim-button","287","432827","0.0-2.0-46.4-1.4","603e97018512c2f752512f0b","E1","batch5","","772","tol_toboard","","","","tol_peg_3","772","772","0","[[0,0,0],[3,1],[2]]","5","[[0,0,0],[2,3],[1]]","12","0","","","","","","4","","","","","","","","",""
"","","","","","single-stim-button","288","433764","0.0-2.0-46.5-0.5","603e97018512c2f752512f0b","E1","batch5","","937","tol_tohand","","","","tol_peg_2","937","937","0","[[0,0,0],[3,0],[2]]","6","[[0,0,0],[2,3],[1]]","12","0","","","","","","4","","","","","","","","",""
"","","","","","single-stim-button","289","437281","0.0-2.0-46.5-1.5","603e97018512c2f752512f0b","E1","batch5","","3517","tol_toboard","","","","tol_peg_1","3517","3517","0","[[1,0,0],[3,0],[2]]","6","[[0,0,0],[2,3],[1]]","12","0","","","","","","4","","","","","","","","",""
"","","","","","single-stim-button","290","438077","0.0-2.0-46.6-0.6","603e97018512c2f752512f0b","E1","batch5","","795","tol_tohand","","","","tol_peg_3","795","795","0","[[1,0,0],[3,0],[0]]","7","[[0,0,0],[2,3],[1]]","12","0","","","","","","4","","","","","","","","",""
"","","","","","single-stim-button","291","438856","0.0-2.0-46.6-1.6","603e97018512c2f752512f0b","E1","batch5","","779","tol_toboard","","","","tol_peg_1","779","779","0","[[1,2,0],[3,0],[0]]","7","[[0,0,0],[2,3],[1]]","12","0","","","","","","4","","","","","","","","",""
"","","","","","single-stim-button","292","439262","0.0-2.0-46.7-0.7","603e97018512c2f752512f0b","E1","batch5","","405","tol_tohand","","","","tol_peg_2","405","405","0","[[1,2,0],[0,0],[0]]","8","[[0,0,0],[2,3],[1]]","12","0","","","","","","4","","","","","","","","",""
"","","","","","single-stim-button","293","439697","0.0-2.0-46.7-1.7","603e97018512c2f752512f0b","E1","batch5","","435","tol_toboard","","","","tol_peg_3","435","435","0","[[1,2,0],[0,0],[3]]","8","[[0,0,0],[2,3],[1]]","12","0","","","","","","4","","","","","","","","",""
"","","","","","single-stim-button","294","440964","0.0-2.0-46.8-0.8","603e97018512c2f752512f0b","E1","batch5","","1267","tol_tohand","","","","tol_peg_1","1267","1267","0","[[1,0,0],[0,0],[3]]","9","[[0,0,0],[2,3],[1]]","12","0","","","","","","4","","","","","","","","",""
"","","","","","single-stim-button","295","441481","0.0-2.0-46.8-1.8","603e97018512c2f752512f0b","E1","batch5","","517","tol_toboard","","","","tol_peg_2","517","517","0","[[1,0,0],[2,0],[3]]","9","[[0,0,0],[2,3],[1]]","12","0","","","","","","4","","","","","","","","",""
"","","","","","single-stim-button","296","441999","0.0-2.0-46.9-0.9","603e97018512c2f752512f0b","E1","batch5","","517","tol_tohand","","","","tol_peg_3","517","517","0","[[1,0,0],[2,0],[0]]","10","[[0,0,0],[2,3],[1]]","12","0","","","","","","4","","","","","","","","",""
"","","","","","single-stim-button","297","442359","0.0-2.0-46.9-1.9","603e97018512c2f752512f0b","E1","batch5","","360","tol_toboard","","","","tol_peg_2","360","360","0","[[1,0,0],[2,3],[0]]","10","[[0,0,0],[2,3],[1]]","12","0","","","","","","4","","","","","","","","",""
"","","","","","single-stim-button","298","443178","0.0-2.0-46.10-0.10","603e97018512c2f752512f0b","E1","batch5","","819","tol_tohand","","","","tol_peg_1","819","819","0","[[0,0,0],[2,3],[0]]","11","[[0,0,0],[2,3],[1]]","12","0","","","","","","4","","","","","","","","",""
"","","","","","single-stim-button","299","443896","0.0-2.0-46.10-1.10","603e97018512c2f752512f0b","E1","batch5","","718","tol_toboard","","","","tol_peg_3","718","718","0","[[0,0,0],[2,3],[1]]","11","[[0,0,0],[2,3],[1]]","12","0","","","","","","4","","","","","","","","",""
"","","","","","poldrack-single-stim","300","444897","0.0-2.0-47.0","603e97018512c2f752512f0b","E1","batch5","","-1","tol_feedback","","","true","","1000","1000","500","","","","","","-1","none","true","13028","21727","","","","","","","","","",""
"","","","","","html-button-response","301","450384","0.0-2.0-48.0","603e97018512c2f752512f0b","E1","batch5","","5486.800000000745","attention_check","<p class = block-text>How many balls are in your board<br></p>","1","true","","","","","","","","","","","","","","","","","","","","","","","",""
"","","","","","html-button-response","302","451187","0.0-2.0-49.0","603e97018512c2f752512f0b","E1","batch5","","801.5","tol_trial_num","<div class = centerbox><p class = center-block-text>problem <strong>14</strong> out of 25 problems</p></div>","0","","","","","","","","","","","","","","","","","","","","","","","","",""
"","","","","","single-stim-button","303","453242","0.0-2.0-50.0-0.0","603e97018512c2f752512f0b","E1","batch5","","2055","tol_tohand","","","","tol_peg_1","2055","2055","0","[[2,0,0],[3,0],[0]]","1","[[1,2,0],[3,0],[0]]","13","0","","","","","","4","","","","","","","","",""
"","","","","","single-stim-button","304","454465","0.0-2.0-50.0-1.0","603e97018512c2f752512f0b","E1","batch5","","1222","tol_toboard","","","","tol_peg_2","1222","1222","0","[[2,0,0],[3,1],[0]]","1","[[1,2,0],[3,0],[0]]","13","0","","","","","","4","","","","","","","","",""
"","","","","","single-stim-button","305","454817","0.0-2.0-50.1-0.1","603e97018512c2f752512f0b","E1","batch5","","352","tol_tohand","","","","tol_peg_1","352","352","0","[[0,0,0],[3,1],[0]]","2","[[1,2,0],[3,0],[0]]","13","0","","","","","","4","","","","","","","","",""
"","","","","","single-stim-button","306","455440","0.0-2.0-50.1-1.1","603e97018512c2f752512f0b","E1","batch5","","622","tol_toboard","","","","tol_peg_3","622","622","0","[[0,0,0],[3,1],[2]]","2","[[1,2,0],[3,0],[0]]","13","0","","","","","","4","","","","","","","","",""
"","","","","","single-stim-button","307","455815","0.0-2.0-50.2-0.2","603e97018512c2f752512f0b","E1","batch5","","375","tol_tohand","","","","tol_peg_2","375","375","0","[[0,0,0],[3,0],[2]]","3","[[1,2,0],[3,0],[0]]","13","0","","","","","","4","","","","","","","","",""
"","","","","","single-stim-button","308","456130","0.0-2.0-50.2-1.2","603e97018512c2f752512f0b","E1","batch5","","314","tol_toboard","","","","tol_peg_1","314","314","0","[[1,0,0],[3,0],[2]]","3","[[1,2,0],[3,0],[0]]","13","0","","","","","","4","","","","","","","","",""
"","","","","","single-stim-button","309","456535","0.0-2.0-50.3-0.3","603e97018512c2f752512f0b","E1","batch5","","404","tol_tohand","","","","tol_peg_3","404","404","0","[[1,0,0],[3,0],[0]]","4","[[1,2,0],[3,0],[0]]","13","0","","","","","","4","","","","","","","","",""
"","","","","","single-stim-button","310","456948","0.0-2.0-50.3-1.3","603e97018512c2f752512f0b","E1","batch5","","413","tol_toboard","","","","tol_peg_1","413","413","0","[[1,2,0],[3,0],[0]]","4","[[1,2,0],[3,0],[0]]","13","0","","","","","","4","","","","","","","","",""
"","","","","","poldrack-single-stim","311","457960","0.0-2.0-51.0","603e97018512c2f752512f0b","E1","batch5","","-1","tol_feedback","","","true","","1000","1000","500","","","","","","-1","none","true","2055","3186","","","","","","","","","",""
"","","","","","html-button-response","312","458935","0.0-2.0-52.0","603e97018512c2f752512f0b","E1","batch5","","974.6999999992549","tol_trial_num","<div class = centerbox><p class = center-block-text>problem <strong>15</strong> out of 25 problems</p></div>","0","","","","","","","","","","","","","","","","","","","","","","","","",""
"","","","","","single-stim-button","313","461298","0.0-2.0-53.0-0.0","603e97018512c2f752512f0b","E1","batch5","","2363","tol_tohand","","","","tol_peg_1","2363","2363","0","[[1,0,0],[3,0],[0]]","1","[[2,0,0],[3,0],[1]]","14","0","","","","","","3","","","","","","","","",""
"","","","","","single-stim-button","314","461868","0.0-2.0-53.0-1.0","603e97018512c2f752512f0b","E1","batch5","","569","tol_toboard","","","","tol_peg_2","569","569","0","[[1,0,0],[3,2],[0]]","1","[[2,0,0],[3,0],[1]]","14","0","","","","","","3","","","","","","","","",""
"","","","","","single-stim-button","315","462242","0.0-2.0-53.1-0.1","603e97018512c2f752512f0b","E1","batch5","","374","tol_tohand","","","","tol_peg_1","374","374","0","[[0,0,0],[3,2],[0]]","2","[[2,0,0],[3,0],[1]]","14","0","","","","","","3","","","","","","","","",""
"","","","","","single-stim-button","316","462746","0.0-2.0-53.1-1.1","603e97018512c2f752512f0b","E1","batch5","","502","tol_toboard","","","","tol_peg_3","502","502","0","[[0,0,0],[3,2],[1]]","2","[[2,0,0],[3,0],[1]]","14","0","","","","","","3","","","","","","","","",""
"","","","","","single-stim-button","317","463293","0.0-2.0-53.2-0.2","603e97018512c2f752512f0b","E1","batch5","","546","tol_tohand","","","","tol_peg_2","546","546","0","[[0,0,0],[3,0],[1]]","3","[[2,0,0],[3,0],[1]]","14","0","","","","","","3","","","","","","","","",""
"","","","","","single-stim-button","318","463645","0.0-2.0-53.2-1.2","603e97018512c2f752512f0b","E1","batch5","","352","tol_toboard","","","","tol_peg_1","352","352","0","[[2,0,0],[3,0],[1]]","3","[[2,0,0],[3,0],[1]]","14","0","","","","","","3","","","","","","","","",""
"","","","","","poldrack-single-stim","319","464647","0.0-2.0-54.0","603e97018512c2f752512f0b","E1","batch5","","-1","tol_feedback","","","true","","1000","1000","500","","","","","","-1","none","true","2363","3283","","","","","","","","","",""
"","","","","","html-button-response","320","465220","0.0-2.0-55.0","603e97018512c2f752512f0b","E1","batch5","","571.9000000022352","tol_trial_num","<div class = centerbox><p class = center-block-text>problem <strong>16</strong> out of 25 problems</p></div>","0","","","","","","","","","","","","","","","","","","","","","","","","",""
"","","","","","single-stim-button","321","468085","0.0-2.0-56.0-0.0","603e97018512c2f752512f0b","E1","batch5","","2865","tol_tohand","","","","tol_peg_2","2865","2865","0","[[0,0,0],[2,0],[1]]","1","[[2,3,0],[1,0],[0]]","15","0","","","","","","7","","","","","","","","",""
"","","","","","single-stim-button","322","468625","0.0-2.0-56.0-1.0","603e97018512c2f752512f0b","E1","batch5","","540","tol_toboard","","","","tol_peg_1","540","540","0","[[3,0,0],[2,0],[1]]","1","[[2,3,0],[1,0],[0]]","15","0","","","","","","7","","","","","","","","",""
"","","","","","single-stim-button","323","469098","0.0-2.0-56.1-0.1","603e97018512c2f752512f0b","E1","batch5","","473","tol_tohand","","","","tol_peg_3","473","473","0","[[3,0,0],[2,0],[0]]","2","[[2,3,0],[1,0],[0]]","15","0","","","","","","7","","","","","","","","",""
"","","","","","single-stim-button","324","469428","0.0-2.0-56.1-1.1","603e97018512c2f752512f0b","E1","batch5","","330","tol_toboard","","","","tol_peg_2","330","330","0","[[3,0,0],[2,1],[0]]","2","[[2,3,0],[1,0],[0]]","15","0","","","","","","7","","","","","","","","",""
"","","","","","single-stim-button","325","470013","0.0-2.0-56.2-0.2","603e97018512c2f752512f0b","E1","batch5","","585","tol_tohand","","","","tol_peg_1","585","585","0","[[0,0,0],[2,1],[0]]","3","[[2,3,0],[1,0],[0]]","15","0","","","","","","7","","","","","","","","",""
"","","","","","single-stim-button","326","470493","0.0-2.0-56.2-1.2","603e97018512c2f752512f0b","E1","batch5","","479","tol_toboard","","","","tol_peg_3","479","479","0","[[0,0,0],[2,1],[3]]","3","[[2,3,0],[1,0],[0]]","15","0","","","","","","7","","","","","","","","",""
"","","","","","single-stim-button","327","470965","0.0-2.0-56.3-0.3","603e97018512c2f752512f0b","E1","batch5","","472","tol_tohand","","","","tol_peg_2","472","472","0","[[0,0,0],[2,0],[3]]","4","[[2,3,0],[1,0],[0]]","15","0","","","","","","7","","","","","","","","",""
"","","","","","single-stim-button","328","471700","0.0-2.0-56.3-1.3","603e97018512c2f752512f0b","E1","batch5","","735","tol_toboard","","","","tol_peg_1","735","735","0","[[1,0,0],[2,0],[3]]","4","[[2,3,0],[1,0],[0]]","15","0","","","","","","7","","","","","","","","",""
"","","","","","single-stim-button","329","472172","0.0-2.0-56.4-0.4","603e97018512c2f752512f0b","E1","batch5","","472","tol_tohand","","","","tol_peg_2","472","472","0","[[1,0,0],[0,0],[3]]","5","[[2,3,0],[1,0],[0]]","15","0","","","","","","7","","","","","","","","",""
"","","","","","single-stim-button","330","477063","0.0-2.0-56.4-1.4","603e97018512c2f752512f0b","E1","batch5","","4890","tol_toboard","","","","tol_peg_1","4890","4890","0","[[1,2,0],[0,0],[3]]","5","[[2,3,0],[1,0],[0]]","15","0","","","","","","7","","","","","","","","",""
"","","","","","single-stim-button","331","477513","0.0-2.0-56.5-0.5","603e97018512c2f752512f0b","E1","batch5","","449","tol_tohand","","","","tol_peg_3","449","449","0","[[1,2,0],[0,0],[0]]","6","[[2,3,0],[1,0],[0]]","15","0","","","","","","7","","","","","","","","",""
"","","","","","single-stim-button","332","477940","0.0-2.0-56.5-1.5","603e97018512c2f752512f0b","E1","batch5","","427","tol_toboard","","","","tol_peg_2","427","427","0","[[1,2,0],[3,0],[0]]","6","[[2,3,0],[1,0],[0]]","15","0","","","","","","7","","","","","","","","",""
"","","","","","single-stim-button","333","478467","0.0-2.0-56.6-0.6","603e97018512c2f752512f0b","E1","batch5","","526","tol_tohand","","","","tol_peg_1","526","526","0","[[1,0,0],[3,0],[0]]","7","[[2,3,0],[1,0],[0]]","15","0","","","","","","7","","","","","","","","",""
"","","","","","single-stim-button","334","479058","0.0-2.0-56.6-1.6","603e97018512c2f752512f0b","E1","batch5","","591","tol_toboard","","","","tol_peg_3","591","591","0","[[1,0,0],[3,0],[2]]","7","[[2,3,0],[1,0],[0]]","15","0","","","","","","7","","","","","","","","",""
"","","","","","single-stim-button","335","479538","0.0-2.0-56.7-0.7","603e97018512c2f752512f0b","E1","batch5","","479","tol_tohand","","","","tol_peg_1","479","479","0","[[0,0,0],[3,0],[2]]","8","[[2,3,0],[1,0],[0]]","15","0","","","","","","7","","","","","","","","",""
"","","","","","single-stim-button","336","480115","0.0-2.0-56.7-1.7","603e97018512c2f752512f0b","E1","batch5","","577","tol_toboard","","","","tol_peg_2","577","577","0","[[0,0,0],[3,1],[2]]","8","[[2,3,0],[1,0],[0]]","15","0","","","","","","7","","","","","","","","",""
"","","","","","single-stim-button","337","480505","0.0-2.0-56.8-0.8","603e97018512c2f752512f0b","E1","batch5","","390","tol_tohand","","","","tol_peg_3","390","390","0","[[0,0,0],[3,1],[0]]","9","[[2,3,0],[1,0],[0]]","15","0","","","","","","7","","","","","","","","",""
"","","","","","single-stim-button","338","481016","0.0-2.0-56.8-1.8","603e97018512c2f752512f0b","E1","batch5","","511","tol_toboard","","","","tol_peg_1","511","511","0","[[2,0,0],[3,1],[0]]","9","[[2,3,0],[1,0],[0]]","15","0","","","","","","7","","","","","","","","",""
"","","","","","single-stim-button","339","481983","0.0-2.0-56.9-0.9","603e97018512c2f752512f0b","E1","batch5","","967","tol_tohand","","","","tol_peg_2","967","967","0","[[2,0,0],[3,0],[0]]","10","[[2,3,0],[1,0],[0]]","15","0","","","","","","7","","","","","","","","",""
"","","","","","single-stim-button","340","482328","0.0-2.0-56.9-1.9","603e97018512c2f752512f0b","E1","batch5","","344","tol_toboard","","","","tol_peg_3","344","344","0","[[2,0,0],[3,0],[1]]","10","[[2,3,0],[1,0],[0]]","15","0","","","","","","7","","","","","","","","",""
"","","","","","single-stim-button","341","482996","0.0-2.0-56.10-0.10","603e97018512c2f752512f0b","E1","batch5","","667","tol_tohand","","","","tol_peg_2","667","667","0","[[2,0,0],[0,0],[1]]","11","[[2,3,0],[1,0],[0]]","15","0","","","","","","7","","","","","","","","",""
"","","","","","single-stim-button","342","483423","0.0-2.0-56.10-1.10","603e97018512c2f752512f0b","E1","batch5","","427","tol_toboard","","","","tol_peg_1","427","427","0","[[2,3,0],[0,0],[1]]","11","[[2,3,0],[1,0],[0]]","15","0","","","","","","7","","","","","","","","",""
"","","","","","single-stim-button","343","484121","0.0-2.0-56.11-0.11","603e97018512c2f752512f0b","E1","batch5","","697","tol_tohand","","","","tol_peg_3","697","697","0","[[2,3,0],[0,0],[0]]","12","[[2,3,0],[1,0],[0]]","15","0","","","","","","7","","","","","","","","",""
"","","","","","single-stim-button","344","484458","0.0-2.0-56.11-1.11","603e97018512c2f752512f0b","E1","batch5","","337","tol_toboard","","","","tol_peg_2","337","337","0","[[2,3,0],[1,0],[0]]","12","[[2,3,0],[1,0],[0]]","15","0","","","","","","7","","","","","","","","",""
"","","","","","poldrack-single-stim","345","485459","0.0-2.0-57.0","603e97018512c2f752512f0b","E1","batch5","","-1","tol_feedback","","","true","","1000","1000","500","","","","","","-1","none","true","2865","9042","","","","","","","","","",""
"","","","","","html-button-response","346","486123","0.0-2.0-58.0","603e97018512c2f752512f0b","E1","batch5","","663.3999999985099","tol_trial_num","<div class = centerbox><p class = center-block-text>problem <strong>17</strong> out of 25 problems</p></div>","0","","","","","","","","","","","","","","","","","","","","","","","","",""
"","","","","","single-stim-button","347","488523","0.0-2.0-59.0-0.0","603e97018512c2f752512f0b","E1","batch5","","2400","tol_tohand","","","","tol_peg_1","2400","2400","0","[[1,0,0],[3,0],[0]]","1","[[3,1,0],[2,0],[0]]","16","0","","","","","","5","","","","","","","","",""
"","","","","","single-stim-button","348","490675","0.0-2.0-59.0-1.0","603e97018512c2f752512f0b","E1","batch5","","2152","tol_toboard","","","","tol_peg_2","2152","2152","0","[[1,0,0],[3,2],[0]]","1","[[3,1,0],[2,0],[0]]","16","0","","","","","","5","","","","","","","","",""
"","","","","","single-stim-button","349","491958","0.0-2.0-59.1-0.1","603e97018512c2f752512f0b","E1","batch5","","1282","tol_tohand","","","","tol_peg_1","1282","1282","0","[[0,0,0],[3,2],[0]]","2","[[3,1,0],[2,0],[0]]","16","0","","","","","","5","","","","","","","","",""
"","","","","","single-stim-button","350","492663","0.0-2.0-59.1-1.1","603e97018512c2f752512f0b","E1","batch5","","705","tol_toboard","","","","tol_peg_3","705","705","0","[[0,0,0],[3,2],[1]]","2","[[3,1,0],[2,0],[0]]","16","0","","","","","","5","","","","","","","","",""
"","","","","","single-stim-button","351","493413","0.0-2.0-59.2-0.2","603e97018512c2f752512f0b","E1","batch5","","750","tol_tohand","","","","tol_peg_2","750","750","0","[[0,0,0],[3,0],[1]]","3","[[3,1,0],[2,0],[0]]","16","0","","","","","","5","","","","","","","","",""
"","","","","","single-stim-button","352","494628","0.0-2.0-59.2-1.2","603e97018512c2f752512f0b","E1","batch5","","1214","tol_toboard","","","","tol_peg_1","1214","1214","0","[[2,0,0],[3,0],[1]]","3","[[3,1,0],[2,0],[0]]","16","0","","","","","","5","","","","","","","","",""
"","","","","","single-stim-button","353","495213","0.0-2.0-59.3-0.3","603e97018512c2f752512f0b","E1","batch5","","585","tol_tohand","","","","tol_peg_3","585","585","0","[[2,0,0],[3,0],[0]]","4","[[3,1,0],[2,0],[0]]","16","0","","","","","","5","","","","","","","","",""
"","","","","","single-stim-button","354","495588","0.0-2.0-59.3-1.3","603e97018512c2f752512f0b","E1","batch5","","375","tol_toboard","","","","tol_peg_2","375","375","0","[[2,0,0],[3,1],[0]]","4","[[3,1,0],[2,0],[0]]","16","0","","","","","","5","","","","","","","","",""
"","","","","","single-stim-button","355","496248","0.0-2.0-59.4-0.4","603e97018512c2f752512f0b","E1","batch5","","660","tol_tohand","","","","tol_peg_1","660","660","0","[[0,0,0],[3,1],[0]]","5","[[3,1,0],[2,0],[0]]","16","0","","","","","","5","","","","","","","","",""
"","","","","","single-stim-button","356","497883","0.0-2.0-59.4-1.4","603e97018512c2f752512f0b","E1","batch5","","1634","tol_toboard","","","","tol_peg_1","1634","1634","0","[[2,0,0],[3,1],[0]]","5","[[3,1,0],[2,0],[0]]","16","0","","","","","","5","","","","","","","","",""
