"success","timeout","failed_images","failed_audio","failed_video","trial_type","trial_index","time_elapsed","internal_node_id","subject_id","study_id","session_id","view_history","rt","stimulus","response","task","correct","answer","item","fiar_detect_rt","fiar_detect_correct","total_correct_fiar_detect","post_trial_gap","choices","spm_correct","spm_rt","mouse_click","stim_duration","block_duration","timing_post_trial","current_position","tol_num_moves_made","tol_target","tol_problem_id","tol_rt","key_press","possible_responses","tol_correct","preplanning","tol_rt_per_trial","tol_min_moves"
"true","false","[]","[]","[]","preload","0","14311","0.0-0.0","60429021c960ed190edaedca","A3","batch1","","","","","","","","","","","","","","","","","","","","","","","","","","","","","",""
"true","","","","","fullscreen","1","24994","0.0-1.0-0.0","60429021c960ed190edaedca","A3","batch1","","","","","","","","","","","","","","","","","","","","","","","","","","","","","",""
"true","","","","","fullscreen","2","29997","0.0-2.0-0.0","60429021c960ed190edaedca","A3","batch1","","","","","","","","","","","","","","","","","","","","","","","","","","","","","",""
"","","","","","instructions","3","127396","0.0-2.0-1.0-0.0","60429021c960ed190edaedca","A3","batch1","[{""page_index"":0,""viewing_time"":13774.90000000596},{""page_index"":1,""viewing_time"":83622.5}]","97397.80000001192","","","","","","","","","","","","","","","","","","","","","","","","","","","",""
"","","","","","html-button-response","4","130303","0.0-2.0-1.0-1.0-0.0","60429021c960ed190edaedca","A3","batch1","","2904.4000000059605","<p class=block-text> Let's answer a few questions <br>","0","pattern_enter_quiz","","","","","","","","","","","","","","","","","","","","","","","","",""
"","","","","","html-button-response","5","134791","0.0-2.0-1.0-1.0-1.0","60429021c960ed190edaedca","A3","batch1","","4485.4000000059605","<p class = block-text>True or False: You will have as much time as you want to make each choice. <br></p>","1","pattern_quiz","true","","","","","","","","","","","","","","","","","","","","","","","",""
"","","","","","html-button-response","6","143795","0.0-2.0-1.0-1.0-2.0","60429021c960ed190edaedca","A3","batch1","","9001.40000000596","<p class = block-text>Correct! You should make your choice <strong> as fast as you can</strong>.</p>","0","pattern_quiz_feedback","","","","","","","","","","","","","","","","","","","","","","","","",""
"","","","","","html-button-response","7","147555","0.0-2.0-1.0-1.0-3.0","60429021c960ed190edaedca","A3","batch1","","3758.5","<p class = block-text>True or False: You will look for 4 pieces in black or white color connected in a row either horizontally, vertically or diagonally. <br></p>","0","pattern_quiz","true","","","","","","","","","","","","","","","","","","","","","","","",""
"","","","","","html-button-response","8","156445","0.0-2.0-1.0-1.0-4.0","60429021c960ed190edaedca","A3","batch1","","8887.59999999404","<p class = block-text>Correct! </p>","0","pattern_quiz_feedback","","","","","","","","","","","","","","","","","","","","","","","","",""
"","","","","","html-button-response","9","159263","0.0-2.0-2.0","60429021c960ed190edaedca","A3","batch1","","2815.300000011921","<p class=block-text> Now that you've understood the game, let's do a few practice trials before we start!<br> <br>","0","pattern_enter_practice","","","","","","","","","","","","","","","","","","","","","","","","",""
"","","","","","image-keyboard-response","10","161399","0.0-2.0-3.0-0.0","60429021c960ed190edaedca","A3","batch1","","2130.300000011921","stim/prac_no_18_1.png","j","pattern_practice","true","j","","","","","","","","","","","","","","","","","","","","","","",""
"","","","","","html-keyboard-response","11","162425","0.0-2.0-3.0-1.0","60429021c960ed190edaedca","A3","batch1","","null","<p style=""font-size:30px;color:green;"">Correct!</p>","null","pattern_feedback","","","","","","","","","","","","","","","","","","","","","","","","",""
"","","","","","image-keyboard-response","12","163805","0.0-2.0-3.0-0.1","60429021c960ed190edaedca","A3","batch1","","1377.5999999940395","stim/prac_yes_18_hor_w1.png","f","pattern_practice","true","f","","","","","","","","","","","","","","","","","","","","","","",""
"","","","","","html-keyboard-response","13","164827","0.0-2.0-3.0-1.1","60429021c960ed190edaedca","A3","batch1","","null","<p style=""font-size:30px;color:green;"">Correct!</p>","null","pattern_feedback","","","","","","","","","","","","","","","","","","","","","","","","",""
"","","","","","image-keyboard-response","14","165996","0.0-2.0-3.0-0.2","60429021c960ed190edaedca","A3","batch1","","1166.800000011921","stim/prac_no_16_1.png","j","pattern_practice","true","j","","","","","","","","","","","","","","","","","","","","","","",""
"","","","","","html-keyboard-response","15","167017","0.0-2.0-3.0-1.2","60429021c960ed190edaedca","A3","batch1","","null","<p style=""font-size:30px;color:green;"">Correct!</p>","null","pattern_feedback","","","","","","","","","","","","","","","","","","","","","","","","",""
"","","","","","image-keyboard-response","16","168410","0.0-2.0-3.0-0.3","60429021c960ed190edaedca","A3","batch1","","1391","stim/prac_yes_20_dia_b1.png","j","pattern_practice","false","f","","","","","","","","","","","","","","","","","","","","","","",""
"","","","","","html-keyboard-response","17","169429","0.0-2.0-3.0-1.3","60429021c960ed190edaedca","A3","batch1","","null","<p style=""font-size:30px;color:red;"">Wrong.</p>","null","pattern_feedback","","","","","","","","","","","","","","","","","","","","","","","","",""
"","","","","","image-keyboard-response","18","170286","0.0-2.0-3.0-0.4","60429021c960ed190edaedca","A3","batch1","","854.6000000238419","stim/prac_yes_16_ver_w1.png","f","pattern_practice","true","f","","","","","","","","","","","","","","","","","","","","","","",""
"","","","","","html-keyboard-response","19","171301","0.0-2.0-3.0-1.4","60429021c960ed190edaedca","A3","batch1","","null","<p style=""font-size:30px;color:green;"">Correct!</p>","null","pattern_feedback","","","","","","","","","","","","","","","","","","","","","","","","",""
"","","","","","html-button-response","20","200504","0.0-2.0-4.0","60429021c960ed190edaedca","A3","batch1","","29202.600000023842","<p class=block-text> Good job! You are done with practice trials!<br>
        You responded correctly on 80% of the trials.<br>
        Press the button below to start official trials. Now you won't see any feedback about your response</p>","0","pattern_enter_official_trials","","","","","","","","","","","","","","","","","","","","","","","","",""
"","","","","","html-keyboard-response","21","201306","0.0-2.0-5.0-0.0","60429021c960ed190edaedca","A3","batch1","","null","<p class=block-text>Trial 1 out of 78</p>","null","pattern_show_trial_num","","","","","","","","","","","","","","","","","","","","","","","","",""
"","","","","","image-keyboard-response","22","202501","0.0-2.0-5.0-1.0","60429021c960ed190edaedca","A3","batch1","","1192.199999988079","stim/yes_39_hor_w1_w.png","f","pattern_response","true","f","pattern_62","1192.199999988079","true","1","","","","","","","","","","","","","","","","","","",""
"","","","","","html-keyboard-response","23","203817","0.0-2.0-5.0-0.1","60429021c960ed190edaedca","A3","batch1","","null","<p class=block-text>Trial 2 out of 78</p>","null","pattern_show_trial_num","","","","","","","","","","","","","","","","","","","","","","","","",""
"","","","","","image-keyboard-response","24","206946","0.0-2.0-5.0-1.1","60429021c960ed190edaedca","A3","batch1","","3127.100000023842","stim/no_67_1.png","j","pattern_response","true","j","pattern_39","3127.100000023842","true","2","","","","","","","","","","","","","","","","","","",""
"","","","","","html-keyboard-response","25","208256","0.0-2.0-5.0-0.2","60429021c960ed190edaedca","A3","batch1","","null","<p class=block-text>Trial 3 out of 78</p>","null","pattern_show_trial_num","","","","","","","","","","","","","","","","","","","","","","","","",""
"","","","","","image-keyboard-response","26","209378","0.0-2.0-5.0-1.2","60429021c960ed190edaedca","A3","batch1","","1119.5999999940395","stim/yes_53_ver_b1_b.png","f","pattern_response","true","f","pattern_74","1119.5999999940395","true","3","","","","","","","","","","","","","","","","","","",""
"","","","","","html-keyboard-response","27","210700","0.0-2.0-5.0-0.3","60429021c960ed190edaedca","A3","batch1","","null","<p class=block-text>Trial 4 out of 78</p>","null","pattern_show_trial_num","","","","","","","","","","","","","","","","","","","","","","","","",""
"","","","","","image-keyboard-response","28","213791","0.0-2.0-5.0-1.3","60429021c960ed190edaedca","A3","batch1","","3088.7000000178814","stim/no_51_1.png","j","pattern_response","true","j","pattern_31","3088.7000000178814","true","4","","","","","","","","","","","","","","","","","","",""
"","","","","","html-keyboard-response","29","215103","0.0-2.0-5.0-0.4","60429021c960ed190edaedca","A3","batch1","","null","<p class=block-text>Trial 5 out of 78</p>","null","pattern_show_trial_num","","","","","","","","","","","","","","","","","","","","","","","","",""
"","","","","","image-keyboard-response","30","217763","0.0-2.0-5.0-1.4","60429021c960ed190edaedca","A3","batch1","","2657.5","stim/yes_26_dia_w2_w.png","j","pattern_response","false","f","pattern_50","2657.5","false","4","","","","","","","","","","","","","","","","","","",""
"","","","","","html-keyboard-response","31","219072","0.0-2.0-5.0-0.5","60429021c960ed190edaedca","A3","batch1","","null","<p class=block-text>Trial 6 out of 78</p>","null","pattern_show_trial_num","","","","","","","","","","","","","","","","","","","","","","","","",""
"","","","","","image-keyboard-response","32","220527","0.0-2.0-5.0-1.5","60429021c960ed190edaedca","A3","batch1","","1453.0999999940395","stim/yes_30_ver_b1_b.png","f","pattern_response","true","f","pattern_54","1453.0999999940395","true","5","","","","","","","","","","","","","","","","","","",""
"","","","","","html-keyboard-response","33","221846","0.0-2.0-5.0-0.6","60429021c960ed190edaedca","A3","batch1","","null","<p class=block-text>Trial 7 out of 78</p>","null","pattern_show_trial_num","","","","","","","","","","","","","","","","","","","","","","","","",""
"","","","","","image-keyboard-response","34","225155","0.0-2.0-5.0-1.6","60429021c960ed190edaedca","A3","batch1","","3307.5","stim/yes_51_dia_b1.png","f","pattern_response","true","f","pattern_72","3307.5","true","6","","","","","","","","","","","","","","","","","","",""
"","","","","","html-keyboard-response","35","226484","0.0-2.0-5.0-0.7","60429021c960ed190edaedca","A3","batch1","","null","<p class=block-text>Trial 8 out of 78</p>","null","pattern_show_trial_num","","","","","","","","","","","","","","","","","","","","","","","","",""
"","","","","","image-keyboard-response","36","227269","0.0-2.0-5.0-1.7","60429021c960ed190edaedca","A3","batch1","","782.2000000178814","stim/yes_15_dia_b1u_b.png","f","pattern_response","true","f","pattern_44","782.2000000178814","true","7","","","","","","","","","","","","","","","","","","",""
"","","","","","html-keyboard-response","37","228573","0.0-2.0-5.0-0.8","60429021c960ed190edaedca","A3","batch1","","null","<p class=block-text>Trial 9 out of 78</p>","null","pattern_show_trial_num","","","","","","","","","","","","","","","","","","","","","","","","",""
"","","","","","image-keyboard-response","38","229486","0.0-2.0-5.0-1.8","60429021c960ed190edaedca","A3","batch1","","909.8999999761581","stim/yes_70_ver_b1.png","f","pattern_response","true","f","pattern_80","909.8999999761581","true","8","","","","","","","","","","","","","","","","","","",""
"","","","","","html-keyboard-response","39","230795","0.0-2.0-5.0-0.9","60429021c960ed190edaedca","A3","batch1","","null","<p class=block-text>Trial 10 out of 78</p>","null","pattern_show_trial_num","","","","","","","","","","","","","","","","","","","","","","","","",""
"","","","","","image-keyboard-response","40","235056","0.0-2.0-5.0-1.9","60429021c960ed190edaedca","A3","batch1","","4259.5","stim/no_37_2_w.png","j","pattern_response","true","j","pattern_19","4259.5","true","9","","","","","","","","","","","","","","","","","","",""
"","","","","","html-keyboard-response","41","236375","0.0-2.0-5.0-0.10","60429021c960ed190edaedca","A3","batch1","","null","<p class=block-text>Trial 11 out of 78</p>","null","pattern_show_trial_num","","","","","","","","","","","","","","","","","","","","","","","","",""
"","","","","","image-keyboard-response","42","239936","0.0-2.0-5.0-1.10","60429021c960ed190edaedca","A3","batch1","","3558.4000000059605","stim/no_43_2_b.png","j","pattern_response","true","j","pattern_23","3558.4000000059605","true","10","","","","","","","","","","","","","","","","","","",""
"","","","","","html-keyboard-response","43","241259","0.0-2.0-5.0-0.11","60429021c960ed190edaedca","A3","batch1","","null","<p class=block-text>Trial 12 out of 78</p>","null","pattern_show_trial_num","","","","","","","","","","","","","","","","","","","","","","","","",""
"","","","","","image-keyboard-response","44","242123","0.0-2.0-5.0-1.11","60429021c960ed190edaedca","A3","batch1","","861.1999999880791","stim/yes_37_hor_w1_w.png","f","pattern_response","true","f","pattern_60","861.1999999880791","true","11","","","","","","","","","","","","","","","","","","",""
"","","","","","html-keyboard-response","45","243429","0.0-2.0-5.0-0.12","60429021c960ed190edaedca","A3","batch1","","null","<p class=block-text>Trial 13 out of 78</p>","null","pattern_show_trial_num","","","","","","","","","","","","","","","","","","","","","","","","",""
"","","","","","image-keyboard-response","46","248311","0.0-2.0-5.0-1.12","60429021c960ed190edaedca","A3","batch1","","4879.899999976158","stim/no_47_1_b.png","j","pattern_response","true","j","pattern_27","4879.899999976158","true","12","","","","","","","","","","","","","","","","","","",""
"","","","","","html-keyboard-response","47","249630","0.0-2.0-5.0-0.13","60429021c960ed190edaedca","A3","batch1","","null","<p class=block-text>Trial 14 out of 78</p>","null","pattern_show_trial_num","","","","","","","","","","","","","","","","","","","","","","","","",""
"","","","","","image-keyboard-response","48","251991","0.0-2.0-5.0-1.13","60429021c960ed190edaedca","A3","batch1","","2358.800000011921","stim/no_18_1_b.png","j","pattern_response","true","j","pattern_05","2358.800000011921","true","13","","","","","","","","","","","","","","","","","","",""
"","","","","","html-keyboard-response","49","253298","0.0-2.0-5.0-0.14","60429021c960ed190edaedca","A3","batch1","","null","<p class=block-text>Trial 15 out of 78</p>","null","pattern_show_trial_num","","","","","","","","","","","","","","","","","","","","","","","","",""
"","","","","","image-keyboard-response","50","257263","0.0-2.0-5.0-1.14","60429021c960ed190edaedca","A3","batch1","","3962.800000011921","stim/no_36_1_b.png","j","pattern_response","true","j","pattern_17","3962.800000011921","true","14","","","","","","","","","","","","","","","","","","",""
"","","","","","html-keyboard-response","51","258577","0.0-2.0-5.0-0.15","60429021c960ed190edaedca","A3","batch1","","null","<p class=block-text>Trial 16 out of 78</p>","null","pattern_show_trial_num","","","","","","","","","","","","","","","","","","","","","","","","",""
"","","","","","image-keyboard-response","52","259260","0.0-2.0-5.0-1.15","60429021c960ed190edaedca","A3","batch1","","680.8999999761581","stim/yes_29_hor_b1_b.png","f","pattern_response","true","f","pattern_52","680.8999999761581","true","15","","","","","","","","","","","","","","","","","","",""
"","","","","","html-keyboard-response","53","260568","0.0-2.0-5.0-0.16","60429021c960ed190edaedca","A3","batch1","","null","<p class=block-text>Trial 17 out of 78</p>","null","pattern_show_trial_num","","","","","","","","","","","","","","","","","","","","","","","","",""
"","","","","","image-keyboard-response","54","262721","0.0-2.0-5.0-1.16","60429021c960ed190edaedca","A3","batch1","","2151.2999999821186","stim/no_49_2_b.png","j","pattern_response","true","j","pattern_29","2151.2999999821186","true","16","","","","","","","","","","","","","","","","","","",""
"","","","","","html-keyboard-response","55","264044","0.0-2.0-5.0-0.17","60429021c960ed190edaedca","A3","batch1","","null","<p class=block-text>Trial 18 out of 78</p>","null","pattern_show_trial_num","","","","","","","","","","","","","","","","","","","","","","","","",""
"","","","","","image-keyboard-response","56","267877","0.0-2.0-5.0-1.17","60429021c960ed190edaedca","A3","batch1","","3830","stim/no_33_1_b.png","j","pattern_response","true","j","pattern_15","3830","true","17","","","","","","","","","","","","","","","","","","",""
"","","","","","html-keyboard-response","57","269203","0.0-2.0-5.0-0.18","60429021c960ed190edaedca","A3","batch1","","null","<p class=block-text>Trial 19 out of 78</p>","null","pattern_show_trial_num","","","","","","","","","","","","","","","","","","","","","","","","",""
"","","","","","image-keyboard-response","58","272943","0.0-2.0-5.0-1.18","60429021c960ed190edaedca","A3","batch1","","3738.4000000059605","stim/no_58_1_w.png","j","pattern_response","true","j","pattern_35","3738.4000000059605","true","18","","","","","","","","","","","","","","","","","","",""
"","","","","","html-keyboard-response","59","274263","0.0-2.0-5.0-0.19","60429021c960ed190edaedca","A3","batch1","","null","<p class=block-text>Trial 20 out of 78</p>","null","pattern_show_trial_num","","","","","","","","","","","","","","","","","","","","","","","","",""
"","","","","","image-keyboard-response","60","277386","0.0-2.0-5.0-1.19","60429021c960ed190edaedca","A3","batch1","","3120.4000000059605","stim/no_25_1_b.png","j","pattern_response","true","j","pattern_09","3120.4000000059605","true","19","","","","","","","","","","","","","","","","","","",""
"","","","","","html-keyboard-response","61","278709","0.0-2.0-5.0-0.20","60429021c960ed190edaedca","A3","batch1","","null","<p class=block-text>Trial 21 out of 78</p>","null","pattern_show_trial_num","","","","","","","","","","","","","","","","","","","","","","","","",""
"","","","","","image-keyboard-response","62","281958","0.0-2.0-5.0-1.20","60429021c960ed190edaedca","A3","batch1","","3246.300000011921","stim/no_45_1_w.png","j","pattern_response","true","j","pattern_25","3246.300000011921","true","20","","","","","","","","","","","","","","","","","","",""
"","","","","","html-keyboard-response","63","283274","0.0-2.0-5.0-0.21","60429021c960ed190edaedca","A3","batch1","","null","<p class=block-text>Trial 22 out of 78</p>","null","pattern_show_trial_num","","","","","","","","","","","","","","","","","","","","","","","","",""
"","","","","","image-keyboard-response","64","284430","0.0-2.0-5.0-1.21","60429021c960ed190edaedca","A3","batch1","","1154.4000000059605","stim/no_15_1_w.png","j","pattern_response","true","j","pattern_03","1154.4000000059605","true","21","","","","","","","","","","","","","","","","","","",""
"","","","","","html-keyboard-response","65","285734","0.0-2.0-5.0-0.22","60429021c960ed190edaedca","A3","batch1","","null","<p class=block-text>Trial 23 out of 78</p>","null","pattern_show_trial_num","","","","","","","","","","","","","","","","","","","","","","","","",""
"","","","","","image-keyboard-response","66","288477","0.0-2.0-5.0-1.22","60429021c960ed190edaedca","A3","batch1","","2741.5","stim/no_28_2.png","j","pattern_response","true","j","pattern_11","2741.5","true","22","","","","","","","","","","","","","","","","","","",""
"","","","","","html-keyboard-response","67","289780","0.0-2.0-5.0-0.23","60429021c960ed190edaedca","A3","batch1","","null","<p class=block-text>Trial 24 out of 78</p>","null","pattern_show_trial_num","","","","","","","","","","","","","","","","","","","","","","","","",""
"","","","","","image-keyboard-response","68","292057","0.0-2.0-5.0-1.23","60429021c960ed190edaedca","A3","batch1","","2275.2000000178814","stim/no_30_1_b.png","j","pattern_response","true","j","pattern_13","2275.2000000178814","true","23","","","","","","","","","","","","","","","","","","",""
"","","","","","html-keyboard-response","69","293375","0.0-2.0-5.0-0.24","60429021c960ed190edaedca","A3","batch1","","null","<p class=block-text>Trial 25 out of 78</p>","null","pattern_show_trial_num","","","","","","","","","","","","","","","","","","","","","","","","",""
"","","","","","image-keyboard-response","70","295793","0.0-2.0-5.0-1.24","60429021c960ed190edaedca","A3","batch1","","2416.2999999821186","stim/yes_63_dia_b1.png","f","pattern_response","true","f","pattern_78","2416.2999999821186","true","24","","","","","","","","","","","","","","","","","","",""
"","","","","","html-keyboard-response","71","297119","0.0-2.0-5.0-0.25","60429021c960ed190edaedca","A3","batch1","","null","<p class=block-text>Trial 26 out of 78</p>","null","pattern_show_trial_num","","","","","","","","","","","","","","","","","","","","","","","","",""
"","","","","","image-keyboard-response","72","297770","0.0-2.0-5.0-1.25","60429021c960ed190edaedca","A3","batch1","","648.0999999940395","stim/yes_17_ver_b1_b.png","f","pattern_response","true","f","pattern_46","648.0999999940395","true","25","","","","","","","","","","","","","","","","","","",""
"","","","","","html-keyboard-response","73","299093","0.0-2.0-5.0-0.26","60429021c960ed190edaedca","A3","batch1","","null","<p class=block-text>Trial 27 out of 78</p>","null","pattern_show_trial_num","","","","","","","","","","","","","","","","","","","","","","","","",""
"","","","","","image-keyboard-response","74","305582","0.0-2.0-5.0-1.26","60429021c960ed190edaedca","A3","batch1","","6487.399999976158","stim/yes_58_dia_w1_w.png","j","pattern_response","false","f","pattern_76","6487.399999976158","false","25","","","","","","","","","","","","","","","","","","",""
"","","","","","html-keyboard-response","75","306907","0.0-2.0-5.0-0.27","60429021c960ed190edaedca","A3","batch1","","null","<p class=block-text>Trial 28 out of 78</p>","null","pattern_show_trial_num","","","","","","","","","","","","","","","","","","","","","","","","",""
"","","","","","image-keyboard-response","76","309609","0.0-2.0-5.0-1.27","60429021c960ed190edaedca","A3","batch1","","2700.300000011921","stim/yes_44_ver_w1_w.png","j","pattern_response","false","f","pattern_66","2700.300000011921","false","25","","","","","","","","","","","","","","","","","","",""
"","","","","","html-keyboard-response","77","310933","0.0-2.0-5.0-0.28","60429021c960ed190edaedca","A3","batch1","","null","<p class=block-text>Trial 29 out of 78</p>","null","pattern_show_trial_num","","","","","","","","","","","","","","","","","","","","","","","","",""
"","","","","","image-keyboard-response","78","312704","0.0-2.0-5.0-1.28","60429021c960ed190edaedca","A3","batch1","","1769","stim/yes_36_ver_w1_w.png","f","pattern_response","true","f","pattern_58","1769","true","26","","","","","","","","","","","","","","","","","","",""
"","","","","","html-keyboard-response","79","314015","0.0-2.0-5.0-0.29","60429021c960ed190edaedca","A3","batch1","","null","<p class=block-text>Trial 30 out of 78</p>","null","pattern_show_trial_num","","","","","","","","","","","","","","","","","","","","","","","","",""
"","","","","","image-keyboard-response","80","317116","0.0-2.0-5.0-1.29","60429021c960ed190edaedca","A3","batch1","","3099.5999999940395","stim/no_22_1_b.png","j","pattern_response","true","j","pattern_07","3099.5999999940395","true","27","","","","","","","","","","","","","","","","","","",""
"","","","","","html-keyboard-response","81","318440","0.0-2.0-5.0-0.30","60429021c960ed190edaedca","A3","batch1","","null","<p class=block-text>Trial 31 out of 78</p>","null","pattern_show_trial_num","","","","","","","","","","","","","","","","","","","","","","","","",""
"","","","","","image-keyboard-response","82","324001","0.0-2.0-5.0-1.30","60429021c960ed190edaedca","A3","batch1","","5558.5999999940395","stim/no_53_1_b.png","j","pattern_response","true","j","pattern_33","5558.5999999940395","true","28","","","","","","","","","","","","","","","","","","",""
"","","","","","html-keyboard-response","83","325309","0.0-2.0-5.0-0.31","60429021c960ed190edaedca","A3","batch1","","null","<p class=block-text>Trial 32 out of 78</p>","null","pattern_show_trial_num","","","","","","","","","","","","","","","","","","","","","","","","",""
"","","","","","image-keyboard-response","84","326703","0.0-2.0-5.0-1.31","60429021c960ed190edaedca","A3","batch1","","1391.199999988079","stim/no_12_1.png","j","pattern_response","true","j","pattern_01","1391.199999988079","true","29","","","","","","","","","","","","","","","","","","",""
"","","","","","html-keyboard-response","85","328018","0.0-2.0-5.0-0.32","60429021c960ed190edaedca","A3","batch1","","null","<p class=block-text>Trial 33 out of 78</p>","null","pattern_show_trial_num","","","","","","","","","","","","","","","","","","","","","","","","",""
"","","","","","image-keyboard-response","86","329713","0.0-2.0-5.0-1.32","60429021c960ed190edaedca","A3","batch1","","1692.699999988079","stim/yes_33_dia_w1_w.png","f","pattern_response","true","f","pattern_56","1692.699999988079","true","30","","","","","","","","","","","","","","","","","","",""
"","","","","","html-keyboard-response","87","331037","0.0-2.0-5.0-0.33","60429021c960ed190edaedca","A3","batch1","","null","<p class=block-text>Trial 34 out of 78</p>","null","pattern_show_trial_num","","","","","","","","","","","","","","","","","","","","","","","","",""
"","","","","","image-keyboard-response","88","331874","0.0-2.0-5.0-1.33","60429021c960ed190edaedca","A3","batch1","","834.0999999940395","stim/yes_12_hor_w1_w.png","f","pattern_response","true","f","pattern_42","834.0999999940395","true","31","","","","","","","","","","","","","","","","","","",""
"","","","","","html-keyboard-response","89","333199","0.0-2.0-5.0-0.34","60429021c960ed190edaedca","A3","batch1","","null","<p class=block-text>Trial 35 out of 78</p>","null","pattern_show_trial_num","","","","","","","","","","","","","","","","","","","","","","","","",""
"","","","","","image-keyboard-response","90","334303","0.0-2.0-5.0-1.34","60429021c960ed190edaedca","A3","batch1","","1102.5999999940395","stim/yes_23_ver_b1.png","f","pattern_response","true","f","pattern_48","1102.5999999940395","true","32","","","","","","","","","","","","","","","","","","",""
"","","","","","html-keyboard-response","91","335622","0.0-2.0-5.0-0.35","60429021c960ed190edaedca","A3","batch1","","null","<p class=block-text>Trial 36 out of 78</p>","null","pattern_show_trial_num","","","","","","","","","","","","","","","","","","","","","","","","",""
"","","","","","image-keyboard-response","92","336648","0.0-2.0-5.0-1.35","60429021c960ed190edaedca","A3","batch1","","1023.8000000119209","stim/yes_49_hor_w1_b.png","f","pattern_response","true","f","pattern_70","1023.8000000119209","true","33","","","","","","","","","","","","","","","","","","",""
"","","","","","html-keyboard-response","93","337969","0.0-2.0-5.0-0.36","60429021c960ed190edaedca","A3","batch1","","null","<p class=block-text>Trial 37 out of 78</p>","null","pattern_show_trial_num","","","","","","","","","","","","","","","","","","","","","","","","",""
"","","","","","image-keyboard-response","94","341146","0.0-2.0-5.0-1.36","60429021c960ed190edaedca","A3","batch1","","3175.4000000059605","stim/no_39_1_w.png","j","pattern_response","true","j","pattern_21","3175.4000000059605","true","34","","","","","","","","","","","","","","","","","","",""
"","","","","","html-keyboard-response","95","342467","0.0-2.0-5.0-0.37","60429021c960ed190edaedca","A3","batch1","","null","<p class=block-text>Trial 38 out of 78</p>","null","pattern_show_trial_num","","","","","","","","","","","","","","","","","","","","","","","","",""
"","","","","","image-keyboard-response","96","347135","0.0-2.0-5.0-1.37","60429021c960ed190edaedca","A3","batch1","","4665.700000017881","stim/yes_42_dia_w1_w.png","j","pattern_response","false","f","pattern_64","4665.700000017881","false","34","","","","","","","","","","","","","","","","","","",""
"","","","","","html-keyboard-response","97","348447","0.0-2.0-5.0-0.38","60429021c960ed190edaedca","A3","batch1","","null","<p class=block-text>Trial 39 out of 78</p>","null","pattern_show_trial_num","","","","","","","","","","","","","","","","","","","","","","","","",""
"","","","","","image-keyboard-response","98","349677","0.0-2.0-5.0-1.38","60429021c960ed190edaedca","A3","batch1","","1227","stim/yes_46_ver_b1_b.png","f","pattern_response","true","f","pattern_68","1227","true","35","","","","","","","","","","","","","","","","","","",""
"","","","","","image-keyboard-response","99","351659","0.0-2.0-6.0","60429021c960ed190edaedca","A3","batch1","","1479.5","stim/empty_board.png","j","attention_check","true","j","","","","","500","[""f"",""j""]","","","","","","","","","","","","","","","","",""
"","","","","","html-keyboard-response","100","352467","0.0-2.0-7.0-0.0","60429021c960ed190edaedca","A3","batch1","","null","<p class=block-text>Trial 40 out of 78</p>","null","pattern_show_trial_num","","","","","","","","","","","","","","","","","","","","","","","","",""
"","","","","","image-keyboard-response","101","357144","0.0-2.0-7.0-1.0","60429021c960ed190edaedca","A3","batch1","","4674.699999988079","stim/no_36_2_w.png","j","pattern_response","true","j","pattern_18","4674.699999988079","true","36","","","","","","","","","","","","","","","","","","",""
"","","","","","html-keyboard-response","102","358465","0.0-2.0-7.0-0.1","60429021c960ed190edaedca","A3","batch1","","null","<p class=block-text>Trial 41 out of 78</p>","null","pattern_show_trial_num","","","","","","","","","","","","","","","","","","","","","","","","",""
"","","","","","image-keyboard-response","103","360205","0.0-2.0-7.0-1.1","60429021c960ed190edaedca","A3","batch1","","1737.5","stim/no_23_1.png","j","pattern_response","true","j","pattern_08","1737.5","true","37","","","","","","","","","","","","","","","","","","",""
"","","","","","html-keyboard-response","104","361516","0.0-2.0-7.0-0.2","60429021c960ed190edaedca","A3","batch1","","null","<p class=block-text>Trial 42 out of 78</p>","null","pattern_show_trial_num","","","","","","","","","","","","","","","","","","","","","","","","",""
"","","","","","image-keyboard-response","105","363943","0.0-2.0-7.0-1.2","60429021c960ed190edaedca","A3","batch1","","2413.9000000059605","stim/yes_40_dia_b1_b.png","f","pattern_response","true","f","pattern_63","2413.9000000059605","true","38","","","","","","","","","","","","","","","","","","",""
"","","","","","html-keyboard-response","106","365267","0.0-2.0-7.0-0.3","60429021c960ed190edaedca","A3","batch1","","null","<p class=block-text>Trial 43 out of 78</p>","null","pattern_show_trial_num","","","","","","","","","","","","","","","","","","","","","","","","",""
"","","","","","image-keyboard-response","107","366449","0.0-2.0-7.0-1.3","60429021c960ed190edaedca","A3","batch1","","1180.199999988079","stim/yes_55_hor_w1_w.png","f","pattern_response","true","f","pattern_75","1180.199999988079","true","39","","","","","","","","","","","","","","","","","","",""
"","","","","","html-keyboard-response","108","367762","0.0-2.0-7.0-0.4","60429021c960ed190edaedca","A3","batch1","","null","<p class=block-text>Trial 44 out of 78</p>","null","pattern_show_trial_num","","","","","","","","","","","","","","","","","","","","","","","","",""
"","","","","","image-keyboard-response","109","371477","0.0-2.0-7.0-1.4","60429021c960ed190edaedca","A3","batch1","","3712.800000011921","stim/no_34_1_b.png","j","pattern_response","true","j","pattern_16","3712.800000011921","true","40","","","","","","","","","","","","","","","","","","",""
"","","","","","html-keyboard-response","110","372798","0.0-2.0-7.0-0.5","60429021c960ed190edaedca","A3","batch1","","null","<p class=block-text>Trial 45 out of 78</p>","null","pattern_show_trial_num","","","","","","","","","","","","","","","","","","","","","","","","",""
"","","","","","image-keyboard-response","111","373564","0.0-2.0-7.0-1.5","60429021c960ed190edaedca","A3","batch1","","763.2000000178814","stim/yes_22_ver_w1.png","f","pattern_response","true","f","pattern_47","763.2000000178814","true","41","","","","","","","","","","","","","","","","","","",""
"","","","","","html-keyboard-response","112","374869","0.0-2.0-7.0-0.6","60429021c960ed190edaedca","A3","batch1","","null","<p class=block-text>Trial 46 out of 78</p>","null","pattern_show_trial_num","","","","","","","","","","","","","","","","","","","","","","","","",""
"","","","","","image-keyboard-response","113","381611","0.0-2.0-7.0-1.6","60429021c960ed190edaedca","A3","batch1","","6740.200000017881","stim/no_65_1_b.png","j","pattern_response","true","j","pattern_38","6740.200000017881","true","42","","","","","","","","","","","","","","","","","","",""
"","","","","","html-keyboard-response","114","382933","0.0-2.0-7.0-0.7","60429021c960ed190edaedca","A3","batch1","","null","<p class=block-text>Trial 47 out of 78</p>","null","pattern_show_trial_num","","","","","","","","","","","","","","","","","","","","","","","","",""
"","","","","","image-keyboard-response","115","387801","0.0-2.0-7.0-1.7","60429021c960ed190edaedca","A3","batch1","","4865.300000011921","stim/no_50_1.png","j","pattern_response","true","j","pattern_30","4865.300000011921","true","43","","","","","","","","","","","","","","","","","","",""
"","","","","","html-keyboard-response","116","389112","0.0-2.0-7.0-0.8","60429021c960ed190edaedca","A3","batch1","","null","<p class=block-text>Trial 48 out of 78</p>","null","pattern_show_trial_num","","","","","","","","","","","","","","","","","","","","","","","","",""
"","","","","","image-keyboard-response","117","390473","0.0-2.0-7.0-1.8","60429021c960ed190edaedca","A3","batch1","","1358.5","stim/no_17_1_w.png","j","pattern_response","true","j","pattern_04","1358.5","true","44","","","","","","","","","","","","","","","","","","",""
"","","","","","html-keyboard-response","118","391787","0.0-2.0-7.0-0.9","60429021c960ed190edaedca","A3","batch1","","null","<p class=block-text>Trial 49 out of 78</p>","null","pattern_show_trial_num","","","","","","","","","","","","","","","","","","","","","","","","",""
"","","","","","image-keyboard-response","119","393143","0.0-2.0-7.0-1.9","60429021c960ed190edaedca","A3","batch1","","1354.0999999940395","stim/yes_60_ver_b1_b.png","f","pattern_response","true","f","pattern_77","1354.0999999940395","true","45","","","","","","","","","","","","","","","","","","",""
"","","","","","html-keyboard-response","120","394458","0.0-2.0-7.0-0.10","60429021c960ed190edaedca","A3","batch1","","null","<p class=block-text>Trial 50 out of 78</p>","null","pattern_show_trial_num","","","","","","","","","","","","","","","","","","","","","","","","",""
"","","","","","image-keyboard-response","121","397454","0.0-2.0-7.0-1.10","60429021c960ed190edaedca","A3","batch1","","2994.4000000059605","stim/yes_67_hor_b1.png","f","pattern_response","true","f","pattern_79","2994.4000000059605","true","46","","","","","","","","","","","","","","","","","","",""
"","","","","","html-keyboard-response","122","398772","0.0-2.0-7.0-0.11","60429021c960ed190edaedca","A3","batch1","","null","<p class=block-text>Trial 51 out of 78</p>","null","pattern_show_trial_num","","","","","","","","","","","","","","","","","","","","","","","","",""
"","","","","","image-keyboard-response","123","400396","0.0-2.0-7.0-1.11","60429021c960ed190edaedca","A3","batch1","","1622.4000000059605","stim/yes_29_ver_w1.png","f","pattern_response","true","f","pattern_53","1622.4000000059605","true","47","","","","","","","","","","","","","","","","","","",""
"","","","","","html-keyboard-response","124","401718","0.0-2.0-7.0-0.12","60429021c960ed190edaedca","A3","batch1","","null","<p class=block-text>Trial 52 out of 78</p>","null","pattern_show_trial_num","","","","","","","","","","","","","","","","","","","","","","","","",""
"","","","","","image-keyboard-response","125","406459","0.0-2.0-7.0-1.12","60429021c960ed190edaedca","A3","batch1","","4739.0999999940395","stim/no_62_1_w.png","j","pattern_response","true","j","pattern_36","4739.0999999940395","true","48","","","","","","","","","","","","","","","","","","",""
"","","","","","html-keyboard-response","126","407784","0.0-2.0-7.0-0.13","60429021c960ed190edaedca","A3","batch1","","null","<p class=block-text>Trial 53 out of 78</p>","null","pattern_show_trial_num","","","","","","","","","","","","","","","","","","","","","","","","",""
"","","","","","image-keyboard-response","127","410716","0.0-2.0-7.0-1.13","60429021c960ed190edaedca","A3","batch1","","2930.100000023842","stim/yes_48_dia_w1_w.png","j","pattern_response","false","f","pattern_69","2930.100000023842","false","48","","","","","","","","","","","","","","","","","","",""
"","","","","","html-keyboard-response","128","412037","0.0-2.0-7.0-0.14","60429021c960ed190edaedca","A3","batch1","","null","<p class=block-text>Trial 54 out of 78</p>","null","pattern_show_trial_num","","","","","","","","","","","","","","","","","","","","","","","","",""
"","","","","","image-keyboard-response","129","417065","0.0-2.0-7.0-1.14","60429021c960ed190edaedca","A3","batch1","","5025","stim/no_44_1.png","j","pattern_response","true","j","pattern_24","5025","true","49","","","","","","","","","","","","","","","","","","",""
"","","","","","html-keyboard-response","130","418379","0.0-2.0-7.0-0.15","60429021c960ed190edaedca","A3","batch1","","null","<p class=block-text>Trial 55 out of 78</p>","null","pattern_show_trial_num","","","","","","","","","","","","","","","","","","","","","","","","",""
"","","","","","image-keyboard-response","131","423096","0.0-2.0-7.0-1.15","60429021c960ed190edaedca","A3","batch1","","4714.300000011921","stim/no_52_1.png","j","pattern_response","true","j","pattern_32","4714.300000011921","true","50","","","","","","","","","","","","","","","","","","",""
"","","","","","html-keyboard-response","132","424405","0.0-2.0-7.0-0.16","60429021c960ed190edaedca","A3","batch1","","null","<p class=block-text>Trial 56 out of 78</p>","null","pattern_show_trial_num","","","","","","","","","","","","","","","","","","","","","","","","",""
"","","","","","image-keyboard-response","133","431684","0.0-2.0-7.0-1.16","60429021c960ed190edaedca","A3","batch1","","7276.300000011921","stim/no_70_2.png","j","pattern_response","true","j","pattern_40","7276.300000011921","true","51","","","","","","","","","","","","","","","","","","",""
"","","","","","html-keyboard-response","134","433000","0.0-2.0-7.0-0.17","60429021c960ed190edaedca","A3","batch1","","null","<p class=block-text>Trial 57 out of 78</p>","null","pattern_show_trial_num","","","","","","","","","","","","","","","","","","","","","","","","",""
"","","","","","image-keyboard-response","135","439413","0.0-2.0-7.0-1.17","60429021c960ed190edaedca","A3","batch1","","6409.800000011921","stim/no_55_1_w.png","j","pattern_response","true","j","pattern_34","6409.800000011921","true","52","","","","","","","","","","","","","","","","","","",""
"","","","","","html-keyboard-response","136","440721","0.0-2.0-7.0-0.18","60429021c960ed190edaedca","A3","batch1","","null","<p class=block-text>Trial 58 out of 78</p>","null","pattern_show_trial_num","","","","","","","","","","","","","","","","","","","","","","","","",""
"","","","","","image-keyboard-response","137","442951","0.0-2.0-7.0-1.18","60429021c960ed190edaedca","A3","batch1","","2228","stim/yes_31_hor_b1.png","f","pattern_response","true","f","pattern_55","2228","true","53","","","","","","","","","","","","","","","","","","",""
"","","","","","html-keyboard-response","138","444267","0.0-2.0-7.0-0.19","60429021c960ed190edaedca","A3","batch1","","null","<p class=block-text>Trial 59 out of 78</p>","null","pattern_show_trial_num","","","","","","","","","","","","","","","","","","","","","","","","",""
"","","","","","image-keyboard-response","139","445803","0.0-2.0-7.0-1.19","60429021c960ed190edaedca","A3","batch1","","1534","stim/yes_35_dia_b1.png","f","pattern_response","true","f","pattern_57","1534","true","54","","","","","","","","","","","","","","","","","","",""
"","","","","","html-keyboard-response","140","447128","0.0-2.0-7.0-0.20","60429021c960ed190edaedca","A3","batch1","","null","<p class=block-text>Trial 60 out of 78</p>","null","pattern_show_trial_num","","","","","","","","","","","","","","","","","","","","","","","","",""
"","","","","","image-keyboard-response","141","447865","0.0-2.0-7.0-1.20","60429021c960ed190edaedca","A3","batch1","","735.3999999761581","stim/yes_14_hor_b1_w.png","f","pattern_response","true","f","pattern_43","735.3999999761581","true","55","","","","","","","","","","","","","","","","","","",""
"","","","","","html-keyboard-response","142","449186","0.0-2.0-7.0-0.21","60429021c960ed190edaedca","A3","batch1","","null","<p class=block-text>Trial 61 out of 78</p>","null","pattern_show_trial_num","","","","","","","","","","","","","","","","","","","","","","","","",""
"","","","","","image-keyboard-response","143","450368","0.0-2.0-7.0-1.21","60429021c960ed190edaedca","A3","batch1","","1180.2999999821186","stim/no_13_2_b.png","j","pattern_response","true","j","pattern_02","1180.2999999821186","true","56","","","","","","","","","","","","","","","","","","",""
"","","","","","html-keyboard-response","144","451685","0.0-2.0-7.0-0.22","60429021c960ed190edaedca","A3","batch1","","null","<p class=block-text>Trial 62 out of 78</p>","null","pattern_show_trial_num","","","","","","","","","","","","","","","","","","","","","","","","",""
"","","","","","image-keyboard-response","145","452402","0.0-2.0-7.0-1.22","60429021c960ed190edaedca","A3","batch1","","714.8000000119209","stim/yes_28_ver_b1.png","f","pattern_response","true","f","pattern_51","714.8000000119209","true","57","","","","","","","","","","","","","","","","","","",""
"","","","","","html-keyboard-response","146","453714","0.0-2.0-7.0-0.23","60429021c960ed190edaedca","A3","batch1","","null","<p class=block-text>Trial 63 out of 78</p>","null","pattern_show_trial_num","","","","","","","","","","","","","","","","","","","","","","","","",""
"","","","","","image-keyboard-response","147","454907","0.0-2.0-7.0-1.23","60429021c960ed190edaedca","A3","batch1","","1191","stim/yes_17_dia_w1.png","f","pattern_response","true","f","pattern_45","1191","true","58","","","","","","","","","","","","","","","","","","",""
"","","","","","html-keyboard-response","148","456221","0.0-2.0-7.0-0.24","60429021c960ed190edaedca","A3","batch1","","null","<p class=block-text>Trial 64 out of 78</p>","null","pattern_show_trial_num","","","","","","","","","","","","","","","","","","","","","","","","",""
"","","","","","image-keyboard-response","149","460165","0.0-2.0-7.0-1.24","60429021c960ed190edaedca","A3","batch1","","3942.4000000059605","stim/yes_50_dia_w1.png","f","pattern_response","true","f","pattern_71","3942.4000000059605","true","59","","","","","","","","","","","","","","","","","","",""
"","","","","","html-keyboard-response","150","461481","0.0-2.0-7.0-0.25","60429021c960ed190edaedca","A3","batch1","","null","<p class=block-text>Trial 65 out of 78</p>","null","pattern_show_trial_num","","","","","","","","","","","","","","","","","","","","","","","","",""
"","","","","","image-keyboard-response","151","465382","0.0-2.0-7.0-1.25","60429021c960ed190edaedca","A3","batch1","","3898.199999988079","stim/no_48_1_w.png","j","pattern_response","true","j","pattern_28","3898.199999988079","true","60","","","","","","","","","","","","","","","","","","",""
"","","","","","html-keyboard-response","152","466688","0.0-2.0-7.0-0.26","60429021c960ed190edaedca","A3","batch1","","null","<p class=block-text>Trial 66 out of 78</p>","null","pattern_show_trial_num","","","","","","","","","","","","","","","","","","","","","","","","",""
"","","","","","image-keyboard-response","153","469387","0.0-2.0-7.0-1.26","60429021c960ed190edaedca","A3","batch1","","2697.0999999940395","stim/yes_37_dia_w1.png","j","pattern_response","false","f","pattern_59","2697.0999999940395","false","60","","","","","","","","","","","","","","","","","","",""
"","","","","","html-keyboard-response","154","470696","0.0-2.0-7.0-0.27","60429021c960ed190edaedca","A3","batch1","","null","<p class=block-text>Trial 67 out of 78</p>","null","pattern_show_trial_num","","","","","","","","","","","","","","","","","","","","","","","","",""
"","","","","","image-keyboard-response","155","472664","0.0-2.0-7.0-1.27","60429021c960ed190edaedca","A3","batch1","","1955.5","stim/no_32_1_w.png","j","pattern_response","true","j","pattern_14","1955.5","true","61","","","","","","","","","","","","","","","","","","",""
"","","","","","html-keyboard-response","156","473977","0.0-2.0-7.0-0.28","60429021c960ed190edaedca","A3","batch1","","null","<p class=block-text>Trial 68 out of 78</p>","null","pattern_show_trial_num","","","","","","","","","","","","","","","","","","","","","","","","",""
"","","","","","image-keyboard-response","157","476250","0.0-2.0-7.0-1.28","60429021c960ed190edaedca","A3","batch1","","2271.0999999940395","stim/no_29_1_b.png","j","pattern_response","true","j","pattern_12","2271.0999999940395","true","62","","","","","","","","","","","","","","","","","","",""
"","","","","","html-keyboard-response","158","477564","0.0-2.0-7.0-0.29","60429021c960ed190edaedca","A3","batch1","","null","<p class=block-text>Trial 69 out of 78</p>","null","pattern_show_trial_num","","","","","","","","","","","","","","","","","","","","","","","","",""
"","","","","","image-keyboard-response","159","478456","0.0-2.0-7.0-1.29","60429021c960ed190edaedca","A3","batch1","","889.5","stim/yes_25_hor_b1_b.png","f","pattern_response","true","f","pattern_49","889.5","true","63","","","","","","","","","","","","","","","","","","",""
"","","","","","html-keyboard-response","160","479768","0.0-2.0-7.0-0.30","60429021c960ed190edaedca","A3","batch1","","null","<p class=block-text>Trial 70 out of 78</p>","null","pattern_show_trial_num","","","","","","","","","","","","","","","","","","","","","","","","",""
"","","","","","image-keyboard-response","161","480904","0.0-2.0-7.0-1.30","60429021c960ed190edaedca","A3","batch1","","1134.4000000059605","stim/yes_38_hor_b1_b.png","f","pattern_response","true","f","pattern_61","1134.4000000059605","true","64","","","","","","","","","","","","","","","","","","",""
"","","","","","html-keyboard-response","162","482220","0.0-2.0-7.0-0.31","60429021c960ed190edaedca","A3","batch1","","null","<p class=block-text>Trial 71 out of 78</p>","null","pattern_show_trial_num","","","","","","","","","","","","","","","","","","","","","","","","",""
"","","","","","image-keyboard-response","163","483124","0.0-2.0-7.0-1.31","60429021c960ed190edaedca","A3","batch1","","902.0999999940395","stim/yes_45_hor_b2_b.png","f","pattern_response","true","f","pattern_67","902.0999999940395","true","65","","","","","","","","","","","","","","","","","","",""
"","","","","","html-keyboard-response","164","484437","0.0-2.0-7.0-0.32","60429021c960ed190edaedca","A3","batch1","","null","<p class=block-text>Trial 72 out of 78</p>","null","pattern_show_trial_num","","","","","","","","","","","","","","","","","","","","","","","","",""
"","","","","","image-keyboard-response","165","487798","0.0-2.0-7.0-1.32","60429021c960ed190edaedca","A3","batch1","","3359.7000000178814","stim/no_38_1_b.png","j","pattern_response","true","j","pattern_20","3359.7000000178814","true","66","","","","","","","","","","","","","","","","","","",""
"","","","","","html-keyboard-response","166","489119","0.0-2.0-7.0-0.33","60429021c960ed190edaedca","A3","batch1","","null","<p class=block-text>Trial 73 out of 78</p>","null","pattern_show_trial_num","","","","","","","","","","","","","","","","","","","","","","","","",""
"","","","","","image-keyboard-response","167","490295","0.0-2.0-7.0-1.33","60429021c960ed190edaedca","A3","batch1","","1173.0999999940395","stim/no_20_1_w.png","j","pattern_response","true","j","pattern_06","1173.0999999940395","true","67","","","","","","","","","","","","","","","","","","",""
"","","","","","html-keyboard-response","168","491626","0.0-2.0-7.0-0.34","60429021c960ed190edaedca","A3","batch1","","null","<p class=block-text>Trial 74 out of 78</p>","null","pattern_show_trial_num","","","","","","","","","","","","","","","","","","","","","","","","",""
"","","","","","image-keyboard-response","169","493810","0.0-2.0-7.0-1.34","60429021c960ed190edaedca","A3","batch1","","2181.9000000059605","stim/no_42_1_w.png","j","pattern_response","true","j","pattern_22","2181.9000000059605","true","68","","","","","","","","","","","","","","","","","","",""
"","","","","","html-keyboard-response","170","495132","0.0-2.0-7.0-0.35","60429021c960ed190edaedca","A3","batch1","","null","<p class=block-text>Trial 75 out of 78</p>","null","pattern_show_trial_num","","","","","","","","","","","","","","","","","","","","","","","","",""
"","","","","","image-keyboard-response","171","497749","0.0-2.0-7.0-1.35","60429021c960ed190edaedca","A3","batch1","","2614.5999999940395","stim/no_46_1_b.png","j","pattern_response","true","j","pattern_26","2614.5999999940395","true","69","","","","","","","","","","","","","","","","","","",""
"","","","","","html-keyboard-response","172","499056","0.0-2.0-7.0-0.36","60429021c960ed190edaedca","A3","batch1","","null","<p class=block-text>Trial 76 out of 78</p>","null","pattern_show_trial_num","","","","","","","","","","","","","","","","","","","","","","","","",""
"","","","","","image-keyboard-response","173","500813","0.0-2.0-7.0-1.36","60429021c960ed190edaedca","A3","batch1","","1754.800000011921","stim/no_26_1_w.png","j","pattern_response","true","j","pattern_10","1754.800000011921","true","70","","","","","","","","","","","","","","","","","","",""
"","","","","","html-keyboard-response","174","502135","0.0-2.0-7.0-0.37","60429021c960ed190edaedca","A3","batch1","","null","<p class=block-text>Trial 77 out of 78</p>","null","pattern_show_trial_num","","","","","","","","","","","","","","","","","","","","","","","","",""
"","","","","","image-keyboard-response","175","503135","0.0-2.0-7.0-1.37","60429021c960ed190edaedca","A3","batch1","","997.6999999880791","stim/yes_43_ver_w1_w.png","f","pattern_response","true","f","pattern_65","997.6999999880791","true","71","","","","","","","","","","","","","","","","","","",""
"","","","","","html-keyboard-response","176","504448","0.0-2.0-7.0-0.38","60429021c960ed190edaedca","A3","batch1","","null","<p class=block-text>Trial 78 out of 78</p>","null","pattern_show_trial_num","","","","","","","","","","","","","","","","","","","","","","","","",""
"","","","","","image-keyboard-response","177","505267","0.0-2.0-7.0-1.38","60429021c960ed190edaedca","A3","batch1","","817.8000000119209","stim/yes_52_ver_w1.png","f","pattern_response","true","f","pattern_73","817.8000000119209","true","72","","","","","","","","","","","","","","","","","","",""
"","","","","","html-button-response","178","510364","0.0-2.0-8.0","60429021c960ed190edaedca","A3","batch1","","4594.0999999940395","<p class = block-text>This concludes the 4-in-a-row detection game.Thank you for your responses!<br>
            You responded correctly on 92% of the trials.<br>
            When you are ready, press ""Continue"" button to continue </p>","0","","","","","","","","","","","","","","","","","","","","","","","","","",""
"true","","","","","fullscreen","179","515257","0.0-3.0-0.0","60429021c960ed190edaedca","A3","batch1","","","","","spm_fullscreen","","","","","","","","","","","","","","","","","","","","","","","","",""
"","","","","","html-button-response","180","531708","0.0-3.0-1.0","60429021c960ed190edaedca","A3","batch1","","16449.90000000596","<p class = block-text><b>Instructions</b> <br>This is a widely used intelligence test in research. <br>In this test, a figure with a missing piece will be presented.<br>Below the figure are alternative pieces to complete the figure, only one of which is correct.<br> Different figures might involve different principles for obtaining the missing piece<br>Your job is to select the most logical piece to complete the figure.</p>","0","","","","","","","","","","","","","","","","","","","","","","","","","",""
"","","","","","html-keyboard-response","181","532511","0.0-3.0-2.0-0.0","60429021c960ed190edaedca","A3","batch1","","null","<p class=block-text>Trial 1 out of 60</p>","null","spm_show_trial_num","","","","","","","","","","","","","","","","","","","","","","","","",""
"","","","","","image-button-response","182","538709","0.0-3.0-2.0-1.0","60429021c960ed190edaedca","A3","batch1","","6193.4000000059605","img/question_1_1.jpeg","3","spm_respsonse","1","4","mat_01","","","","","","1","6193.4000000059605","","","","","","","","","","","","","","",""
"","","","","","html-keyboard-response","183","539763","0.0-3.0-2.0-0.1","60429021c960ed190edaedca","A3","batch1","","null","<p class=block-text>Trial 2 out of 60</p>","null","spm_show_trial_num","","","","","","","","","","","","","","","","","","","","","","","","",""
"","","","","","image-button-response","184","542317","0.0-3.0-2.0-1.1","60429021c960ed190edaedca","A3","batch1","","2552.199999988079","img/question_1_2.jpeg","4","spm_respsonse","1","5","mat_02","","","","","","1","2552.199999988079","","","","","","","","","","","","","","",""
"","","","","","html-keyboard-response","185","543381","0.0-3.0-2.0-0.2","60429021c960ed190edaedca","A3","batch1","","null","<p class=block-text>Trial 3 out of 60</p>","null","spm_show_trial_num","","","","","","","","","","","","","","","","","","","","","","","","",""
"","","","","","image-button-response","186","547416","0.0-3.0-2.0-1.2","60429021c960ed190edaedca","A3","batch1","","4032.7999999821186","img/question_1_3.jpeg","0","spm_respsonse","1","1","mat_03","","","","","","1","4032.7999999821186","","","","","","","","","","","","","","",""
"","","","","","html-keyboard-response","187","548468","0.0-3.0-2.0-0.3","60429021c960ed190edaedca","A3","batch1","","null","<p class=block-text>Trial 4 out of 60</p>","null","spm_show_trial_num","","","","","","","","","","","","","","","","","","","","","","","","",""
"","","","","","image-button-response","188","552762","0.0-3.0-2.0-1.3","60429021c960ed190edaedca","A3","batch1","","4291.5999999940395","img/question_1_4.jpeg","1","spm_respsonse","1","2","mat_04","","","","","","1","4291.5999999940395","","","","","","","","","","","","","","",""
"","","","","","html-keyboard-response","189","553825","0.0-3.0-2.0-0.4","60429021c960ed190edaedca","A3","batch1","","null","<p class=block-text>Trial 5 out of 60</p>","null","spm_show_trial_num","","","","","","","","","","","","","","","","","","","","","","","","",""
"","","","","","image-button-response","190","557938","0.0-3.0-2.0-1.4","60429021c960ed190edaedca","A3","batch1","","4111.5999999940395","img/question_1_5.jpeg","5","spm_respsonse","1","6","mat_05","","","","","","1","4111.5999999940395","","","","","","","","","","","","","","",""
"","","","","","html-keyboard-response","191","558992","0.0-3.0-2.0-0.5","60429021c960ed190edaedca","A3","batch1","","null","<p class=block-text>Trial 6 out of 60</p>","null","spm_show_trial_num","","","","","","","","","","","","","","","","","","","","","","","","",""
"","","","","","image-button-response","192","563134","0.0-3.0-2.0-1.5","60429021c960ed190edaedca","A3","batch1","","4138.600000023842","img/question_1_6.jpeg","2","spm_respsonse","1","3","mat_06","","","","","","1","4138.600000023842","","","","","","","","","","","","","","",""
"","","","","","html-keyboard-response","193","564204","0.0-3.0-2.0-0.6","60429021c960ed190edaedca","A3","batch1","","null","<p class=block-text>Trial 7 out of 60</p>","null","spm_show_trial_num","","","","","","","","","","","","","","","","","","","","","","","","",""
"","","","","","image-button-response","194","568992","0.0-3.0-2.0-1.6","60429021c960ed190edaedca","A3","batch1","","4786.200000017881","img/question_1_7.jpeg","5","spm_respsonse","1","6","mat_07","","","","","","1","4786.200000017881","","","","","","","","","","","","","","",""
"","","","","","html-keyboard-response","195","570057","0.0-3.0-2.0-0.7","60429021c960ed190edaedca","A3","batch1","","null","<p class=block-text>Trial 8 out of 60</p>","null","spm_show_trial_num","","","","","","","","","","","","","","","","","","","","","","","","",""
"","","","","","image-button-response","196","574762","0.0-3.0-2.0-1.7","60429021c960ed190edaedca","A3","batch1","","4701.5","img/question_1_8.jpeg","1","spm_respsonse","1","2","mat_08","","","","","","1","4701.5","","","","","","","","","","","","","","",""
"","","","","","html-keyboard-response","197","575829","0.0-3.0-2.0-0.8","60429021c960ed190edaedca","A3","batch1","","null","<p class=block-text>Trial 9 out of 60</p>","null","spm_show_trial_num","","","","","","","","","","","","","","","","","","","","","","","","",""
"","","","","","image-button-response","198","579405","0.0-3.0-2.0-1.8","60429021c960ed190edaedca","A3","batch1","","3572.699999988079","img/question_1_9.jpeg","0","spm_respsonse","1","1","mat_09","","","","","","1","3572.699999988079","","","","","","","","","","","","","","",""
"","","","","","html-keyboard-response","199","580462","0.0-3.0-2.0-0.9","60429021c960ed190edaedca","A3","batch1","","null","<p class=block-text>Trial 10 out of 60</p>","null","spm_show_trial_num","","","","","","","","","","","","","","","","","","","","","","","","",""
"","","","","","image-button-response","200","585886","0.0-3.0-2.0-1.9","60429021c960ed190edaedca","A3","batch1","","5420.5","img/question_1_10.jpeg","2","spm_respsonse","1","3","mat_10","","","","","","1","5420.5","","","","","","","","","","","","","","",""
"","","","","","html-keyboard-response","201","586969","0.0-3.0-2.0-0.10","60429021c960ed190edaedca","A3","batch1","","null","<p class=block-text>Trial 11 out of 60</p>","null","spm_show_trial_num","","","","","","","","","","","","","","","","","","","","","","","","",""
"","","","","","image-button-response","202","593152","0.0-3.0-2.0-1.10","60429021c960ed190edaedca","A3","batch1","","6180.5999999940395","img/question_1_11.jpeg","0","spm_respsonse","0","4","mat_11","","","","","","0","6180.5999999940395","","","","","","","","","","","","","","",""
"","","","","","html-keyboard-response","203","594213","0.0-3.0-2.0-0.11","60429021c960ed190edaedca","A3","batch1","","null","<p class=block-text>Trial 12 out of 60</p>","null","spm_show_trial_num","","","","","","","","","","","","","","","","","","","","","","","","",""
"","","","","","image-button-response","204","608528","0.0-3.0-2.0-1.11","60429021c960ed190edaedca","A3","batch1","","14312","img/question_1_12.jpeg","4","spm_respsonse","1","5","mat_12","","","","","","1","14312","","","","","","","","","","","","","","",""
"","","","","","html-keyboard-response","205","609584","0.0-3.0-2.0-0.12","60429021c960ed190edaedca","A3","batch1","","null","<p class=block-text>Trial 13 out of 60</p>","null","spm_show_trial_num","","","","","","","","","","","","","","","","","","","","","","","","",""
"","","","","","image-button-response","206","613400","0.0-3.0-2.0-1.12","60429021c960ed190edaedca","A3","batch1","","3813.5","img/question_2_1.jpeg","1","spm_respsonse","1","2","mat_13","","","","","","1","3813.5","","","","","","","","","","","","","","",""
"","","","","","html-keyboard-response","207","614464","0.0-3.0-2.0-0.13","60429021c960ed190edaedca","A3","batch1","","null","<p class=block-text>Trial 14 out of 60</p>","null","spm_show_trial_num","","","","","","","","","","","","","","","","","","","","","","","","",""
"","","","","","image-button-response","208","620204","0.0-3.0-2.0-1.13","60429021c960ed190edaedca","A3","batch1","","5737.5","img/question_2_2.jpeg","5","spm_respsonse","1","6","mat_14","","","","","","1","5737.5","","","","","","","","","","","","","","",""
"","","","","","html-keyboard-response","209","621269","0.0-3.0-2.0-0.14","60429021c960ed190edaedca","A3","batch1","","null","<p class=block-text>Trial 15 out of 60</p>","null","spm_show_trial_num","","","","","","","","","","","","","","","","","","","","","","","","",""
"","","","","","image-button-response","210","624734","0.0-3.0-2.0-1.14","60429021c960ed190edaedca","A3","batch1","","3461.800000011921","img/question_2_3.jpeg","0","spm_respsonse","1","1","mat_15","","","","","","1","3461.800000011921","","","","","","","","","","","","","","",""
"","","","","","html-keyboard-response","211","625785","0.0-3.0-2.0-0.15","60429021c960ed190edaedca","A3","batch1","","null","<p class=block-text>Trial 16 out of 60</p>","null","spm_show_trial_num","","","","","","","","","","","","","","","","","","","","","","","","",""
"","","","","","image-button-response","212","628932","0.0-3.0-2.0-1.15","60429021c960ed190edaedca","A3","batch1","","3144","img/question_2_4.jpeg","1","spm_respsonse","1","2","mat_16","","","","","","1","3144","","","","","","","","","","","","","","",""
"","","","","","html-keyboard-response","213","629999","0.0-3.0-2.0-0.16","60429021c960ed190edaedca","A3","batch1","","null","<p class=block-text>Trial 17 out of 60</p>","null","spm_show_trial_num","","","","","","","","","","","","","","","","","","","","","","","","",""
"","","","","","image-button-response","214","634856","0.0-3.0-2.0-1.16","60429021c960ed190edaedca","A3","batch1","","4854.9000000059605","img/question_2_5.jpeg","0","spm_respsonse","1","1","mat_17","","","","","","1","4854.9000000059605","","","","","","","","","","","","","","",""
"","","","","","html-keyboard-response","215","635928","0.0-3.0-2.0-0.17","60429021c960ed190edaedca","A3","batch1","","null","<p class=block-text>Trial 18 out of 60</p>","null","spm_show_trial_num","","","","","","","","","","","","","","","","","","","","","","","","",""
"","","","","","image-button-response","216","639283","0.0-3.0-2.0-1.17","60429021c960ed190edaedca","A3","batch1","","3352.4000000059605","img/question_2_6.jpeg","2","spm_respsonse","1","3","mat_18","","","","","","1","3352.4000000059605","","","","","","","","","","","","","","",""
"","","","","","html-keyboard-response","217","640342","0.0-3.0-2.0-0.18","60429021c960ed190edaedca","A3","batch1","","null","<p class=block-text>Trial 19 out of 60</p>","null","spm_show_trial_num","","","","","","","","","","","","","","","","","","","","","","","","",""
"","","","","","image-button-response","218","648814","0.0-3.0-2.0-1.18","60429021c960ed190edaedca","A3","batch1","","8469.799999982119","img/question_2_7.jpeg","4","spm_respsonse","1","5","mat_19","","","","","","1","8469.799999982119","","","","","","","","","","","","","","",""
"","","","","","html-keyboard-response","219","649873","0.0-3.0-2.0-0.19","60429021c960ed190edaedca","A3","batch1","","null","<p class=block-text>Trial 20 out of 60</p>","null","spm_show_trial_num","","","","","","","","","","","","","","","","","","","","","","","","",""
"","","","","","image-button-response","220","656260","0.0-3.0-2.0-1.19","60429021c960ed190edaedca","A3","batch1","","6383.699999988079","img/question_2_8.jpeg","5","spm_respsonse","1","6","mat_20","","","","","","1","6383.699999988079","","","","","","","","","","","","","","",""
"","","","","","html-keyboard-response","221","657318","0.0-3.0-2.0-0.20","60429021c960ed190edaedca","A3","batch1","","null","<p class=block-text>Trial 21 out of 60</p>","null","spm_show_trial_num","","","","","","","","","","","","","","","","","","","","","","","","",""
"","","","","","image-button-response","222","662291","0.0-3.0-2.0-1.20","60429021c960ed190edaedca","A3","batch1","","4969.200000017881","img/question_2_9.jpeg","3","spm_respsonse","1","4","mat_21","","","","","","1","4969.200000017881","","","","","","","","","","","","","","",""
"","","","","","html-keyboard-response","223","663357","0.0-3.0-2.0-0.21","60429021c960ed190edaedca","A3","batch1","","null","<p class=block-text>Trial 22 out of 60</p>","null","spm_show_trial_num","","","","","","","","","","","","","","","","","","","","","","","","",""
"","","","","","image-button-response","224","667052","0.0-3.0-2.0-1.21","60429021c960ed190edaedca","A3","batch1","","3693.5","img/question_2_10.jpeg","2","spm_respsonse","1","3","mat_22","","","","","","1","3693.5","","","","","","","","","","","","","","",""
"","","","","","html-keyboard-response","225","668108","0.0-3.0-2.0-0.22","60429021c960ed190edaedca","A3","batch1","","null","<p class=block-text>Trial 23 out of 60</p>","null","spm_show_trial_num","","","","","","","","","","","","","","","","","","","","","","","","",""
"","","","","","image-button-response","226","672679","0.0-3.0-2.0-1.22","60429021c960ed190edaedca","A3","batch1","","4569.300000011921","img/question_2_11.jpeg","3","spm_respsonse","1","4","mat_23","","","","","","1","4569.300000011921","","","","","","","","","","","","","","",""
"","","","","","html-keyboard-response","227","673747","0.0-3.0-2.0-0.23","60429021c960ed190edaedca","A3","batch1","","null","<p class=block-text>Trial 24 out of 60</p>","null","spm_show_trial_num","","","","","","","","","","","","","","","","","","","","","","","","",""
"","","","","","image-button-response","228","678550","0.0-3.0-2.0-1.23","60429021c960ed190edaedca","A3","batch1","","4800.799999982119","img/question_2_12.jpeg","4","spm_respsonse","1","5","mat_24","","","","","","1","4800.799999982119","","","","","","","","","","","","","","",""
"","","","","","html-button-response","229","680346","0.0-3.0-3.0","60429021c960ed190edaedca","A3","batch1","","1540.4000000059605","<p class = block-text>Attention check: Please choose 1<br></p>","0","attention_check","true","","","","","","","","","","","","","","","","","","","","","","","",""
"","","","","","html-keyboard-response","230","681147","0.0-3.0-4.0-0.0","60429021c960ed190edaedca","A3","batch1","","null","<p class=block-text>Trial 25 out of 60</p>","null","spm_show_trial_num","","","","","","","","","","","","","","","","","","","","","","","","",""
"","","","","","image-button-response","231","686483","0.0-3.0-4.0-1.0","60429021c960ed190edaedca","A3","batch1","","5333.4000000059605","img/question_3_1.jpeg","7","spm_respsonse","1","8","mat_25","","","","","","1","5333.4000000059605","","","","","","","","","","","","","","",""
"","","","","","html-keyboard-response","232","687535","0.0-3.0-4.0-0.1","60429021c960ed190edaedca","A3","batch1","","null","<p class=block-text>Trial 26 out of 60</p>","null","spm_show_trial_num","","","","","","","","","","","","","","","","","","","","","","","","",""
"","","","","","image-button-response","233","694689","0.0-3.0-4.0-1.1","60429021c960ed190edaedca","A3","batch1","","7151.700000017881","img/question_3_2.jpeg","1","spm_respsonse","1","2","mat_26","","","","","","1","7151.700000017881","","","","","","","","","","","","","","",""
"","","","","","html-keyboard-response","234","695753","0.0-3.0-4.0-0.2","60429021c960ed190edaedca","A3","batch1","","null","<p class=block-text>Trial 27 out of 60</p>","null","spm_show_trial_num","","","","","","","","","","","","","","","","","","","","","","","","",""
"","","","","","image-button-response","235","703873","0.0-3.0-4.0-1.2","60429021c960ed190edaedca","A3","batch1","","8117.0999999940395","img/question_3_3.jpeg","2","spm_respsonse","1","3","mat_27","","","","","","1","8117.0999999940395","","","","","","","","","","","","","","",""
"","","","","","html-keyboard-response","236","704930","0.0-3.0-4.0-0.3","60429021c960ed190edaedca","A3","batch1","","null","<p class=block-text>Trial 28 out of 60</p>","null","spm_show_trial_num","","","","","","","","","","","","","","","","","","","","","","","","",""
"","","","","","image-button-response","237","710932","0.0-3.0-4.0-1.3","60429021c960ed190edaedca","A3","batch1","","5999.699999988079","img/question_3_4.jpeg","3","spm_respsonse","0","8","mat_28","","","","","","0","5999.699999988079","","","","","","","","","","","","","","",""
"","","","","","html-keyboard-response","238","711993","0.0-3.0-4.0-0.4","60429021c960ed190edaedca","A3","batch1","","null","<p class=block-text>Trial 29 out of 60</p>","null","spm_show_trial_num","","","","","","","","","","","","","","","","","","","","","","","","",""
"","","","","","image-button-response","239","718015","0.0-3.0-4.0-1.4","60429021c960ed190edaedca","A3","batch1","","6018.399999976158","img/question_3_5.jpeg","6","spm_respsonse","1","7","mat_29","","","","","","1","6018.399999976158","","","","","","","","","","","","","","",""
"","","","","","html-keyboard-response","240","719087","0.0-3.0-4.0-0.5","60429021c960ed190edaedca","A3","batch1","","null","<p class=block-text>Trial 30 out of 60</p>","null","spm_show_trial_num","","","","","","","","","","","","","","","","","","","","","","","","",""
"","","","","","image-button-response","241","723564","0.0-3.0-4.0-1.5","60429021c960ed190edaedca","A3","batch1","","4474.4000000059605","img/question_3_6.jpeg","3","spm_respsonse","1","4","mat_30","","","","","","1","4474.4000000059605","","","","","","","","","","","","","","",""
"","","","","","html-keyboard-response","242","724626","0.0-3.0-4.0-0.6","60429021c960ed190edaedca","A3","batch1","","null","<p class=block-text>Trial 31 out of 60</p>","null","spm_show_trial_num","","","","","","","","","","","","","","","","","","","","","","","","",""
"","","","","","image-button-response","243","732118","0.0-3.0-4.0-1.6","60429021c960ed190edaedca","A3","batch1","","7489.199999988079","img/question_3_7.jpeg","4","spm_respsonse","1","5","mat_31","","","","","","1","7489.199999988079","","","","","","","","","","","","","","",""
"","","","","","html-keyboard-response","244","733176","0.0-3.0-4.0-0.7","60429021c960ed190edaedca","A3","batch1","","null","<p class=block-text>Trial 32 out of 60</p>","null","spm_show_trial_num","","","","","","","","","","","","","","","","","","","","","","","","",""
"","","","","","image-button-response","245","736522","0.0-3.0-4.0-1.7","60429021c960ed190edaedca","A3","batch1","","3343.0999999940395","img/question_3_8.jpeg","0","spm_respsonse","1","1","mat_32","","","","","","1","3343.0999999940395","","","","","","","","","","","","","","",""
"","","","","","html-keyboard-response","246","737581","0.0-3.0-4.0-0.8","60429021c960ed190edaedca","A3","batch1","","null","<p class=block-text>Trial 33 out of 60</p>","null","spm_show_trial_num","","","","","","","","","","","","","","","","","","","","","","","","",""
"","","","","","image-button-response","247","742810","0.0-3.0-4.0-1.8","60429021c960ed190edaedca","A3","batch1","","5225.5","img/question_3_9.jpeg","6","spm_respsonse","1","7","mat_33","","","","","","1","5225.5","","","","","","","","","","","","","","",""
"","","","","","html-keyboard-response","248","743877","0.0-3.0-4.0-0.9","60429021c960ed190edaedca","A3","batch1","","null","<p class=block-text>Trial 34 out of 60</p>","null","spm_show_trial_num","","","","","","","","","","","","","","","","","","","","","","","","",""
"","","","","","image-button-response","249","755856","0.0-3.0-4.0-1.9","60429021c960ed190edaedca","A3","batch1","","11976.5","img/question_3_10.jpeg","3","spm_respsonse","0","6","mat_34","","","","","","0","11976.5","","","","","","","","","","","","","","",""
"","","","","","html-keyboard-response","250","756921","0.0-3.0-4.0-0.10","60429021c960ed190edaedca","A3","batch1","","null","<p class=block-text>Trial 35 out of 60</p>","null","spm_show_trial_num","","","","","","","","","","","","","","","","","","","","","","","","",""
"","","","","","image-button-response","251","774455","0.0-3.0-4.0-1.10","60429021c960ed190edaedca","A3","batch1","","17530.90000000596","img/question_3_11.jpeg","4","spm_respsonse","0","1","mat_35","","","","","","0","17530.90000000596","","","","","","","","","","","","","","",""
"","","","","","html-keyboard-response","252","775518","0.0-3.0-4.0-0.11","60429021c960ed190edaedca","A3","batch1","","null","<p class=block-text>Trial 36 out of 60</p>","null","spm_show_trial_num","","","","","","","","","","","","","","","","","","","","","","","","",""
"","","","","","image-button-response","253","786780","0.0-3.0-4.0-1.11","60429021c960ed190edaedca","A3","batch1","","11258.59999999404","img/question_3_12.jpeg","5","spm_respsonse","0","2","mat_36","","","","","","0","11258.59999999404","","","","","","","","","","","","","","",""
"","","","","","html-keyboard-response","254","787855","0.0-3.0-4.0-0.12","60429021c960ed190edaedca","A3","batch1","","null","<p class=block-text>Trial 37 out of 60</p>","null","spm_show_trial_num","","","","","","","","","","","","","","","","","","","","","","","","",""
"","","","","","image-button-response","255","791102","0.0-3.0-4.0-1.12","60429021c960ed190edaedca","A3","batch1","","3243.9000000059605","img/question_4_1.jpeg","2","spm_respsonse","1","3","mat_37","","","","","","1","3243.9000000059605","","","","","","","","","","","","","","",""
"","","","","","html-keyboard-response","256","792165","0.0-3.0-4.0-0.13","60429021c960ed190edaedca","A3","batch1","","null","<p class=block-text>Trial 38 out of 60</p>","null","spm_show_trial_num","","","","","","","","","","","","","","","","","","","","","","","","",""
"","","","","","image-button-response","257","798442","0.0-3.0-4.0-1.13","60429021c960ed190edaedca","A3","batch1","","6274.699999988079","img/question_4_2.jpeg","3","spm_respsonse","1","4","mat_38","","","","","","1","6274.699999988079","","","","","","","","","","","","","","",""
"","","","","","html-keyboard-response","258","799503","0.0-3.0-4.0-0.14","60429021c960ed190edaedca","A3","batch1","","null","<p class=block-text>Trial 39 out of 60</p>","null","spm_show_trial_num","","","","","","","","","","","","","","","","","","","","","","","","",""
"","","","","","image-button-response","259","807584","0.0-3.0-4.0-1.14","60429021c960ed190edaedca","A3","batch1","","8078.299999982119","img/question_4_3.jpeg","2","spm_respsonse","1","3","mat_39","","","","","","1","8078.299999982119","","","","","","","","","","","","","","",""
"","","","","","html-keyboard-response","260","808648","0.0-3.0-4.0-0.15","60429021c960ed190edaedca","A3","batch1","","null","<p class=block-text>Trial 40 out of 60</p>","null","spm_show_trial_num","","","","","","","","","","","","","","","","","","","","","","","","",""
"","","","","","image-button-response","261","822087","0.0-3.0-4.0-1.15","60429021c960ed190edaedca","A3","batch1","","13436","img/question_4_4.jpeg","6","spm_respsonse","1","7","mat_40","","","","","","1","13436","","","","","","","","","","","","","","",""
"","","","","","html-keyboard-response","262","823164","0.0-3.0-4.0-0.16","60429021c960ed190edaedca","A3","batch1","","null","<p class=block-text>Trial 41 out of 60</p>","null","spm_show_trial_num","","","","","","","","","","","","","","","","","","","","","","","","",""
"","","","","","image-button-response","263","831032","0.0-3.0-4.0-1.16","60429021c960ed190edaedca","A3","batch1","","7864.4000000059605","img/question_4_5.jpeg","7","spm_respsonse","1","8","mat_41","","","","","","1","7864.4000000059605","","","","","","","","","","","","","","",""
"","","","","","html-keyboard-response","264","832097","0.0-3.0-4.0-0.17","60429021c960ed190edaedca","A3","batch1","","null","<p class=block-text>Trial 42 out of 60</p>","null","spm_show_trial_num","","","","","","","","","","","","","","","","","","","","","","","","",""
"","","","","","image-button-response","265","845268","0.0-3.0-4.0-1.17","60429021c960ed190edaedca","A3","batch1","","13168.40000000596","img/question_4_6.jpeg","5","spm_respsonse","1","6","mat_42","","","","","","1","13168.40000000596","","","","","","","","","","","","","","",""
"","","","","","html-keyboard-response","266","846337","0.0-3.0-4.0-0.18","60429021c960ed190edaedca","A3","batch1","","null","<p class=block-text>Trial 43 out of 60</p>","null","spm_show_trial_num","","","","","","","","","","","","","","","","","","","","","","","","",""
"","","","","","image-button-response","267","861432","0.0-3.0-4.0-1.18","60429021c960ed190edaedca","A3","batch1","","15092.59999999404","img/question_4_7.jpeg","4","spm_respsonse","1","5","mat_43","","","","","","1","15092.59999999404","","","","","","","","","","","","","","",""
"","","","","","html-keyboard-response","268","862504","0.0-3.0-4.0-0.19","60429021c960ed190edaedca","A3","batch1","","null","<p class=block-text>Trial 44 out of 60</p>","null","spm_show_trial_num","","","","","","","","","","","","","","","","","","","","","","","","",""
"","","","","","image-button-response","269","871532","0.0-3.0-4.0-1.19","60429021c960ed190edaedca","A3","batch1","","9025.200000017881","img/question_4_8.jpeg","4","spm_respsonse","0","4","mat_44","","","","","","0","9025.200000017881","","","","","","","","","","","","","","",""
"","","","","","html-keyboard-response","270","872594","0.0-3.0-4.0-0.20","60429021c960ed190edaedca","A3","batch1","","null","<p class=block-text>Trial 45 out of 60</p>","null","spm_show_trial_num","","","","","","","","","","","","","","","","","","","","","","","","",""
"","","","","","image-button-response","271","883831","0.0-3.0-4.0-1.20","60429021c960ed190edaedca","A3","batch1","","11234","img/question_4_9.jpeg","0","spm_respsonse","1","1","mat_45","","","","","","1","11234","","","","","","","","","","","","","","",""
"","","","","","html-keyboard-response","272","884888","0.0-3.0-4.0-0.21","60429021c960ed190edaedca","A3","batch1","","null","<p class=block-text>Trial 46 out of 60</p>","null","spm_show_trial_num","","","","","","","","","","","","","","","","","","","","","","","","",""
"","","","","","image-button-response","273","898597","0.0-3.0-4.0-1.21","60429021c960ed190edaedca","A3","batch1","","13704.59999999404","img/question_4_10.jpeg","4","spm_respsonse","0","2","mat_46","","","","","","0","13704.59999999404","","","","","","","","","","","","","","",""
"","","","","","html-keyboard-response","274","899662","0.0-3.0-4.0-0.22","60429021c960ed190edaedca","A3","batch1","","null","<p class=block-text>Trial 47 out of 60</p>","null","spm_show_trial_num","","","","","","","","","","","","","","","","","","","","","","","","",""
"","","","","","image-button-response","275","914340","0.0-3.0-4.0-1.22","60429021c960ed190edaedca","A3","batch1","","14674.90000000596","img/question_4_11.jpeg","2","spm_respsonse","0","5","mat_47","","","","","","0","14674.90000000596","","","","","","","","","","","","","","",""
"","","","","","html-keyboard-response","276","915393","0.0-3.0-4.0-0.23","60429021c960ed190edaedca","A3","batch1","","null","<p class=block-text>Trial 48 out of 60</p>","null","spm_show_trial_num","","","","","","","","","","","","","","","","","","","","","","","","",""
"","","","","","image-button-response","277","934579","0.0-3.0-4.0-1.23","60429021c960ed190edaedca","A3","batch1","","19182.5","img/question_4_12.jpeg","7","spm_respsonse","0","6","mat_48","","","","","","0","19182.5","","","","","","","","","","","","","","",""
"","","","","","html-keyboard-response","278","935649","0.0-3.0-4.0-0.24","60429021c960ed190edaedca","A3","batch1","","null","<p class=block-text>Trial 49 out of 60</p>","null","spm_show_trial_num","","","","","","","","","","","","","","","","","","","","","","","","",""
"","","","","","image-button-response","279","950333","0.0-3.0-4.0-1.24","60429021c960ed190edaedca","A3","batch1","","14679.799999982119","img/question_5_1.jpeg","2","spm_respsonse","0","7","mat_49","","","","","","0","14679.799999982119","","","","","","","","","","","","","","",""
"","","","","","html-keyboard-response","280","951394","0.0-3.0-4.0-0.25","60429021c960ed190edaedca","A3","batch1","","null","<p class=block-text>Trial 50 out of 60</p>","null","spm_show_trial_num","","","","","","","","","","","","","","","","","","","","","","","","",""
"","","","","","image-button-response","281","964523","0.0-3.0-4.0-1.25","60429021c960ed190edaedca","A3","batch1","","13126.59999999404","img/question_5_2.jpeg","5","spm_respsonse","1","6","mat_50","","","","","","1","13126.59999999404","","","","","","","","","","","","","","",""
"","","","","","html-keyboard-response","282","965599","0.0-3.0-4.0-0.26","60429021c960ed190edaedca","A3","batch1","","null","<p class=block-text>Trial 51 out of 60</p>","null","spm_show_trial_num","","","","","","","","","","","","","","","","","","","","","","","","",""
"","","","","","image-button-response","283","979547","0.0-3.0-4.0-1.26","60429021c960ed190edaedca","A3","batch1","","13944.5","img/question_5_3.jpeg","4","spm_respsonse","0","8","mat_51","","","","","","0","13944.5","","","","","","","","","","","","","","",""
"","","","","","html-keyboard-response","284","980618","0.0-3.0-4.0-0.27","60429021c960ed190edaedca","A3","batch1","","null","<p class=block-text>Trial 52 out of 60</p>","null","spm_show_trial_num","","","","","","","","","","","","","","","","","","","","","","","","",""
"","","","","","image-button-response","285","993633","0.0-3.0-4.0-1.27","60429021c960ed190edaedca","A3","batch1","","13012.699999988079","img/question_5_4.jpeg","2","spm_respsonse","0","2","mat_52","","","","","","0","13012.699999988079","","","","","","","","","","","","","","",""
"","","","","","html-keyboard-response","286","994688","0.0-3.0-4.0-0.28","60429021c960ed190edaedca","A3","batch1","","null","<p class=block-text>Trial 53 out of 60</p>","null","spm_show_trial_num","","","","","","","","","","","","","","","","","","","","","","","","",""
"","","","","","image-button-response","287","1018290","0.0-3.0-4.0-1.28","60429021c960ed190edaedca","A3","batch1","","23600.29999998212","img/question_5_5.jpeg","7","spm_respsonse","0","1","mat_53","","","","","","0","23600.29999998212","","","","","","","","","","","","","","",""
"","","","","","html-keyboard-response","288","1019356","0.0-3.0-4.0-0.29","60429021c960ed190edaedca","A3","batch1","","null","<p class=block-text>Trial 54 out of 60</p>","null","spm_show_trial_num","","","","","","","","","","","","","","","","","","","","","","","","",""
"","","","","","image-button-response","289","1029496","0.0-3.0-4.0-1.29","60429021c960ed190edaedca","A3","batch1","","10136.700000017881","img/question_5_6.jpeg","3","spm_respsonse","0","5","mat_54","","","","","","0","10136.700000017881","","","","","","","","","","","","","","",""
"","","","","","html-keyboard-response","290","1030550","0.0-3.0-4.0-0.30","60429021c960ed190edaedca","A3","batch1","","null","<p class=block-text>Trial 55 out of 60</p>","null","spm_show_trial_num","","","","","","","","","","","","","","","","","","","","","","","","",""
"","","","","","image-button-response","291","1051438","0.0-3.0-4.0-1.30","60429021c960ed190edaedca","A3","batch1","","20884","img/question_5_7.jpeg","0","spm_respsonse","1","1","mat_55","","","","","","1","20884","","","","","","","","","","","","","","",""
"","","","","","html-keyboard-response","292","1052491","0.0-3.0-4.0-0.31","60429021c960ed190edaedca","A3","batch1","","null","<p class=block-text>Trial 56 out of 60</p>","null","spm_show_trial_num","","","","","","","","","","","","","","","","","","","","","","","","",""
"","","","","","image-button-response","293","1073932","0.0-3.0-4.0-1.31","60429021c960ed190edaedca","A3","batch1","","21437.59999999404","img/question_5_8.jpeg","0","spm_respsonse","0","6","mat_56","","","","","","0","21437.59999999404","","","","","","","","","","","","","","",""
"","","","","","html-keyboard-response","294","1074999","0.0-3.0-4.0-0.32","60429021c960ed190edaedca","A3","batch1","","null","<p class=block-text>Trial 57 out of 60</p>","null","spm_show_trial_num","","","","","","","","","","","","","","","","","","","","","","","","",""
"","","","","","image-button-response","295","1089925","0.0-3.0-4.0-1.32","60429021c960ed190edaedca","A3","batch1","","14923","img/question_5_9.jpeg","4","spm_respsonse","0","3","mat_57","","","","","","0","14923","","","","","","","","","","","","","","",""
"","","","","","html-keyboard-response","296","1090987","0.0-3.0-4.0-0.33","60429021c960ed190edaedca","A3","batch1","","null","<p class=block-text>Trial 58 out of 60</p>","null","spm_show_trial_num","","","","","","","","","","","","","","","","","","","","","","","","",""
"","","","","","image-button-response","297","1100383","0.0-3.0-4.0-1.33","60429021c960ed190edaedca","A3","batch1","","9394.199999988079","img/question_5_10.jpeg","6","spm_respsonse","0","2","mat_58","","","","","","0","9394.199999988079","","","","","","","","","","","","","","",""
"","","","","","html-keyboard-response","298","1101450","0.0-3.0-4.0-0.34","60429021c960ed190edaedca","A3","batch1","","null","<p class=block-text>Trial 59 out of 60</p>","null","spm_show_trial_num","","","","","","","","","","","","","","","","","","","","","","","","",""
"","","","","","image-button-response","299","1114912","0.0-3.0-4.0-1.34","60429021c960ed190edaedca","A3","batch1","","13460.200000017881","img/question_5_11.jpeg","4","spm_respsonse","0","4","mat_59","","","","","","0","13460.200000017881","","","","","","","","","","","","","","",""
"","","","","","html-keyboard-response","300","1115965","0.0-3.0-4.0-0.35","60429021c960ed190edaedca","A3","batch1","","null","<p class=block-text>Trial 60 out of 60</p>","null","spm_show_trial_num","","","","","","","","","","","","","","","","","","","","","","","","",""
"","","","","","image-button-response","301","1129549","0.0-3.0-4.0-1.35","60429021c960ed190edaedca","A3","batch1","","13581.300000011921","img/question_5_12.jpeg","6","spm_respsonse","0","5","mat_60","","","","","","0","13581.300000011921","","","","","","","","","","","","","","",""
"","","","","","html-button-response","302","1133892","0.0-3.0-5.0","60429021c960ed190edaedca","A3","batch1","","4090.7999999821186","<p class= block-text>This concludes the Standard Progressive Matrix game. Thank you for your responses!<br> When you are ready, click the button continue</p>","0","spm_goodbye","","","","","","","","","","","","","","","","","","","","","","","","",""
"true","","","","","fullscreen","303","1154947","0.0-4.0-0.0","60429021c960ed190edaedca","A3","batch1","","","","","","","","","","","","","","","","","","","","","","","","","","","","","",""
"","","","","","instructions","304","1195893","0.0-4.0-1.0-0.0-0.0","60429021c960ed190edaedca","A3","batch1","[{""page_index"":0,""viewing_time"":11953.800000011921},{""page_index"":1,""viewing_time"":3711.5},{""page_index"":2,""viewing_time"":2817.399999976158},{""page_index"":3,""viewing_time"":6110.600000023842},{""page_index"":4,""viewing_time"":2543.699999988079},{""page_index"":5,""viewing_time"":4769.800000011921},{""page_index"":4,""viewing_time"":4366.0999999940395},{""page_index"":5,""viewing_time"":3489.5},{""page_index"":6,""viewing_time"":1182.0999999940395}]","40944.90000000596","","","tol-instructions","","","","","","","","","","","","","","","","","","","","","","","","",""
"","","","","","html-button-response","305","1197420","0.0-4.0-1.0-1.0-0.0","60429021c960ed190edaedca","A3","batch1","","1526.0999999940395","<p class=block-text> Let's answer a few questions <br>","0","tol_enter_quiz","","","","","","","","","","","","","","","","","","","","","","","","",""
"","","","","","html-button-response","306","1199611","0.0-4.0-1.0-1.0-1.0","60429021c960ed190edaedca","A3","batch1","","2189.300000011921","<p class = block-text>True or False: You can only move the ball on top of a peg. <br></p>","0","tol_quiz","true","","","","","","","","","","","","","","","","","","","","","","","",""
"","","","","","html-button-response","307","1200714","0.0-4.0-1.0-1.0-2.0","60429021c960ed190edaedca","A3","batch1","","1100.199999988079","<p class = block-text>Correct! You can only move the ball on top of a peg.</p>","0","tol_quiz_feedback","","","","","","","","","","","","","","","","","","","","","","","","",""
"","","","","","html-button-response","308","1202743","0.0-4.0-1.0-1.0-3.0","60429021c960ed190edaedca","A3","batch1","","2027.9000000059605","<p class = block-text>True or False: You should try to match your board with the target board with fewest moves possible. <br></p>","0","tol_quiz","true","","","","","","","","","","","","","","","","","","","","","","","",""
"","","","","","html-button-response","309","1203410","0.0-4.0-1.0-1.0-4.0","60429021c960ed190edaedca","A3","batch1","","665.8000000119209","<p class = block-text>Correct! </p>","0","tol_quiz_feedback","","","","","","","","","","","","","","","","","","","","","","","","",""
"","","","","","html-button-response","310","1204361","0.0-4.0-2.0","60429021c960ed190edaedca","A3","batch1","","948.5999999940395","<p class=block-text> Now that you've understood the game, let's practice a few easier examples before we start!<br> <br>","0","","","","","","","","","","","","","","","","","","","","","","","","","",""
"","","","","","single-stim-button","311","1206135","0.0-4.0-3.0-0.0","60429021c960ed190edaedca","A3","batch1","","1771","","","tol_practice","","","","","","","","","","","tol_peg_2","1771","1771","0","[[1,2,0],[0,0],[0]]","1","[[1,2,0],[0,0],[3]]","practice","1771","","","","","",""
"","","","","","single-stim-button","312","1207129","0.0-4.0-3.0-1.0","60429021c960ed190edaedca","A3","batch1","","993","","","tol_practice","","","","","","","","","","","tol_peg_3","993","993","0","[[1,2,0],[0,0],[3]]","1","[[1,2,0],[0,0],[3]]","practice","993","","","","","",""
"","","","","","poldrack-single-stim","313","1208133","0.0-4.0-4.0","60429021c960ed190edaedca","A3","batch1","","-1","","","tol_feedback","true","","","","","","","","","","","1000","1000","500","","","","","","-1","none","true","","0",""
"","","","","","single-stim-button","314","1211051","0.0-4.0-5.0-0.0","60429021c960ed190edaedca","A3","batch1","","2917","","","tol_practice","","","","","","","","","","","tol_peg_1","2917","2917","0","[[1,0,0],[3,0],[0]]","2","[[0,0,0],[3,1],[2]]","practice","2917","","","","","",""
"","","","","","single-stim-button","315","1211940","0.0-4.0-5.0-1.0","60429021c960ed190edaedca","A3","batch1","","888","","","tol_practice","","","","","","","","","","","tol_peg_3","888","888","0","[[1,0,0],[3,0],[2]]","2","[[0,0,0],[3,1],[2]]","practice","888","","","","","",""
"","","","","","single-stim-button","316","1212772","0.0-4.0-5.1-0.1","60429021c960ed190edaedca","A3","batch1","","830","","","tol_practice","","","","","","","","","","","tol_peg_1","830","830","0","[[0,0,0],[3,0],[2]]","3","[[0,0,0],[3,1],[2]]","practice","830","","","","","",""
"","","","","","single-stim-button","317","1213341","0.0-4.0-5.1-1.1","60429021c960ed190edaedca","A3","batch1","","568","","","tol_practice","","","","","","","","","","","tol_peg_2","568","568","0","[[0,0,0],[3,1],[2]]","3","[[0,0,0],[3,1],[2]]","practice","568","","","","","",""
"","","","","","poldrack-single-stim","318","1214344","0.0-4.0-6.0","60429021c960ed190edaedca","A3","batch1","","-1","","","tol_feedback","true","","","","","","","","","","","1000","1000","500","","","","","","-1","none","true","","0",""
"","","","","","single-stim-button","319","1216849","0.0-4.0-7.0-0.0","60429021c960ed190edaedca","A3","batch1","","2504","","","tol_practice","","","","","","","","","","","tol_peg_2","2504","2504","0","[[1,2,0],[0,0],[0]]","4","[[1,0,0],[2,0],[3]]","practice","2504","","","","","",""
"","","","","","single-stim-button","320","1217656","0.0-4.0-7.0-1.0","60429021c960ed190edaedca","A3","batch1","","805","","","tol_practice","","","","","","","","","","","tol_peg_3","805","805","0","[[1,2,0],[0,0],[3]]","4","[[1,0,0],[2,0],[3]]","practice","805","","","","","",""
"","","","","","single-stim-button","321","1218379","0.0-4.0-7.1-0.1","60429021c960ed190edaedca","A3","batch1","","721","","","tol_practice","","","","","","","","","","","tol_peg_1","721","721","0","[[1,0,0],[0,0],[3]]","5","[[1,0,0],[2,0],[3]]","practice","721","","","","","",""
"","","","","","single-stim-button","322","1219060","0.0-4.0-7.1-1.1","60429021c960ed190edaedca","A3","batch1","","680","","","tol_practice","","","","","","","","","","","tol_peg_2","680","680","0","[[1,0,0],[2,0],[3]]","5","[[1,0,0],[2,0],[3]]","practice","680","","","","","",""
"","","","","","poldrack-single-stim","323","1220061","0.0-4.0-8.0","60429021c960ed190edaedca","A3","batch1","","-1","","","tol_feedback","true","","","","","","","","","","","1000","1000","500","","","","","","-1","none","true","","0",""
"","","","","","html-button-response","324","1221666","0.0-4.0-9.0","60429021c960ed190edaedca","A3","batch1","","1604.6000000238419","<div class = centerbox><p class = center-block-text>Great job! You are done with practice trials<br>You are about to start official trials.<br> <br> Problem <strong>1</strong> out of 25 problems</p></div>","0","tol_instruction","","","","","","","","","","","","","","","","","","","","","","","","",""
"","","","","","single-stim-button","325","1227712","0.0-4.0-10.0-0.0","60429021c960ed190edaedca","A3","batch1","","5044","","","tol_tohand","","","","","","","","","","","tol_peg_2","5044","5044","0","[[1,2,0],[0,0],[0]]","1","[[1,3,0],[2,0],[0]]","0","0","","","","","","3"
"","","","","","single-stim-button","326","1228365","0.0-4.0-10.0-1.0","60429021c960ed190edaedca","A3","batch1","","651","","","tol_toboard","","","","","","","","","","","tol_peg_3","651","651","0","[[1,2,0],[0,0],[3]]","1","[[1,3,0],[2,0],[0]]","0","0","","","","","","3"
"","","","","","single-stim-button","327","1229033","0.0-4.0-10.1-0.1","60429021c960ed190edaedca","A3","batch1","","666","","","tol_tohand","","","","","","","","","","","tol_peg_1","666","666","0","[[1,0,0],[0,0],[3]]","2","[[1,3,0],[2,0],[0]]","0","0","","","","","","3"
"","","","","","single-stim-button","328","1229776","0.0-4.0-10.1-1.1","60429021c960ed190edaedca","A3","batch1","","742","","","tol_toboard","","","","","","","","","","","tol_peg_2","742","742","0","[[1,0,0],[2,0],[3]]","2","[[1,3,0],[2,0],[0]]","0","0","","","","","","3"
"","","","","","single-stim-button","329","1230451","0.0-4.0-10.2-0.2","60429021c960ed190edaedca","A3","batch1","","673","","","tol_tohand","","","","","","","","","","","tol_peg_3","673","673","0","[[1,0,0],[2,0],[0]]","3","[[1,3,0],[2,0],[0]]","0","0","","","","","","3"
"","","","","","single-stim-button","330","1231083","0.0-4.0-10.2-1.2","60429021c960ed190edaedca","A3","batch1","","631","","","tol_toboard","","","","","","","","","","","tol_peg_1","631","631","0","[[1,3,0],[2,0],[0]]","3","[[1,3,0],[2,0],[0]]","0","0","","","","","","3"
"","","","","","poldrack-single-stim","331","1232092","0.0-4.0-11.0","60429021c960ed190edaedca","A3","batch1","","-1","","","tol_feedback","true","","","","","","","","","","","1000","1000","500","","","","","","-1","none","true","5044","6383",""
"","","","","","html-button-response","332","1234412","0.0-4.0-12.0","60429021c960ed190edaedca","A3","batch1","","2319.4000000059605","<div class = centerbox><p class = center-block-text>problem <strong>2</strong> out of 25 problems</p></div>","0","tol_trial_num","","","","","","","","","","","","","","","","","","","","","","","","",""
"","","","","","single-stim-button","333","1238261","0.0-4.0-13.0-0.0","60429021c960ed190edaedca","A3","batch1","","3847","","","tol_tohand","","","","","","","","","","","tol_peg_1","3847","3847","0","[[1,0,0],[3,0],[0]]","1","[[2,1,3],[0,0],[0]]","1","0","","","","","","5"
"","","","","","single-stim-button","334","1239257","0.0-4.0-13.0-1.0","60429021c960ed190edaedca","A3","batch1","","995","","","tol_toboard","","","","","","","","","","","tol_peg_3","995","995","0","[[1,0,0],[3,0],[2]]","1","[[2,1,3],[0,0],[0]]","1","0","","","","","","5"
"","","","","","single-stim-button","335","1240402","0.0-4.0-13.1-0.1","60429021c960ed190edaedca","A3","batch1","","1144","","","tol_tohand","","","","","","","","","","","tol_peg_1","1144","1144","0","[[0,0,0],[3,0],[2]]","2","[[2,1,3],[0,0],[0]]","1","0","","","","","","5"
"","","","","","single-stim-button","336","1247426","0.0-4.0-13.1-1.1","60429021c960ed190edaedca","A3","batch1","","7022","","","tol_toboard","","","","","","","","","","","tol_peg_2","7022","7022","0","[[0,0,0],[3,1],[2]]","2","[[2,1,3],[0,0],[0]]","1","0","","","","","","5"
"","","","","","single-stim-button","337","1250791","0.0-4.0-13.2-0.2","60429021c960ed190edaedca","A3","batch1","","3363","","","tol_tohand","","","","","","","","","","","tol_peg_2","3363","3363","0","[[0,0,0],[3,0],[2]]","3","[[2,1,3],[0,0],[0]]","1","0","","","","","","5"
"","","","","","single-stim-button","338","1251973","0.0-4.0-13.2-1.2","60429021c960ed190edaedca","A3","batch1","","1180","","","tol_toboard","","","","","","","","","","","tol_peg_1","1180","1180","0","[[1,0,0],[3,0],[2]]","3","[[2,1,3],[0,0],[0]]","1","0","","","","","","5"
"","","","","","single-stim-button","339","1252821","0.0-4.0-13.3-0.3","60429021c960ed190edaedca","A3","batch1","","846","","","tol_tohand","","","","","","","","","","","tol_peg_3","846","846","0","[[1,0,0],[3,0],[0]]","4","[[2,1,3],[0,0],[0]]","1","0","","","","","","5"
"","","","","","single-stim-button","340","1253412","0.0-4.0-13.3-1.3","60429021c960ed190edaedca","A3","batch1","","589","","","tol_toboard","","","","","","","","","","","tol_peg_2","589","589","0","[[1,0,0],[3,2],[0]]","4","[[2,1,3],[0,0],[0]]","1","0","","","","","","5"
"","","","","","single-stim-button","341","1253989","0.0-4.0-13.4-0.4","60429021c960ed190edaedca","A3","batch1","","575","","","tol_tohand","","","","","","","","","","","tol_peg_1","575","575","0","[[0,0,0],[3,2],[0]]","5","[[2,1,3],[0,0],[0]]","1","0","","","","","","5"
"","","","","","single-stim-button","342","1254726","0.0-4.0-13.4-1.4","60429021c960ed190edaedca","A3","batch1","","735","","","tol_toboard","","","","","","","","","","","tol_peg_3","735","735","0","[[0,0,0],[3,2],[1]]","5","[[2,1,3],[0,0],[0]]","1","0","","","","","","5"
"","","","","","single-stim-button","343","1255351","0.0-4.0-13.5-0.5","60429021c960ed190edaedca","A3","batch1","","624","","","tol_tohand","","","","","","","","","","","tol_peg_2","624","624","0","[[0,0,0],[3,0],[1]]","6","[[2,1,3],[0,0],[0]]","1","0","","","","","","5"
"","","","","","single-stim-button","344","1256033","0.0-4.0-13.5-1.5","60429021c960ed190edaedca","A3","batch1","","680","","","tol_toboard","","","","","","","","","","","tol_peg_1","680","680","0","[[2,0,0],[3,0],[1]]","6","[[2,1,3],[0,0],[0]]","1","0","","","","","","5"
"","","","","","single-stim-button","345","1256624","0.0-4.0-13.6-0.6","60429021c960ed190edaedca","A3","batch1","","589","","","tol_tohand","","","","","","","","","","","tol_peg_3","589","589","0","[[2,0,0],[3,0],[0]]","7","[[2,1,3],[0,0],[0]]","1","0","","","","","","5"
"","","","","","single-stim-button","346","1257229","0.0-4.0-13.6-1.6","60429021c960ed190edaedca","A3","batch1","","604","","","tol_toboard","","","","","","","","","","","tol_peg_1","604","604","0","[[2,1,0],[3,0],[0]]","7","[[2,1,3],[0,0],[0]]","1","0","","","","","","5"
"","","","","","single-stim-button","347","1257771","0.0-4.0-13.7-0.7","60429021c960ed190edaedca","A3","batch1","","541","","","tol_tohand","","","","","","","","","","","tol_peg_2","541","541","0","[[2,1,0],[0,0],[0]]","8","[[2,1,3],[0,0],[0]]","1","0","","","","","","5"
