"success","timeout","failed_images","failed_audio","failed_video","trial_type","trial_index","time_elapsed","internal_node_id","subject_id","study_id","session_id","task","rt","stimulus","response","item","answer","correct","spm_correct","spm_rt","view_history","mouse_click","stim_duration","block_duration","timing_post_trial","current_position","tol_num_moves_made","tol_target","tol_problem_id","tol_rt","key_press","possible_responses","tol_correct","preplanning","tol_rt_per_trial","tol_min_moves","fiar_detect_rt","fiar_detect_correct","total_correct_fiar_detect","post_trial_gap","choices"
"true","false","[]","[]","[]","preload","0","3000","0.0-0.0","60430fc782b5752a7ae8d797","A3","batch1","","","","","","","","","","","","","","","","","","","","","","","","","","","","","",""
"true","","","","","fullscreen","1","8200","0.0-1.0-0.0","60430fc782b5752a7ae8d797","A3","batch1","","","","","","","","","","","","","","","","","","","","","","","","","","","","","",""
"true","","","","","fullscreen","2","11582","0.0-2.0-0.0","60430fc782b5752a7ae8d797","A3","batch1","spm_fullscreen","","","","","","","","","","","","","","","","","","","","","","","","","","","","",""
"","","","","","html-button-response","3","15726","0.0-2.0-1.0","60430fc782b5752a7ae8d797","A3","batch1","","4143.100000000093","<p class = block-text><b>Instructions</b> <br>This is a widely used intelligence test in research. <br>In this test, a figure with a missing piece will be presented.<br>Below the figure are alternative pieces to complete the figure, only one of which is correct.<br> Different figures might involve different principles for obtaining the missing piece<br>Your job is to select the most logical piece to complete the figure.</p>","0","","","","","","","","","","","","","","","","","","","","","","","","","",""
"","","","","","html-keyboard-response","4","16528","0.0-2.0-2.0-0.0","60430fc782b5752a7ae8d797","A3","batch1","spm_show_trial_num","null","<p class=block-text>Trial 1 out of 60</p>","null","","","","","","","","","","","","","","","","","","","","","","","","","",""
"","","","","","image-button-response","5","19715","0.0-2.0-2.0-1.0","60430fc782b5752a7ae8d797","A3","batch1","spm_respsonse","3182.899999999907","img/question_1_1.jpeg","3","mat_01","4","1","1","3182.899999999907","","","","","","","","","","","","","","","","","","","","",""
"","","","","","html-keyboard-response","6","20780","0.0-2.0-2.0-0.1","60430fc782b5752a7ae8d797","A3","batch1","spm_show_trial_num","null","<p class=block-text>Trial 2 out of 60</p>","null","","","","","","","","","","","","","","","","","","","","","","","","","",""
"","","","","","image-button-response","7","23158","0.0-2.0-2.0-1.1","60430fc782b5752a7ae8d797","A3","batch1","spm_respsonse","2376.6999999999534","img/question_1_2.jpeg","4","mat_02","5","1","1","2376.6999999999534","","","","","","","","","","","","","","","","","","","","",""
"","","","","","html-keyboard-response","8","24229","0.0-2.0-2.0-0.2","60430fc782b5752a7ae8d797","A3","batch1","spm_show_trial_num","null","<p class=block-text>Trial 3 out of 60</p>","null","","","","","","","","","","","","","","","","","","","","","","","","","",""
"","","","","","image-button-response","9","27369","0.0-2.0-2.0-1.2","60430fc782b5752a7ae8d797","A3","batch1","spm_respsonse","3138.3000000000466","img/question_1_3.jpeg","0","mat_03","1","1","1","3138.3000000000466","","","","","","","","","","","","","","","","","","","","",""
"","","","","","html-keyboard-response","10","28438","0.0-2.0-2.0-0.3","60430fc782b5752a7ae8d797","A3","batch1","spm_show_trial_num","null","<p class=block-text>Trial 4 out of 60</p>","null","","","","","","","","","","","","","","","","","","","","","","","","","",""
"","","","","","image-button-response","11","30443","0.0-2.0-2.0-1.3","60430fc782b5752a7ae8d797","A3","batch1","spm_respsonse","2003.0999999998603","img/question_1_4.jpeg","1","mat_04","2","1","1","2003.0999999998603","","","","","","","","","","","","","","","","","","","","",""
"","","","","","html-keyboard-response","12","31508","0.0-2.0-2.0-0.4","60430fc782b5752a7ae8d797","A3","batch1","spm_show_trial_num","null","<p class=block-text>Trial 5 out of 60</p>","null","","","","","","","","","","","","","","","","","","","","","","","","","",""
"","","","","","image-button-response","13","34507","0.0-2.0-2.0-1.4","60430fc782b5752a7ae8d797","A3","batch1","spm_respsonse","2997.5","img/question_1_5.jpeg","5","mat_05","6","1","1","2997.5","","","","","","","","","","","","","","","","","","","","",""
"","","","","","html-keyboard-response","14","35570","0.0-2.0-2.0-0.5","60430fc782b5752a7ae8d797","A3","batch1","spm_show_trial_num","null","<p class=block-text>Trial 6 out of 60</p>","null","","","","","","","","","","","","","","","","","","","","","","","","","",""
"","","","","","image-button-response","15","37747","0.0-2.0-2.0-1.5","60430fc782b5752a7ae8d797","A3","batch1","spm_respsonse","2175.3000000000466","img/question_1_6.jpeg","2","mat_06","3","1","1","2175.3000000000466","","","","","","","","","","","","","","","","","","","","",""
"","","","","","html-keyboard-response","16","38814","0.0-2.0-2.0-0.6","60430fc782b5752a7ae8d797","A3","batch1","spm_show_trial_num","null","<p class=block-text>Trial 7 out of 60</p>","null","","","","","","","","","","","","","","","","","","","","","","","","","",""
"","","","","","image-button-response","17","43556","0.0-2.0-2.0-1.6","60430fc782b5752a7ae8d797","A3","batch1","spm_respsonse","4740.699999999953","img/question_1_7.jpeg","5","mat_07","6","1","1","4740.699999999953","","","","","","","","","","","","","","","","","","","","",""
"","","","","","html-keyboard-response","18","44630","0.0-2.0-2.0-0.7","60430fc782b5752a7ae8d797","A3","batch1","spm_show_trial_num","null","<p class=block-text>Trial 8 out of 60</p>","null","","","","","","","","","","","","","","","","","","","","","","","","","",""
"","","","","","image-button-response","19","49578","0.0-2.0-2.0-1.7","60430fc782b5752a7ae8d797","A3","batch1","spm_respsonse","4946.59999999986","img/question_1_8.jpeg","1","mat_08","2","1","1","4946.59999999986","","","","","","","","","","","","","","","","","","","","",""
"","","","","","html-keyboard-response","20","50637","0.0-2.0-2.0-0.8","60430fc782b5752a7ae8d797","A3","batch1","spm_show_trial_num","null","<p class=block-text>Trial 9 out of 60</p>","null","","","","","","","","","","","","","","","","","","","","","","","","","",""
"","","","","","image-button-response","21","53238","0.0-2.0-2.0-1.8","60430fc782b5752a7ae8d797","A3","batch1","spm_respsonse","2599.600000000093","img/question_1_9.jpeg","0","mat_09","1","1","1","2599.600000000093","","","","","","","","","","","","","","","","","","","","",""
"","","","","","html-keyboard-response","22","54326","0.0-2.0-2.0-0.9","60430fc782b5752a7ae8d797","A3","batch1","spm_show_trial_num","null","<p class=block-text>Trial 10 out of 60</p>","null","","","","","","","","","","","","","","","","","","","","","","","","","",""
"","","","","","image-button-response","23","57549","0.0-2.0-2.0-1.9","60430fc782b5752a7ae8d797","A3","batch1","spm_respsonse","3221.100000000093","img/question_1_10.jpeg","2","mat_10","3","1","1","3221.100000000093","","","","","","","","","","","","","","","","","","","","",""
"","","","","","html-keyboard-response","24","58607","0.0-2.0-2.0-0.10","60430fc782b5752a7ae8d797","A3","batch1","spm_show_trial_num","null","<p class=block-text>Trial 11 out of 60</p>","null","","","","","","","","","","","","","","","","","","","","","","","","","",""
"","","","","","image-button-response","25","66655","0.0-2.0-2.0-1.10","60430fc782b5752a7ae8d797","A3","batch1","spm_respsonse","8046.600000000093","img/question_1_11.jpeg","3","mat_11","4","1","1","8046.600000000093","","","","","","","","","","","","","","","","","","","","",""
"","","","","","html-keyboard-response","26","67723","0.0-2.0-2.0-0.11","60430fc782b5752a7ae8d797","A3","batch1","spm_show_trial_num","null","<p class=block-text>Trial 12 out of 60</p>","null","","","","","","","","","","","","","","","","","","","","","","","","","",""
"","","","","","image-button-response","27","73744","0.0-2.0-2.0-1.11","60430fc782b5752a7ae8d797","A3","batch1","spm_respsonse","6018.5","img/question_1_12.jpeg","0","mat_12","5","0","0","6018.5","","","","","","","","","","","","","","","","","","","","",""
"","","","","","html-keyboard-response","28","74808","0.0-2.0-2.0-0.12","60430fc782b5752a7ae8d797","A3","batch1","spm_show_trial_num","null","<p class=block-text>Trial 13 out of 60</p>","null","","","","","","","","","","","","","","","","","","","","","","","","","",""
"","","","","","image-button-response","29","76740","0.0-2.0-2.0-1.12","60430fc782b5752a7ae8d797","A3","batch1","spm_respsonse","1928.5","img/question_2_1.jpeg","1","mat_13","2","1","1","1928.5","","","","","","","","","","","","","","","","","","","","",""
"","","","","","html-keyboard-response","30","77806","0.0-2.0-2.0-0.13","60430fc782b5752a7ae8d797","A3","batch1","spm_show_trial_num","null","<p class=block-text>Trial 14 out of 60</p>","null","","","","","","","","","","","","","","","","","","","","","","","","","",""
"","","","","","image-button-response","31","83367","0.0-2.0-2.0-1.13","60430fc782b5752a7ae8d797","A3","batch1","spm_respsonse","5557.899999999907","img/question_2_2.jpeg","5","mat_14","6","1","1","5557.899999999907","","","","","","","","","","","","","","","","","","","","",""
"","","","","","html-keyboard-response","32","84420","0.0-2.0-2.0-0.14","60430fc782b5752a7ae8d797","A3","batch1","spm_show_trial_num","null","<p class=block-text>Trial 15 out of 60</p>","null","","","","","","","","","","","","","","","","","","","","","","","","","",""
"","","","","","image-button-response","33","86723","0.0-2.0-2.0-1.14","60430fc782b5752a7ae8d797","A3","batch1","spm_respsonse","2299.600000000093","img/question_2_3.jpeg","0","mat_15","1","1","1","2299.600000000093","","","","","","","","","","","","","","","","","","","","",""
"","","","","","html-keyboard-response","34","87800","0.0-2.0-2.0-0.15","60430fc782b5752a7ae8d797","A3","batch1","spm_show_trial_num","null","<p class=block-text>Trial 16 out of 60</p>","null","","","","","","","","","","","","","","","","","","","","","","","","","",""
"","","","","","image-button-response","35","89949","0.0-2.0-2.0-1.15","60430fc782b5752a7ae8d797","A3","batch1","spm_respsonse","2144.8000000000466","img/question_2_4.jpeg","1","mat_16","2","1","1","2144.8000000000466","","","","","","","","","","","","","","","","","","","","",""
"","","","","","html-keyboard-response","36","91006","0.0-2.0-2.0-0.16","60430fc782b5752a7ae8d797","A3","batch1","spm_show_trial_num","null","<p class=block-text>Trial 17 out of 60</p>","null","","","","","","","","","","","","","","","","","","","","","","","","","",""
"","","","","","image-button-response","37","94876","0.0-2.0-2.0-1.16","60430fc782b5752a7ae8d797","A3","batch1","spm_respsonse","3868.7000000001863","img/question_2_5.jpeg","0","mat_17","1","1","1","3868.7000000001863","","","","","","","","","","","","","","","","","","","","",""
"","","","","","html-keyboard-response","38","95935","0.0-2.0-2.0-0.17","60430fc782b5752a7ae8d797","A3","batch1","spm_show_trial_num","null","<p class=block-text>Trial 18 out of 60</p>","null","","","","","","","","","","","","","","","","","","","","","","","","","",""
"","","","","","image-button-response","39","100878","0.0-2.0-2.0-1.17","60430fc782b5752a7ae8d797","A3","batch1","spm_respsonse","4938.300000000047","img/question_2_6.jpeg","2","mat_18","3","1","1","4938.300000000047","","","","","","","","","","","","","","","","","","","","",""
"","","","","","html-keyboard-response","40","101944","0.0-2.0-2.0-0.18","60430fc782b5752a7ae8d797","A3","batch1","spm_show_trial_num","null","<p class=block-text>Trial 19 out of 60</p>","null","","","","","","","","","","","","","","","","","","","","","","","","","",""
"","","","","","image-button-response","41","106571","0.0-2.0-2.0-1.18","60430fc782b5752a7ae8d797","A3","batch1","spm_respsonse","4624.199999999953","img/question_2_7.jpeg","4","mat_19","5","1","1","4624.199999999953","","","","","","","","","","","","","","","","","","","","",""
"","","","","","html-keyboard-response","42","107644","0.0-2.0-2.0-0.19","60430fc782b5752a7ae8d797","A3","batch1","spm_show_trial_num","null","<p class=block-text>Trial 20 out of 60</p>","null","","","","","","","","","","","","","","","","","","","","","","","","","",""
"","","","","","image-button-response","43","112560","0.0-2.0-2.0-1.19","60430fc782b5752a7ae8d797","A3","batch1","spm_respsonse","4913.399999999907","img/question_2_8.jpeg","5","mat_20","6","1","1","4913.399999999907","","","","","","","","","","","","","","","","","","","","",""
"","","","","","html-keyboard-response","44","113632","0.0-2.0-2.0-0.20","60430fc782b5752a7ae8d797","A3","batch1","spm_show_trial_num","null","<p class=block-text>Trial 21 out of 60</p>","null","","","","","","","","","","","","","","","","","","","","","","","","","",""
"","","","","","image-button-response","45","118880","0.0-2.0-2.0-1.20","60430fc782b5752a7ae8d797","A3","batch1","spm_respsonse","5244.300000000047","img/question_2_9.jpeg","3","mat_21","4","1","1","5244.300000000047","","","","","","","","","","","","","","","","","","","","",""
"","","","","","html-keyboard-response","46","119946","0.0-2.0-2.0-0.21","60430fc782b5752a7ae8d797","A3","batch1","spm_show_trial_num","null","<p class=block-text>Trial 22 out of 60</p>","null","","","","","","","","","","","","","","","","","","","","","","","","","",""
"","","","","","image-button-response","47","123691","0.0-2.0-2.0-1.21","60430fc782b5752a7ae8d797","A3","batch1","spm_respsonse","3741.4000000001397","img/question_2_10.jpeg","2","mat_22","3","1","1","3741.4000000001397","","","","","","","","","","","","","","","","","","","","",""
"","","","","","html-keyboard-response","48","124775","0.0-2.0-2.0-0.22","60430fc782b5752a7ae8d797","A3","batch1","spm_show_trial_num","null","<p class=block-text>Trial 23 out of 60</p>","null","","","","","","","","","","","","","","","","","","","","","","","","","",""
"","","","","","image-button-response","49","130114","0.0-2.0-2.0-1.22","60430fc782b5752a7ae8d797","A3","batch1","spm_respsonse","5335.600000000093","img/question_2_11.jpeg","3","mat_23","4","1","1","5335.600000000093","","","","","","","","","","","","","","","","","","","","",""
"","","","","","html-keyboard-response","50","131171","0.0-2.0-2.0-0.23","60430fc782b5752a7ae8d797","A3","batch1","spm_show_trial_num","null","<p class=block-text>Trial 24 out of 60</p>","null","","","","","","","","","","","","","","","","","","","","","","","","","",""
"","","","","","image-button-response","51","139642","0.0-2.0-2.0-1.23","60430fc782b5752a7ae8d797","A3","batch1","spm_respsonse","8466.90000000014","img/question_2_12.jpeg","4","mat_24","5","1","1","8466.90000000014","","","","","","","","","","","","","","","","","","","","",""
"","","","","","html-button-response","52","142057","0.0-2.0-3.0","60430fc782b5752a7ae8d797","A3","batch1","attention_check","2160.8000000000466","<p class = block-text>Attention check: Please choose 1<br></p>","0","","","true","","","","","","","","","","","","","","","","","","","","","","",""
"","","","","","html-keyboard-response","53","142867","0.0-2.0-4.0-0.0","60430fc782b5752a7ae8d797","A3","batch1","spm_show_trial_num","null","<p class=block-text>Trial 25 out of 60</p>","null","","","","","","","","","","","","","","","","","","","","","","","","","",""
"","","","","","image-button-response","54","146830","0.0-2.0-4.0-1.0","60430fc782b5752a7ae8d797","A3","batch1","spm_respsonse","3959.5","img/question_3_1.jpeg","7","mat_25","8","1","1","3959.5","","","","","","","","","","","","","","","","","","","","",""
"","","","","","html-keyboard-response","55","147898","0.0-2.0-4.0-0.1","60430fc782b5752a7ae8d797","A3","batch1","spm_show_trial_num","null","<p class=block-text>Trial 26 out of 60</p>","null","","","","","","","","","","","","","","","","","","","","","","","","","",""
"","","","","","image-button-response","56","152226","0.0-2.0-4.0-1.1","60430fc782b5752a7ae8d797","A3","batch1","spm_respsonse","4323.699999999953","img/question_3_2.jpeg","1","mat_26","2","1","1","4323.699999999953","","","","","","","","","","","","","","","","","","","","",""
"","","","","","html-keyboard-response","57","153286","0.0-2.0-4.0-0.2","60430fc782b5752a7ae8d797","A3","batch1","spm_show_trial_num","null","<p class=block-text>Trial 27 out of 60</p>","null","","","","","","","","","","","","","","","","","","","","","","","","","",""
"","","","","","image-button-response","58","169370","0.0-2.0-4.0-1.2","60430fc782b5752a7ae8d797","A3","batch1","spm_respsonse","16080.199999999953","img/question_3_3.jpeg","2","mat_27","3","1","1","16080.199999999953","","","","","","","","","","","","","","","","","","","","",""
"","","","","","html-keyboard-response","59","170432","0.0-2.0-4.0-0.3","60430fc782b5752a7ae8d797","A3","batch1","spm_show_trial_num","null","<p class=block-text>Trial 28 out of 60</p>","null","","","","","","","","","","","","","","","","","","","","","","","","","",""
"","","","","","image-button-response","60","178157","0.0-2.0-4.0-1.3","60430fc782b5752a7ae8d797","A3","batch1","spm_respsonse","7721.199999999953","img/question_3_4.jpeg","7","mat_28","8","1","1","7721.199999999953","","","","","","","","","","","","","","","","","","","","",""
"","","","","","html-keyboard-response","61","179229","0.0-2.0-4.0-0.4","60430fc782b5752a7ae8d797","A3","batch1","spm_show_trial_num","null","<p class=block-text>Trial 29 out of 60</p>","null","","","","","","","","","","","","","","","","","","","","","","","","","",""
"","","","","","image-button-response","62","184293","0.0-2.0-4.0-1.4","60430fc782b5752a7ae8d797","A3","batch1","spm_respsonse","5060.300000000047","img/question_3_5.jpeg","6","mat_29","7","1","1","5060.300000000047","","","","","","","","","","","","","","","","","","","","",""
"","","","","","html-keyboard-response","63","185375","0.0-2.0-4.0-0.5","60430fc782b5752a7ae8d797","A3","batch1","spm_show_trial_num","null","<p class=block-text>Trial 30 out of 60</p>","null","","","","","","","","","","","","","","","","","","","","","","","","","",""
"","","","","","image-button-response","64","192754","0.0-2.0-4.0-1.5","60430fc782b5752a7ae8d797","A3","batch1","spm_respsonse","7377.199999999953","img/question_3_6.jpeg","3","mat_30","4","1","1","7377.199999999953","","","","","","","","","","","","","","","","","","","","",""
"","","","","","html-keyboard-response","65","193823","0.0-2.0-4.0-0.6","60430fc782b5752a7ae8d797","A3","batch1","spm_show_trial_num","null","<p class=block-text>Trial 31 out of 60</p>","null","","","","","","","","","","","","","","","","","","","","","","","","","",""
"","","","","","image-button-response","66","205135","0.0-2.0-4.0-1.6","60430fc782b5752a7ae8d797","A3","batch1","spm_respsonse","11308.5","img/question_3_7.jpeg","4","mat_31","5","1","1","11308.5","","","","","","","","","","","","","","","","","","","","",""
"","","","","","html-keyboard-response","67","206198","0.0-2.0-4.0-0.7","60430fc782b5752a7ae8d797","A3","batch1","spm_show_trial_num","null","<p class=block-text>Trial 32 out of 60</p>","null","","","","","","","","","","","","","","","","","","","","","","","","","",""
"","","","","","image-button-response","68","219240","0.0-2.0-4.0-1.7","60430fc782b5752a7ae8d797","A3","batch1","spm_respsonse","13038.699999999953","img/question_3_8.jpeg","0","mat_32","1","1","1","13038.699999999953","","","","","","","","","","","","","","","","","","","","",""
"","","","","","html-keyboard-response","69","220310","0.0-2.0-4.0-0.8","60430fc782b5752a7ae8d797","A3","batch1","spm_show_trial_num","null","<p class=block-text>Trial 33 out of 60</p>","null","","","","","","","","","","","","","","","","","","","","","","","","","",""
"","","","","","image-button-response","70","225121","0.0-2.0-4.0-1.8","60430fc782b5752a7ae8d797","A3","batch1","spm_respsonse","4807.799999999814","img/question_3_9.jpeg","6","mat_33","7","1","1","4807.799999999814","","","","","","","","","","","","","","","","","","","","",""
"","","","","","html-keyboard-response","71","226196","0.0-2.0-4.0-0.9","60430fc782b5752a7ae8d797","A3","batch1","spm_show_trial_num","null","<p class=block-text>Trial 34 out of 60</p>","null","","","","","","","","","","","","","","","","","","","","","","","","","",""
"","","","","","image-button-response","72","236665","0.0-2.0-4.0-1.9","60430fc782b5752a7ae8d797","A3","batch1","spm_respsonse","10465.800000000047","img/question_3_10.jpeg","5","mat_34","6","1","1","10465.800000000047","","","","","","","","","","","","","","","","","","","","",""
"","","","","","html-keyboard-response","73","237743","0.0-2.0-4.0-0.10","60430fc782b5752a7ae8d797","A3","batch1","spm_show_trial_num","null","<p class=block-text>Trial 35 out of 60</p>","null","","","","","","","","","","","","","","","","","","","","","","","","","",""
"","","","","","image-button-response","74","252586","0.0-2.0-4.0-1.10","60430fc782b5752a7ae8d797","A3","batch1","spm_respsonse","14840.100000000093","img/question_3_11.jpeg","0","mat_35","1","1","1","14840.100000000093","","","","","","","","","","","","","","","","","","","","",""
"","","","","","html-keyboard-response","75","253654","0.0-2.0-4.0-0.11","60430fc782b5752a7ae8d797","A3","batch1","spm_show_trial_num","null","<p class=block-text>Trial 36 out of 60</p>","null","","","","","","","","","","","","","","","","","","","","","","","","","",""
"","","","","","image-button-response","76","268691","0.0-2.0-4.0-1.11","60430fc782b5752a7ae8d797","A3","batch1","spm_respsonse","15032.5","img/question_3_12.jpeg","1","mat_36","2","1","1","15032.5","","","","","","","","","","","","","","","","","","","","",""
"","","","","","html-keyboard-response","77","269754","0.0-2.0-4.0-0.12","60430fc782b5752a7ae8d797","A3","batch1","spm_show_trial_num","null","<p class=block-text>Trial 37 out of 60</p>","null","","","","","","","","","","","","","","","","","","","","","","","","","",""
"","","","","","image-button-response","78","273127","0.0-2.0-4.0-1.12","60430fc782b5752a7ae8d797","A3","batch1","spm_respsonse","3368.600000000093","img/question_4_1.jpeg","2","mat_37","3","1","1","3368.600000000093","","","","","","","","","","","","","","","","","","","","",""
"","","","","","html-keyboard-response","79","274203","0.0-2.0-4.0-0.13","60430fc782b5752a7ae8d797","A3","batch1","spm_show_trial_num","null","<p class=block-text>Trial 38 out of 60</p>","null","","","","","","","","","","","","","","","","","","","","","","","","","",""
"","","","","","image-button-response","80","278004","0.0-2.0-4.0-1.13","60430fc782b5752a7ae8d797","A3","batch1","spm_respsonse","3797","img/question_4_2.jpeg","3","mat_38","4","1","1","3797","","","","","","","","","","","","","","","","","","","","",""
"","","","","","html-keyboard-response","81","279057","0.0-2.0-4.0-0.14","60430fc782b5752a7ae8d797","A3","batch1","spm_show_trial_num","null","<p class=block-text>Trial 39 out of 60</p>","null","","","","","","","","","","","","","","","","","","","","","","","","","",""
"","","","","","image-button-response","82","284961","0.0-2.0-4.0-1.14","60430fc782b5752a7ae8d797","A3","batch1","spm_respsonse","5899.699999999953","img/question_4_3.jpeg","2","mat_39","3","1","1","5899.699999999953","","","","","","","","","","","","","","","","","","","","",""
"","","","","","html-keyboard-response","83","286031","0.0-2.0-4.0-0.15","60430fc782b5752a7ae8d797","A3","batch1","spm_show_trial_num","null","<p class=block-text>Trial 40 out of 60</p>","null","","","","","","","","","","","","","","","","","","","","","","","","","",""
"","","","","","image-button-response","84","290665","0.0-2.0-4.0-1.15","60430fc782b5752a7ae8d797","A3","batch1","spm_respsonse","4631","img/question_4_4.jpeg","6","mat_40","7","1","1","4631","","","","","","","","","","","","","","","","","","","","",""
"","","","","","html-keyboard-response","85","291735","0.0-2.0-4.0-0.16","60430fc782b5752a7ae8d797","A3","batch1","spm_show_trial_num","null","<p class=block-text>Trial 41 out of 60</p>","null","","","","","","","","","","","","","","","","","","","","","","","","","",""
"","","","","","image-button-response","86","297075","0.0-2.0-4.0-1.16","60430fc782b5752a7ae8d797","A3","batch1","spm_respsonse","5335.5","img/question_4_5.jpeg","7","mat_41","8","1","1","5335.5","","","","","","","","","","","","","","","","","","","","",""
"","","","","","html-keyboard-response","87","298140","0.0-2.0-4.0-0.17","60430fc782b5752a7ae8d797","A3","batch1","spm_show_trial_num","null","<p class=block-text>Trial 42 out of 60</p>","null","","","","","","","","","","","","","","","","","","","","","","","","","",""
"","","","","","image-button-response","88","306446","0.0-2.0-4.0-1.17","60430fc782b5752a7ae8d797","A3","batch1","spm_respsonse","8301.5","img/question_4_6.jpeg","5","mat_42","6","1","1","8301.5","","","","","","","","","","","","","","","","","","","","",""
"","","","","","html-keyboard-response","89","307513","0.0-2.0-4.0-0.18","60430fc782b5752a7ae8d797","A3","batch1","spm_show_trial_num","null","<p class=block-text>Trial 43 out of 60</p>","null","","","","","","","","","","","","","","","","","","","","","","","","","",""
"","","","","","image-button-response","90","315935","0.0-2.0-4.0-1.18","60430fc782b5752a7ae8d797","A3","batch1","spm_respsonse","8419","img/question_4_7.jpeg","4","mat_43","5","1","1","8419","","","","","","","","","","","","","","","","","","","","",""
"","","","","","html-keyboard-response","91","317011","0.0-2.0-4.0-0.19","60430fc782b5752a7ae8d797","A3","batch1","spm_show_trial_num","null","<p class=block-text>Trial 44 out of 60</p>","null","","","","","","","","","","","","","","","","","","","","","","","","","",""
"","","","","","image-button-response","92","322781","0.0-2.0-4.0-1.19","60430fc782b5752a7ae8d797","A3","batch1","spm_respsonse","5764.800000000047","img/question_4_8.jpeg","3","mat_44","4","1","1","5764.800000000047","","","","","","","","","","","","","","","","","","","","",""
"","","","","","html-keyboard-response","93","323852","0.0-2.0-4.0-0.20","60430fc782b5752a7ae8d797","A3","batch1","spm_show_trial_num","null","<p class=block-text>Trial 45 out of 60</p>","null","","","","","","","","","","","","","","","","","","","","","","","","","",""
"","","","","","image-button-response","94","338718","0.0-2.0-4.0-1.20","60430fc782b5752a7ae8d797","A3","batch1","spm_respsonse","14862","img/question_4_9.jpeg","3","mat_45","1","0","0","14862","","","","","","","","","","","","","","","","","","","","",""
"","","","","","html-keyboard-response","95","339788","0.0-2.0-4.0-0.21","60430fc782b5752a7ae8d797","A3","batch1","spm_show_trial_num","null","<p class=block-text>Trial 46 out of 60</p>","null","","","","","","","","","","","","","","","","","","","","","","","","","",""
"","","","","","image-button-response","96","354354","0.0-2.0-4.0-1.21","60430fc782b5752a7ae8d797","A3","batch1","spm_respsonse","14562.600000000093","img/question_4_10.jpeg","1","mat_46","2","1","1","14562.600000000093","","","","","","","","","","","","","","","","","","","","",""
"","","","","","html-keyboard-response","97","355414","0.0-2.0-4.0-0.22","60430fc782b5752a7ae8d797","A3","batch1","spm_show_trial_num","null","<p class=block-text>Trial 47 out of 60</p>","null","","","","","","","","","","","","","","","","","","","","","","","","","",""
"","","","","","image-button-response","98","375203","0.0-2.0-4.0-1.22","60430fc782b5752a7ae8d797","A3","batch1","spm_respsonse","19787.199999999953","img/question_4_11.jpeg","7","mat_47","5","0","0","19787.199999999953","","","","","","","","","","","","","","","","","","","","",""
"","","","","","html-keyboard-response","99","376260","0.0-2.0-4.0-0.23","60430fc782b5752a7ae8d797","A3","batch1","spm_show_trial_num","null","<p class=block-text>Trial 48 out of 60</p>","null","","","","","","","","","","","","","","","","","","","","","","","","","",""
"","","","","","image-button-response","100","388637","0.0-2.0-4.0-1.23","60430fc782b5752a7ae8d797","A3","batch1","spm_respsonse","12374.800000000047","img/question_4_12.jpeg","7","mat_48","6","0","0","12374.800000000047","","","","","","","","","","","","","","","","","","","","",""
"","","","","","html-keyboard-response","101","389710","0.0-2.0-4.0-0.24","60430fc782b5752a7ae8d797","A3","batch1","spm_show_trial_num","null","<p class=block-text>Trial 49 out of 60</p>","null","","","","","","","","","","","","","","","","","","","","","","","","","",""
"","","","","","image-button-response","102","401514","0.0-2.0-4.0-1.24","60430fc782b5752a7ae8d797","A3","batch1","spm_respsonse","11800.100000000093","img/question_5_1.jpeg","6","mat_49","7","1","1","11800.100000000093","","","","","","","","","","","","","","","","","","","","",""
"","","","","","html-keyboard-response","103","402581","0.0-2.0-4.0-0.25","60430fc782b5752a7ae8d797","A3","batch1","spm_show_trial_num","null","<p class=block-text>Trial 50 out of 60</p>","null","","","","","","","","","","","","","","","","","","","","","","","","","",""
"","","","","","image-button-response","104","424440","0.0-2.0-4.0-1.25","60430fc782b5752a7ae8d797","A3","batch1","spm_respsonse","21855.600000000093","img/question_5_2.jpeg","2","mat_50","6","0","0","21855.600000000093","","","","","","","","","","","","","","","","","","","","",""
"","","","","","html-keyboard-response","105","425503","0.0-2.0-4.0-0.26","60430fc782b5752a7ae8d797","A3","batch1","spm_show_trial_num","null","<p class=block-text>Trial 51 out of 60</p>","null","","","","","","","","","","","","","","","","","","","","","","","","","",""
"","","","","","image-button-response","106","445012","0.0-2.0-4.0-1.26","60430fc782b5752a7ae8d797","A3","batch1","spm_respsonse","19507.399999999907","img/question_5_3.jpeg","7","mat_51","8","1","1","19507.399999999907","","","","","","","","","","","","","","","","","","","","",""
"","","","","","html-keyboard-response","107","446082","0.0-2.0-4.0-0.27","60430fc782b5752a7ae8d797","A3","batch1","spm_show_trial_num","null","<p class=block-text>Trial 52 out of 60</p>","null","","","","","","","","","","","","","","","","","","","","","","","","","",""
"","","","","","image-button-response","108","460420","0.0-2.0-4.0-1.27","60430fc782b5752a7ae8d797","A3","batch1","spm_respsonse","14333.899999999907","img/question_5_4.jpeg","1","mat_52","2","1","1","14333.899999999907","","","","","","","","","","","","","","","","","","","","",""
"","","","","","html-keyboard-response","109","461477","0.0-2.0-4.0-0.28","60430fc782b5752a7ae8d797","A3","batch1","spm_show_trial_num","null","<p class=block-text>Trial 53 out of 60</p>","null","","","","","","","","","","","","","","","","","","","","","","","","","",""
"","","","","","image-button-response","110","467172","0.0-2.0-4.0-1.28","60430fc782b5752a7ae8d797","A3","batch1","spm_respsonse","5691.5","img/question_5_5.jpeg","6","mat_53","1","0","0","5691.5","","","","","","","","","","","","","","","","","","","","",""
"","","","","","html-keyboard-response","111","468237","0.0-2.0-4.0-0.29","60430fc782b5752a7ae8d797","A3","batch1","spm_show_trial_num","null","<p class=block-text>Trial 54 out of 60</p>","null","","","","","","","","","","","","","","","","","","","","","","","","","",""
"","","","","","image-button-response","112","479578","0.0-2.0-4.0-1.29","60430fc782b5752a7ae8d797","A3","batch1","spm_respsonse","11336.299999999814","img/question_5_6.jpeg","7","mat_54","5","0","0","11336.299999999814","","","","","","","","","","","","","","","","","","","","",""
"","","","","","html-keyboard-response","113","480654","0.0-2.0-4.0-0.30","60430fc782b5752a7ae8d797","A3","batch1","spm_show_trial_num","null","<p class=block-text>Trial 55 out of 60</p>","null","","","","","","","","","","","","","","","","","","","","","","","","","",""
"","","","","","image-button-response","114","497105","0.0-2.0-4.0-1.30","60430fc782b5752a7ae8d797","A3","batch1","spm_respsonse","16447.299999999814","img/question_5_7.jpeg","3","mat_55","1","0","0","16447.299999999814","","","","","","","","","","","","","","","","","","","","",""
"","","","","","html-keyboard-response","115","498170","0.0-2.0-4.0-0.31","60430fc782b5752a7ae8d797","A3","batch1","spm_show_trial_num","null","<p class=block-text>Trial 56 out of 60</p>","null","","","","","","","","","","","","","","","","","","","","","","","","","",""
"","","","","","image-button-response","116","509631","0.0-2.0-4.0-1.31","60430fc782b5752a7ae8d797","A3","batch1","spm_respsonse","11455.799999999814","img/question_5_8.jpeg","5","mat_56","6","1","1","11455.799999999814","","","","","","","","","","","","","","","","","","","","",""
"","","","","","html-keyboard-response","117","510688","0.0-2.0-4.0-0.32","60430fc782b5752a7ae8d797","A3","batch1","spm_show_trial_num","null","<p class=block-text>Trial 57 out of 60</p>","null","","","","","","","","","","","","","","","","","","","","","","","","","",""
"","","","","","image-button-response","118","519567","0.0-2.0-4.0-1.32","60430fc782b5752a7ae8d797","A3","batch1","spm_respsonse","8873.700000000186","img/question_5_9.jpeg","7","mat_57","3","0","0","8873.700000000186","","","","","","","","","","","","","","","","","","","","",""
"","","","","","html-keyboard-response","119","520622","0.0-2.0-4.0-0.33","60430fc782b5752a7ae8d797","A3","batch1","spm_show_trial_num","null","<p class=block-text>Trial 58 out of 60</p>","null","","","","","","","","","","","","","","","","","","","","","","","","","",""
"","","","","","image-button-response","120","537518","0.0-2.0-4.0-1.33","60430fc782b5752a7ae8d797","A3","batch1","spm_respsonse","16891.299999999814","img/question_5_10.jpeg","2","mat_58","2","0","0","16891.299999999814","","","","","","","","","","","","","","","","","","","","",""
"","","","","","html-keyboard-response","121","538591","0.0-2.0-4.0-0.34","60430fc782b5752a7ae8d797","A3","batch1","spm_show_trial_num","null","<p class=block-text>Trial 59 out of 60</p>","null","","","","","","","","","","","","","","","","","","","","","","","","","",""
"","","","","","image-button-response","122","551066","0.0-2.0-4.0-1.34","60430fc782b5752a7ae8d797","A3","batch1","spm_respsonse","12471.100000000093","img/question_5_11.jpeg","1","mat_59","4","0","0","12471.100000000093","","","","","","","","","","","","","","","","","","","","",""
"","","","","","html-keyboard-response","123","552139","0.0-2.0-4.0-0.35","60430fc782b5752a7ae8d797","A3","batch1","spm_show_trial_num","null","<p class=block-text>Trial 60 out of 60</p>","null","","","","","","","","","","","","","","","","","","","","","","","","","",""
"","","","","","image-button-response","124","555654","0.0-2.0-4.0-1.35","60430fc782b5752a7ae8d797","A3","batch1","spm_respsonse","3510.9000000003725","img/question_5_12.jpeg","2","mat_60","5","0","0","3510.9000000003725","","","","","","","","","","","","","","","","","","","","",""
"","","","","","html-button-response","125","558964","0.0-2.0-5.0","60430fc782b5752a7ae8d797","A3","batch1","spm_goodbye","3045.1999999997206","<p class= block-text>This concludes the Standard Progressive Matrix game. Thank you for your responses!<br> When you are ready, click the button continue</p>","0","","","","","","","","","","","","","","","","","","","","","","","","","",""
"true","","","","","fullscreen","126","561096","0.0-3.0-0.0","60430fc782b5752a7ae8d797","A3","batch1","","","","","","","","","","","","","","","","","","","","","","","","","","","","","",""
"","","","","","instructions","127","587308","0.0-3.0-1.0-0.0-0.0","60430fc782b5752a7ae8d797","A3","batch1","tol-instructions","26213.299999999814","","","","","","","","[{""page_index"":0,""viewing_time"":6110.600000000093},{""page_index"":1,""viewing_time"":4363},{""page_index"":2,""viewing_time"":2297.7999999998137},{""page_index"":3,""viewing_time"":4104.800000000279},{""page_index"":4,""viewing_time"":1882.0999999996275},{""page_index"":5,""viewing_time"":5750.200000000186},{""page_index"":6,""viewing_time"":1704.5}]","","","","","","","","","","","","","","","","","","","",""
"","","","","","html-button-response","128","588171","0.0-3.0-1.0-1.0-0.0","60430fc782b5752a7ae8d797","A3","batch1","tol_enter_quiz","862.3000000002794","<p class=block-text> Let's answer a few questions <br>","0","","","","","","","","","","","","","","","","","","","","","","","","","",""
"","","","","","html-button-response","129","591682","0.0-3.0-1.0-1.0-1.0","60430fc782b5752a7ae8d797","A3","batch1","tol_quiz","3509.899999999907","<p class = block-text>True or False: You can only move the ball on top of a peg. <br></p>","0","","","true","","","","","","","","","","","","","","","","","","","","","","",""
"","","","","","html-button-response","130","592756","0.0-3.0-1.0-1.0-2.0","60430fc782b5752a7ae8d797","A3","batch1","tol_quiz_feedback","1072.7000000001863","<p class = block-text>Correct! You can only move the ball on top of a peg.</p>","0","","","","","","","","","","","","","","","","","","","","","","","","","",""
"","","","","","html-button-response","131","594976","0.0-3.0-1.0-1.0-3.0","60430fc782b5752a7ae8d797","A3","batch1","tol_quiz","2218.7000000001863","<p class = block-text>True or False: You should try to match your board with the target board with fewest moves possible. <br></p>","0","","","true","","","","","","","","","","","","","","","","","","","","","","",""
"","","","","","html-button-response","132","595549","0.0-3.0-1.0-1.0-4.0","60430fc782b5752a7ae8d797","A3","batch1","tol_quiz_feedback","572.5","<p class = block-text>Correct! </p>","0","","","","","","","","","","","","","","","","","","","","","","","","","",""
"","","","","","html-button-response","133","596552","0.0-3.0-2.0","60430fc782b5752a7ae8d797","A3","batch1","","1001.6000000000931","<p class=block-text> Now that you've understood the game, let's practice a few easier examples before we start!<br> <br>","0","","","","","","","","","","","","","","","","","","","","","","","","","",""
"","","","","","single-stim-button","134","599122","0.0-3.0-3.0-0.0","60430fc782b5752a7ae8d797","A3","batch1","tol_practice","2568","","","","","","","","","tol_peg_2","2568","2568","0","[[1,2,0],[0,0],[0]]","1","[[1,2,0],[0,0],[3]]","practice","2568","","","","","","","","","","",""
"","","","","","single-stim-button","135","599797","0.0-3.0-3.0-1.0","60430fc782b5752a7ae8d797","A3","batch1","tol_practice","675","","","","","","","","","tol_peg_3","675","675","0","[[1,2,0],[0,0],[3]]","1","[[1,2,0],[0,0],[3]]","practice","675","","","","","","","","","","",""
"","","","","","poldrack-single-stim","136","600811","0.0-3.0-4.0","60430fc782b5752a7ae8d797","A3","batch1","tol_feedback","-1","","","","","true","","","","","1000","1000","500","","","","","","-1","none","true","","0","","","","","",""
"","","","","","single-stim-button","137","605227","0.0-3.0-5.0-0.0","60430fc782b5752a7ae8d797","A3","batch1","tol_practice","4415","","","","","","","","","tol_peg_1","4415","4415","0","[[1,0,0],[3,0],[0]]","2","[[0,0,0],[3,1],[2]]","practice","4415","","","","","","","","","","",""
"","","","","","single-stim-button","138","605700","0.0-3.0-5.0-1.0","60430fc782b5752a7ae8d797","A3","batch1","tol_practice","473","","","","","","","","","tol_peg_3","473","473","0","[[1,0,0],[3,0],[2]]","2","[[0,0,0],[3,1],[2]]","practice","473","","","","","","","","","","",""
"","","","","","single-stim-button","139","606146","0.0-3.0-5.1-0.1","60430fc782b5752a7ae8d797","A3","batch1","tol_practice","445","","","","","","","","","tol_peg_1","445","445","0","[[0,0,0],[3,0],[2]]","3","[[0,0,0],[3,1],[2]]","practice","445","","","","","","","","","","",""
"","","","","","single-stim-button","140","606557","0.0-3.0-5.1-1.1","60430fc782b5752a7ae8d797","A3","batch1","tol_practice","410","","","","","","","","","tol_peg_2","410","410","0","[[0,0,0],[3,1],[2]]","3","[[0,0,0],[3,1],[2]]","practice","410","","","","","","","","","","",""
"","","","","","poldrack-single-stim","141","607561","0.0-3.0-6.0","60430fc782b5752a7ae8d797","A3","batch1","tol_feedback","-1","","","","","true","","","","","1000","1000","500","","","","","","-1","none","true","","0","","","","","",""
"","","","","","single-stim-button","142","609828","0.0-3.0-7.0-0.0","60430fc782b5752a7ae8d797","A3","batch1","tol_practice","2264","","","","","","","","","tol_peg_2","2264","2264","0","[[1,2,0],[0,0],[0]]","4","[[1,0,0],[2,0],[3]]","practice","2264","","","","","","","","","","",""
"","","","","","single-stim-button","143","610554","0.0-3.0-7.0-1.0","60430fc782b5752a7ae8d797","A3","batch1","tol_practice","725","","","","","","","","","tol_peg_3","725","725","0","[[1,2,0],[0,0],[3]]","4","[[1,0,0],[2,0],[3]]","practice","725","","","","","","","","","","",""
"","","","","","single-stim-button","144","610969","0.0-3.0-7.1-0.1","60430fc782b5752a7ae8d797","A3","batch1","tol_practice","415","","","","","","","","","tol_peg_1","415","415","0","[[1,0,0],[0,0],[3]]","5","[[1,0,0],[2,0],[3]]","practice","415","","","","","","","","","","",""
"","","","","","single-stim-button","145","611275","0.0-3.0-7.1-1.1","60430fc782b5752a7ae8d797","A3","batch1","tol_practice","305","","","","","","","","","tol_peg_2","305","305","0","[[1,0,0],[2,0],[3]]","5","[[1,0,0],[2,0],[3]]","practice","305","","","","","","","","","","",""
"","","","","","poldrack-single-stim","146","612291","0.0-3.0-8.0","60430fc782b5752a7ae8d797","A3","batch1","tol_feedback","-1","","","","","true","","","","","1000","1000","500","","","","","","-1","none","true","","0","","","","","",""
"","","","","","html-button-response","147","613577","0.0-3.0-9.0","60430fc782b5752a7ae8d797","A3","batch1","tol_instruction","1284.8999999999069","<div class = centerbox><p class = center-block-text>Great job! You are done with practice trials<br>You are about to start official trials.<br> <br> Problem <strong>1</strong> out of 25 problems</p></div>","0","","","","","","","","","","","","","","","","","","","","","","","","","",""
"","","","","","single-stim-button","148","617395","0.0-3.0-10.0-0.0","60430fc782b5752a7ae8d797","A3","batch1","tol_tohand","2812","","","","","","","","","tol_peg_2","2812","2812","0","[[1,2,0],[0,0],[0]]","1","[[1,3,0],[2,0],[0]]","0","0","","","","","","3","","","","",""
"","","","","","single-stim-button","149","619117","0.0-3.0-10.0-1.0","60430fc782b5752a7ae8d797","A3","batch1","tol_toboard","1721","","","","","","","","","tol_peg_3","1721","1721","0","[[1,2,0],[0,0],[3]]","1","[[1,3,0],[2,0],[0]]","0","0","","","","","","3","","","","",""
"","","","","","single-stim-button","150","619546","0.0-3.0-10.1-0.1","60430fc782b5752a7ae8d797","A3","batch1","tol_tohand","428","","","","","","","","","tol_peg_1","428","428","0","[[1,0,0],[0,0],[3]]","2","[[1,3,0],[2,0],[0]]","0","0","","","","","","3","","","","",""
"","","","","","single-stim-button","151","619891","0.0-3.0-10.1-1.1","60430fc782b5752a7ae8d797","A3","batch1","tol_toboard","343","","","","","","","","","tol_peg_2","343","343","0","[[1,0,0],[2,0],[3]]","2","[[1,3,0],[2,0],[0]]","0","0","","","","","","3","","","","",""
"","","","","","single-stim-button","152","620576","0.0-3.0-10.2-0.2","60430fc782b5752a7ae8d797","A3","batch1","tol_tohand","684","","","","","","","","","tol_peg_3","684","684","0","[[1,0,0],[2,0],[0]]","3","[[1,3,0],[2,0],[0]]","0","0","","","","","","3","","","","",""
"","","","","","single-stim-button","153","621076","0.0-3.0-10.2-1.2","60430fc782b5752a7ae8d797","A3","batch1","tol_toboard","499","","","","","","","","","tol_peg_1","499","499","0","[[1,3,0],[2,0],[0]]","3","[[1,3,0],[2,0],[0]]","0","0","","","","","","3","","","","",""
"","","","","","poldrack-single-stim","154","622086","0.0-3.0-11.0","60430fc782b5752a7ae8d797","A3","batch1","tol_feedback","-1","","","","","true","","","","","1000","1000","500","","","","","","-1","none","true","2812","3924","","","","","",""
"","","","","","html-button-response","155","622803","0.0-3.0-12.0","60430fc782b5752a7ae8d797","A3","batch1","tol_trial_num","715.2000000001863","<div class = centerbox><p class = center-block-text>problem <strong>2</strong> out of 25 problems</p></div>","0","","","","","","","","","","","","","","","","","","","","","","","","","",""
"","","","","","single-stim-button","156","625852","0.0-3.0-13.0-0.0","60430fc782b5752a7ae8d797","A3","batch1","tol_tohand","3049","","","","","","","","","tol_peg_1","3049","3049","0","[[1,0,0],[3,0],[0]]","1","[[2,1,3],[0,0],[0]]","1","0","","","","","","5","","","","",""
"","","","","","single-stim-button","157","627848","0.0-3.0-13.0-1.0","60430fc782b5752a7ae8d797","A3","batch1","tol_toboard","1994","","","","","","","","","tol_peg_3","1994","1994","0","[[1,0,0],[3,0],[2]]","1","[[2,1,3],[0,0],[0]]","1","0","","","","","","5","","","","",""
"","","","","","single-stim-button","158","629319","0.0-3.0-13.1-0.1","60430fc782b5752a7ae8d797","A3","batch1","tol_tohand","1470","","","","","","","","","tol_peg_1","1470","1470","0","[[0,0,0],[3,0],[2]]","2","[[2,1,3],[0,0],[0]]","1","0","","","","","","5","","","","",""
"","","","","","single-stim-button","159","629767","0.0-3.0-13.1-1.1","60430fc782b5752a7ae8d797","A3","batch1","tol_toboard","446","","","","","","","","","tol_peg_2","446","446","0","[[0,0,0],[3,1],[2]]","2","[[2,1,3],[0,0],[0]]","1","0","","","","","","5","","","","",""
"","","","","","single-stim-button","160","630127","0.0-3.0-13.2-0.2","60430fc782b5752a7ae8d797","A3","batch1","tol_tohand","360","","","","","","","","","tol_peg_3","360","360","0","[[0,0,0],[3,1],[0]]","3","[[2,1,3],[0,0],[0]]","1","0","","","","","","5","","","","",""
"","","","","","single-stim-button","161","630552","0.0-3.0-13.2-1.2","60430fc782b5752a7ae8d797","A3","batch1","tol_toboard","424","","","","","","","","","tol_peg_1","424","424","0","[[2,0,0],[3,1],[0]]","3","[[2,1,3],[0,0],[0]]","1","0","","","","","","5","","","","",""
"","","","","","single-stim-button","162","631223","0.0-3.0-13.3-0.3","60430fc782b5752a7ae8d797","A3","batch1","tol_tohand","669","","","","","","","","","tol_peg_2","669","669","0","[[2,0,0],[3,0],[0]]","4","[[2,1,3],[0,0],[0]]","1","0","","","","","","5","","","","",""
"","","","","","single-stim-button","163","631536","0.0-3.0-13.3-1.3","60430fc782b5752a7ae8d797","A3","batch1","tol_toboard","313","","","","","","","","","tol_peg_1","313","313","0","[[2,1,0],[3,0],[0]]","4","[[2,1,3],[0,0],[0]]","1","0","","","","","","5","","","","",""
"","","","","","single-stim-button","164","631871","0.0-3.0-13.4-0.4","60430fc782b5752a7ae8d797","A3","batch1","tol_tohand","335","","","","","","","","","tol_peg_2","335","335","0","[[2,1,0],[0,0],[0]]","5","[[2,1,3],[0,0],[0]]","1","0","","","","","","5","","","","",""
"","","","","","single-stim-button","165","632160","0.0-3.0-13.4-1.4","60430fc782b5752a7ae8d797","A3","batch1","tol_toboard","287","","","","","","","","","tol_peg_1","287","287","0","[[2,1,3],[0,0],[0]]","5","[[2,1,3],[0,0],[0]]","1","0","","","","","","5","","","","",""
"","","","","","poldrack-single-stim","166","633166","0.0-3.0-14.0","60430fc782b5752a7ae8d797","A3","batch1","tol_feedback","-1","","","","","true","","","","","1000","1000","500","","","","","","-1","none","true","3049","5883","","","","","",""
"","","","","","html-button-response","167","633860","0.0-3.0-15.0","60430fc782b5752a7ae8d797","A3","batch1","tol_trial_num","691.8000000002794","<div class = centerbox><p class = center-block-text>problem <strong>3</strong> out of 25 problems</p></div>","0","","","","","","","","","","","","","","","","","","","","","","","","","",""
"","","","","","single-stim-button","168","636112","0.0-3.0-16.0-0.0","60430fc782b5752a7ae8d797","A3","batch1","tol_tohand","2252","","","","","","","","","tol_peg_1","2252","2252","0","[[2,0,0],[0,0],[1]]","1","[[1,2,0],[3,0],[0]]","2","0","","","","","","4","","","","",""
"","","","","","single-stim-button","169","636548","0.0-3.0-16.0-1.0","60430fc782b5752a7ae8d797","A3","batch1","tol_toboard","436","","","","","","","","","tol_peg_2","436","436","0","[[2,0,0],[3,0],[1]]","1","[[1,2,0],[3,0],[0]]","2","0","","","","","","4","","","","",""
"","","","","","single-stim-button","170","638344","0.0-3.0-16.1-0.1","60430fc782b5752a7ae8d797","A3","batch1","tol_tohand","1795","","","","","","","","","tol_peg_1","1795","1795","0","[[0,0,0],[3,0],[1]]","2","[[1,2,0],[3,0],[0]]","2","0","","","","","","4","","","","",""
"","","","","","single-stim-button","171","638882","0.0-3.0-16.1-1.1","60430fc782b5752a7ae8d797","A3","batch1","tol_toboard","538","","","","","","","","","tol_peg_2","538","538","0","[[0,0,0],[3,2],[1]]","2","[[1,2,0],[3,0],[0]]","2","0","","","","","","4","","","","",""
"","","","","","single-stim-button","172","639383","0.0-3.0-16.2-0.2","60430fc782b5752a7ae8d797","A3","batch1","tol_tohand","499","","","","","","","","","tol_peg_3","499","499","0","[[0,0,0],[3,2],[0]]","3","[[1,2,0],[3,0],[0]]","2","0","","","","","","4","","","","",""
"","","","","","single-stim-button","173","639792","0.0-3.0-16.2-1.2","60430fc782b5752a7ae8d797","A3","batch1","tol_toboard","409","","","","","","","","","tol_peg_1","409","409","0","[[1,0,0],[3,2],[0]]","3","[[1,2,0],[3,0],[0]]","2","0","","","","","","4","","","","",""
"","","","","","single-stim-button","174","640116","0.0-3.0-16.3-0.3","60430fc782b5752a7ae8d797","A3","batch1","tol_tohand","323","","","","","","","","","tol_peg_2","323","323","0","[[1,0,0],[3,0],[0]]","4","[[1,2,0],[3,0],[0]]","2","0","","","","","","4","","","","",""
"","","","","","single-stim-button","175","640377","0.0-3.0-16.3-1.3","60430fc782b5752a7ae8d797","A3","batch1","tol_toboard","260","","","","","","","","","tol_peg_1","260","260","0","[[1,2,0],[3,0],[0]]","4","[[1,2,0],[3,0],[0]]","2","0","","","","","","4","","","","",""
"","","","","","poldrack-single-stim","176","641389","0.0-3.0-17.0","60430fc782b5752a7ae8d797","A3","batch1","tol_feedback","-1","","","","","true","","","","","1000","1000","500","","","","","","-1","none","true","2252","4869","","","","","",""
"","","","","","html-button-response","177","642102","0.0-3.0-18.0","60430fc782b5752a7ae8d797","A3","batch1","tol_trial_num","710.7000000001863","<div class = centerbox><p class = center-block-text>problem <strong>4</strong> out of 25 problems</p></div>","0","","","","","","","","","","","","","","","","","","","","","","","","","",""
"","","","","","single-stim-button","178","644028","0.0-3.0-19.0-0.0","60430fc782b5752a7ae8d797","A3","batch1","tol_tohand","1925","","","","","","","","","tol_peg_2","1925","1925","0","[[3,0,0],[2,0],[0]]","1","[[3,0,0],[1,0],[2]]","3","0","","","","","","3","","","","",""
"","","","","","single-stim-button","179","644385","0.0-3.0-19.0-1.0","60430fc782b5752a7ae8d797","A3","batch1","tol_toboard","355","","","","","","","","","tol_peg_1","355","355","0","[[3,1,0],[2,0],[0]]","1","[[3,0,0],[1,0],[2]]","3","0","","","","","","3","","","","",""
"","","","","","single-stim-button","180","644745","0.0-3.0-19.1-0.1","60430fc782b5752a7ae8d797","A3","batch1","tol_tohand","360","","","","","","","","","tol_peg_2","360","360","0","[[3,1,0],[0,0],[0]]","2","[[3,0,0],[1,0],[2]]","3","0","","","","","","3","","","","",""
"","","","","","single-stim-button","181","645117","0.0-3.0-19.1-1.1","60430fc782b5752a7ae8d797","A3","batch1","tol_toboard","371","","","","","","","","","tol_peg_3","371","371","0","[[3,1,0],[0,0],[2]]","2","[[3,0,0],[1,0],[2]]","3","0","","","","","","3","","","","",""
"","","","","","single-stim-button","182","645570","0.0-3.0-19.2-0.2","60430fc782b5752a7ae8d797","A3","batch1","tol_tohand","452","","","","","","","","","tol_peg_1","452","452","0","[[3,0,0],[0,0],[2]]","3","[[3,0,0],[1,0],[2]]","3","0","","","","","","3","","","","",""
"","","","","","single-stim-button","183","646505","0.0-3.0-19.2-1.2","60430fc782b5752a7ae8d797","A3","batch1","tol_toboard","935","","","","","","","","","tol_peg_2","935","935","0","[[3,0,0],[1,0],[2]]","3","[[3,0,0],[1,0],[2]]","3","0","","","","","","3","","","","",""
"","","","","","poldrack-single-stim","184","647508","0.0-3.0-20.0","60430fc782b5752a7ae8d797","A3","batch1","tol_feedback","-1","","","","","true","","","","","1000","1000","500","","","","","","-1","none","true","1925","2737","","","","","",""
"","","","","","html-button-response","185","648213","0.0-3.0-21.0","60430fc782b5752a7ae8d797","A3","batch1","tol_trial_num","703.3999999999069","<div class = centerbox><p class = center-block-text>problem <strong>5</strong> out of 25 problems</p></div>","0","","","","","","","","","","","","","","","","","","","","","","","","","",""
"","","","","","single-stim-button","186","657797","0.0-3.0-22.0-0.0","60430fc782b5752a7ae8d797","A3","batch1","tol_tohand","9583","","","","","","","","","tol_peg_3","9583","9583","0","[[1,0,0],[2,0],[0]]","1","[[0,0,0],[1,2],[3]]","4","0","","","","","","7","","","","",""
"","","","","","single-stim-button","187","662867","0.0-3.0-22.0-1.0","60430fc782b5752a7ae8d797","A3","batch1","tol_toboard","5070","","","","","","","","","tol_peg_2","5070","5070","0","[[1,0,0],[2,3],[0]]","1","[[0,0,0],[1,2],[3]]","4","0","","","","","","7","","","","",""
"","","","","","single-stim-button","188","663655","0.0-3.0-22.1-0.1","60430fc782b5752a7ae8d797","A3","batch1","tol_tohand","787","","","","","","","","","tol_peg_1","787","787","0","[[0,0,0],[2,3],[0]]","2","[[0,0,0],[1,2],[3]]","4","0","","","","","","7","","","","",""
"","","","","","single-stim-button","189","664056","0.0-3.0-22.1-1.1","60430fc782b5752a7ae8d797","A3","batch1","tol_toboard","401","","","","","","","","","tol_peg_3","401","401","0","[[0,0,0],[2,3],[1]]","2","[[0,0,0],[1,2],[3]]","4","0","","","","","","7","","","","",""
"","","","","","single-stim-button","190","664457","0.0-3.0-22.2-0.2","60430fc782b5752a7ae8d797","A3","batch1","tol_tohand","400","","","","","","","","","tol_peg_2","400","400","0","[[0,0,0],[2,0],[1]]","3","[[0,0,0],[1,2],[3]]","4","0","","","","","","7","","","","",""
"","","","","","single-stim-button","191","664706","0.0-3.0-22.2-1.2","60430fc782b5752a7ae8d797","A3","batch1","tol_toboard","247","","","","","","","","","tol_peg_1","247","247","0","[[3,0,0],[2,0],[1]]","3","[[0,0,0],[1,2],[3]]","4","0","","","","","","7","","","","",""
"","","","","","single-stim-button","192","665935","0.0-3.0-22.3-0.3","60430fc782b5752a7ae8d797","A3","batch1","tol_tohand","1229","","","","","","","","","tol_peg_2","1229","1229","0","[[3,0,0],[0,0],[1]]","4","[[0,0,0],[1,2],[3]]","4","0","","","","","","7","","","","",""
"","","","","","single-stim-button","193","666252","0.0-3.0-22.3-1.3","60430fc782b5752a7ae8d797","A3","batch1","tol_toboard","316","","","","","","","","","tol_peg_1","316","316","0","[[3,2,0],[0,0],[1]]","4","[[0,0,0],[1,2],[3]]","4","0","","","","","","7","","","","",""
"","","","","","single-stim-button","194","666614","0.0-3.0-22.4-0.4","60430fc782b5752a7ae8d797","A3","batch1","tol_tohand","361","","","","","","","","","tol_peg_3","361","361","0","[[3,2,0],[0,0],[0]]","5","[[0,0,0],[1,2],[3]]","4","0","","","","","","7","","","","",""
"","","","","","single-stim-button","195","666891","0.0-3.0-22.4-1.4","60430fc782b5752a7ae8d797","A3","batch1","tol_toboard","276","","","","","","","","","tol_peg_2","276","276","0","[[3,2,0],[1,0],[0]]","5","[[0,0,0],[1,2],[3]]","4","0","","","","","","7","","","","",""
"","","","","","single-stim-button","196","667254","0.0-3.0-22.5-0.5","60430fc782b5752a7ae8d797","A3","batch1","tol_tohand","362","","","","","","","","","tol_peg_1","362","362","0","[[3,0,0],[1,0],[0]]","6","[[0,0,0],[1,2],[3]]","4","0","","","","","","7","","","","",""
"","","","","","single-stim-button","197","667560","0.0-3.0-22.5-1.5","60430fc782b5752a7ae8d797","A3","batch1","tol_toboard","306","","","","","","","","","tol_peg_2","306","306","0","[[3,0,0],[1,2],[0]]","6","[[0,0,0],[1,2],[3]]","4","0","","","","","","7","","","","",""
"","","","","","single-stim-button","198","667885","0.0-3.0-22.6-0.6","60430fc782b5752a7ae8d797","A3","batch1","tol_tohand","325","","","","","","","","","tol_peg_1","325","325","0","[[0,0,0],[1,2],[0]]","7","[[0,0,0],[1,2],[3]]","4","0","","","","","","7","","","","",""
"","","","","","single-stim-button","199","668200","0.0-3.0-22.6-1.6","60430fc782b5752a7ae8d797","A3","batch1","tol_toboard","315","","","","","","","","","tol_peg_3","315","315","0","[[0,0,0],[1,2],[3]]","7","[[0,0,0],[1,2],[3]]","4","0","","","","","","7","","","","",""
"","","","","","poldrack-single-stim","200","669217","0.0-3.0-23.0","60430fc782b5752a7ae8d797","A3","batch1","tol_feedback","-1","","","","","true","","","","","1000","1000","500","","","","","","-1","none","true","9583","13047","","","","","",""
"","","","","","html-button-response","201","669870","0.0-3.0-24.0","60430fc782b5752a7ae8d797","A3","batch1","tol_trial_num","651.7999999998137","<div class = centerbox><p class = center-block-text>problem <strong>6</strong> out of 25 problems</p></div>","0","","","","","","","","","","","","","","","","","","","","","","","","","",""
"","","","","","single-stim-button","202","672779","0.0-3.0-25.0-0.0","60430fc782b5752a7ae8d797","A3","batch1","tol_tohand","2908","","","","","","","","","tol_peg_2","2908","2908","0","[[0,0,0],[1,0],[3]]","1","[[1,0,0],[2,3],[0]]","5","0","","","","","","6","","","","",""
"","","","","","single-stim-button","203","673354","0.0-3.0-25.0-1.0","60430fc782b5752a7ae8d797","A3","batch1","tol_toboard","574","","","","","","","","","tol_peg_1","574","574","0","[[2,0,0],[1,0],[3]]","1","[[1,0,0],[2,3],[0]]","5","0","","","","","","6","","","","",""
"","","","","","single-stim-button","204","675292","0.0-3.0-25.1-0.1","60430fc782b5752a7ae8d797","A3","batch1","tol_tohand","1937","","","","","","","","","tol_peg_2","1937","1937","0","[[2,0,0],[0,0],[3]]","2","[[1,0,0],[2,3],[0]]","5","0","","","","","","6","","","","",""
"","","","","","single-stim-button","205","675709","0.0-3.0-25.1-1.1","60430fc782b5752a7ae8d797","A3","batch1","tol_toboard","416","","","","","","","","","tol_peg_1","416","416","0","[[2,1,0],[0,0],[3]]","2","[[1,0,0],[2,3],[0]]","5","0","","","","","","6","","","","",""
"","","","","","single-stim-button","206","676124","0.0-3.0-25.2-0.2","60430fc782b5752a7ae8d797","A3","batch1","tol_tohand","414","","","","","","","","","tol_peg_3","414","414","0","[[2,1,0],[0,0],[0]]","3","[[1,0,0],[2,3],[0]]","5","0","","","","","","6","","","","",""
"","","","","","single-stim-button","207","676526","0.0-3.0-25.2-1.2","60430fc782b5752a7ae8d797","A3","batch1","tol_toboard","401","","","","","","","","","tol_peg_2","401","401","0","[[2,1,0],[3,0],[0]]","3","[[1,0,0],[2,3],[0]]","5","0","","","","","","6","","","","",""
"","","","","","single-stim-button","208","677091","0.0-3.0-25.3-0.3","60430fc782b5752a7ae8d797","A3","batch1","tol_tohand","563","","","","","","","","","tol_peg_1","563","563","0","[[2,0,0],[3,0],[0]]","4","[[1,0,0],[2,3],[0]]","5","0","","","","","","6","","","","",""
"","","","","","single-stim-button","209","679695","0.0-3.0-25.3-1.3","60430fc782b5752a7ae8d797","A3","batch1","tol_toboard","2604","","","","","","","","","tol_peg_3","2604","2604","0","[[2,0,0],[3,0],[1]]","4","[[1,0,0],[2,3],[0]]","5","0","","","","","","6","","","","",""
"","","","","","single-stim-button","210","681512","0.0-3.0-25.4-0.4","60430fc782b5752a7ae8d797","A3","batch1","tol_tohand","1815","","","","","","","","","tol_peg_1","1815","1815","0","[[0,0,0],[3,0],[1]]","5","[[1,0,0],[2,3],[0]]","5","0","","","","","","6","","","","",""
"","","","","","single-stim-button","211","682680","0.0-3.0-25.4-1.4","60430fc782b5752a7ae8d797","A3","batch1","tol_toboard","1168","","","","","","","","","tol_peg_2","1168","1168","0","[[0,0,0],[3,2],[1]]","5","[[1,0,0],[2,3],[0]]","5","0","","","","","","6","","","","",""
"","","","","","single-stim-button","212","683570","0.0-3.0-25.5-0.5","60430fc782b5752a7ae8d797","A3","batch1","tol_tohand","890","","","","","","","","","tol_peg_3","890","890","0","[[0,0,0],[3,2],[0]]","6","[[1,0,0],[2,3],[0]]","5","0","","","","","","6","","","","",""
"","","","","","single-stim-button","213","684163","0.0-3.0-25.5-1.5","60430fc782b5752a7ae8d797","A3","batch1","tol_toboard","593","","","","","","","","","tol_peg_1","593","593","0","[[1,0,0],[3,2],[0]]","6","[[1,0,0],[2,3],[0]]","5","0","","","","","","6","","","","",""
"","","","","","single-stim-button","214","685238","0.0-3.0-25.6-0.6","60430fc782b5752a7ae8d797","A3","batch1","tol_tohand","1075","","","","","","","","","tol_peg_2","1075","1075","0","[[1,0,0],[3,0],[0]]","7","[[1,0,0],[2,3],[0]]","5","0","","","","","","6","","","","",""
"","","","","","single-stim-button","215","685592","0.0-3.0-25.6-1.6","60430fc782b5752a7ae8d797","A3","batch1","tol_toboard","353","","","","","","","","","tol_peg_3","353","353","0","[[1,0,0],[3,0],[2]]","7","[[1,0,0],[2,3],[0]]","5","0","","","","","","6","","","","",""
"","","","","","single-stim-button","216","686917","0.0-3.0-25.7-0.7","60430fc782b5752a7ae8d797","A3","batch1","tol_tohand","1324","","","","","","","","","tol_peg_2","1324","1324","0","[[1,0,0],[0,0],[2]]","8","[[1,0,0],[2,3],[0]]","5","0","","","","","","6","","","","",""
"","","","","","single-stim-button","217","687242","0.0-3.0-25.7-1.7","60430fc782b5752a7ae8d797","A3","batch1","tol_toboard","324","","","","","","","","","tol_peg_1","324","324","0","[[1,3,0],[0,0],[2]]","8","[[1,0,0],[2,3],[0]]","5","0","","","","","","6","","","","",""
"","","","","","single-stim-button","218","687927","0.0-3.0-25.8-0.8","60430fc782b5752a7ae8d797","A3","batch1","tol_tohand","685","","","","","","","","","tol_peg_3","685","685","0","[[1,3,0],[0,0],[0]]","9","[[1,0,0],[2,3],[0]]","5","0","","","","","","6","","","","",""
"","","","","","single-stim-button","219","688188","0.0-3.0-25.8-1.8","60430fc782b5752a7ae8d797","A3","batch1","tol_toboard","259","","","","","","","","","tol_peg_2","259","259","0","[[1,3,0],[2,0],[0]]","9","[[1,0,0],[2,3],[0]]","5","0","","","","","","6","","","","",""
"","","","","","single-stim-button","220","688569","0.0-3.0-25.9-0.9","60430fc782b5752a7ae8d797","A3","batch1","tol_tohand","380","","","","","","","","","tol_peg_1","380","380","0","[[1,0,0],[2,0],[0]]","10","[[1,0,0],[2,3],[0]]","5","0","","","","","","6","","","","",""
"","","","","","single-stim-button","221","688855","0.0-3.0-25.9-1.9","60430fc782b5752a7ae8d797","A3","batch1","tol_toboard","286","","","","","","","","","tol_peg_2","286","286","0","[[1,0,0],[2,3],[0]]","10","[[1,0,0],[2,3],[0]]","5","0","","","","","","6","","","","",""
"","","","","","poldrack-single-stim","222","689872","0.0-3.0-26.0","60430fc782b5752a7ae8d797","A3","batch1","tol_feedback","-1","","","","","true","","","","","1000","1000","500","","","","","","-1","none","true","2908","11991","","","","","",""
"","","","","","html-button-response","223","693342","0.0-3.0-27.0","60430fc782b5752a7ae8d797","A3","batch1","tol_trial_num","3469","<div class = centerbox><p class = center-block-text>problem <strong>7</strong> out of 25 problems</p></div>","0","","","","","","","","","","","","","","","","","","","","","","","","","",""
"","","","","","single-stim-button","224","695258","0.0-3.0-28.0-0.0","60430fc782b5752a7ae8d797","A3","batch1","tol_tohand","1916","","","","","","","","","tol_peg_1","1916","1916","0","[[2,0,0],[0,0],[3]]","1","[[1,2,0],[3,0],[0]]","6","0","","","","","","5","","","","",""
"","","","","","single-stim-button","225","698060","0.0-3.0-28.0-1.0","60430fc782b5752a7ae8d797","A3","batch1","tol_toboard","2802","","","","","","","","","tol_peg_1","2802","2802","0","[[2,1,0],[0,0],[3]]","1","[[1,2,0],[3,0],[0]]","6","0","","","","","","5","","","","",""
"","","","","","single-stim-button","226","698442","0.0-3.0-28.1-0.1","60430fc782b5752a7ae8d797","A3","batch1","tol_tohand","379","","","","","","","","","tol_peg_3","379","379","0","[[2,1,0],[0,0],[0]]","2","[[1,2,0],[3,0],[0]]","6","0","","","","","","5","","","","",""
"","","","","","single-stim-button","227","698719","0.0-3.0-28.1-1.1","60430fc782b5752a7ae8d797","A3","batch1","tol_toboard","276","","","","","","","","","tol_peg_2","276","276","0","[[2,1,0],[3,0],[0]]","2","[[1,2,0],[3,0],[0]]","6","0","","","","","","5","","","","",""
"","","","","","single-stim-button","228","699108","0.0-3.0-28.2-0.2","60430fc782b5752a7ae8d797","A3","batch1","tol_tohand","388","","","","","","","","","tol_peg_1","388","388","0","[[2,0,0],[3,0],[0]]","3","[[1,2,0],[3,0],[0]]","6","0","","","","","","5","","","","",""
"","","","","","single-stim-button","229","699378","0.0-3.0-28.2-1.2","60430fc782b5752a7ae8d797","A3","batch1","tol_toboard","268","","","","","","","","","tol_peg_2","268","268","0","[[2,0,0],[3,1],[0]]","3","[[1,2,0],[3,0],[0]]","6","0","","","","","","5","","","","",""
"","","","","","single-stim-button","230","700385","0.0-3.0-28.3-0.3","60430fc782b5752a7ae8d797","A3","batch1","tol_tohand","1006","","","","","","","","","tol_peg_1","1006","1006","0","[[0,0,0],[3,1],[0]]","4","[[1,2,0],[3,0],[0]]","6","0","","","","","","5","","","","",""
"","","","","","single-stim-button","231","700776","0.0-3.0-28.3-1.3","60430fc782b5752a7ae8d797","A3","batch1","tol_toboard","389","","","","","","","","","tol_peg_3","389","389","0","[[0,0,0],[3,1],[2]]","4","[[1,2,0],[3,0],[0]]","6","0","","","","","","5","","","","",""
"","","","","","single-stim-button","232","701070","0.0-3.0-28.4-0.4","60430fc782b5752a7ae8d797","A3","batch1","tol_tohand","294","","","","","","","","","tol_peg_2","294","294","0","[[0,0,0],[3,0],[2]]","5","[[1,2,0],[3,0],[0]]","6","0","","","","","","5","","","","",""
"","","","","","single-stim-button","233","701359","0.0-3.0-28.4-1.4","60430fc782b5752a7ae8d797","A3","batch1","tol_toboard","288","","","","","","","","","tol_peg_1","288","288","0","[[1,0,0],[3,0],[2]]","5","[[1,2,0],[3,0],[0]]","6","0","","","","","","5","","","","",""
"","","","","","single-stim-button","234","701749","0.0-3.0-28.5-0.5","60430fc782b5752a7ae8d797","A3","batch1","tol_tohand","389","","","","","","","","","tol_peg_3","389","389","0","[[1,0,0],[3,0],[0]]","6","[[1,2,0],[3,0],[0]]","6","0","","","","","","5","","","","",""
"","","","","","single-stim-button","235","702090","0.0-3.0-28.5-1.5","60430fc782b5752a7ae8d797","A3","batch1","tol_toboard","341","","","","","","","","","tol_peg_1","341","341","0","[[1,2,0],[3,0],[0]]","6","[[1,2,0],[3,0],[0]]","6","0","","","","","","5","","","","",""
"","","","","","poldrack-single-stim","236","703113","0.0-3.0-29.0","60430fc782b5752a7ae8d797","A3","batch1","tol_feedback","-1","","","","","true","","","","","1000","1000","500","","","","","","-1","none","true","1916","4372","","","","","",""
"","","","","","html-button-response","237","703948","0.0-3.0-30.0","60430fc782b5752a7ae8d797","A3","batch1","tol_trial_num","835.1000000000931","<div class = centerbox><p class = center-block-text>problem <strong>8</strong> out of 25 problems</p></div>","0","","","","","","","","","","","","","","","","","","","","","","","","","",""
"","","","","","single-stim-button","238","706912","0.0-3.0-31.0-0.0","60430fc782b5752a7ae8d797","A3","batch1","tol_tohand","2962","","","","","","","","","tol_peg_3","2962","2962","0","[[0,0,0],[2,3],[0]]","1","[[1,2,0],[3,0],[0]]","7","0","","","","","","4","","","","",""
"","","","","","single-stim-button","239","707395","0.0-3.0-31.0-1.0","60430fc782b5752a7ae8d797","A3","batch1","tol_toboard","483","","","","","","","","","tol_peg_1","483","483","0","[[1,0,0],[2,3],[0]]","1","[[1,2,0],[3,0],[0]]","7","0","","","","","","4","","","","",""
"","","","","","single-stim-button","240","707934","0.0-3.0-31.1-0.1","60430fc782b5752a7ae8d797","A3","batch1","tol_tohand","538","","","","","","","","","tol_peg_2","538","538","0","[[1,0,0],[2,0],[0]]","2","[[1,2,0],[3,0],[0]]","7","0","","","","","","4","","","","",""
"","","","","","single-stim-button","241","708359","0.0-3.0-31.1-1.1","60430fc782b5752a7ae8d797","A3","batch1","tol_toboard","425","","","","","","","","","tol_peg_3","425","425","0","[[1,0,0],[2,0],[3]]","2","[[1,2,0],[3,0],[0]]","7","0","","","","","","4","","","","",""
"","","","","","single-stim-button","242","708803","0.0-3.0-31.2-0.2","60430fc782b5752a7ae8d797","A3","batch1","tol_tohand","443","","","","","","","","","tol_peg_2","443","443","0","[[1,0,0],[0,0],[3]]","3","[[1,2,0],[3,0],[0]]","7","0","","","","","","4","","","","",""
"","","","","","single-stim-button","243","709074","0.0-3.0-31.2-1.2","60430fc782b5752a7ae8d797","A3","batch1","tol_toboard","269","","","","","","","","","tol_peg_1","269","269","0","[[1,2,0],[0,0],[3]]","3","[[1,2,0],[3,0],[0]]","7","0","","","","","","4","","","","",""
"","","","","","single-stim-button","244","709454","0.0-3.0-31.3-0.3","60430fc782b5752a7ae8d797","A3","batch1","tol_tohand","379","","","","","","","","","tol_peg_3","379","379","0","[[1,2,0],[0,0],[0]]","4","[[1,2,0],[3,0],[0]]","7","0","","","","","","4","","","","",""
"","","","","","single-stim-button","245","709817","0.0-3.0-31.3-1.3","60430fc782b5752a7ae8d797","A3","batch1","tol_toboard","362","","","","","","","","","tol_peg_2","362","362","0","[[1,2,0],[3,0],[0]]","4","[[1,2,0],[3,0],[0]]","7","0","","","","","","4","","","","",""
"","","","","","poldrack-single-stim","246","710820","0.0-3.0-32.0","60430fc782b5752a7ae8d797","A3","batch1","tol_feedback","-1","","","","","true","","","","","1000","1000","500","","","","","","-1","none","true","2962","4322","","","","","",""
"","","","","","html-button-response","247","711309","0.0-3.0-33.0","60430fc782b5752a7ae8d797","A3","batch1","tol_trial_num","487.10000000009313","<div class = centerbox><p class = center-block-text>problem <strong>9</strong> out of 25 problems</p></div>","0","","","","","","","","","","","","","","","","","","","","","","","","","",""
"","","","","","single-stim-button","248","713560","0.0-3.0-34.0-0.0","60430fc782b5752a7ae8d797","A3","batch1","tol_tohand","2249","","","","","","","","","tol_peg_1","2249","2249","0","[[3,0,0],[0,0],[1]]","1","[[2,1,0],[3,0],[0]]","8","0","","","","","","6","","","","",""
"","","","","","single-stim-button","249","713884","0.0-3.0-34.0-1.0","60430fc782b5752a7ae8d797","A3","batch1","tol_toboard","323","","","","","","","","","tol_peg_2","323","323","0","[[3,0,0],[2,0],[1]]","1","[[2,1,0],[3,0],[0]]","8","0","","","","","","6","","","","",""
"","","","","","single-stim-button","250","714998","0.0-3.0-34.1-0.1","60430fc782b5752a7ae8d797","A3","batch1","tol_tohand","1114","","","","","","","","","tol_peg_3","1114","1114","0","[[3,0,0],[2,0],[0]]","2","[[2,1,0],[3,0],[0]]","8","0","","","","","","6","","","","",""
"","","","","","single-stim-button","251","715525","0.0-3.0-34.1-1.1","60430fc782b5752a7ae8d797","A3","batch1","tol_toboard","526","","","","","","","","","tol_peg_2","526","526","0","[[3,0,0],[2,1],[0]]","2","[[2,1,0],[3,0],[0]]","8","0","","","","","","6","","","","",""
"","","","","","single-stim-button","252","716033","0.0-3.0-34.2-0.2","60430fc782b5752a7ae8d797","A3","batch1","tol_tohand","507","","","","","","","","","tol_peg_1","507","507","0","[[0,0,0],[2,1],[0]]","3","[[2,1,0],[3,0],[0]]","8","0","","","","","","6","","","","",""
"","","","","","single-stim-button","253","716482","0.0-3.0-34.2-1.2","60430fc782b5752a7ae8d797","A3","batch1","tol_toboard","447","","","","","","","","","tol_peg_3","447","447","0","[[0,0,0],[2,1],[3]]","3","[[2,1,0],[3,0],[0]]","8","0","","","","","","6","","","","",""
"","","","","","single-stim-button","254","717704","0.0-3.0-34.3-0.3","60430fc782b5752a7ae8d797","A3","batch1","tol_tohand","1222","","","","","","","","","tol_peg_2","1222","1222","0","[[0,0,0],[2,0],[3]]","4","[[2,1,0],[3,0],[0]]","8","0","","","","","","6","","","","",""
"","","","","","single-stim-button","255","718215","0.0-3.0-34.3-1.3","60430fc782b5752a7ae8d797","A3","batch1","tol_toboard","510","","","","","","","","","tol_peg_1","510","510","0","[[1,0,0],[2,0],[3]]","4","[[2,1,0],[3,0],[0]]","8","0","","","","","","6","","","","",""
"","","","","","single-stim-button","256","719429","0.0-3.0-34.4-0.4","60430fc782b5752a7ae8d797","A3","batch1","tol_tohand","1213","","","","","","","","","tol_peg_2","1213","1213","0","[[1,0,0],[0,0],[3]]","5","[[2,1,0],[3,0],[0]]","8","0","","","","","","6","","","","",""
"","","","","","single-stim-button","257","719737","0.0-3.0-34.4-1.4","60430fc782b5752a7ae8d797","A3","batch1","tol_toboard","308","","","","","","","","","tol_peg_1","308","308","0","[[1,2,0],[0,0],[3]]","5","[[2,1,0],[3,0],[0]]","8","0","","","","","","6","","","","",""
"","","","","","single-stim-button","258","720961","0.0-3.0-34.5-0.5","60430fc782b5752a7ae8d797","A3","batch1","tol_tohand","1223","","","","","","","","","tol_peg_3","1223","1223","0","[[1,2,0],[0,0],[0]]","6","[[2,1,0],[3,0],[0]]","8","0","","","","","","6","","","","",""
"","","","","","single-stim-button","259","721276","0.0-3.0-34.5-1.5","60430fc782b5752a7ae8d797","A3","batch1","tol_toboard","314","","","","","","","","","tol_peg_2","314","314","0","[[1,2,0],[3,0],[0]]","6","[[2,1,0],[3,0],[0]]","8","0","","","","","","6","","","","",""
"","","","","","single-stim-button","260","721656","0.0-3.0-34.6-0.6","60430fc782b5752a7ae8d797","A3","batch1","tol_tohand","380","","","","","","","","","tol_peg_1","380","380","0","[[1,0,0],[3,0],[0]]","7","[[2,1,0],[3,0],[0]]","8","0","","","","","","6","","","","",""
"","","","","","single-stim-button","261","721952","0.0-3.0-34.6-1.6","60430fc782b5752a7ae8d797","A3","batch1","tol_toboard","295","","","","","","","","","tol_peg_2","295","295","0","[[1,0,0],[3,2],[0]]","7","[[2,1,0],[3,0],[0]]","8","0","","","","","","6","","","","",""
"","","","","","single-stim-button","262","722676","0.0-3.0-34.7-0.7","60430fc782b5752a7ae8d797","A3","batch1","tol_tohand","724","","","","","","","","","tol_peg_1","724","724","0","[[0,0,0],[3,2],[0]]","8","[[2,1,0],[3,0],[0]]","8","0","","","","","","6","","","","",""
"","","","","","single-stim-button","263","723059","0.0-3.0-34.7-1.7","60430fc782b5752a7ae8d797","A3","batch1","tol_toboard","382","","","","","","","","","tol_peg_3","382","382","0","[[0,0,0],[3,2],[1]]","8","[[2,1,0],[3,0],[0]]","8","0","","","","","","6","","","","",""
"","","","","","single-stim-button","264","723874","0.0-3.0-34.8-0.8","60430fc782b5752a7ae8d797","A3","batch1","tol_tohand","815","","","","","","","","","tol_peg_2","815","815","0","[[0,0,0],[3,0],[1]]","9","[[2,1,0],[3,0],[0]]","8","0","","","","","","6","","","","",""
"","","","","","single-stim-button","265","724170","0.0-3.0-34.8-1.8","60430fc782b5752a7ae8d797","A3","batch1","tol_toboard","294","","","","","","","","","tol_peg_1","294","294","0","[[2,0,0],[3,0],[1]]","9","[[2,1,0],[3,0],[0]]","8","0","","","","","","6","","","","",""
"","","","","","single-stim-button","266","724541","0.0-3.0-34.9-0.9","60430fc782b5752a7ae8d797","A3","batch1","tol_tohand","371","","","","","","","","","tol_peg_3","371","371","0","[[2,0,0],[3,0],[0]]","10","[[2,1,0],[3,0],[0]]","8","0","","","","","","6","","","","",""
"","","","","","single-stim-button","267","724884","0.0-3.0-34.9-1.9","60430fc782b5752a7ae8d797","A3","batch1","tol_toboard","342","","","","","","","","","tol_peg_1","342","342","0","[[2,1,0],[3,0],[0]]","10","[[2,1,0],[3,0],[0]]","8","0","","","","","","6","","","","",""
"","","","","","poldrack-single-stim","268","725888","0.0-3.0-35.0","60430fc782b5752a7ae8d797","A3","batch1","tol_feedback","-1","","","","","true","","","","","1000","1000","500","","","","","","-1","none","true","2249","9818","","","","","",""
"","","","","","html-button-response","269","726472","0.0-3.0-36.0","60430fc782b5752a7ae8d797","A3","batch1","tol_trial_num","582.3999999999069","<div class = centerbox><p class = center-block-text>problem <strong>10</strong> out of 25 problems</p></div>","0","","","","","","","","","","","","","","","","","","","","","","","","","",""
"","","","","","single-stim-button","270","729752","0.0-3.0-37.0-0.0","60430fc782b5752a7ae8d797","A3","batch1","tol_tohand","3279","","","","","","","","","tol_peg_2","3279","3279","0","[[3,0,0],[0,0],[2]]","1","[[3,0,0],[2,1],[0]]","9","0","","","","","","3","","","","",""
"","","","","","single-stim-button","271","730011","0.0-3.0-37.0-1.0","60430fc782b5752a7ae8d797","A3","batch1","tol_toboard","259","","","","","","","","","tol_peg_1","259","259","0","[[3,1,0],[0,0],[2]]","1","[[3,0,0],[2,1],[0]]","9","0","","","","","","3","","","","",""
"","","","","","single-stim-button","272","730353","0.0-3.0-37.1-0.1","60430fc782b5752a7ae8d797","A3","batch1","tol_tohand","340","","","","","","","","","tol_peg_3","340","340","0","[[3,1,0],[0,0],[0]]","2","[[3,0,0],[2,1],[0]]","9","0","","","","","","3","","","","",""
"","","","","","single-stim-button","273","730631","0.0-3.0-37.1-1.1","60430fc782b5752a7ae8d797","A3","batch1","tol_toboard","278","","","","","","","","","tol_peg_2","278","278","0","[[3,1,0],[2,0],[0]]","2","[[3,0,0],[2,1],[0]]","9","0","","","","","","3","","","","",""
"","","","","","single-stim-button","274","730938","0.0-3.0-37.2-0.2","60430fc782b5752a7ae8d797","A3","batch1","tol_tohand","305","","","","","","","","","tol_peg_1","305","305","0","[[3,0,0],[2,0],[0]]","3","[[3,0,0],[2,1],[0]]","9","0","","","","","","3","","","","",""
"","","","","","single-stim-button","275","731867","0.0-3.0-37.2-1.2","60430fc782b5752a7ae8d797","A3","batch1","tol_toboard","928","","","","","","","","","tol_peg_2","928","928","0","[[3,0,0],[2,1],[0]]","3","[[3,0,0],[2,1],[0]]","9","0","","","","","","3","","","","",""
"","","","","","poldrack-single-stim","276","732876","0.0-3.0-38.0","60430fc782b5752a7ae8d797","A3","batch1","tol_feedback","-1","","","","","true","","","","","1000","1000","500","","","","","","-1","none","true","3279","3924","","","","","",""
"","","","","","html-button-response","277","733533","0.0-3.0-39.0","60430fc782b5752a7ae8d797","A3","batch1","tol_trial_num","656.1000000000931","<div class = centerbox><p class = center-block-text>problem <strong>11</strong> out of 25 problems</p></div>","0","","","","","","","","","","","","","","","","","","","","","","","","","",""
"","","","","","single-stim-button","278","736788","0.0-3.0-40.0-0.0","60430fc782b5752a7ae8d797","A3","batch1","tol_tohand","3255","","","","","","","","","tol_peg_1","3255","3255","0","[[1,0,0],[3,0],[0]]","1","[[2,0,0],[1,3],[0]]","10","0","","","","","","6","","","","",""
"","","","","","single-stim-button","279","740394","0.0-3.0-40.0-1.0","60430fc782b5752a7ae8d797","A3","batch1","tol_toboard","3604","","","","","","","","","tol_peg_3","3604","3604","0","[[1,0,0],[3,0],[2]]","1","[[2,0,0],[1,3],[0]]","10","0","","","","","","6","","","","",""
"","","","","","single-stim-button","280","740882","0.0-3.0-40.1-0.1","60430fc782b5752a7ae8d797","A3","batch1","tol_tohand","488","","","","","","","","","tol_peg_1","488","488","0","[[0,0,0],[3,0],[2]]","2","[[2,0,0],[1,3],[0]]","10","0","","","","","","6","","","","",""
"","","","","","single-stim-button","281","741199","0.0-3.0-40.1-1.1","60430fc782b5752a7ae8d797","A3","batch1","tol_toboard","317","","","","","","","","","tol_peg_2","317","317","0","[[0,0,0],[3,1],[2]]","2","[[2,0,0],[1,3],[0]]","10","0","","","","","","6","","","","",""
"","","","","","single-stim-button","282","741766","0.0-3.0-40.2-0.2","60430fc782b5752a7ae8d797","A3","batch1","tol_tohand","565","","","","","","","","","tol_peg_3","565","565","0","[[0,0,0],[3,1],[0]]","3","[[2,0,0],[1,3],[0]]","10","0","","","","","","6","","","","",""
"","","","","","single-stim-button","283","742089","0.0-3.0-40.2-1.2","60430fc782b5752a7ae8d797","A3","batch1","tol_toboard","322","","","","","","","","","tol_peg_1","322","322","0","[[2,0,0],[3,1],[0]]","3","[[2,0,0],[1,3],[0]]","10","0","","","","","","6","","","","",""
"","","","","","single-stim-button","284","742750","0.0-3.0-40.3-0.3","60430fc782b5752a7ae8d797","A3","batch1","tol_tohand","660","","","","","","","","","tol_peg_2","660","660","0","[[2,0,0],[3,0],[0]]","4","[[2,0,0],[1,3],[0]]","10","0","","","","","","6","","","","",""
"","","","","","single-stim-button","285","743222","0.0-3.0-40.3-1.3","60430fc782b5752a7ae8d797","A3","batch1","tol_toboard","472","","","","","","","","","tol_peg_3","472","472","0","[[2,0,0],[3,0],[1]]","4","[[2,0,0],[1,3],[0]]","10","0","","","","","","6","","","","",""
"","","","","","single-stim-button","286","744930","0.0-3.0-40.4-0.4","60430fc782b5752a7ae8d797","A3","batch1","tol_tohand","1706","","","","","","","","","tol_peg_2","1706","1706","0","[[2,0,0],[0,0],[1]]","5","[[2,0,0],[1,3],[0]]","10","0","","","","","","6","","","","",""
"","","","","","single-stim-button","287","745243","0.0-3.0-40.4-1.4","60430fc782b5752a7ae8d797","A3","batch1","tol_toboard","313","","","","","","","","","tol_peg_1","313","313","0","[[2,3,0],[0,0],[1]]","5","[[2,0,0],[1,3],[0]]","10","0","","","","","","6","","","","",""
"","","","","","single-stim-button","288","745606","0.0-3.0-40.5-0.5","60430fc782b5752a7ae8d797","A3","batch1","tol_tohand","361","","","","","","","","","tol_peg_3","361","361","0","[[2,3,0],[0,0],[0]]","6","[[2,0,0],[1,3],[0]]","10","0","","","","","","6","","","","",""
"","","","","","single-stim-button","289","745875","0.0-3.0-40.5-1.5","60430fc782b5752a7ae8d797","A3","batch1","tol_toboard","268","","","","","","","","","tol_peg_2","268","268","0","[[2,3,0],[1,0],[0]]","6","[[2,0,0],[1,3],[0]]","10","0","","","","","","6","","","","",""
"","","","","","single-stim-button","290","746226","0.0-3.0-40.6-0.6","60430fc782b5752a7ae8d797","A3","batch1","tol_tohand","350","","","","","","","","","tol_peg_1","350","350","0","[[2,0,0],[1,0],[0]]","7","[[2,0,0],[1,3],[0]]","10","0","","","","","","6","","","","",""
"","","","","","single-stim-button","291","746485","0.0-3.0-40.6-1.6","60430fc782b5752a7ae8d797","A3","batch1","tol_toboard","258","","","","","","","","","tol_peg_2","258","258","0","[[2,0,0],[1,3],[0]]","7","[[2,0,0],[1,3],[0]]","10","0","","","","","","6","","","","",""
"","","","","","poldrack-single-stim","292","747496","0.0-3.0-41.0","60430fc782b5752a7ae8d797","A3","batch1","tol_feedback","-1","","","","","true","","","","","1000","1000","500","","","","","","-1","none","true","3255","7385","","","","","",""
"","","","","","html-button-response","293","748452","0.0-3.0-42.0","60430fc782b5752a7ae8d797","A3","batch1","tol_trial_num","954","<div class = centerbox><p class = center-block-text>problem <strong>12</strong> out of 25 problems</p></div>","0","","","","","","","","","","","","","","","","","","","","","","","","","",""
"","","","","","single-stim-button","294","750686","0.0-3.0-43.0-0.0","60430fc782b5752a7ae8d797","A3","batch1","tol_tohand","2233","","","","","","","","","tol_peg_1","2233","2233","0","[[1,0,0],[3,0],[0]]","1","[[2,3,0],[0,0],[1]]","11","0","","","","","","4","","","","",""
"","","","","","single-stim-button","295","750974","0.0-3.0-43.0-1.0","60430fc782b5752a7ae8d797","A3","batch1","tol_toboard","288","","","","","","","","","tol_peg_2","288","288","0","[[1,0,0],[3,2],[0]]","1","[[2,3,0],[0,0],[1]]","11","0","","","","","","4","","","","",""
"","","","","","single-stim-button","296","751224","0.0-3.0-43.1-0.1","60430fc782b5752a7ae8d797","A3","batch1","tol_tohand","249","","","","","","","","","tol_peg_1","249","249","0","[[0,0,0],[3,2],[0]]","2","[[2,3,0],[0,0],[1]]","11","0","","","","","","4","","","","",""
"","","","","","single-stim-button","297","751681","0.0-3.0-43.1-1.1","60430fc782b5752a7ae8d797","A3","batch1","tol_toboard","457","","","","","","","","","tol_peg_3","457","457","0","[[0,0,0],[3,2],[1]]","2","[[2,3,0],[0,0],[1]]","11","0","","","","","","4","","","","",""
"","","","","","single-stim-button","298","752811","0.0-3.0-43.2-0.2","60430fc782b5752a7ae8d797","A3","batch1","tol_tohand","1128","","","","","","","","","tol_peg_2","1128","1128","0","[[0,0,0],[3,0],[1]]","3","[[2,3,0],[0,0],[1]]","11","0","","","","","","4","","","","",""
"","","","","","single-stim-button","299","753079","0.0-3.0-43.2-1.2","60430fc782b5752a7ae8d797","A3","batch1","tol_toboard","268","","","","","","","","","tol_peg_1","268","268","0","[[2,0,0],[3,0],[1]]","3","[[2,3,0],[0,0],[1]]","11","0","","","","","","4","","","","",""
"","","","","","single-stim-button","300","753330","0.0-3.0-43.3-0.3","60430fc782b5752a7ae8d797","A3","batch1","tol_tohand","249","","","","","","","","","tol_peg_2","249","249","0","[[2,0,0],[0,0],[1]]","4","[[2,3,0],[0,0],[1]]","11","0","","","","","","4","","","","",""
"","","","","","single-stim-button","301","753570","0.0-3.0-43.3-1.3","60430fc782b5752a7ae8d797","A3","batch1","tol_toboard","240","","","","","","","","","tol_peg_1","240","240","0","[[2,3,0],[0,0],[1]]","4","[[2,3,0],[0,0],[1]]","11","0","","","","","","4","","","","",""
"","","","","","poldrack-single-stim","302","754583","0.0-3.0-44.0","60430fc782b5752a7ae8d797","A3","batch1","tol_feedback","-1","","","","","true","","","","","1000","1000","500","","","","","","-1","none","true","2233","3859","","","","","",""
"","","","","","html-button-response","303","755091","0.0-3.0-45.0","60430fc782b5752a7ae8d797","A3","batch1","tol_trial_num","506.60000000009313","<div class = centerbox><p class = center-block-text>problem <strong>13</strong> out of 25 problems</p></div>","0","","","","","","","","","","","","","","","","","","","","","","","","","",""
"","","","","","single-stim-button","304","756808","0.0-3.0-46.0-0.0","60430fc782b5752a7ae8d797","A3","batch1","tol_tohand","1717","","","","","","","","","tol_peg_1","1717","1717","0","[[1,0,0],[3,0],[0]]","1","[[0,0,0],[2,3],[1]]","12","0","","","","","","4","","","","",""
"","","","","","single-stim-button","305","757057","0.0-3.0-46.0-1.0","60430fc782b5752a7ae8d797","A3","batch1","tol_toboard","247","","","","","","","","","tol_peg_2","247","247","0","[[1,0,0],[3,2],[0]]","1","[[0,0,0],[2,3],[1]]","12","0","","","","","","4","","","","",""
"","","","","","single-stim-button","306","757308","0.0-3.0-46.1-0.1","60430fc782b5752a7ae8d797","A3","batch1","tol_tohand","250","","","","","","","","","tol_peg_1","250","250","0","[[0,0,0],[3,2],[0]]","2","[[0,0,0],[2,3],[1]]","12","0","","","","","","4","","","","",""
"","","","","","single-stim-button","307","757709","0.0-3.0-46.1-1.1","60430fc782b5752a7ae8d797","A3","batch1","tol_toboard","401","","","","","","","","","tol_peg_3","401","401","0","[[0,0,0],[3,2],[1]]","2","[[0,0,0],[2,3],[1]]","12","0","","","","","","4","","","","",""
"","","","","","single-stim-button","308","758263","0.0-3.0-46.2-0.2","60430fc782b5752a7ae8d797","A3","batch1","tol_tohand","552","","","","","","","","","tol_peg_2","552","552","0","[[0,0,0],[3,0],[1]]","3","[[0,0,0],[2,3],[1]]","12","0","","","","","","4","","","","",""
"","","","","","single-stim-button","309","758522","0.0-3.0-46.2-1.2","60430fc782b5752a7ae8d797","A3","batch1","tol_toboard","259","","","","","","","","","tol_peg_1","259","259","0","[[2,0,0],[3,0],[1]]","3","[[0,0,0],[2,3],[1]]","12","0","","","","","","4","","","","",""
"","","","","","single-stim-button","310","758921","0.0-3.0-46.3-0.3","60430fc782b5752a7ae8d797","A3","batch1","tol_tohand","398","","","","","","","","","tol_peg_2","398","398","0","[[2,0,0],[0,0],[1]]","4","[[0,0,0],[2,3],[1]]","12","0","","","","","","4","","","","",""
"","","","","","single-stim-button","311","759393","0.0-3.0-46.3-1.3","60430fc782b5752a7ae8d797","A3","batch1","tol_toboard","471","","","","","","","","","tol_peg_1","471","471","0","[[2,3,0],[0,0],[1]]","4","[[0,0,0],[2,3],[1]]","12","0","","","","","","4","","","","",""
"","","","","","single-stim-button","312","760329","0.0-3.0-46.4-0.4","60430fc782b5752a7ae8d797","A3","batch1","tol_tohand","934","","","","","","","","","tol_peg_3","934","934","0","[[2,3,0],[0,0],[0]]","5","[[0,0,0],[2,3],[1]]","12","0","","","","","","4","","","","",""
"","","","","","single-stim-button","313","760589","0.0-3.0-46.4-1.4","60430fc782b5752a7ae8d797","A3","batch1","tol_toboard","259","","","","","","","","","tol_peg_2","259","259","0","[[2,3,0],[1,0],[0]]","5","[[0,0,0],[2,3],[1]]","12","0","","","","","","4","","","","",""
"","","","","","single-stim-button","314","760896","0.0-3.0-46.5-0.5","60430fc782b5752a7ae8d797","A3","batch1","tol_tohand","307","","","","","","","","","tol_peg_1","307","307","0","[[2,0,0],[1,0],[0]]","6","[[0,0,0],[2,3],[1]]","12","0","","","","","","4","","","","",""
"","","","","","single-stim-button","315","761422","0.0-3.0-46.5-1.5","60430fc782b5752a7ae8d797","A3","batch1","tol_toboard","525","","","","","","","","","tol_peg_3","525","525","0","[[2,0,0],[1,0],[3]]","6","[[0,0,0],[2,3],[1]]","12","0","","","","","","4","","","","",""
"","","","","","single-stim-button","316","762766","0.0-3.0-46.6-0.6","60430fc782b5752a7ae8d797","A3","batch1","tol_tohand","1343","","","","","","","","","tol_peg_1","1343","1343","0","[[0,0,0],[1,0],[3]]","7","[[0,0,0],[2,3],[1]]","12","0","","","","","","4","","","","",""
"","","","","","single-stim-button","317","764196","0.0-3.0-46.6-1.6","60430fc782b5752a7ae8d797","A3","batch1","tol_toboard","1430","","","","","","","","","tol_peg_2","1430","1430","0","[[0,0,0],[1,2],[3]]","7","[[0,0,0],[2,3],[1]]","12","0","","","","","","4","","","","",""
"","","","","","single-stim-button","318","764483","0.0-3.0-46.7-0.7","60430fc782b5752a7ae8d797","A3","batch1","tol_tohand","285","","","","","","","","","tol_peg_3","285","285","0","[[0,0,0],[1,2],[0]]","8","[[0,0,0],[2,3],[1]]","12","0","","","","","","4","","","","",""
"","","","","","single-stim-button","319","764890","0.0-3.0-46.7-1.7","60430fc782b5752a7ae8d797","A3","batch1","tol_toboard","407","","","","","","","","","tol_peg_1","407","407","0","[[3,0,0],[1,2],[0]]","8","[[0,0,0],[2,3],[1]]","12","0","","","","","","4","","","","",""
"","","","","","single-stim-button","320","765214","0.0-3.0-46.8-0.8","60430fc782b5752a7ae8d797","A3","batch1","tol_tohand","323","","","","","","","","","tol_peg_2","323","323","0","[[3,0,0],[1,0],[0]]","9","[[0,0,0],[2,3],[1]]","12","0","","","","","","4","","","","",""
"","","","","","single-stim-button","321","765511","0.0-3.0-46.8-1.8","60430fc782b5752a7ae8d797","A3","batch1","tol_toboard","295","","","","","","","","","tol_peg_3","295","295","0","[[3,0,0],[1,0],[2]]","9","[[0,0,0],[2,3],[1]]","12","0","","","","","","4","","","","",""
"","","","","","single-stim-button","322","765817","0.0-3.0-46.9-0.9","60430fc782b5752a7ae8d797","A3","batch1","tol_tohand","305","","","","","","","","","tol_peg_2","305","305","0","[[3,0,0],[0,0],[2]]","10","[[0,0,0],[2,3],[1]]","12","0","","","","","","4","","","","",""
"","","","","","single-stim-button","323","766133","0.0-3.0-46.9-1.9","60430fc782b5752a7ae8d797","A3","batch1","tol_toboard","316","","","","","","","","","tol_peg_1","316","316","0","[[3,1,0],[0,0],[2]]","10","[[0,0,0],[2,3],[1]]","12","0","","","","","","4","","","","",""
"","","","","","single-stim-button","324","766467","0.0-3.0-46.10-0.10","60430fc782b5752a7ae8d797","A3","batch1","tol_tohand","333","","","","","","","","","tol_peg_3","333","333","0","[[3,1,0],[0,0],[0]]","11","[[0,0,0],[2,3],[1]]","12","0","","","","","","4","","","","",""
"","","","","","single-stim-button","325","766744","0.0-3.0-46.10-1.10","60430fc782b5752a7ae8d797","A3","batch1","tol_toboard","275","","","","","","","","","tol_peg_2","275","275","0","[[3,1,0],[2,0],[0]]","11","[[0,0,0],[2,3],[1]]","12","0","","","","","","4","","","","",""
"","","","","","single-stim-button","326","767106","0.0-3.0-46.11-0.11","60430fc782b5752a7ae8d797","A3","batch1","tol_tohand","362","","","","","","","","","tol_peg_1","362","362","0","[[3,0,0],[2,0],[0]]","12","[[0,0,0],[2,3],[1]]","12","0","","","","","","4","","","","",""
"","","","","","single-stim-button","327","767365","0.0-3.0-46.11-1.11","60430fc782b5752a7ae8d797","A3","batch1","tol_toboard","257","","","","","","","","","tol_peg_2","257","257","0","[[3,0,0],[2,1],[0]]","12","[[0,0,0],[2,3],[1]]","12","0","","","","","","4","","","","",""
"","","","","","single-stim-button","328","768042","0.0-3.0-46.12-0.12","60430fc782b5752a7ae8d797","A3","batch1","tol_tohand","677","","","","","","","","","tol_peg_2","677","677","0","[[3,0,0],[2,0],[0]]","13","[[0,0,0],[2,3],[1]]","12","0","","","","","","4","","","","",""
"","","","","","single-stim-button","329","768349","0.0-3.0-46.12-1.12","60430fc782b5752a7ae8d797","A3","batch1","tol_toboard","306","","","","","","","","","tol_peg_3","306","306","0","[[3,0,0],[2,0],[1]]","13","[[0,0,0],[2,3],[1]]","12","0","","","","","","4","","","","",""
"","","","","","single-stim-button","330","768708","0.0-3.0-46.13-0.13","60430fc782b5752a7ae8d797","A3","batch1","tol_tohand","358","","","","","","","","","tol_peg_1","358","358","0","[[0,0,0],[2,0],[1]]","14","[[0,0,0],[2,3],[1]]","12","0","","","","","","4","","","","",""
"","","","","","single-stim-button","331","768968","0.0-3.0-46.13-1.13","60430fc782b5752a7ae8d797","A3","batch1","tol_toboard","259","","","","","","","","","tol_peg_2","259","259","0","[[0,0,0],[2,3],[1]]","14","[[0,0,0],[2,3],[1]]","12","0","","","","","","4","","","","",""
"","","","","","poldrack-single-stim","332","769980","0.0-3.0-47.0","60430fc782b5752a7ae8d797","A3","batch1","tol_feedback","-1","","","","","true","","","","","1000","1000","500","","","","","","-1","none","true","1717","8144","","","","","",""
"","","","","","html-button-response","333","772134","0.0-3.0-48.0","60430fc782b5752a7ae8d797","A3","batch1","attention_check","2153.100000000093","<p class = block-text>How many balls are in your board<br></p>","1","","","true","","","","","","","","","","","","","","","","","","","","","","",""
"","","","","","html-button-response","334","772932","0.0-3.0-49.0","60430fc782b5752a7ae8d797","A3","batch1","tol_trial_num","797.2000000001863","<div class = centerbox><p class = center-block-text>problem <strong>14</strong> out of 25 problems</p></div>","0","","","","","","","","","","","","","","","","","","","","","","","","","",""
"","","","","","single-stim-button","335","776690","0.0-3.0-50.0-0.0","60430fc782b5752a7ae8d797","A3","batch1","tol_tohand","3756","","","","","","","","","tol_peg_2","3756","3756","0","[[2,1,0],[0,0],[0]]","1","[[1,2,0],[3,0],[0]]","13","0","","","","","","4","","","","",""
"","","","","","single-stim-button","336","777172","0.0-3.0-50.0-1.0","60430fc782b5752a7ae8d797","A3","batch1","tol_toboard","481","","","","","","","","","tol_peg_3","481","481","0","[[2,1,0],[0,0],[3]]","1","[[1,2,0],[3,0],[0]]","13","0","","","","","","4","","","","",""
"","","","","","single-stim-button","337","777828","0.0-3.0-50.1-0.1","60430fc782b5752a7ae8d797","A3","batch1","tol_tohand","656","","","","","","","","","tol_peg_1","656","656","0","[[2,0,0],[0,0],[3]]","2","[[1,2,0],[3,0],[0]]","13","0","","","","","","4","","","","",""
"","","","","","single-stim-button","338","778283","0.0-3.0-50.1-1.1","60430fc782b5752a7ae8d797","A3","batch1","tol_toboard","455","","","","","","","","","tol_peg_2","455","455","0","[[2,0,0],[1,0],[3]]","2","[[1,2,0],[3,0],[0]]","13","0","","","","","","4","","","","",""
"","","","","","single-stim-button","339","780341","0.0-3.0-50.2-0.2","60430fc782b5752a7ae8d797","A3","batch1","tol_tohand","2057","","","","","","","","","tol_peg_3","2057","2057","0","[[2,0,0],[1,0],[0]]","3","[[1,2,0],[3,0],[0]]","13","0","","","","","","4","","","","",""
"","","","","","single-stim-button","340","781047","0.0-3.0-50.2-1.2","60430fc782b5752a7ae8d797","A3","batch1","tol_toboard","705","","","","","","","","","tol_peg_1","705","705","0","[[2,3,0],[1,0],[0]]","3","[[1,2,0],[3,0],[0]]","13","0","","","","","","4","","","","",""
"","","","","","single-stim-button","341","781528","0.0-3.0-50.3-0.3","60430fc782b5752a7ae8d797","A3","batch1","tol_tohand","480","","","","","","","","","tol_peg_2","480","480","0","[[2,3,0],[0,0],[0]]","4","[[1,2,0],[3,0],[0]]","13","0","","","","","","4","","","","",""
"","","","","","single-stim-button","342","781945","0.0-3.0-50.3-1.3","60430fc782b5752a7ae8d797","A3","batch1","tol_toboard","417","","","","","","","","","tol_peg_3","417","417","0","[[2,3,0],[0,0],[1]]","4","[[1,2,0],[3,0],[0]]","13","0","","","","","","4","","","","",""
"","","","","","single-stim-button","343","782835","0.0-3.0-50.4-0.4","60430fc782b5752a7ae8d797","A3","batch1","tol_tohand","889","","","","","","","","","tol_peg_1","889","889","0","[[2,0,0],[0,0],[1]]","5","[[1,2,0],[3,0],[0]]","13","0","","","","","","4","","","","",""
"","","","","","single-stim-button","344","783660","0.0-3.0-50.4-1.4","60430fc782b5752a7ae8d797","A3","batch1","tol_toboard","825","","","","","","","","","tol_peg_2","825","825","0","[[2,0,0],[3,0],[1]]","5","[[1,2,0],[3,0],[0]]","13","0","","","","","","4","","","","",""
"","","","","","single-stim-button","345","785031","0.0-3.0-50.5-0.5","60430fc782b5752a7ae8d797","A3","batch1","tol_tohand","1370","","","","","","","","","tol_peg_1","1370","1370","0","[[0,0,0],[3,0],[1]]","6","[[1,2,0],[3,0],[0]]","13","0","","","","","","4","","","","",""
"","","","","","single-stim-button","346","785413","0.0-3.0-50.5-1.5","60430fc782b5752a7ae8d797","A3","batch1","tol_toboard","381","","","","","","","","","tol_peg_2","381","381","0","[[0,0,0],[3,2],[1]]","6","[[1,2,0],[3,0],[0]]","13","0","","","","","","4","","","","",""
"","","","","","single-stim-button","347","785810","0.0-3.0-50.6-0.6","60430fc782b5752a7ae8d797","A3","batch1","tol_tohand","397","","","","","","","","","tol_peg_3","397","397","0","[[0,0,0],[3,2],[0]]","7","[[1,2,0],[3,0],[0]]","13","0","","","","","","4","","","","",""
"","","","","","single-stim-button","348","786508","0.0-3.0-50.6-1.6","60430fc782b5752a7ae8d797","A3","batch1","tol_toboard","697","","","","","","","","","tol_peg_1","697","697","0","[[1,0,0],[3,2],[0]]","7","[[1,2,0],[3,0],[0]]","13","0","","","","","","4","","","","",""
"","","","","","single-stim-button","349","789782","0.0-3.0-50.7-0.7","60430fc782b5752a7ae8d797","A3","batch1","tol_tohand","3274","","","","","","","","","tol_peg_2","3274","3274","0","[[1,0,0],[3,0],[0]]","8","[[1,2,0],[3,0],[0]]","13","0","","","","","","4","","","","",""
"","","","","","single-stim-button","350","790190","0.0-3.0-50.7-1.7","60430fc782b5752a7ae8d797","A3","batch1","tol_toboard","407","","","","","","","","","tol_peg_1","407","407","0","[[1,2,0],[3,0],[0]]","8","[[1,2,0],[3,0],[0]]","13","0","","","","","","4","","","","",""
"","","","","","poldrack-single-stim","351","791197","0.0-3.0-51.0","60430fc782b5752a7ae8d797","A3","batch1","tol_feedback","-1","","","","","true","","","","","1000","1000","500","","","","","","-1","none","true","3756","12879","","","","","",""
"","","","","","html-button-response","352","792451","0.0-3.0-52.0","60430fc782b5752a7ae8d797","A3","batch1","tol_trial_num","1252.5","<div class = centerbox><p class = center-block-text>problem <strong>15</strong> out of 25 problems</p></div>","0","","","","","","","","","","","","","","","","","","","","","","","","","",""
"","","","","","single-stim-button","353","797613","0.0-3.0-53.0-0.0","60430fc782b5752a7ae8d797","A3","batch1","tol_tohand","5162","","","","","","","","","tol_peg_1","5162","5162","0","[[1,0,0],[3,0],[0]]","1","[[2,0,0],[3,0],[1]]","14","0","","","","","","3","","","","",""
"","","","","","single-stim-button","354","797938","0.0-3.0-53.0-1.0","60430fc782b5752a7ae8d797","A3","batch1","tol_toboard","324","","","","","","","","","tol_peg_2","324","324","0","[[1,0,0],[3,2],[0]]","1","[[2,0,0],[3,0],[1]]","14","0","","","","","","3","","","","",""
"","","","","","single-stim-button","355","798225","0.0-3.0-53.1-0.1","60430fc782b5752a7ae8d797","A3","batch1","tol_tohand","285","","","","","","","","","tol_peg_1","285","285","0","[[0,0,0],[3,2],[0]]","2","[[2,0,0],[3,0],[1]]","14","0","","","","","","3","","","","",""
