"success","timeout","failed_images","failed_audio","failed_video","trial_type","trial_index","time_elapsed","internal_node_id","subject_id","study_id","session_id","view_history","rt","stimulus","response","task","correct","answer","item","fiar_detect_rt","fiar_detect_correct","total_correct_fiar_detect","post_trial_gap","choices","spm_correct","spm_rt","mouse_click","stim_duration","block_duration","timing_post_trial","current_position","tol_num_moves_made","tol_target","tol_problem_id","tol_rt","key_press","possible_responses","tol_correct","preplanning","tol_rt_per_trial","tol_min_moves"
"true","false","[]","[]","[]","preload","0","4368","0.0-0.0","604d8f415e948938fd60b536","A3","batch1","","","","","","","","","","","","","","","","","","","","","","","","","","","","","",""
"true","","","","","fullscreen","1","268382","0.0-1.0-0.0","604d8f415e948938fd60b536","A3","batch1","","","","","","","","","","","","","","","","","","","","","","","","","","","","","",""
"true","","","","","fullscreen","2","412085","0.0-2.0-0.0","604d8f415e948938fd60b536","A3","batch1","","","","","","","","","","","","","","","","","","","","","","","","","","","","","",""
"","","","","","instructions","3","432855","0.0-2.0-1.0-0.0","604d8f415e948938fd60b536","A3","batch1","[{""page_index"":0,""viewing_time"":13765},{""page_index"":1,""viewing_time"":6993.300000190735}]","20762.5","","","","","","","","","","","","","","","","","","","","","","","","","","","",""
"","","","","","html-button-response","4","464573","0.0-2.0-1.0-1.0-0.0","604d8f415e948938fd60b536","A3","batch1","","31711.39999961853","<p class=block-text> Let's answer a few questions <br>","0","pattern_enter_quiz","","","","","","","","","","","","","","","","","","","","","","","","",""
"","","","","","html-button-response","5","473727","0.0-2.0-1.0-1.0-1.0","604d8f415e948938fd60b536","A3","batch1","","9147","<p class = block-text>True or False: You will have as much time as you want to make each choice. <br></p>","1","pattern_quiz","true","","","","","","","","","","","","","","","","","","","","","","","",""
"","","","","","html-button-response","6","475711","0.0-2.0-1.0-1.0-2.0","604d8f415e948938fd60b536","A3","batch1","","1974.0999999046326","<p class = block-text>Correct! You should make your choice <strong> as fast as you can</strong>.</p>","0","pattern_quiz_feedback","","","","","","","","","","","","","","","","","","","","","","","","",""
"","","","","","html-button-response","7","479853","0.0-2.0-1.0-1.0-3.0","604d8f415e948938fd60b536","A3","batch1","","4138.299999713898","<p class = block-text>True or False: You will look for 4 pieces in black or white color connected in a row either horizontally, vertically or diagonally. <br></p>","0","pattern_quiz","true","","","","","","","","","","","","","","","","","","","","","","","",""
"","","","","","html-button-response","8","481305","0.0-2.0-1.0-1.0-4.0","604d8f415e948938fd60b536","A3","batch1","","1446.3000001907349","<p class = block-text>Correct! </p>","0","pattern_quiz_feedback","","","","","","","","","","","","","","","","","","","","","","","","",""
"","","","","","html-button-response","9","483646","0.0-2.0-2.0","604d8f415e948938fd60b536","A3","batch1","","2331.699999809265","<p class=block-text> Now that you've understood the game, let's do a few practice trials before we start!<br> <br>","0","pattern_enter_practice","","","","","","","","","","","","","","","","","","","","","","","","",""
"","","","","","image-keyboard-response","10","488247","0.0-2.0-3.0-0.0","604d8f415e948938fd60b536","A3","batch1","","4582.200000286102","stim/prac_no_16_1.png","j","pattern_practice","true","j","","","","","","","","","","","","","","","","","","","","","","",""
"","","","","","html-keyboard-response","11","489272","0.0-2.0-3.0-1.0","604d8f415e948938fd60b536","A3","batch1","","null","<p style=""font-size:30px;color:green;"">Correct!</p>","null","pattern_feedback","","","","","","","","","","","","","","","","","","","","","","","","",""
"","","","","","image-keyboard-response","12","490709","0.0-2.0-3.0-0.1","604d8f415e948938fd60b536","A3","batch1","","1431.9000000953674","stim/prac_yes_16_ver_w1.png","f","pattern_practice","true","f","","","","","","","","","","","","","","","","","","","","","","",""
"","","","","","html-keyboard-response","13","491737","0.0-2.0-3.0-1.1","604d8f415e948938fd60b536","A3","batch1","","null","<p style=""font-size:30px;color:green;"">Correct!</p>","null","pattern_feedback","","","","","","","","","","","","","","","","","","","","","","","","",""
"","","","","","image-keyboard-response","14","492777","0.0-2.0-3.0-0.2","604d8f415e948938fd60b536","A3","batch1","","1033.2000002861023","stim/prac_yes_18_hor_w1.png","f","pattern_practice","true","f","","","","","","","","","","","","","","","","","","","","","","",""
"","","","","","html-keyboard-response","15","493799","0.0-2.0-3.0-1.2","604d8f415e948938fd60b536","A3","batch1","","null","<p style=""font-size:30px;color:green;"">Correct!</p>","null","pattern_feedback","","","","","","","","","","","","","","","","","","","","","","","","",""
"","","","","","image-keyboard-response","16","494473","0.0-2.0-3.0-0.3","604d8f415e948938fd60b536","A3","batch1","","667.0999999046326","stim/prac_no_18_1.png","j","pattern_practice","true","j","","","","","","","","","","","","","","","","","","","","","","",""
"","","","","","html-keyboard-response","17","495492","0.0-2.0-3.0-1.3","604d8f415e948938fd60b536","A3","batch1","","null","<p style=""font-size:30px;color:green;"">Correct!</p>","null","pattern_feedback","","","","","","","","","","","","","","","","","","","","","","","","",""
"","","","","","image-keyboard-response","18","496843","0.0-2.0-3.0-0.4","604d8f415e948938fd60b536","A3","batch1","","1343.3999996185303","stim/prac_yes_20_dia_b1.png","f","pattern_practice","true","f","","","","","","","","","","","","","","","","","","","","","","",""
"","","","","","html-keyboard-response","19","497869","0.0-2.0-3.0-1.4","604d8f415e948938fd60b536","A3","batch1","","null","<p style=""font-size:30px;color:green;"">Correct!</p>","null","pattern_feedback","","","","","","","","","","","","","","","","","","","","","","","","",""
"","","","","","html-button-response","20","503449","0.0-2.0-4.0","604d8f415e948938fd60b536","A3","batch1","","5572.5","<p class=block-text> Good job! You are done with practice trials!<br>
        You responded correctly on 100% of the trials.<br>
        Press the button below to start official trials. Now you won't see any feedback about your response</p>","0","pattern_enter_official_trials","","","","","","","","","","","","","","","","","","","","","","","","",""
"","","","","","html-keyboard-response","21","504266","0.0-2.0-5.0-0.0","604d8f415e948938fd60b536","A3","batch1","","null","<p class=block-text>Trial 1 out of 78</p>","null","pattern_show_trial_num","","","","","","","","","","","","","","","","","","","","","","","","",""
"","","","","","image-keyboard-response","22","505634","0.0-2.0-5.0-1.0","604d8f415e948938fd60b536","A3","batch1","","1356.7000002861023","stim/no_18_1_b.png","j","pattern_response","true","j","pattern_05","1356.7000002861023","true","1","","","","","","","","","","","","","","","","","","",""
"","","","","","html-keyboard-response","23","506954","0.0-2.0-5.0-0.1","604d8f415e948938fd60b536","A3","batch1","","null","<p class=block-text>Trial 2 out of 78</p>","null","pattern_show_trial_num","","","","","","","","","","","","","","","","","","","","","","","","",""
"","","","","","image-keyboard-response","24","508504","0.0-2.0-5.0-1.1","604d8f415e948938fd60b536","A3","batch1","","1542.4000000953674","stim/no_33_1_b.png","j","pattern_response","true","j","pattern_15","1542.4000000953674","true","2","","","","","","","","","","","","","","","","","","",""
"","","","","","html-keyboard-response","25","509816","0.0-2.0-5.0-0.2","604d8f415e948938fd60b536","A3","batch1","","null","<p class=block-text>Trial 3 out of 78</p>","null","pattern_show_trial_num","","","","","","","","","","","","","","","","","","","","","","","","",""
"","","","","","image-keyboard-response","26","510999","0.0-2.0-5.0-1.2","604d8f415e948938fd60b536","A3","batch1","","1179","stim/yes_26_dia_w2_w.png","f","pattern_response","true","f","pattern_50","1179","true","3","","","","","","","","","","","","","","","","","","",""
"","","","","","html-keyboard-response","27","512313","0.0-2.0-5.0-0.3","604d8f415e948938fd60b536","A3","batch1","","null","<p class=block-text>Trial 4 out of 78</p>","null","pattern_show_trial_num","","","","","","","","","","","","","","","","","","","","","","","","",""
"","","","","","image-keyboard-response","28","513782","0.0-2.0-5.0-1.3","604d8f415e948938fd60b536","A3","batch1","","1464.3000001907349","stim/yes_29_hor_b1_b.png","f","pattern_response","true","f","pattern_52","1464.3000001907349","true","4","","","","","","","","","","","","","","","","","","",""
"","","","","","html-keyboard-response","29","515097","0.0-2.0-5.0-0.4","604d8f415e948938fd60b536","A3","batch1","","null","<p class=block-text>Trial 5 out of 78</p>","null","pattern_show_trial_num","","","","","","","","","","","","","","","","","","","","","","","","",""
"","","","","","image-keyboard-response","30","516089","0.0-2.0-5.0-1.4","604d8f415e948938fd60b536","A3","batch1","","984.6999998092651","stim/yes_49_hor_w1_b.png","f","pattern_response","true","f","pattern_70","984.6999998092651","true","5","","","","","","","","","","","","","","","","","","",""
"","","","","","html-keyboard-response","31","517411","0.0-2.0-5.0-0.5","604d8f415e948938fd60b536","A3","batch1","","null","<p class=block-text>Trial 6 out of 78</p>","null","pattern_show_trial_num","","","","","","","","","","","","","","","","","","","","","","","","",""
"","","","","","image-keyboard-response","32","519308","0.0-2.0-5.0-1.5","604d8f415e948938fd60b536","A3","batch1","","1889.4000000953674","stim/yes_33_dia_w1_w.png","f","pattern_response","true","f","pattern_56","1889.4000000953674","true","6","","","","","","","","","","","","","","","","","","",""
"","","","","","html-keyboard-response","33","520633","0.0-2.0-5.0-0.6","604d8f415e948938fd60b536","A3","batch1","","null","<p class=block-text>Trial 7 out of 78</p>","null","pattern_show_trial_num","","","","","","","","","","","","","","","","","","","","","","","","",""
"","","","","","image-keyboard-response","34","523716","0.0-2.0-5.0-1.6","604d8f415e948938fd60b536","A3","batch1","","3075.2000002861023","stim/no_58_1_w.png","j","pattern_response","true","j","pattern_35","3075.2000002861023","true","7","","","","","","","","","","","","","","","","","","",""
"","","","","","html-keyboard-response","35","525032","0.0-2.0-5.0-0.7","604d8f415e948938fd60b536","A3","batch1","","null","<p class=block-text>Trial 8 out of 78</p>","null","pattern_show_trial_num","","","","","","","","","","","","","","","","","","","","","","","","",""
"","","","","","image-keyboard-response","36","528024","0.0-2.0-5.0-1.7","604d8f415e948938fd60b536","A3","batch1","","2984.699999809265","stim/no_37_2_w.png","j","pattern_response","true","j","pattern_19","2984.699999809265","true","8","","","","","","","","","","","","","","","","","","",""
"","","","","","html-keyboard-response","37","529343","0.0-2.0-5.0-0.8","604d8f415e948938fd60b536","A3","batch1","","null","<p class=block-text>Trial 9 out of 78</p>","null","pattern_show_trial_num","","","","","","","","","","","","","","","","","","","","","","","","",""
"","","","","","image-keyboard-response","38","531722","0.0-2.0-5.0-1.8","604d8f415e948938fd60b536","A3","batch1","","2370.5","stim/no_53_1_b.png","j","pattern_response","true","j","pattern_33","2370.5","true","9","","","","","","","","","","","","","","","","","","",""
"","","","","","html-keyboard-response","39","533028","0.0-2.0-5.0-0.9","604d8f415e948938fd60b536","A3","batch1","","null","<p class=block-text>Trial 10 out of 78</p>","null","pattern_show_trial_num","","","","","","","","","","","","","","","","","","","","","","","","",""
"","","","","","image-keyboard-response","40","534850","0.0-2.0-5.0-1.9","604d8f415e948938fd60b536","A3","batch1","","1815.1999998092651","stim/no_43_2_b.png","j","pattern_response","true","j","pattern_23","1815.1999998092651","true","10","","","","","","","","","","","","","","","","","","",""
"","","","","","html-keyboard-response","41","536165","0.0-2.0-5.0-0.10","604d8f415e948938fd60b536","A3","batch1","","null","<p class=block-text>Trial 11 out of 78</p>","null","pattern_show_trial_num","","","","","","","","","","","","","","","","","","","","","","","","",""
"","","","","","image-keyboard-response","42","537356","0.0-2.0-5.0-1.10","604d8f415e948938fd60b536","A3","batch1","","1185.6999998092651","stim/no_12_1.png","j","pattern_response","true","j","pattern_01","1185.6999998092651","true","11","","","","","","","","","","","","","","","","","","",""
"","","","","","html-keyboard-response","43","538675","0.0-2.0-5.0-0.11","604d8f415e948938fd60b536","A3","batch1","","null","<p class=block-text>Trial 12 out of 78</p>","null","pattern_show_trial_num","","","","","","","","","","","","","","","","","","","","","","","","",""
"","","","","","image-keyboard-response","44","541408","0.0-2.0-5.0-1.11","604d8f415e948938fd60b536","A3","batch1","","2726.1000003814697","stim/yes_51_dia_b1.png","f","pattern_response","true","f","pattern_72","2726.1000003814697","true","12","","","","","","","","","","","","","","","","","","",""
"","","","","","html-keyboard-response","45","542728","0.0-2.0-5.0-0.12","604d8f415e948938fd60b536","A3","batch1","","null","<p class=block-text>Trial 13 out of 78</p>","null","pattern_show_trial_num","","","","","","","","","","","","","","","","","","","","","","","","",""
"","","","","","image-keyboard-response","46","543773","0.0-2.0-5.0-1.12","604d8f415e948938fd60b536","A3","batch1","","1034.5999999046326","stim/yes_17_ver_b1_b.png","f","pattern_response","true","f","pattern_46","1034.5999999046326","true","13","","","","","","","","","","","","","","","","","","",""
"","","","","","html-keyboard-response","47","545082","0.0-2.0-5.0-0.13","604d8f415e948938fd60b536","A3","batch1","","null","<p class=block-text>Trial 14 out of 78</p>","null","pattern_show_trial_num","","","","","","","","","","","","","","","","","","","","","","","","",""
"","","","","","image-keyboard-response","48","546653","0.0-2.0-5.0-1.13","604d8f415e948938fd60b536","A3","batch1","","1564.0999999046326","stim/no_25_1_b.png","j","pattern_response","true","j","pattern_09","1564.0999999046326","true","14","","","","","","","","","","","","","","","","","","",""
"","","","","","html-keyboard-response","49","547969","0.0-2.0-5.0-0.14","604d8f415e948938fd60b536","A3","batch1","","null","<p class=block-text>Trial 15 out of 78</p>","null","pattern_show_trial_num","","","","","","","","","","","","","","","","","","","","","","","","",""
"","","","","","image-keyboard-response","50","550158","0.0-2.0-5.0-1.14","604d8f415e948938fd60b536","A3","batch1","","2184.9000000953674","stim/no_28_2.png","j","pattern_response","true","j","pattern_11","2184.9000000953674","true","15","","","","","","","","","","","","","","","","","","",""
"","","","","","html-keyboard-response","51","551475","0.0-2.0-5.0-0.15","604d8f415e948938fd60b536","A3","batch1","","null","<p class=block-text>Trial 16 out of 78</p>","null","pattern_show_trial_num","","","","","","","","","","","","","","","","","","","","","","","","",""
"","","","","","image-keyboard-response","52","553640","0.0-2.0-5.0-1.15","604d8f415e948938fd60b536","A3","batch1","","2157.2000002861023","stim/no_36_1_b.png","j","pattern_response","true","j","pattern_17","2157.2000002861023","true","16","","","","","","","","","","","","","","","","","","",""
"","","","","","html-keyboard-response","53","554952","0.0-2.0-5.0-0.16","604d8f415e948938fd60b536","A3","batch1","","null","<p class=block-text>Trial 17 out of 78</p>","null","pattern_show_trial_num","","","","","","","","","","","","","","","","","","","","","","","","",""
"","","","","","image-keyboard-response","54","556728","0.0-2.0-5.0-1.16","604d8f415e948938fd60b536","A3","batch1","","1769.0999999046326","stim/no_30_1_b.png","j","pattern_response","true","j","pattern_13","1769.0999999046326","true","17","","","","","","","","","","","","","","","","","","",""
"","","","","","html-keyboard-response","55","558038","0.0-2.0-5.0-0.17","604d8f415e948938fd60b536","A3","batch1","","null","<p class=block-text>Trial 18 out of 78</p>","null","pattern_show_trial_num","","","","","","","","","","","","","","","","","","","","","","","","",""
"","","","","","image-keyboard-response","56","558995","0.0-2.0-5.0-1.17","604d8f415e948938fd60b536","A3","batch1","","951.4000000953674","stim/yes_36_ver_w1_w.png","f","pattern_response","true","f","pattern_58","951.4000000953674","true","18","","","","","","","","","","","","","","","","","","",""
"","","","","","html-keyboard-response","57","560304","0.0-2.0-5.0-0.18","604d8f415e948938fd60b536","A3","batch1","","null","<p class=block-text>Trial 19 out of 78</p>","null","pattern_show_trial_num","","","","","","","","","","","","","","","","","","","","","","","","",""
"","","","","","image-keyboard-response","58","561337","0.0-2.0-5.0-1.18","604d8f415e948938fd60b536","A3","batch1","","1027.0999999046326","stim/yes_46_ver_b1_b.png","f","pattern_response","true","f","pattern_68","1027.0999999046326","true","19","","","","","","","","","","","","","","","","","","",""
"","","","","","html-keyboard-response","59","562648","0.0-2.0-5.0-0.19","604d8f415e948938fd60b536","A3","batch1","","null","<p class=block-text>Trial 20 out of 78</p>","null","pattern_show_trial_num","","","","","","","","","","","","","","","","","","","","","","","","",""
"","","","","","image-keyboard-response","60","564497","0.0-2.0-5.0-1.19","604d8f415e948938fd60b536","A3","batch1","","1842.0999999046326","stim/yes_42_dia_w1_w.png","f","pattern_response","true","f","pattern_64","1842.0999999046326","true","20","","","","","","","","","","","","","","","","","","",""
"","","","","","html-keyboard-response","61","565824","0.0-2.0-5.0-0.20","604d8f415e948938fd60b536","A3","batch1","","null","<p class=block-text>Trial 21 out of 78</p>","null","pattern_show_trial_num","","","","","","","","","","","","","","","","","","","","","","","","",""
"","","","","","image-keyboard-response","62","566761","0.0-2.0-5.0-1.20","604d8f415e948938fd60b536","A3","batch1","","930.7000002861023","stim/yes_70_ver_b1.png","f","pattern_response","true","f","pattern_80","930.7000002861023","true","21","","","","","","","","","","","","","","","","","","",""
"","","","","","html-keyboard-response","63","568074","0.0-2.0-5.0-0.21","604d8f415e948938fd60b536","A3","batch1","","null","<p class=block-text>Trial 22 out of 78</p>","null","pattern_show_trial_num","","","","","","","","","","","","","","","","","","","","","","","","",""
"","","","","","image-keyboard-response","64","571142","0.0-2.0-5.0-1.21","604d8f415e948938fd60b536","A3","batch1","","3063.6000003814697","stim/no_51_1.png","j","pattern_response","true","j","pattern_31","3063.6000003814697","true","22","","","","","","","","","","","","","","","","","","",""
"","","","","","html-keyboard-response","65","572471","0.0-2.0-5.0-0.22","604d8f415e948938fd60b536","A3","batch1","","null","<p class=block-text>Trial 23 out of 78</p>","null","pattern_show_trial_num","","","","","","","","","","","","","","","","","","","","","","","","",""
"","","","","","image-keyboard-response","66","573496","0.0-2.0-5.0-1.22","604d8f415e948938fd60b536","A3","batch1","","1017.3000001907349","stim/yes_39_hor_w1_w.png","f","pattern_response","true","f","pattern_62","1017.3000001907349","true","23","","","","","","","","","","","","","","","","","","",""
"","","","","","html-keyboard-response","67","574809","0.0-2.0-5.0-0.23","604d8f415e948938fd60b536","A3","batch1","","null","<p class=block-text>Trial 24 out of 78</p>","null","pattern_show_trial_num","","","","","","","","","","","","","","","","","","","","","","","","",""
"","","","","","image-keyboard-response","68","575910","0.0-2.0-5.0-1.23","604d8f415e948938fd60b536","A3","batch1","","1033.9000000953674","stim/yes_15_dia_b1u_b.png","f","pattern_response","true","f","pattern_44","1033.9000000953674","true","24","","","","","","","","","","","","","","","","","","",""
"","","","","","html-keyboard-response","69","577227","0.0-2.0-5.0-0.24","604d8f415e948938fd60b536","A3","batch1","","null","<p class=block-text>Trial 25 out of 78</p>","null","pattern_show_trial_num","","","","","","","","","","","","","","","","","","","","","","","","",""
"","","","","","image-keyboard-response","70","579768","0.0-2.0-5.0-1.24","604d8f415e948938fd60b536","A3","batch1","","2535","stim/yes_44_ver_w1_w.png","j","pattern_response","false","f","pattern_66","2535","false","24","","","","","","","","","","","","","","","","","","",""
"","","","","","html-keyboard-response","71","581091","0.0-2.0-5.0-0.25","604d8f415e948938fd60b536","A3","batch1","","null","<p class=block-text>Trial 26 out of 78</p>","null","pattern_show_trial_num","","","","","","","","","","","","","","","","","","","","","","","","",""
"","","","","","image-keyboard-response","72","582281","0.0-2.0-5.0-1.25","604d8f415e948938fd60b536","A3","batch1","","1181.6000003814697","stim/yes_30_ver_b1_b.png","f","pattern_response","true","f","pattern_54","1181.6000003814697","true","25","","","","","","","","","","","","","","","","","","",""
"","","","","","html-keyboard-response","73","583599","0.0-2.0-5.0-0.26","604d8f415e948938fd60b536","A3","batch1","","null","<p class=block-text>Trial 27 out of 78</p>","null","pattern_show_trial_num","","","","","","","","","","","","","","","","","","","","","","","","",""
"","","","","","image-keyboard-response","74","584650","0.0-2.0-5.0-1.26","604d8f415e948938fd60b536","A3","batch1","","1042.7999997138977","stim/no_22_1_b.png","j","pattern_response","true","j","pattern_07","1042.7999997138977","true","26","","","","","","","","","","","","","","","","","","",""
"","","","","","html-keyboard-response","75","585962","0.0-2.0-5.0-0.27","604d8f415e948938fd60b536","A3","batch1","","null","<p class=block-text>Trial 28 out of 78</p>","null","pattern_show_trial_num","","","","","","","","","","","","","","","","","","","","","","","","",""
"","","","","","image-keyboard-response","76","589437","0.0-2.0-5.0-1.27","604d8f415e948938fd60b536","A3","batch1","","3471.2000002861023","stim/yes_58_dia_w1_w.png","j","pattern_response","false","f","pattern_76","3471.2000002861023","false","26","","","","","","","","","","","","","","","","","","",""
"","","","","","html-keyboard-response","77","590746","0.0-2.0-5.0-0.28","604d8f415e948938fd60b536","A3","batch1","","null","<p class=block-text>Trial 29 out of 78</p>","null","pattern_show_trial_num","","","","","","","","","","","","","","","","","","","","","","","","",""
"","","","","","image-keyboard-response","78","592312","0.0-2.0-5.0-1.28","604d8f415e948938fd60b536","A3","batch1","","1557.4000000953674","stim/yes_23_ver_b1.png","f","pattern_response","true","f","pattern_48","1557.4000000953674","true","27","","","","","","","","","","","","","","","","","","",""
"","","","","","html-keyboard-response","79","593636","0.0-2.0-5.0-0.29","604d8f415e948938fd60b536","A3","batch1","","null","<p class=block-text>Trial 30 out of 78</p>","null","pattern_show_trial_num","","","","","","","","","","","","","","","","","","","","","","","","",""
"","","","","","image-keyboard-response","80","595728","0.0-2.0-5.0-1.29","604d8f415e948938fd60b536","A3","batch1","","2081.5","stim/no_49_2_b.png","j","pattern_response","true","j","pattern_29","2081.5","true","28","","","","","","","","","","","","","","","","","","",""
"","","","","","html-keyboard-response","81","597045","0.0-2.0-5.0-0.30","604d8f415e948938fd60b536","A3","batch1","","null","<p class=block-text>Trial 31 out of 78</p>","null","pattern_show_trial_num","","","","","","","","","","","","","","","","","","","","","","","","",""
"","","","","","image-keyboard-response","82","598099","0.0-2.0-5.0-1.30","604d8f415e948938fd60b536","A3","batch1","","1044.8000001907349","stim/yes_53_ver_b1_b.png","f","pattern_response","true","f","pattern_74","1044.8000001907349","true","29","","","","","","","","","","","","","","","","","","",""
"","","","","","html-keyboard-response","83","599428","0.0-2.0-5.0-0.31","604d8f415e948938fd60b536","A3","batch1","","null","<p class=block-text>Trial 32 out of 78</p>","null","pattern_show_trial_num","","","","","","","","","","","","","","","","","","","","","","","","",""
"","","","","","image-keyboard-response","84","602038","0.0-2.0-5.0-1.31","604d8f415e948938fd60b536","A3","batch1","","2602.0999999046326","stim/no_39_1_w.png","j","pattern_response","true","j","pattern_21","2602.0999999046326","true","30","","","","","","","","","","","","","","","","","","",""
"","","","","","html-keyboard-response","85","603361","0.0-2.0-5.0-0.32","604d8f415e948938fd60b536","A3","batch1","","null","<p class=block-text>Trial 33 out of 78</p>","null","pattern_show_trial_num","","","","","","","","","","","","","","","","","","","","","","","","",""
"","","","","","image-keyboard-response","86","605465","0.0-2.0-5.0-1.32","604d8f415e948938fd60b536","A3","batch1","","2095","stim/no_45_1_w.png","j","pattern_response","true","j","pattern_25","2095","true","31","","","","","","","","","","","","","","","","","","",""
"","","","","","html-keyboard-response","87","606786","0.0-2.0-5.0-0.33","604d8f415e948938fd60b536","A3","batch1","","null","<p class=block-text>Trial 34 out of 78</p>","null","pattern_show_trial_num","","","","","","","","","","","","","","","","","","","","","","","","",""
"","","","","","image-keyboard-response","88","611324","0.0-2.0-5.0-1.33","604d8f415e948938fd60b536","A3","batch1","","4532.599999904633","stim/no_67_1.png","j","pattern_response","true","j","pattern_39","4532.599999904633","true","32","","","","","","","","","","","","","","","","","","",""
"","","","","","html-keyboard-response","89","612640","0.0-2.0-5.0-0.34","604d8f415e948938fd60b536","A3","batch1","","null","<p class=block-text>Trial 35 out of 78</p>","null","pattern_show_trial_num","","","","","","","","","","","","","","","","","","","","","","","","",""
"","","","","","image-keyboard-response","90","615411","0.0-2.0-5.0-1.34","604d8f415e948938fd60b536","A3","batch1","","2764.5999999046326","stim/yes_63_dia_b1.png","f","pattern_response","true","f","pattern_78","2764.5999999046326","true","33","","","","","","","","","","","","","","","","","","",""
"","","","","","html-keyboard-response","91","616737","0.0-2.0-5.0-0.35","604d8f415e948938fd60b536","A3","batch1","","null","<p class=block-text>Trial 36 out of 78</p>","null","pattern_show_trial_num","","","","","","","","","","","","","","","","","","","","","","","","",""
"","","","","","image-keyboard-response","92","617919","0.0-2.0-5.0-1.35","604d8f415e948938fd60b536","A3","batch1","","1171.5","stim/no_15_1_w.png","j","pattern_response","true","j","pattern_03","1171.5","true","34","","","","","","","","","","","","","","","","","","",""
"","","","","","html-keyboard-response","93","619228","0.0-2.0-5.0-0.36","604d8f415e948938fd60b536","A3","batch1","","null","<p class=block-text>Trial 37 out of 78</p>","null","pattern_show_trial_num","","","","","","","","","","","","","","","","","","","","","","","","",""
"","","","","","image-keyboard-response","94","620619","0.0-2.0-5.0-1.36","604d8f415e948938fd60b536","A3","batch1","","1385","stim/yes_37_hor_w1_w.png","f","pattern_response","true","f","pattern_60","1385","true","35","","","","","","","","","","","","","","","","","","",""
"","","","","","html-keyboard-response","95","621951","0.0-2.0-5.0-0.37","604d8f415e948938fd60b536","A3","batch1","","null","<p class=block-text>Trial 38 out of 78</p>","null","pattern_show_trial_num","","","","","","","","","","","","","","","","","","","","","","","","",""
"","","","","","image-keyboard-response","96","623330","0.0-2.0-5.0-1.37","604d8f415e948938fd60b536","A3","batch1","","1371.5","stim/yes_12_hor_w1_w.png","f","pattern_response","true","f","pattern_42","1371.5","true","36","","","","","","","","","","","","","","","","","","",""
"","","","","","html-keyboard-response","97","624654","0.0-2.0-5.0-0.38","604d8f415e948938fd60b536","A3","batch1","","null","<p class=block-text>Trial 39 out of 78</p>","null","pattern_show_trial_num","","","","","","","","","","","","","","","","","","","","","","","","",""
"","","","","","image-keyboard-response","98","627257","0.0-2.0-5.0-1.38","604d8f415e948938fd60b536","A3","batch1","","2596.2000002861023","stim/no_47_1_b.png","j","pattern_response","true","j","pattern_27","2596.2000002861023","true","37","","","","","","","","","","","","","","","","","","",""
"","","","","","image-keyboard-response","99","629826","0.0-2.0-6.0","604d8f415e948938fd60b536","A3","batch1","","2058.1000003814697","stim/empty_board.png","j","attention_check","true","j","","","","","500","[""f"",""j""]","","","","","","","","","","","","","","","","",""
"","","","","","html-keyboard-response","100","630642","0.0-2.0-7.0-0.0","604d8f415e948938fd60b536","A3","batch1","","null","<p class=block-text>Trial 40 out of 78</p>","null","pattern_show_trial_num","","","","","","","","","","","","","","","","","","","","","","","","",""
"","","","","","image-keyboard-response","101","633378","0.0-2.0-7.0-1.0","604d8f415e948938fd60b536","A3","batch1","","2729.4000000953674","stim/yes_40_dia_b1_b.png","j","pattern_response","false","f","pattern_63","2729.4000000953674","false","37","","","","","","","","","","","","","","","","","","",""
"","","","","","html-keyboard-response","102","634688","0.0-2.0-7.0-0.1","604d8f415e948938fd60b536","A3","batch1","","null","<p class=block-text>Trial 41 out of 78</p>","null","pattern_show_trial_num","","","","","","","","","","","","","","","","","","","","","","","","",""
"","","","","","image-keyboard-response","103","636973","0.0-2.0-7.0-1.1","604d8f415e948938fd60b536","A3","batch1","","2275.0999999046326","stim/no_65_1_b.png","j","pattern_response","true","j","pattern_38","2275.0999999046326","true","38","","","","","","","","","","","","","","","","","","",""
"","","","","","html-keyboard-response","104","638285","0.0-2.0-7.0-0.2","604d8f415e948938fd60b536","A3","batch1","","null","<p class=block-text>Trial 42 out of 78</p>","null","pattern_show_trial_num","","","","","","","","","","","","","","","","","","","","","","","","",""
"","","","","","image-keyboard-response","105","640464","0.0-2.0-7.0-1.2","604d8f415e948938fd60b536","A3","batch1","","2167.5","stim/yes_55_hor_w1_w.png","j","pattern_response","false","f","pattern_75","2167.5","false","38","","","","","","","","","","","","","","","","","","",""
"","","","","","html-keyboard-response","106","641782","0.0-2.0-7.0-0.3","604d8f415e948938fd60b536","A3","batch1","","null","<p class=block-text>Trial 43 out of 78</p>","null","pattern_show_trial_num","","","","","","","","","","","","","","","","","","","","","","","","",""
"","","","","","image-keyboard-response","107","642744","0.0-2.0-7.0-1.3","604d8f415e948938fd60b536","A3","batch1","","955.8000001907349","stim/yes_25_hor_b1_b.png","f","pattern_response","true","f","pattern_49","955.8000001907349","true","39","","","","","","","","","","","","","","","","","","",""
"","","","","","html-keyboard-response","108","644057","0.0-2.0-7.0-0.4","604d8f415e948938fd60b536","A3","batch1","","null","<p class=block-text>Trial 44 out of 78</p>","null","pattern_show_trial_num","","","","","","","","","","","","","","","","","","","","","","","","",""
"","","","","","image-keyboard-response","109","646368","0.0-2.0-7.0-1.4","604d8f415e948938fd60b536","A3","batch1","","2304.0999999046326","stim/yes_48_dia_w1_w.png","j","pattern_response","false","f","pattern_69","2304.0999999046326","false","39","","","","","","","","","","","","","","","","","","",""
"","","","","","html-keyboard-response","110","647683","0.0-2.0-7.0-0.5","604d8f415e948938fd60b536","A3","batch1","","null","<p class=block-text>Trial 45 out of 78</p>","null","pattern_show_trial_num","","","","","","","","","","","","","","","","","","","","","","","","",""
"","","","","","image-keyboard-response","111","649068","0.0-2.0-7.0-1.5","604d8f415e948938fd60b536","A3","batch1","","1379.1999998092651","stim/yes_35_dia_b1.png","f","pattern_response","true","f","pattern_57","1379.1999998092651","true","40","","","","","","","","","","","","","","","","","","",""
"","","","","","html-keyboard-response","112","650383","0.0-2.0-7.0-0.6","604d8f415e948938fd60b536","A3","batch1","","null","<p class=block-text>Trial 46 out of 78</p>","null","pattern_show_trial_num","","","","","","","","","","","","","","","","","","","","","","","","",""
"","","","","","image-keyboard-response","113","651714","0.0-2.0-7.0-1.6","604d8f415e948938fd60b536","A3","batch1","","1326.9000000953674","stim/no_20_1_w.png","j","pattern_response","true","j","pattern_06","1326.9000000953674","true","41","","","","","","","","","","","","","","","","","","",""
"","","","","","html-keyboard-response","114","653046","0.0-2.0-7.0-0.7","604d8f415e948938fd60b536","A3","batch1","","null","<p class=block-text>Trial 47 out of 78</p>","null","pattern_show_trial_num","","","","","","","","","","","","","","","","","","","","","","","","",""
"","","","","","image-keyboard-response","115","654556","0.0-2.0-7.0-1.7","604d8f415e948938fd60b536","A3","batch1","","1442.3999996185303","stim/yes_50_dia_w1.png","f","pattern_response","true","f","pattern_71","1442.3999996185303","true","42","","","","","","","","","","","","","","","","","","",""
"","","","","","html-keyboard-response","116","655862","0.0-2.0-7.0-0.8","604d8f415e948938fd60b536","A3","batch1","","null","<p class=block-text>Trial 48 out of 78</p>","null","pattern_show_trial_num","","","","","","","","","","","","","","","","","","","","","","","","",""
"","","","","","image-keyboard-response","117","657164","0.0-2.0-7.0-1.8","604d8f415e948938fd60b536","A3","batch1","","1293","stim/no_26_1_w.png","j","pattern_response","true","j","pattern_10","1293","true","43","","","","","","","","","","","","","","","","","","",""
"","","","","","html-keyboard-response","118","658477","0.0-2.0-7.0-0.9","604d8f415e948938fd60b536","A3","batch1","","null","<p class=block-text>Trial 49 out of 78</p>","null","pattern_show_trial_num","","","","","","","","","","","","","","","","","","","","","","","","",""
"","","","","","image-keyboard-response","119","660214","0.0-2.0-7.0-1.9","604d8f415e948938fd60b536","A3","batch1","","1729.5999999046326","stim/yes_29_ver_w1.png","f","pattern_response","true","f","pattern_53","1729.5999999046326","true","44","","","","","","","","","","","","","","","","","","",""
"","","","","","html-keyboard-response","120","661527","0.0-2.0-7.0-0.10","604d8f415e948938fd60b536","A3","batch1","","null","<p class=block-text>Trial 50 out of 78</p>","null","pattern_show_trial_num","","","","","","","","","","","","","","","","","","","","","","","","",""
"","","","","","image-keyboard-response","121","664035","0.0-2.0-7.0-1.10","604d8f415e948938fd60b536","A3","batch1","","2501.2000002861023","stim/no_62_1_w.png","j","pattern_response","true","j","pattern_36","2501.2000002861023","true","45","","","","","","","","","","","","","","","","","","",""
"","","","","","html-keyboard-response","122","665354","0.0-2.0-7.0-0.11","604d8f415e948938fd60b536","A3","batch1","","null","<p class=block-text>Trial 51 out of 78</p>","null","pattern_show_trial_num","","","","","","","","","","","","","","","","","","","","","","","","",""
"","","","","","image-keyboard-response","123","666973","0.0-2.0-7.0-1.11","604d8f415e948938fd60b536","A3","batch1","","1611.7999997138977","stim/no_42_1_w.png","j","pattern_response","true","j","pattern_22","1611.7999997138977","true","46","","","","","","","","","","","","","","","","","","",""
"","","","","","html-keyboard-response","124","668294","0.0-2.0-7.0-0.12","604d8f415e948938fd60b536","A3","batch1","","null","<p class=block-text>Trial 52 out of 78</p>","null","pattern_show_trial_num","","","","","","","","","","","","","","","","","","","","","","","","",""
"","","","","","image-keyboard-response","125","671010","0.0-2.0-7.0-1.12","604d8f415e948938fd60b536","A3","batch1","","2711.4000000953674","stim/yes_37_dia_w1.png","j","pattern_response","false","f","pattern_59","2711.4000000953674","false","46","","","","","","","","","","","","","","","","","","",""
"","","","","","html-keyboard-response","126","672329","0.0-2.0-7.0-0.13","604d8f415e948938fd60b536","A3","batch1","","null","<p class=block-text>Trial 53 out of 78</p>","null","pattern_show_trial_num","","","","","","","","","","","","","","","","","","","","","","","","",""
"","","","","","image-keyboard-response","127","673208","0.0-2.0-7.0-1.13","604d8f415e948938fd60b536","A3","batch1","","868.8000001907349","stim/yes_14_hor_b1_w.png","j","pattern_response","false","f","pattern_43","868.8000001907349","false","46","","","","","","","","","","","","","","","","","","",""
"","","","","","html-keyboard-response","128","674523","0.0-2.0-7.0-0.14","604d8f415e948938fd60b536","A3","batch1","","null","<p class=block-text>Trial 54 out of 78</p>","null","pattern_show_trial_num","","","","","","","","","","","","","","","","","","","","","","","","",""
"","","","","","image-keyboard-response","129","675764","0.0-2.0-7.0-1.14","604d8f415e948938fd60b536","A3","batch1","","1236.4000000953674","stim/yes_38_hor_b1_b.png","f","pattern_response","true","f","pattern_61","1236.4000000953674","true","47","","","","","","","","","","","","","","","","","","",""
"","","","","","html-keyboard-response","130","677087","0.0-2.0-7.0-0.15","604d8f415e948938fd60b536","A3","batch1","","null","<p class=block-text>Trial 55 out of 78</p>","null","pattern_show_trial_num","","","","","","","","","","","","","","","","","","","","","","","","",""
"","","","","","image-keyboard-response","131","678536","0.0-2.0-7.0-1.15","604d8f415e948938fd60b536","A3","batch1","","1443","stim/no_17_1_w.png","j","pattern_response","true","j","pattern_04","1443","true","48","","","","","","","","","","","","","","","","","","",""
"","","","","","html-keyboard-response","132","679851","0.0-2.0-7.0-0.16","604d8f415e948938fd60b536","A3","batch1","","null","<p class=block-text>Trial 56 out of 78</p>","null","pattern_show_trial_num","","","","","","","","","","","","","","","","","","","","","","","","",""
"","","","","","image-keyboard-response","133","681564","0.0-2.0-7.0-1.16","604d8f415e948938fd60b536","A3","batch1","","1704","stim/yes_60_ver_b1_b.png","f","pattern_response","true","f","pattern_77","1704","true","49","","","","","","","","","","","","","","","","","","",""
"","","","","","html-keyboard-response","134","682880","0.0-2.0-7.0-0.17","604d8f415e948938fd60b536","A3","batch1","","null","<p class=block-text>Trial 57 out of 78</p>","null","pattern_show_trial_num","","","","","","","","","","","","","","","","","","","","","","","","",""
"","","","","","image-keyboard-response","135","683592","0.0-2.0-7.0-1.17","604d8f415e948938fd60b536","A3","batch1","","707.5","stim/yes_17_dia_w1.png","f","pattern_response","true","f","pattern_45","707.5","true","50","","","","","","","","","","","","","","","","","","",""
"","","","","","html-keyboard-response","136","684922","0.0-2.0-7.0-0.18","604d8f415e948938fd60b536","A3","batch1","","null","<p class=block-text>Trial 58 out of 78</p>","null","pattern_show_trial_num","","","","","","","","","","","","","","","","","","","","","","","","",""
"","","","","","image-keyboard-response","137","689681","0.0-2.0-7.0-1.18","604d8f415e948938fd60b536","A3","batch1","","4753.800000190735","stim/yes_52_ver_w1.png","f","pattern_response","true","f","pattern_73","4753.800000190735","true","51","","","","","","","","","","","","","","","","","","",""
"","","","","","html-keyboard-response","138","691001","0.0-2.0-7.0-0.19","604d8f415e948938fd60b536","A3","batch1","","null","<p class=block-text>Trial 59 out of 78</p>","null","pattern_show_trial_num","","","","","","","","","","","","","","","","","","","","","","","","",""
"","","","","","image-keyboard-response","139","693294","0.0-2.0-7.0-1.19","604d8f415e948938fd60b536","A3","batch1","","2284.0999999046326","stim/yes_31_hor_b1.png","f","pattern_response","true","f","pattern_55","2284.0999999046326","true","52","","","","","","","","","","","","","","","","","","",""
"","","","","","html-keyboard-response","140","694620","0.0-2.0-7.0-0.20","604d8f415e948938fd60b536","A3","batch1","","null","<p class=block-text>Trial 60 out of 78</p>","null","pattern_show_trial_num","","","","","","","","","","","","","","","","","","","","","","","","",""
"","","","","","image-keyboard-response","141","697602","0.0-2.0-7.0-1.20","604d8f415e948938fd60b536","A3","batch1","","2972.4000000953674","stim/no_50_1.png","j","pattern_response","true","j","pattern_30","2972.4000000953674","true","53","","","","","","","","","","","","","","","","","","",""
"","","","","","html-keyboard-response","142","698913","0.0-2.0-7.0-0.21","604d8f415e948938fd60b536","A3","batch1","","null","<p class=block-text>Trial 61 out of 78</p>","null","pattern_show_trial_num","","","","","","","","","","","","","","","","","","","","","","","","",""
"","","","","","image-keyboard-response","143","701887","0.0-2.0-7.0-1.21","604d8f415e948938fd60b536","A3","batch1","","2967.4000000953674","stim/no_48_1_w.png","j","pattern_response","true","j","pattern_28","2967.4000000953674","true","54","","","","","","","","","","","","","","","","","","",""
"","","","","","html-keyboard-response","144","703212","0.0-2.0-7.0-0.22","604d8f415e948938fd60b536","A3","batch1","","null","<p class=block-text>Trial 62 out of 78</p>","null","pattern_show_trial_num","","","","","","","","","","","","","","","","","","","","","","","","",""
"","","","","","image-keyboard-response","145","704816","0.0-2.0-7.0-1.22","604d8f415e948938fd60b536","A3","batch1","","1595.2000002861023","stim/no_13_2_b.png","j","pattern_response","true","j","pattern_02","1595.2000002861023","true","55","","","","","","","","","","","","","","","","","","",""
"","","","","","html-keyboard-response","146","706124","0.0-2.0-7.0-0.23","604d8f415e948938fd60b536","A3","batch1","","null","<p class=block-text>Trial 63 out of 78</p>","null","pattern_show_trial_num","","","","","","","","","","","","","","","","","","","","","","","","",""
"","","","","","image-keyboard-response","147","709130","0.0-2.0-7.0-1.23","604d8f415e948938fd60b536","A3","batch1","","2997.5","stim/no_44_1.png","j","pattern_response","true","j","pattern_24","2997.5","true","56","","","","","","","","","","","","","","","","","","",""
"","","","","","html-keyboard-response","148","710458","0.0-2.0-7.0-0.24","604d8f415e948938fd60b536","A3","batch1","","null","<p class=block-text>Trial 64 out of 78</p>","null","pattern_show_trial_num","","","","","","","","","","","","","","","","","","","","","","","","",""
"","","","","","image-keyboard-response","149","713621","0.0-2.0-7.0-1.24","604d8f415e948938fd60b536","A3","batch1","","3154.0999999046326","stim/no_46_1_b.png","j","pattern_response","true","j","pattern_26","3154.0999999046326","true","57","","","","","","","","","","","","","","","","","","",""
"","","","","","html-keyboard-response","150","714937","0.0-2.0-7.0-0.25","604d8f415e948938fd60b536","A3","batch1","","null","<p class=block-text>Trial 65 out of 78</p>","null","pattern_show_trial_num","","","","","","","","","","","","","","","","","","","","","","","","",""
"","","","","","image-keyboard-response","151","716145","0.0-2.0-7.0-1.25","604d8f415e948938fd60b536","A3","batch1","","1208","stim/yes_45_hor_b2_b.png","f","pattern_response","true","f","pattern_67","1208","true","58","","","","","","","","","","","","","","","","","","",""
"","","","","","html-keyboard-response","152","717458","0.0-2.0-7.0-0.26","604d8f415e948938fd60b536","A3","batch1","","null","<p class=block-text>Trial 66 out of 78</p>","null","pattern_show_trial_num","","","","","","","","","","","","","","","","","","","","","","","","",""
"","","","","","image-keyboard-response","153","718531","0.0-2.0-7.0-1.26","604d8f415e948938fd60b536","A3","batch1","","1066.9000000953674","stim/yes_28_ver_b1.png","f","pattern_response","true","f","pattern_51","1066.9000000953674","true","59","","","","","","","","","","","","","","","","","","",""
"","","","","","html-keyboard-response","154","719836","0.0-2.0-7.0-0.27","604d8f415e948938fd60b536","A3","batch1","","null","<p class=block-text>Trial 67 out of 78</p>","null","pattern_show_trial_num","","","","","","","","","","","","","","","","","","","","","","","","",""
"","","","","","image-keyboard-response","155","720666","0.0-2.0-7.0-1.27","604d8f415e948938fd60b536","A3","batch1","","821.6999998092651","stim/yes_22_ver_w1.png","f","pattern_response","true","f","pattern_47","821.6999998092651","true","60","","","","","","","","","","","","","","","","","","",""
"","","","","","html-keyboard-response","156","721994","0.0-2.0-7.0-0.28","604d8f415e948938fd60b536","A3","batch1","","null","<p class=block-text>Trial 68 out of 78</p>","null","pattern_show_trial_num","","","","","","","","","","","","","","","","","","","","","","","","",""
"","","","","","image-keyboard-response","157","722979","0.0-2.0-7.0-1.28","604d8f415e948938fd60b536","A3","batch1","","980.9000000953674","stim/yes_43_ver_w1_w.png","f","pattern_response","true","f","pattern_65","980.9000000953674","true","61","","","","","","","","","","","","","","","","","","",""
"","","","","","html-keyboard-response","158","724285","0.0-2.0-7.0-0.29","604d8f415e948938fd60b536","A3","batch1","","null","<p class=block-text>Trial 69 out of 78</p>","null","pattern_show_trial_num","","","","","","","","","","","","","","","","","","","","","","","","",""
"","","","","","image-keyboard-response","159","725802","0.0-2.0-7.0-1.29","604d8f415e948938fd60b536","A3","batch1","","1512.7999997138977","stim/no_23_1.png","j","pattern_response","true","j","pattern_08","1512.7999997138977","true","62","","","","","","","","","","","","","","","","","","",""
"","","","","","html-keyboard-response","160","727115","0.0-2.0-7.0-0.30","604d8f415e948938fd60b536","A3","batch1","","null","<p class=block-text>Trial 70 out of 78</p>","null","pattern_show_trial_num","","","","","","","","","","","","","","","","","","","","","","","","",""
"","","","","","image-keyboard-response","161","729068","0.0-2.0-7.0-1.30","604d8f415e948938fd60b536","A3","batch1","","1948.6000003814697","stim/no_34_1_b.png","j","pattern_response","true","j","pattern_16","1948.6000003814697","true","63","","","","","","","","","","","","","","","","","","",""
"","","","","","html-keyboard-response","162","730372","0.0-2.0-7.0-0.31","604d8f415e948938fd60b536","A3","batch1","","null","<p class=block-text>Trial 71 out of 78</p>","null","pattern_show_trial_num","","","","","","","","","","","","","","","","","","","","","","","","",""
"","","","","","image-keyboard-response","163","733275","0.0-2.0-7.0-1.31","604d8f415e948938fd60b536","A3","batch1","","2833","stim/no_38_1_b.png","j","pattern_response","true","j","pattern_20","2833","true","64","","","","","","","","","","","","","","","","","","",""
"","","","","","html-keyboard-response","164","734611","0.0-2.0-7.0-0.32","604d8f415e948938fd60b536","A3","batch1","","null","<p class=block-text>Trial 72 out of 78</p>","null","pattern_show_trial_num","","","","","","","","","","","","","","","","","","","","","","","","",""
"","","","","","image-keyboard-response","165","738500","0.0-2.0-7.0-1.32","604d8f415e948938fd60b536","A3","batch1","","3881.4000000953674","stim/no_70_2.png","j","pattern_response","true","j","pattern_40","3881.4000000953674","true","65","","","","","","","","","","","","","","","","","","",""
"","","","","","html-keyboard-response","166","739833","0.0-2.0-7.0-0.33","604d8f415e948938fd60b536","A3","batch1","","null","<p class=block-text>Trial 73 out of 78</p>","null","pattern_show_trial_num","","","","","","","","","","","","","","","","","","","","","","","","",""
"","","","","","image-keyboard-response","167","742401","0.0-2.0-7.0-1.33","604d8f415e948938fd60b536","A3","batch1","","2560.9000000953674","stim/no_55_1_w.png","j","pattern_response","true","j","pattern_34","2560.9000000953674","true","66","","","","","","","","","","","","","","","","","","",""
"","","","","","html-keyboard-response","168","743707","0.0-2.0-7.0-0.34","604d8f415e948938fd60b536","A3","batch1","","null","<p class=block-text>Trial 74 out of 78</p>","null","pattern_show_trial_num","","","","","","","","","","","","","","","","","","","","","","","","",""
"","","","","","image-keyboard-response","169","748845","0.0-2.0-7.0-1.34","604d8f415e948938fd60b536","A3","batch1","","5132","stim/no_52_1.png","j","pattern_response","true","j","pattern_32","5132","true","67","","","","","","","","","","","","","","","","","","",""
"","","","","","html-keyboard-response","170","750184","0.0-2.0-7.0-0.35","604d8f415e948938fd60b536","A3","batch1","","null","<p class=block-text>Trial 75 out of 78</p>","null","pattern_show_trial_num","","","","","","","","","","","","","","","","","","","","","","","","",""
"","","","","","image-keyboard-response","171","751760","0.0-2.0-7.0-1.35","604d8f415e948938fd60b536","A3","batch1","","1567.8000001907349","stim/yes_67_hor_b1.png","f","pattern_response","true","f","pattern_79","1567.8000001907349","true","68","","","","","","","","","","","","","","","","","","",""
"","","","","","html-keyboard-response","172","753075","0.0-2.0-7.0-0.36","604d8f415e948938fd60b536","A3","batch1","","null","<p class=block-text>Trial 76 out of 78</p>","null","pattern_show_trial_num","","","","","","","","","","","","","","","","","","","","","","","","",""
"","","","","","image-keyboard-response","173","755610","0.0-2.0-7.0-1.36","604d8f415e948938fd60b536","A3","batch1","","2529.199999809265","stim/no_32_1_w.png","j","pattern_response","true","j","pattern_14","2529.199999809265","true","69","","","","","","","","","","","","","","","","","","",""
"","","","","","html-keyboard-response","174","756923","0.0-2.0-7.0-0.37","604d8f415e948938fd60b536","A3","batch1","","null","<p class=block-text>Trial 77 out of 78</p>","null","pattern_show_trial_num","","","","","","","","","","","","","","","","","","","","","","","","",""
"","","","","","image-keyboard-response","175","759825","0.0-2.0-7.0-1.37","604d8f415e948938fd60b536","A3","batch1","","2894.8999996185303","stim/no_36_2_w.png","j","pattern_response","true","j","pattern_18","2894.8999996185303","true","70","","","","","","","","","","","","","","","","","","",""
"","","","","","html-keyboard-response","176","761140","0.0-2.0-7.0-0.38","604d8f415e948938fd60b536","A3","batch1","","null","<p class=block-text>Trial 78 out of 78</p>","null","pattern_show_trial_num","","","","","","","","","","","","","","","","","","","","","","","","",""
"","","","","","image-keyboard-response","177","762604","0.0-2.0-7.0-1.38","604d8f415e948938fd60b536","A3","batch1","","1456.4000000953674","stim/no_29_1_b.png","j","pattern_response","true","j","pattern_12","1456.4000000953674","true","71","","","","","","","","","","","","","","","","","","",""
"","","","","","html-button-response","178","991091","0.0-2.0-8.0","604d8f415e948938fd60b536","A3","batch1","","227965.5","<p class = block-text>This concludes the 4-in-a-row detection game.Thank you for your responses!<br>
            You responded correctly on 91% of the trials.<br>
            When you are ready, press ""Continue"" button to continue </p>","0","","","","","","","","","","","","","","","","","","","","","","","","","",""
"true","","","","","fullscreen","179","1046285","0.0-3.0-0.0","604d8f415e948938fd60b536","A3","batch1","","","","","spm_fullscreen","","","","","","","","","","","","","","","","","","","","","","","","",""
"","","","","","html-button-response","180","1054879","0.0-3.0-1.0","604d8f415e948938fd60b536","A3","batch1","","8588.099999904633","<p class = block-text><b>Instructions</b> <br>This is a widely used intelligence test in research. <br>In this test, a figure with a missing piece will be presented.<br>Below the figure are alternative pieces to complete the figure, only one of which is correct.<br> Different figures might involve different principles for obtaining the missing piece<br>Your job is to select the most logical piece to complete the figure.</p>","0","","","","","","","","","","","","","","","","","","","","","","","","","",""
"","","","","","html-keyboard-response","181","1055689","0.0-3.0-2.0-0.0","604d8f415e948938fd60b536","A3","batch1","","null","<p class=block-text>Trial 1 out of 60</p>","null","spm_show_trial_num","","","","","","","","","","","","","","","","","","","","","","","","",""
"","","","","","image-button-response","182","1069853","0.0-3.0-2.0-1.0","604d8f415e948938fd60b536","A3","batch1","","14147.900000095367","img/question_1_1.jpeg","3","spm_respsonse","1","4","mat_01","","","","","","1","14147.900000095367","","","","","","","","","","","","","","",""
"","","","","","html-keyboard-response","183","1070924","0.0-3.0-2.0-0.1","604d8f415e948938fd60b536","A3","batch1","","null","<p class=block-text>Trial 2 out of 60</p>","null","spm_show_trial_num","","","","","","","","","","","","","","","","","","","","","","","","",""
"","","","","","image-button-response","184","1074872","0.0-3.0-2.0-1.1","604d8f415e948938fd60b536","A3","batch1","","3937.7000002861023","img/question_1_2.jpeg","4","spm_respsonse","1","5","mat_02","","","","","","1","3937.7000002861023","","","","","","","","","","","","","","",""
"","","","","","html-keyboard-response","185","1075941","0.0-3.0-2.0-0.2","604d8f415e948938fd60b536","A3","batch1","","null","<p class=block-text>Trial 3 out of 60</p>","null","spm_show_trial_num","","","","","","","","","","","","","","","","","","","","","","","","",""
"","","","","","image-button-response","186","1080360","0.0-3.0-2.0-1.2","604d8f415e948938fd60b536","A3","batch1","","4407.5","img/question_1_3.jpeg","0","spm_respsonse","1","1","mat_03","","","","","","1","4407.5","","","","","","","","","","","","","","",""
"","","","","","html-keyboard-response","187","1081422","0.0-3.0-2.0-0.3","604d8f415e948938fd60b536","A3","batch1","","null","<p class=block-text>Trial 4 out of 60</p>","null","spm_show_trial_num","","","","","","","","","","","","","","","","","","","","","","","","",""
"","","","","","image-button-response","188","1086144","0.0-3.0-2.0-1.3","604d8f415e948938fd60b536","A3","batch1","","4711.800000190735","img/question_1_4.jpeg","1","spm_respsonse","1","2","mat_04","","","","","","1","4711.800000190735","","","","","","","","","","","","","","",""
"","","","","","html-keyboard-response","189","1087204","0.0-3.0-2.0-0.4","604d8f415e948938fd60b536","A3","batch1","","null","<p class=block-text>Trial 5 out of 60</p>","null","spm_show_trial_num","","","","","","","","","","","","","","","","","","","","","","","","",""
"","","","","","image-button-response","190","1094347","0.0-3.0-2.0-1.4","604d8f415e948938fd60b536","A3","batch1","","7130.60000038147","img/question_1_5.jpeg","5","spm_respsonse","1","6","mat_05","","","","","","1","7130.60000038147","","","","","","","","","","","","","","",""
"","","","","","html-keyboard-response","191","1095421","0.0-3.0-2.0-0.5","604d8f415e948938fd60b536","A3","batch1","","null","<p class=block-text>Trial 6 out of 60</p>","null","spm_show_trial_num","","","","","","","","","","","","","","","","","","","","","","","","",""
"","","","","","image-button-response","192","1099333","0.0-3.0-2.0-1.5","604d8f415e948938fd60b536","A3","batch1","","3898.9000000953674","img/question_1_6.jpeg","2","spm_respsonse","1","3","mat_06","","","","","","1","3898.9000000953674","","","","","","","","","","","","","","",""
"","","","","","html-keyboard-response","193","1100392","0.0-3.0-2.0-0.6","604d8f415e948938fd60b536","A3","batch1","","null","<p class=block-text>Trial 7 out of 60</p>","null","spm_show_trial_num","","","","","","","","","","","","","","","","","","","","","","","","",""
"","","","","","image-button-response","194","1105609","0.0-3.0-2.0-1.6","604d8f415e948938fd60b536","A3","batch1","","5205.199999809265","img/question_1_7.jpeg","5","spm_respsonse","1","6","mat_07","","","","","","1","5205.199999809265","","","","","","","","","","","","","","",""
"","","","","","html-keyboard-response","195","1106682","0.0-3.0-2.0-0.7","604d8f415e948938fd60b536","A3","batch1","","null","<p class=block-text>Trial 8 out of 60</p>","null","spm_show_trial_num","","","","","","","","","","","","","","","","","","","","","","","","",""
"","","","","","image-button-response","196","1114060","0.0-3.0-2.0-1.7","604d8f415e948938fd60b536","A3","batch1","","7369.900000095367","img/question_1_8.jpeg","1","spm_respsonse","1","2","mat_08","","","","","","1","7369.900000095367","","","","","","","","","","","","","","",""
"","","","","","html-keyboard-response","197","1115145","0.0-3.0-2.0-0.8","604d8f415e948938fd60b536","A3","batch1","","null","<p class=block-text>Trial 9 out of 60</p>","null","spm_show_trial_num","","","","","","","","","","","","","","","","","","","","","","","","",""
"","","","","","image-button-response","198","1120647","0.0-3.0-2.0-1.8","604d8f415e948938fd60b536","A3","batch1","","5474.900000095367","img/question_1_9.jpeg","0","spm_respsonse","1","1","mat_09","","","","","","1","5474.900000095367","","","","","","","","","","","","","","",""
"","","","","","html-keyboard-response","199","1121730","0.0-3.0-2.0-0.9","604d8f415e948938fd60b536","A3","batch1","","null","<p class=block-text>Trial 10 out of 60</p>","null","spm_show_trial_num","","","","","","","","","","","","","","","","","","","","","","","","",""
"","","","","","image-button-response","200","1128394","0.0-3.0-2.0-1.9","604d8f415e948938fd60b536","A3","batch1","","6653.300000190735","img/question_1_10.jpeg","2","spm_respsonse","1","3","mat_10","","","","","","1","6653.300000190735","","","","","","","","","","","","","","",""
"","","","","","html-keyboard-response","201","1129475","0.0-3.0-2.0-0.10","604d8f415e948938fd60b536","A3","batch1","","null","<p class=block-text>Trial 11 out of 60</p>","null","spm_show_trial_num","","","","","","","","","","","","","","","","","","","","","","","","",""
"","","","","","image-button-response","202","1139165","0.0-3.0-2.0-1.10","604d8f415e948938fd60b536","A3","batch1","","9680.900000095367","img/question_1_11.jpeg","3","spm_respsonse","1","4","mat_11","","","","","","1","9680.900000095367","","","","","","","","","","","","","","",""
"","","","","","html-keyboard-response","203","1140226","0.0-3.0-2.0-0.11","604d8f415e948938fd60b536","A3","batch1","","null","<p class=block-text>Trial 12 out of 60</p>","null","spm_show_trial_num","","","","","","","","","","","","","","","","","","","","","","","","",""
"","","","","","image-button-response","204","1152264","0.0-3.0-2.0-1.11","604d8f415e948938fd60b536","A3","batch1","","12030","img/question_1_12.jpeg","2","spm_respsonse","0","5","mat_12","","","","","","0","12030","","","","","","","","","","","","","","",""
"","","","","","html-keyboard-response","205","1153333","0.0-3.0-2.0-0.12","604d8f415e948938fd60b536","A3","batch1","","null","<p class=block-text>Trial 13 out of 60</p>","null","spm_show_trial_num","","","","","","","","","","","","","","","","","","","","","","","","",""
"","","","","","image-button-response","206","1157725","0.0-3.0-2.0-1.12","604d8f415e948938fd60b536","A3","batch1","","4383.599999904633","img/question_2_1.jpeg","1","spm_respsonse","1","2","mat_13","","","","","","1","4383.599999904633","","","","","","","","","","","","","","",""
"","","","","","html-keyboard-response","207","1158797","0.0-3.0-2.0-0.13","604d8f415e948938fd60b536","A3","batch1","","null","<p class=block-text>Trial 14 out of 60</p>","null","spm_show_trial_num","","","","","","","","","","","","","","","","","","","","","","","","",""
"","","","","","image-button-response","208","1161988","0.0-3.0-2.0-1.13","604d8f415e948938fd60b536","A3","batch1","","3181.5","img/question_2_2.jpeg","5","spm_respsonse","1","6","mat_14","","","","","","1","3181.5","","","","","","","","","","","","","","",""
"","","","","","html-keyboard-response","209","1163078","0.0-3.0-2.0-0.14","604d8f415e948938fd60b536","A3","batch1","","null","<p class=block-text>Trial 15 out of 60</p>","null","spm_show_trial_num","","","","","","","","","","","","","","","","","","","","","","","","",""
"","","","","","image-button-response","210","1165749","0.0-3.0-2.0-1.14","604d8f415e948938fd60b536","A3","batch1","","2661.2000002861023","img/question_2_3.jpeg","0","spm_respsonse","1","1","mat_15","","","","","","1","2661.2000002861023","","","","","","","","","","","","","","",""
"","","","","","html-keyboard-response","211","1166810","0.0-3.0-2.0-0.15","604d8f415e948938fd60b536","A3","batch1","","null","<p class=block-text>Trial 16 out of 60</p>","null","spm_show_trial_num","","","","","","","","","","","","","","","","","","","","","","","","",""
"","","","","","image-button-response","212","1169668","0.0-3.0-2.0-1.15","604d8f415e948938fd60b536","A3","batch1","","2846.0999999046326","img/question_2_4.jpeg","1","spm_respsonse","1","2","mat_16","","","","","","1","2846.0999999046326","","","","","","","","","","","","","","",""
"","","","","","html-keyboard-response","213","1170723","0.0-3.0-2.0-0.16","604d8f415e948938fd60b536","A3","batch1","","null","<p class=block-text>Trial 17 out of 60</p>","null","spm_show_trial_num","","","","","","","","","","","","","","","","","","","","","","","","",""
"","","","","","image-button-response","214","1175522","0.0-3.0-2.0-1.16","604d8f415e948938fd60b536","A3","batch1","","4792.400000095367","img/question_2_5.jpeg","0","spm_respsonse","1","1","mat_17","","","","","","1","4792.400000095367","","","","","","","","","","","","","","",""
"","","","","","html-keyboard-response","215","1176600","0.0-3.0-2.0-0.17","604d8f415e948938fd60b536","A3","batch1","","null","<p class=block-text>Trial 18 out of 60</p>","null","spm_show_trial_num","","","","","","","","","","","","","","","","","","","","","","","","",""
"","","","","","image-button-response","216","1184378","0.0-3.0-2.0-1.17","604d8f415e948938fd60b536","A3","batch1","","7769.099999904633","img/question_2_6.jpeg","2","spm_respsonse","1","3","mat_18","","","","","","1","7769.099999904633","","","","","","","","","","","","","","",""
"","","","","","html-keyboard-response","217","1185455","0.0-3.0-2.0-0.18","604d8f415e948938fd60b536","A3","batch1","","null","<p class=block-text>Trial 19 out of 60</p>","null","spm_show_trial_num","","","","","","","","","","","","","","","","","","","","","","","","",""
"","","","","","image-button-response","218","1189230","0.0-3.0-2.0-1.18","604d8f415e948938fd60b536","A3","batch1","","3765.9000000953674","img/question_2_7.jpeg","4","spm_respsonse","1","5","mat_19","","","","","","1","3765.9000000953674","","","","","","","","","","","","","","",""
"","","","","","html-keyboard-response","219","1190292","0.0-3.0-2.0-0.19","604d8f415e948938fd60b536","A3","batch1","","null","<p class=block-text>Trial 20 out of 60</p>","null","spm_show_trial_num","","","","","","","","","","","","","","","","","","","","","","","","",""
"","","","","","image-button-response","220","1194592","0.0-3.0-2.0-1.19","604d8f415e948938fd60b536","A3","batch1","","4290.60000038147","img/question_2_8.jpeg","5","spm_respsonse","1","6","mat_20","","","","","","1","4290.60000038147","","","","","","","","","","","","","","",""
"","","","","","html-keyboard-response","221","1195678","0.0-3.0-2.0-0.20","604d8f415e948938fd60b536","A3","batch1","","null","<p class=block-text>Trial 21 out of 60</p>","null","spm_show_trial_num","","","","","","","","","","","","","","","","","","","","","","","","",""
"","","","","","image-button-response","222","1199525","0.0-3.0-2.0-1.20","604d8f415e948938fd60b536","A3","batch1","","3833.5999999046326","img/question_2_9.jpeg","3","spm_respsonse","1","4","mat_21","","","","","","1","3833.5999999046326","","","","","","","","","","","","","","",""
"","","","","","html-keyboard-response","223","1200580","0.0-3.0-2.0-0.21","604d8f415e948938fd60b536","A3","batch1","","null","<p class=block-text>Trial 22 out of 60</p>","null","spm_show_trial_num","","","","","","","","","","","","","","","","","","","","","","","","",""
"","","","","","image-button-response","224","1206470","0.0-3.0-2.0-1.21","604d8f415e948938fd60b536","A3","batch1","","5881.300000190735","img/question_2_10.jpeg","2","spm_respsonse","1","3","mat_22","","","","","","1","5881.300000190735","","","","","","","","","","","","","","",""
"","","","","","html-keyboard-response","225","1207529","0.0-3.0-2.0-0.22","604d8f415e948938fd60b536","A3","batch1","","null","<p class=block-text>Trial 23 out of 60</p>","null","spm_show_trial_num","","","","","","","","","","","","","","","","","","","","","","","","",""
"","","","","","image-button-response","226","1211792","0.0-3.0-2.0-1.22","604d8f415e948938fd60b536","A3","batch1","","4253.099999904633","img/question_2_11.jpeg","3","spm_respsonse","1","4","mat_23","","","","","","1","4253.099999904633","","","","","","","","","","","","","","",""
"","","","","","html-keyboard-response","227","1212855","0.0-3.0-2.0-0.23","604d8f415e948938fd60b536","A3","batch1","","null","<p class=block-text>Trial 24 out of 60</p>","null","spm_show_trial_num","","","","","","","","","","","","","","","","","","","","","","","","",""
"","","","","","image-button-response","228","1275443","0.0-3.0-2.0-1.23","604d8f415e948938fd60b536","A3","batch1","","62572.7999997139","img/question_2_12.jpeg","4","spm_respsonse","1","5","mat_24","","","","","","1","62572.7999997139","","","","","","","","","","","","","","",""
"","","","","","html-button-response","229","1277973","0.0-3.0-3.0","604d8f415e948938fd60b536","A3","batch1","","2265.5","<p class = block-text>Attention check: Please choose 1<br></p>","0","attention_check","true","","","","","","","","","","","","","","","","","","","","","","","",""
"","","","","","html-keyboard-response","230","1278782","0.0-3.0-4.0-0.0","604d8f415e948938fd60b536","A3","batch1","","null","<p class=block-text>Trial 25 out of 60</p>","null","spm_show_trial_num","","","","","","","","","","","","","","","","","","","","","","","","",""
"","","","","","image-button-response","231","1283968","0.0-3.0-4.0-1.0","604d8f415e948938fd60b536","A3","batch1","","5172","img/question_3_1.jpeg","7","spm_respsonse","1","8","mat_25","","","","","","1","5172","","","","","","","","","","","","","","",""
"","","","","","html-keyboard-response","232","1285047","0.0-3.0-4.0-0.1","604d8f415e948938fd60b536","A3","batch1","","null","<p class=block-text>Trial 26 out of 60</p>","null","spm_show_trial_num","","","","","","","","","","","","","","","","","","","","","","","","",""
"","","","","","image-button-response","233","1290568","0.0-3.0-4.0-1.1","604d8f415e948938fd60b536","A3","batch1","","5510.200000286102","img/question_3_2.jpeg","1","spm_respsonse","1","2","mat_26","","","","","","1","5510.200000286102","","","","","","","","","","","","","","",""
"","","","","","html-keyboard-response","234","1291626","0.0-3.0-4.0-0.2","604d8f415e948938fd60b536","A3","batch1","","null","<p class=block-text>Trial 27 out of 60</p>","null","spm_show_trial_num","","","","","","","","","","","","","","","","","","","","","","","","",""
"","","","","","image-button-response","235","1302082","0.0-3.0-4.0-1.2","604d8f415e948938fd60b536","A3","batch1","","10442.400000095367","img/question_3_3.jpeg","2","spm_respsonse","1","3","mat_27","","","","","","1","10442.400000095367","","","","","","","","","","","","","","",""
"","","","","","html-keyboard-response","236","1303167","0.0-3.0-4.0-0.3","604d8f415e948938fd60b536","A3","batch1","","null","<p class=block-text>Trial 28 out of 60</p>","null","spm_show_trial_num","","","","","","","","","","","","","","","","","","","","","","","","",""
"","","","","","image-button-response","237","1310991","0.0-3.0-4.0-1.3","604d8f415e948938fd60b536","A3","batch1","","7813.5","img/question_3_4.jpeg","7","spm_respsonse","1","8","mat_28","","","","","","1","7813.5","","","","","","","","","","","","","","",""
"","","","","","html-keyboard-response","238","1312065","0.0-3.0-4.0-0.4","604d8f415e948938fd60b536","A3","batch1","","null","<p class=block-text>Trial 29 out of 60</p>","null","spm_show_trial_num","","","","","","","","","","","","","","","","","","","","","","","","",""
"","","","","","image-button-response","239","1315863","0.0-3.0-4.0-1.4","604d8f415e948938fd60b536","A3","batch1","","3785.2000002861023","img/question_3_5.jpeg","6","spm_respsonse","1","7","mat_29","","","","","","1","3785.2000002861023","","","","","","","","","","","","","","",""
"","","","","","html-keyboard-response","240","1316924","0.0-3.0-4.0-0.5","604d8f415e948938fd60b536","A3","batch1","","null","<p class=block-text>Trial 30 out of 60</p>","null","spm_show_trial_num","","","","","","","","","","","","","","","","","","","","","","","","",""
"","","","","","image-button-response","241","1323396","0.0-3.0-4.0-1.5","604d8f415e948938fd60b536","A3","batch1","","6463.599999904633","img/question_3_6.jpeg","1","spm_respsonse","0","4","mat_30","","","","","","0","6463.599999904633","","","","","","","","","","","","","","",""
"","","","","","html-keyboard-response","242","1324467","0.0-3.0-4.0-0.6","604d8f415e948938fd60b536","A3","batch1","","null","<p class=block-text>Trial 31 out of 60</p>","null","spm_show_trial_num","","","","","","","","","","","","","","","","","","","","","","","","",""
"","","","","","image-button-response","243","1333070","0.0-3.0-4.0-1.6","604d8f415e948938fd60b536","A3","batch1","","8591.5","img/question_3_7.jpeg","4","spm_respsonse","1","5","mat_31","","","","","","1","8591.5","","","","","","","","","","","","","","",""
"","","","","","html-keyboard-response","244","1334155","0.0-3.0-4.0-0.7","604d8f415e948938fd60b536","A3","batch1","","null","<p class=block-text>Trial 32 out of 60</p>","null","spm_show_trial_num","","","","","","","","","","","","","","","","","","","","","","","","",""
"","","","","","image-button-response","245","1348180","0.0-3.0-4.0-1.7","604d8f415e948938fd60b536","A3","batch1","","14007.39999961853","img/question_3_8.jpeg","0","spm_respsonse","1","1","mat_32","","","","","","1","14007.39999961853","","","","","","","","","","","","","","",""
"","","","","","html-keyboard-response","246","1349242","0.0-3.0-4.0-0.8","604d8f415e948938fd60b536","A3","batch1","","null","<p class=block-text>Trial 33 out of 60</p>","null","spm_show_trial_num","","","","","","","","","","","","","","","","","","","","","","","","",""
"","","","","","image-button-response","247","1360373","0.0-3.0-4.0-1.8","604d8f415e948938fd60b536","A3","batch1","","11118.299999713898","img/question_3_9.jpeg","6","spm_respsonse","1","7","mat_33","","","","","","1","11118.299999713898","","","","","","","","","","","","","","",""
"","","","","","html-keyboard-response","248","1361457","0.0-3.0-4.0-0.9","604d8f415e948938fd60b536","A3","batch1","","null","<p class=block-text>Trial 34 out of 60</p>","null","spm_show_trial_num","","","","","","","","","","","","","","","","","","","","","","","","",""
"","","","","","image-button-response","249","1396527","0.0-3.0-4.0-1.9","604d8f415e948938fd60b536","A3","batch1","","35058.09999990463","img/question_3_10.jpeg","7","spm_respsonse","0","6","mat_34","","","","","","0","35058.09999990463","","","","","","","","","","","","","","",""
"","","","","","html-keyboard-response","250","1397613","0.0-3.0-4.0-0.10","604d8f415e948938fd60b536","A3","batch1","","null","<p class=block-text>Trial 35 out of 60</p>","null","spm_show_trial_num","","","","","","","","","","","","","","","","","","","","","","","","",""
"","","","","","image-button-response","251","1443308","0.0-3.0-4.0-1.10","604d8f415e948938fd60b536","A3","batch1","","45687.699999809265","img/question_3_11.jpeg","4","spm_respsonse","0","1","mat_35","","","","","","0","45687.699999809265","","","","","","","","","","","","","","",""
"","","","","","html-keyboard-response","252","1444378","0.0-3.0-4.0-0.11","604d8f415e948938fd60b536","A3","batch1","","null","<p class=block-text>Trial 36 out of 60</p>","null","spm_show_trial_num","","","","","","","","","","","","","","","","","","","","","","","","",""
"","","","","","image-button-response","253","1479376","0.0-3.0-4.0-1.11","604d8f415e948938fd60b536","A3","batch1","","34985.90000009537","img/question_3_12.jpeg","0","spm_respsonse","0","2","mat_36","","","","","","0","34985.90000009537","","","","","","","","","","","","","","",""
"","","","","","html-keyboard-response","254","1480447","0.0-3.0-4.0-0.12","604d8f415e948938fd60b536","A3","batch1","","null","<p class=block-text>Trial 37 out of 60</p>","null","spm_show_trial_num","","","","","","","","","","","","","","","","","","","","","","","","",""
"","","","","","image-button-response","255","1484031","0.0-3.0-4.0-1.12","604d8f415e948938fd60b536","A3","batch1","","3574.199999809265","img/question_4_1.jpeg","2","spm_respsonse","1","3","mat_37","","","","","","1","3574.199999809265","","","","","","","","","","","","","","",""
"","","","","","html-keyboard-response","256","1485084","0.0-3.0-4.0-0.13","604d8f415e948938fd60b536","A3","batch1","","null","<p class=block-text>Trial 38 out of 60</p>","null","spm_show_trial_num","","","","","","","","","","","","","","","","","","","","","","","","",""
"","","","","","image-button-response","257","1497058","0.0-3.0-4.0-1.13","604d8f415e948938fd60b536","A3","batch1","","11966","img/question_4_2.jpeg","3","spm_respsonse","1","4","mat_38","","","","","","1","11966","","","","","","","","","","","","","","",""
"","","","","","html-keyboard-response","258","1498133","0.0-3.0-4.0-0.14","604d8f415e948938fd60b536","A3","batch1","","null","<p class=block-text>Trial 39 out of 60</p>","null","spm_show_trial_num","","","","","","","","","","","","","","","","","","","","","","","","",""
"","","","","","image-button-response","259","1511019","0.0-3.0-4.0-1.14","604d8f415e948938fd60b536","A3","batch1","","12873.300000190735","img/question_4_3.jpeg","2","spm_respsonse","1","3","mat_39","","","","","","1","12873.300000190735","","","","","","","","","","","","","","",""
"","","","","","html-keyboard-response","260","1512104","0.0-3.0-4.0-0.15","604d8f415e948938fd60b536","A3","batch1","","null","<p class=block-text>Trial 40 out of 60</p>","null","spm_show_trial_num","","","","","","","","","","","","","","","","","","","","","","","","",""
"","","","","","image-button-response","261","1524924","0.0-3.0-4.0-1.15","604d8f415e948938fd60b536","A3","batch1","","12806.800000190735","img/question_4_4.jpeg","6","spm_respsonse","1","7","mat_40","","","","","","1","12806.800000190735","","","","","","","","","","","","","","",""
"","","","","","html-keyboard-response","262","1525986","0.0-3.0-4.0-0.16","604d8f415e948938fd60b536","A3","batch1","","null","<p class=block-text>Trial 41 out of 60</p>","null","spm_show_trial_num","","","","","","","","","","","","","","","","","","","","","","","","",""
"","","","","","image-button-response","263","1556738","0.0-3.0-4.0-1.16","604d8f415e948938fd60b536","A3","batch1","","30738.800000190735","img/question_4_5.jpeg","7","spm_respsonse","1","8","mat_41","","","","","","1","30738.800000190735","","","","","","","","","","","","","","",""
"","","","","","html-keyboard-response","264","1557824","0.0-3.0-4.0-0.17","604d8f415e948938fd60b536","A3","batch1","","null","<p class=block-text>Trial 42 out of 60</p>","null","spm_show_trial_num","","","","","","","","","","","","","","","","","","","","","","","","",""
"","","","","","image-button-response","265","1564821","0.0-3.0-4.0-1.17","604d8f415e948938fd60b536","A3","batch1","","6986","img/question_4_6.jpeg","5","spm_respsonse","1","6","mat_42","","","","","","1","6986","","","","","","","","","","","","","","",""
"","","","","","html-keyboard-response","266","1565881","0.0-3.0-4.0-0.18","604d8f415e948938fd60b536","A3","batch1","","null","<p class=block-text>Trial 43 out of 60</p>","null","spm_show_trial_num","","","","","","","","","","","","","","","","","","","","","","","","",""
"","","","","","image-button-response","267","1591764","0.0-3.0-4.0-1.18","604d8f415e948938fd60b536","A3","batch1","","25872","img/question_4_7.jpeg","4","spm_respsonse","1","5","mat_43","","","","","","1","25872","","","","","","","","","","","","","","",""
"","","","","","html-keyboard-response","268","1592842","0.0-3.0-4.0-0.19","604d8f415e948938fd60b536","A3","batch1","","null","<p class=block-text>Trial 44 out of 60</p>","null","spm_show_trial_num","","","","","","","","","","","","","","","","","","","","","","","","",""
"","","","","","image-button-response","269","1615074","0.0-3.0-4.0-1.19","604d8f415e948938fd60b536","A3","batch1","","22221.5","img/question_4_8.jpeg","3","spm_respsonse","1","4","mat_44","","","","","","1","22221.5","","","","","","","","","","","","","","",""
"","","","","","html-keyboard-response","270","1616143","0.0-3.0-4.0-0.20","604d8f415e948938fd60b536","A3","batch1","","null","<p class=block-text>Trial 45 out of 60</p>","null","spm_show_trial_num","","","","","","","","","","","","","","","","","","","","","","","","",""
"","","","","","image-button-response","271","1654197","0.0-3.0-4.0-1.20","604d8f415e948938fd60b536","A3","batch1","","38039.5","img/question_4_9.jpeg","0","spm_respsonse","1","1","mat_45","","","","","","1","38039.5","","","","","","","","","","","","","","",""
"","","","","","html-keyboard-response","272","1655267","0.0-3.0-4.0-0.21","604d8f415e948938fd60b536","A3","batch1","","null","<p class=block-text>Trial 46 out of 60</p>","null","spm_show_trial_num","","","","","","","","","","","","","","","","","","","","","","","","",""
"","","","","","image-button-response","273","1675328","0.0-3.0-4.0-1.21","604d8f415e948938fd60b536","A3","batch1","","20047.299999713898","img/question_4_10.jpeg","1","spm_respsonse","1","2","mat_46","","","","","","1","20047.299999713898","","","","","","","","","","","","","","",""
"","","","","","html-keyboard-response","274","1676407","0.0-3.0-4.0-0.22","604d8f415e948938fd60b536","A3","batch1","","null","<p class=block-text>Trial 47 out of 60</p>","null","spm_show_trial_num","","","","","","","","","","","","","","","","","","","","","","","","",""
"","","","","","image-button-response","275","1735325","0.0-3.0-4.0-1.22","604d8f415e948938fd60b536","A3","batch1","","58902.59999990463","img/question_4_11.jpeg","4","spm_respsonse","1","5","mat_47","","","","","","1","58902.59999990463","","","","","","","","","","","","","","",""
"","","","","","html-keyboard-response","276","1736410","0.0-3.0-4.0-0.23","604d8f415e948938fd60b536","A3","batch1","","null","<p class=block-text>Trial 48 out of 60</p>","null","spm_show_trial_num","","","","","","","","","","","","","","","","","","","","","","","","",""
"","","","","","image-button-response","277","1880298","0.0-3.0-4.0-1.23","604d8f415e948938fd60b536","A3","batch1","","143872.09999990463","img/question_4_12.jpeg","5","spm_respsonse","1","6","mat_48","","","","","","1","143872.09999990463","","","","","","","","","","","","","","",""
"","","","","","html-keyboard-response","278","1881372","0.0-3.0-4.0-0.24","604d8f415e948938fd60b536","A3","batch1","","null","<p class=block-text>Trial 49 out of 60</p>","null","spm_show_trial_num","","","","","","","","","","","","","","","","","","","","","","","","",""
"","","","","","image-button-response","279","1899038","0.0-3.0-4.0-1.24","604d8f415e948938fd60b536","A3","batch1","","17652.800000190735","img/question_5_1.jpeg","6","spm_respsonse","1","7","mat_49","","","","","","1","17652.800000190735","","","","","","","","","","","","","","",""
"","","","","","html-keyboard-response","280","1900116","0.0-3.0-4.0-0.25","604d8f415e948938fd60b536","A3","batch1","","null","<p class=block-text>Trial 50 out of 60</p>","null","spm_show_trial_num","","","","","","","","","","","","","","","","","","","","","","","","",""
"","","","","","image-button-response","281","1921498","0.0-3.0-4.0-1.25","604d8f415e948938fd60b536","A3","batch1","","21371.599999904633","img/question_5_2.jpeg","5","spm_respsonse","1","6","mat_50","","","","","","1","21371.599999904633","","","","","","","","","","","","","","",""
"","","","","","html-keyboard-response","282","1922557","0.0-3.0-4.0-0.26","604d8f415e948938fd60b536","A3","batch1","","null","<p class=block-text>Trial 51 out of 60</p>","null","spm_show_trial_num","","","","","","","","","","","","","","","","","","","","","","","","",""
"","","","","","image-button-response","283","1983625","0.0-3.0-4.0-1.26","604d8f415e948938fd60b536","A3","batch1","","61056.300000190735","img/question_5_3.jpeg","7","spm_respsonse","1","8","mat_51","","","","","","1","61056.300000190735","","","","","","","","","","","","","","",""
"","","","","","html-keyboard-response","284","1984697","0.0-3.0-4.0-0.27","604d8f415e948938fd60b536","A3","batch1","","null","<p class=block-text>Trial 52 out of 60</p>","null","spm_show_trial_num","","","","","","","","","","","","","","","","","","","","","","","","",""
"","","","","","image-button-response","285","1997294","0.0-3.0-4.0-1.27","604d8f415e948938fd60b536","A3","batch1","","12584.900000095367","img/question_5_4.jpeg","1","spm_respsonse","1","2","mat_52","","","","","","1","12584.900000095367","","","","","","","","","","","","","","",""
"","","","","","html-keyboard-response","286","1998351","0.0-3.0-4.0-0.28","604d8f415e948938fd60b536","A3","batch1","","null","<p class=block-text>Trial 53 out of 60</p>","null","spm_show_trial_num","","","","","","","","","","","","","","","","","","","","","","","","",""
"","","","","","image-button-response","287","2026890","0.0-3.0-4.0-1.28","604d8f415e948938fd60b536","A3","batch1","","28526.400000095367","img/question_5_5.jpeg","0","spm_respsonse","1","1","mat_53","","","","","","1","28526.400000095367","","","","","","","","","","","","","","",""
"","","","","","html-keyboard-response","288","2027951","0.0-3.0-4.0-0.29","604d8f415e948938fd60b536","A3","batch1","","null","<p class=block-text>Trial 54 out of 60</p>","null","spm_show_trial_num","","","","","","","","","","","","","","","","","","","","","","","","",""
"","","","","","image-button-response","289","2058420","0.0-3.0-4.0-1.29","604d8f415e948938fd60b536","A3","batch1","","30452.5","img/question_5_6.jpeg","7","spm_respsonse","0","5","mat_54","","","","","","0","30452.5","","","","","","","","","","","","","","",""
"","","","","","html-keyboard-response","290","2059505","0.0-3.0-4.0-0.30","604d8f415e948938fd60b536","A3","batch1","","null","<p class=block-text>Trial 55 out of 60</p>","null","spm_show_trial_num","","","","","","","","","","","","","","","","","","","","","","","","",""
"","","","","","image-button-response","291","2086501","0.0-3.0-4.0-1.30","604d8f415e948938fd60b536","A3","batch1","","26986.900000095367","img/question_5_7.jpeg","3","spm_respsonse","0","1","mat_55","","","","","","0","26986.900000095367","","","","","","","","","","","","","","",""
"","","","","","html-keyboard-response","292","2087583","0.0-3.0-4.0-0.31","604d8f415e948938fd60b536","A3","batch1","","null","<p class=block-text>Trial 56 out of 60</p>","null","spm_show_trial_num","","","","","","","","","","","","","","","","","","","","","","","","",""
"","","","","","image-button-response","293","2107859","0.0-3.0-4.0-1.31","604d8f415e948938fd60b536","A3","batch1","","20266.5","img/question_5_8.jpeg","5","spm_respsonse","1","6","mat_56","","","","","","1","20266.5","","","","","","","","","","","","","","",""
"","","","","","html-keyboard-response","294","2108945","0.0-3.0-4.0-0.32","604d8f415e948938fd60b536","A3","batch1","","null","<p class=block-text>Trial 57 out of 60</p>","null","spm_show_trial_num","","","","","","","","","","","","","","","","","","","","","","","","",""
"","","","","","image-button-response","295","2214504","0.0-3.0-4.0-1.32","604d8f415e948938fd60b536","A3","batch1","","105545.5","img/question_5_9.jpeg","0","spm_respsonse","0","3","mat_57","","","","","","0","105545.5","","","","","","","","","","","","","","",""
"","","","","","html-keyboard-response","296","2215571","0.0-3.0-4.0-0.33","604d8f415e948938fd60b536","A3","batch1","","null","<p class=block-text>Trial 58 out of 60</p>","null","spm_show_trial_num","","","","","","","","","","","","","","","","","","","","","","","","",""
"","","","","","image-button-response","297","2253007","0.0-3.0-4.0-1.33","604d8f415e948938fd60b536","A3","batch1","","37422.5","img/question_5_10.jpeg","5","spm_respsonse","0","2","mat_58","","","","","","0","37422.5","","","","","","","","","","","","","","",""
"","","","","","html-keyboard-response","298","2254083","0.0-3.0-4.0-0.34","604d8f415e948938fd60b536","A3","batch1","","null","<p class=block-text>Trial 59 out of 60</p>","null","spm_show_trial_num","","","","","","","","","","","","","","","","","","","","","","","","",""
"","","","","","image-button-response","299","2344529","0.0-3.0-4.0-1.34","604d8f415e948938fd60b536","A3","batch1","","90443.30000019073","img/question_5_11.jpeg","2","spm_respsonse","0","4","mat_59","","","","","","0","90443.30000019073","","","","","","","","","","","","","","",""
"","","","","","html-keyboard-response","300","2345610","0.0-3.0-4.0-0.35","604d8f415e948938fd60b536","A3","batch1","","null","<p class=block-text>Trial 60 out of 60</p>","null","spm_show_trial_num","","","","","","","","","","","","","","","","","","","","","","","","",""
"","","","","","image-button-response","301","2418792","0.0-3.0-4.0-1.35","604d8f415e948938fd60b536","A3","batch1","","73158.40000009537","img/question_5_12.jpeg","6","spm_respsonse","0","5","mat_60","","","","","","0","73158.40000009537","","","","","","","","","","","","","","",""
"","","","","","html-button-response","302","2431869","0.0-3.0-5.0","604d8f415e948938fd60b536","A3","batch1","","12816.400000095367","<p class= block-text>This concludes the Standard Progressive Matrix game. Thank you for your responses!<br> When you are ready, click the button continue</p>","0","spm_goodbye","","","","","","","","","","","","","","","","","","","","","","","","",""
"true","","","","","fullscreen","303","2647465","0.0-4.0-0.0","604d8f415e948938fd60b536","A3","batch1","","","","","","","","","","","","","","","","","","","","","","","","","","","","","",""
"","","","","","instructions","304","2719565","0.0-4.0-1.0-0.0-0.0","604d8f415e948938fd60b536","A3","batch1","[{""page_index"":0,""viewing_time"":31284.5},{""page_index"":1,""viewing_time"":9838.39999961853},{""page_index"":2,""viewing_time"":4284.700000286102},{""page_index"":3,""viewing_time"":7401.400000095367},{""page_index"":4,""viewing_time"":6487.299999713898},{""page_index"":5,""viewing_time"":9092.200000286102},{""page_index"":6,""viewing_time"":3705.199999809265}]","72095","","","tol-instructions","","","","","","","","","","","","","","","","","","","","","","","","",""
"","","","","","html-button-response","305","2734484","0.0-4.0-1.0-1.0-0.0","604d8f415e948938fd60b536","A3","batch1","","14914.5","<p class=block-text> Let's answer a few questions <br>","0","tol_enter_quiz","","","","","","","","","","","","","","","","","","","","","","","","",""
"","","","","","html-button-response","306","2742508","0.0-4.0-1.0-1.0-1.0","604d8f415e948938fd60b536","A3","batch1","","8019.10000038147","<p class = block-text>True or False: You can only move the ball on top of a peg. <br></p>","1","tol_quiz","false","","","","","","","","","","","","","","","","","","","","","","","",""
"","","","","","html-button-response","307","2746758","0.0-4.0-1.0-1.0-2.0","604d8f415e948938fd60b536","A3","batch1","","4238.900000095367","<p class = block-text>Incorrect. Remember, you can only move the ball on top of a peg.</p>","0","tol_quiz_feedback","","","","","","","","","","","","","","","","","","","","","","","","",""
"","","","","","html-button-response","308","2752341","0.0-4.0-1.0-1.0-3.0","604d8f415e948938fd60b536","A3","batch1","","5578.900000095367","<p class = block-text>True or False: You should try to match your board with the target board with fewest moves possible. <br></p>","0","tol_quiz","true","","","","","","","","","","","","","","","","","","","","","","","",""
"","","","","","html-button-response","309","2755531","0.0-4.0-1.0-1.0-4.0","604d8f415e948938fd60b536","A3","batch1","","3185.199999809265","<p class = block-text>Correct! </p>","0","tol_quiz_feedback","","","","","","","","","","","","","","","","","","","","","","","","",""
"","","","","","html-button-response","310","2759326","0.0-4.0-1.0-2.0-0.0","604d8f415e948938fd60b536","A3","batch1","","3786","<p class = block-text>You made too many incorrect choices.</p><p class = block-text>You will now repeat the instructions and quiz</p>","0","","","","","","","","","","","","","","","","","","","","","","","","","",""
"","","","","","instructions","311","2790175","0.0-4.0-1.1-0.1-0.1","604d8f415e948938fd60b536","A3","batch1","[{""page_index"":0,""viewing_time"":3809.5999999046326},{""page_index"":1,""viewing_time"":2753.300000190735},{""page_index"":2,""viewing_time"":1358.1999998092651},{""page_index"":3,""viewing_time"":3841.6000003814697},{""page_index"":4,""viewing_time"":12606},{""page_index"":5,""viewing_time"":4377.39999961853},{""page_index"":6,""viewing_time"":2095.1000003814697}]","30842.200000286102","","","tol-instructions","","","","","","","","","","","","","","","","","","","","","","","","",""
"","","","","","html-button-response","312","2791568","0.0-4.0-1.1-1.1-0.1","604d8f415e948938fd60b536","A3","batch1","","1389.4000000953674","<p class=block-text> Let's answer a few questions <br>","0","tol_enter_quiz","","","","","","","","","","","","","","","","","","","","","","","","",""
"","","","","","html-button-response","313","2796580","0.0-4.0-1.1-1.1-1.1","604d8f415e948938fd60b536","A3","batch1","","5006.300000190735","<p class = block-text>True or False: You can only move the ball on top of a peg. <br></p>","0","tol_quiz","true","","","","","","","","","","","","","","","","","","","","","","","",""
"","","","","","html-button-response","314","2799041","0.0-4.0-1.1-1.1-2.1","604d8f415e948938fd60b536","A3","batch1","","2455.4000000953674","<p class = block-text>Correct! You can only move the ball on top of a peg.</p>","0","tol_quiz_feedback","","","","","","","","","","","","","","","","","","","","","","","","",""
"","","","","","html-button-response","315","2802461","0.0-4.0-1.1-1.1-3.1","604d8f415e948938fd60b536","A3","batch1","","3417.0999999046326","<p class = block-text>True or False: You should try to match your board with the target board with fewest moves possible. <br></p>","0","tol_quiz","true","","","","","","","","","","","","","","","","","","","","","","","",""
"","","","","","html-button-response","316","2809815","0.0-4.0-1.1-1.1-4.1","604d8f415e948938fd60b536","A3","batch1","","7348.700000286102","<p class = block-text>Correct! </p>","0","tol_quiz_feedback","","","","","","","","","","","","","","","","","","","","","","","","",""
"","","","","","html-button-response","317","2815591","0.0-4.0-2.0","604d8f415e948938fd60b536","A3","batch1","","5770","<p class=block-text> Now that you've understood the game, let's practice a few easier examples before we start!<br> <br>","0","","","","","","","","","","","","","","","","","","","","","","","","","",""
"","","","","","single-stim-button","318","2820887","0.0-4.0-3.0-0.0","604d8f415e948938fd60b536","A3","batch1","","5282","","","tol_practice","","","","","","","","","","","tol_peg_2","5282","5282","0","[[1,2,0],[0,0],[0]]","1","[[1,2,0],[0,0],[3]]","practice","5282","","","","","",""
"","","","","","single-stim-button","319","2822458","0.0-4.0-3.0-1.0","604d8f415e948938fd60b536","A3","batch1","","1564","","","tol_practice","","","","","","","","","","","tol_peg_3","1564","1564","0","[[1,2,0],[0,0],[3]]","1","[[1,2,0],[0,0],[3]]","practice","1564","","","","","",""
"","","","","","poldrack-single-stim","320","2823477","0.0-4.0-4.0","604d8f415e948938fd60b536","A3","batch1","","-1","","","tol_feedback","true","","","","","","","","","","","1000","1000","500","","","","","","-1","none","true","","0",""
"","","","","","single-stim-button","321","2829122","0.0-4.0-5.0-0.0","604d8f415e948938fd60b536","A3","batch1","","5640","","","tol_practice","","","","","","","","","","","tol_peg_1","5640","5640","0","[[1,0,0],[3,0],[0]]","2","[[0,0,0],[3,1],[2]]","practice","5640","","","","","",""
"","","","","","single-stim-button","322","2830427","0.0-4.0-5.0-1.0","604d8f415e948938fd60b536","A3","batch1","","1300","","","tol_practice","","","","","","","","","","","tol_peg_3","1300","1300","0","[[1,0,0],[3,0],[2]]","2","[[0,0,0],[3,1],[2]]","practice","1300","","","","","",""
"","","","","","single-stim-button","323","2832292","0.0-4.0-5.1-0.1","604d8f415e948938fd60b536","A3","batch1","","1860","","","tol_practice","","","","","","","","","","","tol_peg_1","1860","1860","0","[[0,0,0],[3,0],[2]]","3","[[0,0,0],[3,1],[2]]","practice","1860","","","","","",""
"","","","","","single-stim-button","324","2833557","0.0-4.0-5.1-1.1","604d8f415e948938fd60b536","A3","batch1","","1259","","","tol_practice","","","","","","","","","","","tol_peg_2","1259","1259","0","[[0,0,0],[3,1],[2]]","3","[[0,0,0],[3,1],[2]]","practice","1259","","","","","",""
"","","","","","poldrack-single-stim","325","2834569","0.0-4.0-6.0","604d8f415e948938fd60b536","A3","batch1","","-1","","","tol_feedback","true","","","","","","","","","","","1000","1000","500","","","","","","-1","none","true","","0",""
"","","","","","single-stim-button","326","2848042","0.0-4.0-7.0-0.0","604d8f415e948938fd60b536","A3","batch1","","13470","","","tol_practice","","","","","","","","","","","tol_peg_2","13470","13470","0","[[1,2,0],[0,0],[0]]","4","[[1,0,0],[2,0],[3]]","practice","13470","","","","","",""
"","","","","","single-stim-button","327","2849725","0.0-4.0-7.0-1.0","604d8f415e948938fd60b536","A3","batch1","","1676","","","tol_practice","","","","","","","","","","","tol_peg_3","1676","1676","0","[[1,2,0],[0,0],[3]]","4","[[1,0,0],[2,0],[3]]","practice","1676","","","","","",""
"","","","","","single-stim-button","328","2851954","0.0-4.0-7.1-0.1","604d8f415e948938fd60b536","A3","batch1","","2223","","","tol_practice","","","","","","","","","","","tol_peg_1","2223","2223","0","[[1,0,0],[0,0],[3]]","5","[[1,0,0],[2,0],[3]]","practice","2223","","","","","",""
"","","","","","single-stim-button","329","2853224","0.0-4.0-7.1-1.1","604d8f415e948938fd60b536","A3","batch1","","1268","","","tol_practice","","","","","","","","","","","tol_peg_2","1268","1268","0","[[1,0,0],[2,0],[3]]","5","[[1,0,0],[2,0],[3]]","practice","1268","","","","","",""
"","","","","","poldrack-single-stim","330","2854240","0.0-4.0-8.0","604d8f415e948938fd60b536","A3","batch1","","-1","","","tol_feedback","true","","","","","","","","","","","1000","1000","500","","","","","","-1","none","true","","0",""
"","","","","","html-button-response","331","2856729","0.0-4.0-9.0","604d8f415e948938fd60b536","A3","batch1","","2484.8999996185303","<div class = centerbox><p class = center-block-text>Great job! You are done with practice trials<br>You are about to start official trials.<br> <br> Problem <strong>1</strong> out of 25 problems</p></div>","0","tol_instruction","","","","","","","","","","","","","","","","","","","","","","","","",""
"","","","","","single-stim-button","332","2862526","0.0-4.0-10.0-0.0","604d8f415e948938fd60b536","A3","batch1","","4781","","","tol_tohand","","","","","","","","","","","tol_peg_1","4781","4781","0","[[1,0,0],[3,0],[0]]","1","[[1,3,0],[2,0],[0]]","0","0","","","","","","3"
"","","","","","single-stim-button","333","2863712","0.0-4.0-10.0-1.0","604d8f415e948938fd60b536","A3","batch1","","1182","","","tol_toboard","","","","","","","","","","","tol_peg_2","1182","1182","0","[[1,0,0],[3,2],[0]]","1","[[1,3,0],[2,0],[0]]","0","0","","","","","","3"
"","","","","","single-stim-button","334","2873153","0.0-4.0-10.1-0.1","604d8f415e948938fd60b536","A3","batch1","","9433","","","tol_tohand","","","","","","","","","","","tol_peg_2","9433","9433","0","[[1,0,0],[3,0],[0]]","2","[[1,3,0],[2,0],[0]]","0","0","","","","","","3"
"","","","","","single-stim-button","335","2874308","0.0-4.0-10.1-1.1","604d8f415e948938fd60b536","A3","batch1","","1151","","","tol_toboard","","","","","","","","","","","tol_peg_3","1151","1151","0","[[1,0,0],[3,0],[2]]","2","[[1,3,0],[2,0],[0]]","0","0","","","","","","3"
"","","","","","single-stim-button","336","2875520","0.0-4.0-10.2-0.2","604d8f415e948938fd60b536","A3","batch1","","1209","","","tol_tohand","","","","","","","","","","","tol_peg_2","1209","1209","0","[[1,0,0],[0,0],[2]]","3","[[1,3,0],[2,0],[0]]","0","0","","","","","","3"
"","","","","","single-stim-button","337","2876658","0.0-4.0-10.2-1.2","604d8f415e948938fd60b536","A3","batch1","","1134","","","tol_toboard","","","","","","","","","","","tol_peg_1","1134","1134","0","[[1,3,0],[0,0],[2]]","3","[[1,3,0],[2,0],[0]]","0","0","","","","","","3"
"","","","","","single-stim-button","338","2879425","0.0-4.0-10.3-0.3","604d8f415e948938fd60b536","A3","batch1","","2764","","","tol_tohand","","","","","","","","","","","tol_peg_3","2764","2764","0","[[1,3,0],[0,0],[0]]","4","[[1,3,0],[2,0],[0]]","0","0","","","","","","3"
"","","","","","single-stim-button","339","2880830","0.0-4.0-10.3-1.3","604d8f415e948938fd60b536","A3","batch1","","1402","","","tol_toboard","","","","","","","","","","","tol_peg_2","1402","1402","0","[[1,3,0],[2,0],[0]]","4","[[1,3,0],[2,0],[0]]","0","0","","","","","","3"
"","","","","","poldrack-single-stim","340","2881849","0.0-4.0-11.0","604d8f415e948938fd60b536","A3","batch1","","-1","","","tol_feedback","true","","","","","","","","","","","1000","1000","500","","","","","","-1","none","true","4781","18187",""
"","","","","","html-button-response","341","2888288","0.0-4.0-12.0","604d8f415e948938fd60b536","A3","batch1","","6433.699999809265","<div class = centerbox><p class = center-block-text>problem <strong>2</strong> out of 25 problems</p></div>","0","tol_trial_num","","","","","","","","","","","","","","","","","","","","","","","","",""
"","","","","","single-stim-button","342","2908280","0.0-4.0-13.0-0.0","604d8f415e948938fd60b536","A3","batch1","","19985","","","tol_tohand","","","","","","","","","","","tol_peg_1","19985","19985","0","[[1,0,0],[3,0],[0]]","1","[[2,1,3],[0,0],[0]]","1","0","","","","","","5"
"","","","","","single-stim-button","343","2909467","0.0-4.0-13.0-1.0","604d8f415e948938fd60b536","A3","batch1","","1183","","","tol_toboard","","","","","","","","","","","tol_peg_3","1183","1183","0","[[1,0,0],[3,0],[2]]","1","[[2,1,3],[0,0],[0]]","1","0","","","","","","5"
"","","","","","single-stim-button","344","2917218","0.0-4.0-13.1-0.1","604d8f415e948938fd60b536","A3","batch1","","7746","","","tol_tohand","","","","","","","","","","","tol_peg_1","7746","7746","0","[[0,0,0],[3,0],[2]]","2","[[2,1,3],[0,0],[0]]","1","0","","","","","","5"
"","","","","","single-stim-button","345","2918565","0.0-4.0-13.1-1.1","604d8f415e948938fd60b536","A3","batch1","","1343","","","tol_toboard","","","","","","","","","","","tol_peg_2","1343","1343","0","[[0,0,0],[3,1],[2]]","2","[[2,1,3],[0,0],[0]]","1","0","","","","","","5"
