"success","timeout","failed_images","failed_audio","failed_video","trial_type","trial_index","time_elapsed","internal_node_id","subject_id","study_id","session_id","view_history","rt","task","stimulus","response","correct","mouse_click","stim_duration","block_duration","timing_post_trial","current_position","tol_num_moves_made","tol_target","tol_problem_id","tol_rt","key_press","possible_responses","tol_correct","preplanning","tol_rt_per_trial","tol_min_moves","answer","item","fiar_detect_rt","fiar_detect_correct","total_correct_fiar_detect","post_trial_gap","choices","spm_correct","spm_rt"
"true","false","[]","[]","[]","preload","0","1465","0.0-0.0","6058466a43c6819ea1d84822","F1","batch6","","","","","","","","","","","","","","","","","","","","","","","","","","","","","",""
"true","","","","","fullscreen","1","32194","0.0-1.0-0.0","6058466a43c6819ea1d84822","F1","batch6","","","","","","","","","","","","","","","","","","","","","","","","","","","","","",""
"true","","","","","fullscreen","2","38418","0.0-2.0-0.0","6058466a43c6819ea1d84822","F1","batch6","","","","","","","","","","","","","","","","","","","","","","","","","","","","","",""
"","","","","","instructions","3","237696","0.0-2.0-1.0-0.0-0.0","6058466a43c6819ea1d84822","F1","batch6","[{""page_index"":0,""viewing_time"":27944.300000000745},{""page_index"":1,""viewing_time"":7948.5},{""page_index"":2,""viewing_time"":9938.89999999851},{""page_index"":3,""viewing_time"":102078.5},{""page_index"":4,""viewing_time"":23998.10000000149},{""page_index"":5,""viewing_time"":20328.699999999255},{""page_index"":6,""viewing_time"":7044.699999999255}]","199282.19999999925","tol-instructions","","","","","","","","","","","","","","","","","","","","","","","","","","",""
"","","","","","html-button-response","4","239152","0.0-2.0-1.0-1.0-0.0","6058466a43c6819ea1d84822","F1","batch6","","1453.300000000745","tol_enter_quiz","<p class=block-text> Let's answer a few questions <br>","0","","","","","","","","","","","","","","","","","","","","","","","","",""
"","","","","","html-button-response","5","252169","0.0-2.0-1.0-1.0-1.0","6058466a43c6819ea1d84822","F1","batch6","","13014","tol_quiz","<p class = block-text>True or False: You can only move the ball on top of a peg. <br></p>","0","true","","","","","","","","","","","","","","","","","","","","","","","",""
"","","","","","html-button-response","6","254209","0.0-2.0-1.0-1.0-2.0","6058466a43c6819ea1d84822","F1","batch6","","2034.9000000022352","tol_quiz_feedback","<p class = block-text>Correct! You can only move the ball on top of a peg.</p>","0","","","","","","","","","","","","","","","","","","","","","","","","",""
"","","","","","html-button-response","7","263116","0.0-2.0-1.0-1.0-3.0","6058466a43c6819ea1d84822","F1","batch6","","8906.199999999255","tol_quiz","<p class = block-text>True or False: You should try to match your board with the target board with fewest moves possible. <br></p>","0","true","","","","","","","","","","","","","","","","","","","","","","","",""
"","","","","","html-button-response","8","264117","0.0-2.0-1.0-1.0-4.0","6058466a43c6819ea1d84822","F1","batch6","","998.7000000029802","tol_quiz_feedback","<p class = block-text>Correct! </p>","0","","","","","","","","","","","","","","","","","","","","","","","","",""
"","","","","","html-button-response","9","267803","0.0-2.0-2.0","6058466a43c6819ea1d84822","F1","batch6","","3682.699999999255","","<p class=block-text> Now that you've understood the game, let's practice a few easier examples before we start!<br> <br>","0","","","","","","","","","","","","","","","","","","","","","","","","",""
"","","","","","single-stim-button","10","272644","0.0-2.0-3.0-0.0","6058466a43c6819ea1d84822","F1","batch6","","4838","tol_practice","","","","tol_peg_2","4838","4838","0","[[1,2,0],[0,0],[0]]","1","[[1,2,0],[0,0],[3]]","practice","4838","","","","","","","","","","","","","","",""
"","","","","","single-stim-button","11","275680","0.0-2.0-3.0-1.0","6058466a43c6819ea1d84822","F1","batch6","","3034","tol_practice","","","","tol_peg_3","3034","3034","0","[[1,2,0],[0,0],[3]]","1","[[1,2,0],[0,0],[3]]","practice","3034","","","","","","","","","","","","","","",""
"","","","","","poldrack-single-stim","12","276687","0.0-2.0-4.0","6058466a43c6819ea1d84822","F1","batch6","","-1","tol_feedback","","","true","","1000","1000","500","","","","","","-1","none","true","","0","","","","","","","","","",""
"","","","","","single-stim-button","13","285052","0.0-2.0-5.0-0.0","6058466a43c6819ea1d84822","F1","batch6","","8363","tol_practice","","","","tol_peg_1","8363","8363","0","[[1,0,0],[3,0],[0]]","2","[[0,0,0],[3,1],[2]]","practice","8363","","","","","","","","","","","","","","",""
"","","","","","single-stim-button","14","287179","0.0-2.0-5.0-1.0","6058466a43c6819ea1d84822","F1","batch6","","2126","tol_practice","","","","tol_peg_3","2126","2126","0","[[1,0,0],[3,0],[2]]","2","[[0,0,0],[3,1],[2]]","practice","2126","","","","","","","","","","","","","","",""
"","","","","","single-stim-button","15","289307","0.0-2.0-5.1-0.1","6058466a43c6819ea1d84822","F1","batch6","","2125","tol_practice","","","","tol_peg_1","2125","2125","0","[[0,0,0],[3,0],[2]]","3","[[0,0,0],[3,1],[2]]","practice","2125","","","","","","","","","","","","","","",""
"","","","","","single-stim-button","16","290921","0.0-2.0-5.1-1.1","6058466a43c6819ea1d84822","F1","batch6","","1614","tol_practice","","","","tol_peg_2","1614","1614","0","[[0,0,0],[3,1],[2]]","3","[[0,0,0],[3,1],[2]]","practice","1614","","","","","","","","","","","","","","",""
"","","","","","poldrack-single-stim","17","291927","0.0-2.0-6.0","6058466a43c6819ea1d84822","F1","batch6","","-1","tol_feedback","","","true","","1000","1000","500","","","","","","-1","none","true","","0","","","","","","","","","",""
"","","","","","single-stim-button","18","296495","0.0-2.0-7.0-0.0","6058466a43c6819ea1d84822","F1","batch6","","4567","tol_practice","","","","tol_peg_1","4567","4567","0","[[1,0,0],[3,0],[0]]","4","[[1,0,0],[2,0],[3]]","practice","4567","","","","","","","","","","","","","","",""
"","","","","","single-stim-button","19","297997","0.0-2.0-7.0-1.0","6058466a43c6819ea1d84822","F1","batch6","","1500","tol_practice","","","","tol_peg_3","1500","1500","0","[[1,0,0],[3,0],[2]]","4","[[1,0,0],[2,0],[3]]","practice","1500","","","","","","","","","","","","","","",""
"","","","","","single-stim-button","20","300517","0.0-2.0-7.1-0.1","6058466a43c6819ea1d84822","F1","batch6","","2518","tol_practice","","","","tol_peg_2","2518","2518","0","[[1,0,0],[0,0],[2]]","5","[[1,0,0],[2,0],[3]]","practice","2518","","","","","","","","","","","","","","",""
"","","","","","single-stim-button","21","303316","0.0-2.0-7.1-1.1","6058466a43c6819ea1d84822","F1","batch6","","2798","tol_practice","","","","tol_peg_1","2798","2798","0","[[1,3,0],[0,0],[2]]","5","[[1,0,0],[2,0],[3]]","practice","2798","","","","","","","","","","","","","","",""
"","","","","","single-stim-button","22","304826","0.0-2.0-7.2-0.2","6058466a43c6819ea1d84822","F1","batch6","","1509","tol_practice","","","","tol_peg_3","1509","1509","0","[[1,3,0],[0,0],[0]]","6","[[1,0,0],[2,0],[3]]","practice","1509","","","","","","","","","","","","","","",""
"","","","","","single-stim-button","23","306532","0.0-2.0-7.2-1.2","6058466a43c6819ea1d84822","F1","batch6","","1704","tol_practice","","","","tol_peg_2","1704","1704","0","[[1,3,0],[2,0],[0]]","6","[[1,0,0],[2,0],[3]]","practice","1704","","","","","","","","","","","","","","",""
"","","","","","single-stim-button","24","307578","0.0-2.0-7.3-0.3","6058466a43c6819ea1d84822","F1","batch6","","1045","tol_practice","","","","tol_peg_1","1045","1045","0","[[1,0,0],[2,0],[0]]","7","[[1,0,0],[2,0],[3]]","practice","1045","","","","","","","","","","","","","","",""
"","","","","","single-stim-button","25","308738","0.0-2.0-7.3-1.3","6058466a43c6819ea1d84822","F1","batch6","","1158","tol_practice","","","","tol_peg_3","1158","1158","0","[[1,0,0],[2,0],[3]]","7","[[1,0,0],[2,0],[3]]","practice","1158","","","","","","","","","","","","","","",""
"","","","","","poldrack-single-stim","26","309744","0.0-2.0-8.0","6058466a43c6819ea1d84822","F1","batch6","","-1","tol_feedback","","","true","","1000","1000","500","","","","","","-1","none","true","","0","","","","","","","","","",""
"","","","","","html-button-response","27","314951","0.0-2.0-9.0","6058466a43c6819ea1d84822","F1","batch6","","5205.199999999255","tol_instruction","<div class = centerbox><p class = center-block-text>Great job! You are done with practice trials<br>You are about to start official trials.<br> <br> Problem <strong>1</strong> out of 25 problems</p></div>","0","","","","","","","","","","","","","","","","","","","","","","","","",""
"","","","","","single-stim-button","28","326058","0.0-2.0-10.0-0.0","6058466a43c6819ea1d84822","F1","batch6","","10096","tol_tohand","","","","tol_peg_1","10096","10096","0","[[1,0,0],[3,0],[0]]","1","[[1,3,0],[2,0],[0]]","0","0","","","","","","3","","","","","","","","",""
"","","","","","single-stim-button","29","329337","0.0-2.0-10.0-1.0","6058466a43c6819ea1d84822","F1","batch6","","3277","tol_toboard","","","","tol_peg_3","3277","3277","0","[[1,0,0],[3,0],[2]]","1","[[1,3,0],[2,0],[0]]","0","0","","","","","","3","","","","","","","","",""
"","","","","","single-stim-button","30","330768","0.0-2.0-10.1-0.1","6058466a43c6819ea1d84822","F1","batch6","","1430","tol_tohand","","","","tol_peg_2","1430","1430","0","[[1,0,0],[0,0],[2]]","2","[[1,3,0],[2,0],[0]]","0","0","","","","","","3","","","","","","","","",""
"","","","","","single-stim-button","31","331769","0.0-2.0-10.1-1.1","6058466a43c6819ea1d84822","F1","batch6","","999","tol_toboard","","","","tol_peg_1","999","999","0","[[1,3,0],[0,0],[2]]","2","[[1,3,0],[2,0],[0]]","0","0","","","","","","3","","","","","","","","",""
"","","","","","single-stim-button","32","333343","0.0-2.0-10.2-0.2","6058466a43c6819ea1d84822","F1","batch6","","1573","tol_tohand","","","","tol_peg_3","1573","1573","0","[[1,3,0],[0,0],[0]]","3","[[1,3,0],[2,0],[0]]","0","0","","","","","","3","","","","","","","","",""
"","","","","","single-stim-button","33","334677","0.0-2.0-10.2-1.2","6058466a43c6819ea1d84822","F1","batch6","","1333","tol_toboard","","","","tol_peg_2","1333","1333","0","[[1,3,0],[2,0],[0]]","3","[[1,3,0],[2,0],[0]]","0","0","","","","","","3","","","","","","","","",""
"","","","","","poldrack-single-stim","34","335686","0.0-2.0-11.0","6058466a43c6819ea1d84822","F1","batch6","","-1","tol_feedback","","","true","","1000","1000","500","","","","","","-1","none","true","10096","13099","","","","","","","","","",""
"","","","","","html-button-response","35","337285","0.0-2.0-12.0","6058466a43c6819ea1d84822","F1","batch6","","1597.1000000014901","tol_trial_num","<div class = centerbox><p class = center-block-text>problem <strong>2</strong> out of 25 problems</p></div>","0","","","","","","","","","","","","","","","","","","","","","","","","",""
"","","","","","single-stim-button","36","354486","0.0-2.0-13.0-0.0","6058466a43c6819ea1d84822","F1","batch6","","17199","tol_tohand","","","","tol_peg_1","17199","17199","0","[[1,0,0],[3,0],[0]]","1","[[2,1,3],[0,0],[0]]","1","0","","","","","","5","","","","","","","","",""
"","","","","","single-stim-button","37","356781","0.0-2.0-13.0-1.0","6058466a43c6819ea1d84822","F1","batch6","","2293","tol_toboard","","","","tol_peg_3","2293","2293","0","[[1,0,0],[3,0],[2]]","1","[[2,1,3],[0,0],[0]]","1","0","","","","","","5","","","","","","","","",""
"","","","","","single-stim-button","38","358836","0.0-2.0-13.1-0.1","6058466a43c6819ea1d84822","F1","batch6","","2053","tol_tohand","","","","tol_peg_1","2053","2053","0","[[0,0,0],[3,0],[2]]","2","[[2,1,3],[0,0],[0]]","1","0","","","","","","5","","","","","","","","",""
"","","","","","single-stim-button","39","360347","0.0-2.0-13.1-1.1","6058466a43c6819ea1d84822","F1","batch6","","1509","tol_toboard","","","","tol_peg_2","1509","1509","0","[[0,0,0],[3,1],[2]]","2","[[2,1,3],[0,0],[0]]","1","0","","","","","","5","","","","","","","","",""
"","","","","","single-stim-button","40","361467","0.0-2.0-13.2-0.2","6058466a43c6819ea1d84822","F1","batch6","","1119","tol_tohand","","","","tol_peg_3","1119","1119","0","[[0,0,0],[3,1],[0]]","3","[[2,1,3],[0,0],[0]]","1","0","","","","","","5","","","","","","","","",""
"","","","","","single-stim-button","41","362266","0.0-2.0-13.2-1.2","6058466a43c6819ea1d84822","F1","batch6","","797","tol_toboard","","","","tol_peg_1","797","797","0","[[2,0,0],[3,1],[0]]","3","[[2,1,3],[0,0],[0]]","1","0","","","","","","5","","","","","","","","",""
"","","","","","single-stim-button","42","362922","0.0-2.0-13.3-0.3","6058466a43c6819ea1d84822","F1","batch6","","655","tol_tohand","","","","tol_peg_2","655","655","0","[[2,0,0],[3,0],[0]]","4","[[2,1,3],[0,0],[0]]","1","0","","","","","","5","","","","","","","","",""
"","","","","","single-stim-button","43","363881","0.0-2.0-13.3-1.3","6058466a43c6819ea1d84822","F1","batch6","","958","tol_toboard","","","","tol_peg_1","958","958","0","[[2,1,0],[3,0],[0]]","4","[[2,1,3],[0,0],[0]]","1","0","","","","","","5","","","","","","","","",""
"","","","","","single-stim-button","44","364609","0.0-2.0-13.4-0.4","6058466a43c6819ea1d84822","F1","batch6","","726","tol_tohand","","","","tol_peg_2","726","726","0","[[2,1,0],[0,0],[0]]","5","[[2,1,3],[0,0],[0]]","1","0","","","","","","5","","","","","","","","",""
"","","","","","single-stim-button","45","365745","0.0-2.0-13.4-1.4","6058466a43c6819ea1d84822","F1","batch6","","1134","tol_toboard","","","","tol_peg_1","1134","1134","0","[[2,1,3],[0,0],[0]]","5","[[2,1,3],[0,0],[0]]","1","0","","","","","","5","","","","","","","","",""
"","","","","","poldrack-single-stim","46","366752","0.0-2.0-14.0","6058466a43c6819ea1d84822","F1","batch6","","-1","tol_feedback","","","true","","1000","1000","500","","","","","","-1","none","true","17199","21752","","","","","","","","","",""
"","","","","","html-button-response","47","367904","0.0-2.0-15.0","6058466a43c6819ea1d84822","F1","batch6","","1149.699999999255","tol_trial_num","<div class = centerbox><p class = center-block-text>problem <strong>3</strong> out of 25 problems</p></div>","0","","","","","","","","","","","","","","","","","","","","","","","","",""
"","","","","","single-stim-button","48","378971","0.0-2.0-16.0-0.0","6058466a43c6819ea1d84822","F1","batch6","","11065","tol_tohand","","","","tol_peg_1","11065","11065","0","[[2,0,0],[0,0],[1]]","1","[[1,2,0],[3,0],[0]]","2","0","","","","","","4","","","","","","","","",""
"","","","","","single-stim-button","49","380315","0.0-2.0-16.0-1.0","6058466a43c6819ea1d84822","F1","batch6","","1342","tol_toboard","","","","tol_peg_2","1342","1342","0","[[2,0,0],[3,0],[1]]","1","[[1,2,0],[3,0],[0]]","2","0","","","","","","4","","","","","","","","",""
"","","","","","single-stim-button","50","382506","0.0-2.0-16.1-0.1","6058466a43c6819ea1d84822","F1","batch6","","2189","tol_tohand","","","","tol_peg_1","2189","2189","0","[[0,0,0],[3,0],[1]]","2","[[1,2,0],[3,0],[0]]","2","0","","","","","","4","","","","","","","","",""
"","","","","","single-stim-button","51","383641","0.0-2.0-16.1-1.1","6058466a43c6819ea1d84822","F1","batch6","","1133","tol_toboard","","","","tol_peg_2","1133","1133","0","[[0,0,0],[3,2],[1]]","2","[[1,2,0],[3,0],[0]]","2","0","","","","","","4","","","","","","","","",""
"","","","","","single-stim-button","52","384648","0.0-2.0-16.2-0.2","6058466a43c6819ea1d84822","F1","batch6","","1006","tol_tohand","","","","tol_peg_3","1006","1006","0","[[0,0,0],[3,2],[0]]","3","[[1,2,0],[3,0],[0]]","2","0","","","","","","4","","","","","","","","",""
"","","","","","single-stim-button","53","385832","0.0-2.0-16.2-1.2","6058466a43c6819ea1d84822","F1","batch6","","1182","tol_toboard","","","","tol_peg_1","1182","1182","0","[[1,0,0],[3,2],[0]]","3","[[1,2,0],[3,0],[0]]","2","0","","","","","","4","","","","","","","","",""
"","","","","","single-stim-button","54","386792","0.0-2.0-16.3-0.3","6058466a43c6819ea1d84822","F1","batch6","","959","tol_tohand","","","","tol_peg_2","959","959","0","[[1,0,0],[3,0],[0]]","4","[[1,2,0],[3,0],[0]]","2","0","","","","","","4","","","","","","","","",""
"","","","","","single-stim-button","55","387511","0.0-2.0-16.3-1.3","6058466a43c6819ea1d84822","F1","batch6","","717","tol_toboard","","","","tol_peg_1","717","717","0","[[1,2,0],[3,0],[0]]","4","[[1,2,0],[3,0],[0]]","2","0","","","","","","4","","","","","","","","",""
"","","","","","poldrack-single-stim","56","388519","0.0-2.0-17.0","6058466a43c6819ea1d84822","F1","batch6","","-1","tol_feedback","","","true","","1000","1000","500","","","","","","-1","none","true","11065","15219","","","","","","","","","",""
"","","","","","html-button-response","57","389956","0.0-2.0-18.0","6058466a43c6819ea1d84822","F1","batch6","","1436.199999999255","tol_trial_num","<div class = centerbox><p class = center-block-text>problem <strong>4</strong> out of 25 problems</p></div>","0","","","","","","","","","","","","","","","","","","","","","","","","",""
"","","","","","single-stim-button","58","395748","0.0-2.0-19.0-0.0","6058466a43c6819ea1d84822","F1","batch6","","5790","tol_tohand","","","","tol_peg_2","5790","5790","0","[[3,0,0],[2,0],[0]]","1","[[3,0,0],[1,0],[2]]","3","0","","","","","","3","","","","","","","","",""
"","","","","","single-stim-button","59","397699","0.0-2.0-19.0-1.0","6058466a43c6819ea1d84822","F1","batch6","","1949","tol_toboard","","","","tol_peg_1","1949","1949","0","[[3,1,0],[2,0],[0]]","1","[[3,0,0],[1,0],[2]]","3","0","","","","","","3","","","","","","","","",""
"","","","","","single-stim-button","60","399065","0.0-2.0-19.1-0.1","6058466a43c6819ea1d84822","F1","batch6","","1364","tol_tohand","","","","tol_peg_2","1364","1364","0","[[3,1,0],[0,0],[0]]","2","[[3,0,0],[1,0],[2]]","3","0","","","","","","3","","","","","","","","",""
"","","","","","single-stim-button","61","400730","0.0-2.0-19.1-1.1","6058466a43c6819ea1d84822","F1","batch6","","1664","tol_toboard","","","","tol_peg_3","1664","1664","0","[[3,1,0],[0,0],[2]]","2","[[3,0,0],[1,0],[2]]","3","0","","","","","","3","","","","","","","","",""
"","","","","","single-stim-button","62","401601","0.0-2.0-19.2-0.2","6058466a43c6819ea1d84822","F1","batch6","","870","tol_tohand","","","","tol_peg_1","870","870","0","[[3,0,0],[0,0],[2]]","3","[[3,0,0],[1,0],[2]]","3","0","","","","","","3","","","","","","","","",""
"","","","","","single-stim-button","63","402392","0.0-2.0-19.2-1.2","6058466a43c6819ea1d84822","F1","batch6","","790","tol_toboard","","","","tol_peg_2","790","790","0","[[3,0,0],[1,0],[2]]","3","[[3,0,0],[1,0],[2]]","3","0","","","","","","3","","","","","","","","",""
"","","","","","poldrack-single-stim","64","403400","0.0-2.0-20.0","6058466a43c6819ea1d84822","F1","batch6","","-1","tol_feedback","","","true","","1000","1000","500","","","","","","-1","none","true","5790","8024","","","","","","","","","",""
"","","","","","html-button-response","65","404711","0.0-2.0-21.0","6058466a43c6819ea1d84822","F1","batch6","","1309.5","tol_trial_num","<div class = centerbox><p class = center-block-text>problem <strong>5</strong> out of 25 problems</p></div>","0","","","","","","","","","","","","","","","","","","","","","","","","",""
"","","","","","single-stim-button","66","447524","0.0-2.0-22.0-0.0","6058466a43c6819ea1d84822","F1","batch6","","42810","tol_tohand","","","","tol_peg_1","42810","42810","0","[[0,0,0],[2,0],[3]]","1","[[0,0,0],[1,2],[3]]","4","0","","","","","","7","","","","","","","","",""
"","","","","","single-stim-button","67","448229","0.0-2.0-22.0-1.0","6058466a43c6819ea1d84822","F1","batch6","","703","tol_toboard","","","","tol_peg_2","703","703","0","[[0,0,0],[2,1],[3]]","1","[[0,0,0],[1,2],[3]]","4","0","","","","","","7","","","","","","","","",""
"","","","","","single-stim-button","68","453771","0.0-2.0-22.1-0.1","6058466a43c6819ea1d84822","F1","batch6","","5540","tol_tohand","","","","tol_peg_3","5540","5540","0","[[0,0,0],[2,1],[0]]","2","[[0,0,0],[1,2],[3]]","4","0","","","","","","7","","","","","","","","",""
"","","","","","single-stim-button","69","455274","0.0-2.0-22.1-1.1","6058466a43c6819ea1d84822","F1","batch6","","1501","tol_toboard","","","","tol_peg_1","1501","1501","0","[[3,0,0],[2,1],[0]]","2","[[0,0,0],[1,2],[3]]","4","0","","","","","","7","","","","","","","","",""
"","","","","","single-stim-button","70","456600","0.0-2.0-22.2-0.2","6058466a43c6819ea1d84822","F1","batch6","","1325","tol_tohand","","","","tol_peg_2","1325","1325","0","[[3,0,0],[2,0],[0]]","3","[[0,0,0],[1,2],[3]]","4","0","","","","","","7","","","","","","","","",""
"","","","","","single-stim-button","71","457608","0.0-2.0-22.2-1.2","6058466a43c6819ea1d84822","F1","batch6","","1007","tol_toboard","","","","tol_peg_3","1007","1007","0","[[3,0,0],[2,0],[1]]","3","[[0,0,0],[1,2],[3]]","4","0","","","","","","7","","","","","","","","",""
"","","","","","single-stim-button","72","459247","0.0-2.0-22.3-0.3","6058466a43c6819ea1d84822","F1","batch6","","1637","tol_tohand","","","","tol_peg_2","1637","1637","0","[[3,0,0],[0,0],[1]]","4","[[0,0,0],[1,2],[3]]","4","0","","","","","","7","","","","","","","","",""
"","","","","","single-stim-button","73","459958","0.0-2.0-22.3-1.3","6058466a43c6819ea1d84822","F1","batch6","","711","tol_toboard","","","","tol_peg_1","711","711","0","[[3,2,0],[0,0],[1]]","4","[[0,0,0],[1,2],[3]]","4","0","","","","","","7","","","","","","","","",""
"","","","","","single-stim-button","74","460872","0.0-2.0-22.4-0.4","6058466a43c6819ea1d84822","F1","batch6","","912","tol_tohand","","","","tol_peg_3","912","912","0","[[3,2,0],[0,0],[0]]","5","[[0,0,0],[1,2],[3]]","4","0","","","","","","7","","","","","","","","",""
"","","","","","single-stim-button","75","461525","0.0-2.0-22.4-1.4","6058466a43c6819ea1d84822","F1","batch6","","653","tol_toboard","","","","tol_peg_2","653","653","0","[[3,2,0],[1,0],[0]]","5","[[0,0,0],[1,2],[3]]","4","0","","","","","","7","","","","","","","","",""
"","","","","","single-stim-button","76","462398","0.0-2.0-22.5-0.5","6058466a43c6819ea1d84822","F1","batch6","","871","tol_tohand","","","","tol_peg_1","871","871","0","[[3,0,0],[1,0],[0]]","6","[[0,0,0],[1,2],[3]]","4","0","","","","","","7","","","","","","","","",""
"","","","","","single-stim-button","77","463534","0.0-2.0-22.5-1.5","6058466a43c6819ea1d84822","F1","batch6","","1135","tol_toboard","","","","tol_peg_2","1135","1135","0","[[3,0,0],[1,2],[0]]","6","[[0,0,0],[1,2],[3]]","4","0","","","","","","7","","","","","","","","",""
"","","","","","single-stim-button","78","464589","0.0-2.0-22.6-0.6","6058466a43c6819ea1d84822","F1","batch6","","1054","tol_tohand","","","","tol_peg_1","1054","1054","0","[[0,0,0],[1,2],[0]]","7","[[0,0,0],[1,2],[3]]","4","0","","","","","","7","","","","","","","","",""
"","","","","","single-stim-button","79","465333","0.0-2.0-22.6-1.6","6058466a43c6819ea1d84822","F1","batch6","","742","tol_toboard","","","","tol_peg_3","742","742","0","[[0,0,0],[1,2],[3]]","7","[[0,0,0],[1,2],[3]]","4","0","","","","","","7","","","","","","","","",""
"","","","","","poldrack-single-stim","80","466338","0.0-2.0-23.0","6058466a43c6819ea1d84822","F1","batch6","","-1","tol_feedback","","","true","","1000","1000","500","","","","","","-1","none","true","42810","54149","","","","","","","","","",""
"","","","","","html-button-response","81","467780","0.0-2.0-24.0","6058466a43c6819ea1d84822","F1","batch6","","1440.1000000014901","tol_trial_num","<div class = centerbox><p class = center-block-text>problem <strong>6</strong> out of 25 problems</p></div>","0","","","","","","","","","","","","","","","","","","","","","","","","",""
"","","","","","single-stim-button","82","495144","0.0-2.0-25.0-0.0","6058466a43c6819ea1d84822","F1","batch6","","27363","tol_tohand","","","","tol_peg_3","27363","27363","0","[[0,0,0],[1,2],[0]]","1","[[1,0,0],[2,3],[0]]","5","0","","","","","","6","","","","","","","","",""
"","","","","","single-stim-button","83","496416","0.0-2.0-25.0-1.0","6058466a43c6819ea1d84822","F1","batch6","","1270","tol_toboard","","","","tol_peg_1","1270","1270","0","[[3,0,0],[1,2],[0]]","1","[[1,0,0],[2,3],[0]]","5","0","","","","","","6","","","","","","","","",""
"","","","","","single-stim-button","84","497015","0.0-2.0-25.1-0.1","6058466a43c6819ea1d84822","F1","batch6","","597","tol_tohand","","","","tol_peg_2","597","597","0","[[3,0,0],[1,0],[0]]","2","[[1,0,0],[2,3],[0]]","5","0","","","","","","6","","","","","","","","",""
"","","","","","single-stim-button","85","497847","0.0-2.0-25.1-1.1","6058466a43c6819ea1d84822","F1","batch6","","830","tol_toboard","","","","tol_peg_3","830","830","0","[[3,0,0],[1,0],[2]]","2","[[1,0,0],[2,3],[0]]","5","0","","","","","","6","","","","","","","","",""
"","","","","","single-stim-button","86","523860","0.0-2.0-25.2-0.2","6058466a43c6819ea1d84822","F1","batch6","","26011","tol_tohand","","","","tol_peg_1","26011","26011","0","[[0,0,0],[1,0],[2]]","3","[[1,0,0],[2,3],[0]]","5","0","","","","","","6","","","","","","","","",""
"","","","","","single-stim-button","87","531784","0.0-2.0-25.2-1.2","6058466a43c6819ea1d84822","F1","batch6","","7922","tol_toboard","","","","tol_peg_1","7922","7922","0","[[3,0,0],[1,0],[2]]","3","[[1,0,0],[2,3],[0]]","5","0","","","","","","6","","","","","","","","",""
"","","","","","single-stim-button","88","549680","0.0-2.0-25.3-0.3","6058466a43c6819ea1d84822","F1","batch6","","17894","tol_tohand","","","","tol_peg_1","17894","17894","0","[[0,0,0],[1,0],[2]]","4","[[1,0,0],[2,3],[0]]","5","0","","","","","","6","","","","","","","","",""
"","","","","","single-stim-button","89","550736","0.0-2.0-25.3-1.3","6058466a43c6819ea1d84822","F1","batch6","","1055","tol_toboard","","","","tol_peg_2","1055","1055","0","[[0,0,0],[1,3],[2]]","4","[[1,0,0],[2,3],[0]]","5","0","","","","","","6","","","","","","","","",""
"","","","","","single-stim-button","90","551871","0.0-2.0-25.4-0.4","6058466a43c6819ea1d84822","F1","batch6","","1133","tol_tohand","","","","tol_peg_3","1133","1133","0","[[0,0,0],[1,3],[0]]","5","[[1,0,0],[2,3],[0]]","5","0","","","","","","6","","","","","","","","",""
"","","","","","single-stim-button","91","552999","0.0-2.0-25.4-1.4","6058466a43c6819ea1d84822","F1","batch6","","1127","tol_toboard","","","","tol_peg_1","1127","1127","0","[[2,0,0],[1,3],[0]]","5","[[1,0,0],[2,3],[0]]","5","0","","","","","","6","","","","","","","","",""
"","","","","","single-stim-button","92","557317","0.0-2.0-25.5-0.5","6058466a43c6819ea1d84822","F1","batch6","","4317","tol_tohand","","","","tol_peg_2","4317","4317","0","[[2,0,0],[1,0],[0]]","6","[[1,0,0],[2,3],[0]]","5","0","","","","","","6","","","","","","","","",""
"","","","","","single-stim-button","93","558195","0.0-2.0-25.5-1.5","6058466a43c6819ea1d84822","F1","batch6","","877","tol_toboard","","","","tol_peg_1","877","877","0","[[2,3,0],[1,0],[0]]","6","[[1,0,0],[2,3],[0]]","5","0","","","","","","6","","","","","","","","",""
"","","","","","single-stim-button","94","559132","0.0-2.0-25.6-0.6","6058466a43c6819ea1d84822","F1","batch6","","936","tol_tohand","","","","tol_peg_2","936","936","0","[[2,3,0],[0,0],[0]]","7","[[1,0,0],[2,3],[0]]","5","0","","","","","","6","","","","","","","","",""
"","","","","","single-stim-button","95","560195","0.0-2.0-25.6-1.6","6058466a43c6819ea1d84822","F1","batch6","","1061","tol_toboard","","","","tol_peg_3","1061","1061","0","[[2,3,0],[0,0],[1]]","7","[[1,0,0],[2,3],[0]]","5","0","","","","","","6","","","","","","","","",""
"","","","","","single-stim-button","96","561083","0.0-2.0-25.7-0.7","6058466a43c6819ea1d84822","F1","batch6","","887","tol_tohand","","","","tol_peg_1","887","887","0","[[2,0,0],[0,0],[1]]","8","[[1,0,0],[2,3],[0]]","5","0","","","","","","6","","","","","","","","",""
"","","","","","single-stim-button","97","563834","0.0-2.0-25.7-1.7","6058466a43c6819ea1d84822","F1","batch6","","2749","tol_toboard","","","","tol_peg_2","2749","2749","0","[[2,0,0],[3,0],[1]]","8","[[1,0,0],[2,3],[0]]","5","0","","","","","","6","","","","","","","","",""
"","","","","","single-stim-button","98","564585","0.0-2.0-25.8-0.8","6058466a43c6819ea1d84822","F1","batch6","","750","tol_tohand","","","","tol_peg_1","750","750","0","[[0,0,0],[3,0],[1]]","9","[[1,0,0],[2,3],[0]]","5","0","","","","","","6","","","","","","","","",""
"","","","","","single-stim-button","99","566057","0.0-2.0-25.8-1.8","6058466a43c6819ea1d84822","F1","batch6","","1470","tol_toboard","","","","tol_peg_2","1470","1470","0","[[0,0,0],[3,2],[1]]","9","[[1,0,0],[2,3],[0]]","5","0","","","","","","6","","","","","","","","",""
"","","","","","single-stim-button","100","566817","0.0-2.0-25.9-0.9","6058466a43c6819ea1d84822","F1","batch6","","758","tol_tohand","","","","tol_peg_3","758","758","0","[[0,0,0],[3,2],[0]]","10","[[1,0,0],[2,3],[0]]","5","0","","","","","","6","","","","","","","","",""
"","","","","","single-stim-button","101","568152","0.0-2.0-25.9-1.9","6058466a43c6819ea1d84822","F1","batch6","","1334","tol_toboard","","","","tol_peg_1","1334","1334","0","[[1,0,0],[3,2],[0]]","10","[[1,0,0],[2,3],[0]]","5","0","","","","","","6","","","","","","","","",""
"","","","","","single-stim-button","102","570423","0.0-2.0-25.10-0.10","6058466a43c6819ea1d84822","F1","batch6","","2269","tol_tohand","","","","tol_peg_2","2269","2269","0","[[1,0,0],[3,0],[0]]","11","[[1,0,0],[2,3],[0]]","5","0","","","","","","6","","","","","","","","",""
"","","","","","single-stim-button","103","571902","0.0-2.0-25.10-1.10","6058466a43c6819ea1d84822","F1","batch6","","1477","tol_toboard","","","","tol_peg_1","1477","1477","0","[[1,2,0],[3,0],[0]]","11","[[1,0,0],[2,3],[0]]","5","0","","","","","","6","","","","","","","","",""
"","","","","","single-stim-button","104","572846","0.0-2.0-25.11-0.11","6058466a43c6819ea1d84822","F1","batch6","","942","tol_tohand","","","","tol_peg_2","942","942","0","[[1,2,0],[0,0],[0]]","12","[[1,0,0],[2,3],[0]]","5","0","","","","","","6","","","","","","","","",""
"","","","","","single-stim-button","105","573917","0.0-2.0-25.11-1.11","6058466a43c6819ea1d84822","F1","batch6","","1069","tol_toboard","","","","tol_peg_3","1069","1069","0","[[1,2,0],[0,0],[3]]","12","[[1,0,0],[2,3],[0]]","5","0","","","","","","6","","","","","","","","",""
"","","","","","single-stim-button","106","574684","0.0-2.0-25.12-0.12","6058466a43c6819ea1d84822","F1","batch6","","766","tol_tohand","","","","tol_peg_1","766","766","0","[[1,0,0],[0,0],[3]]","13","[[1,0,0],[2,3],[0]]","5","0","","","","","","6","","","","","","","","",""
"","","","","","single-stim-button","107","575205","0.0-2.0-25.12-1.12","6058466a43c6819ea1d84822","F1","batch6","","519","tol_toboard","","","","tol_peg_2","519","519","0","[[1,0,0],[2,0],[3]]","13","[[1,0,0],[2,3],[0]]","5","0","","","","","","6","","","","","","","","",""
"","","","","","single-stim-button","108","576076","0.0-2.0-25.13-0.13","6058466a43c6819ea1d84822","F1","batch6","","869","tol_tohand","","","","tol_peg_3","869","869","0","[[1,0,0],[2,0],[0]]","14","[[1,0,0],[2,3],[0]]","5","0","","","","","","6","","","","","","","","",""
"","","","","","single-stim-button","109","577212","0.0-2.0-25.13-1.13","6058466a43c6819ea1d84822","F1","batch6","","1134","tol_toboard","","","","tol_peg_2","1134","1134","0","[[1,0,0],[2,3],[0]]","14","[[1,0,0],[2,3],[0]]","5","0","","","","","","6","","","","","","","","",""
"","","","","","poldrack-single-stim","110","578219","0.0-2.0-26.0","6058466a43c6819ea1d84822","F1","batch6","","-1","tol_feedback","","","true","","1000","1000","500","","","","","","-1","none","true","27363","85492","","","","","","","","","",""
"","","","","","html-button-response","111","580051","0.0-2.0-27.0","6058466a43c6819ea1d84822","F1","batch6","","1829.699999999255","tol_trial_num","<div class = centerbox><p class = center-block-text>problem <strong>7</strong> out of 25 problems</p></div>","0","","","","","","","","","","","","","","","","","","","","","","","","",""
"","","","","","single-stim-button","112","589327","0.0-2.0-28.0-0.0","6058466a43c6819ea1d84822","F1","batch6","","9274","tol_tohand","","","","tol_peg_1","9274","9274","0","[[2,0,0],[0,0],[3]]","1","[[1,2,0],[3,0],[0]]","6","0","","","","","","5","","","","","","","","",""
"","","","","","single-stim-button","113","590662","0.0-2.0-28.0-1.0","6058466a43c6819ea1d84822","F1","batch6","","1333","tol_toboard","","","","tol_peg_2","1333","1333","0","[[2,0,0],[1,0],[3]]","1","[[1,2,0],[3,0],[0]]","6","0","","","","","","5","","","","","","","","",""
"","","","","","single-stim-button","114","591558","0.0-2.0-28.1-0.1","6058466a43c6819ea1d84822","F1","batch6","","895","tol_tohand","","","","tol_peg_1","895","895","0","[[0,0,0],[1,0],[3]]","2","[[1,2,0],[3,0],[0]]","6","0","","","","","","5","","","","","","","","",""
"","","","","","single-stim-button","115","593229","0.0-2.0-28.1-1.1","6058466a43c6819ea1d84822","F1","batch6","","1669","tol_toboard","","","","tol_peg_2","1669","1669","0","[[0,0,0],[1,2],[3]]","2","[[1,2,0],[3,0],[0]]","6","0","","","","","","5","","","","","","","","",""
"","","","","","single-stim-button","116","606165","0.0-2.0-28.2-0.2","6058466a43c6819ea1d84822","F1","batch6","","12935","tol_tohand","","","","tol_peg_2","12935","12935","0","[[0,0,0],[1,0],[3]]","3","[[1,2,0],[3,0],[0]]","6","0","","","","","","5","","","","","","","","",""
"","","","","","single-stim-button","117","607167","0.0-2.0-28.2-1.2","6058466a43c6819ea1d84822","F1","batch6","","1000","tol_toboard","","","","tol_peg_1","1000","1000","0","[[2,0,0],[1,0],[3]]","3","[[1,2,0],[3,0],[0]]","6","0","","","","","","5","","","","","","","","",""
"","","","","","single-stim-button","118","607862","0.0-2.0-28.3-0.3","6058466a43c6819ea1d84822","F1","batch6","","693","tol_tohand","","","","tol_peg_2","693","693","0","[[2,0,0],[0,0],[3]]","4","[[1,2,0],[3,0],[0]]","6","0","","","","","","5","","","","","","","","",""
"","","","","","single-stim-button","119","609204","0.0-2.0-28.3-1.3","6058466a43c6819ea1d84822","F1","batch6","","1341","tol_toboard","","","","tol_peg_1","1341","1341","0","[[2,1,0],[0,0],[3]]","4","[[1,2,0],[3,0],[0]]","6","0","","","","","","5","","","","","","","","",""
"","","","","","single-stim-button","120","611028","0.0-2.0-28.4-0.4","6058466a43c6819ea1d84822","F1","batch6","","1822","tol_tohand","","","","tol_peg_3","1822","1822","0","[[2,1,0],[0,0],[0]]","5","[[1,2,0],[3,0],[0]]","6","0","","","","","","5","","","","","","","","",""
"","","","","","single-stim-button","121","612693","0.0-2.0-28.4-1.4","6058466a43c6819ea1d84822","F1","batch6","","1663","tol_toboard","","","","tol_peg_2","1663","1663","0","[[2,1,0],[3,0],[0]]","5","[[1,2,0],[3,0],[0]]","6","0","","","","","","5","","","","","","","","",""
"","","","","","single-stim-button","122","618194","0.0-2.0-28.5-0.5","6058466a43c6819ea1d84822","F1","batch6","","5500","tol_tohand","","","","tol_peg_1","5500","5500","0","[[2,0,0],[3,0],[0]]","6","[[1,2,0],[3,0],[0]]","6","0","","","","","","5","","","","","","","","",""
"","","","","","single-stim-button","123","618961","0.0-2.0-28.5-1.5","6058466a43c6819ea1d84822","F1","batch6","","766","tol_toboard","","","","tol_peg_3","766","766","0","[[2,0,0],[3,0],[1]]","6","[[1,2,0],[3,0],[0]]","6","0","","","","","","5","","","","","","","","",""
"","","","","","single-stim-button","124","620097","0.0-2.0-28.6-0.6","6058466a43c6819ea1d84822","F1","batch6","","1134","tol_tohand","","","","tol_peg_1","1134","1134","0","[[0,0,0],[3,0],[1]]","7","[[1,2,0],[3,0],[0]]","6","0","","","","","","5","","","","","","","","",""
"","","","","","single-stim-button","125","620664","0.0-2.0-28.6-1.6","6058466a43c6819ea1d84822","F1","batch6","","566","tol_toboard","","","","tol_peg_2","566","566","0","[[0,0,0],[3,2],[1]]","7","[[1,2,0],[3,0],[0]]","6","0","","","","","","5","","","","","","","","",""
"","","","","","single-stim-button","126","621257","0.0-2.0-28.7-0.7","6058466a43c6819ea1d84822","F1","batch6","","591","tol_tohand","","","","tol_peg_3","591","591","0","[[0,0,0],[3,2],[0]]","8","[[1,2,0],[3,0],[0]]","6","0","","","","","","5","","","","","","","","",""
"","","","","","single-stim-button","127","622424","0.0-2.0-28.7-1.7","6058466a43c6819ea1d84822","F1","batch6","","1167","tol_toboard","","","","tol_peg_1","1167","1167","0","[[1,0,0],[3,2],[0]]","8","[[1,2,0],[3,0],[0]]","6","0","","","","","","5","","","","","","","","",""
"","","","","","single-stim-button","128","623143","0.0-2.0-28.8-0.8","6058466a43c6819ea1d84822","F1","batch6","","718","tol_tohand","","","","tol_peg_2","718","718","0","[[1,0,0],[3,0],[0]]","9","[[1,2,0],[3,0],[0]]","6","0","","","","","","5","","","","","","","","",""
"","","","","","single-stim-button","129","623775","0.0-2.0-28.8-1.8","6058466a43c6819ea1d84822","F1","batch6","","630","tol_toboard","","","","tol_peg_1","630","630","0","[[1,2,0],[3,0],[0]]","9","[[1,2,0],[3,0],[0]]","6","0","","","","","","5","","","","","","","","",""
"","","","","","poldrack-single-stim","130","624785","0.0-2.0-29.0","6058466a43c6819ea1d84822","F1","batch6","","-1","tol_feedback","","","true","","1000","1000","500","","","","","","-1","none","true","9274","33562","","","","","","","","","",""
"","","","","","html-button-response","131","626231","0.0-2.0-30.0","6058466a43c6819ea1d84822","F1","batch6","","1443.4000000022352","tol_trial_num","<div class = centerbox><p class = center-block-text>problem <strong>8</strong> out of 25 problems</p></div>","0","","","","","","","","","","","","","","","","","","","","","","","","",""
"","","","","","single-stim-button","132","634691","0.0-2.0-31.0-0.0","6058466a43c6819ea1d84822","F1","batch6","","8458","tol_tohand","","","","tol_peg_3","8458","8458","0","[[0,0,0],[2,3],[0]]","1","[[1,2,0],[3,0],[0]]","7","0","","","","","","4","","","","","","","","",""
"","","","","","single-stim-button","133","635859","0.0-2.0-31.0-1.0","6058466a43c6819ea1d84822","F1","batch6","","1166","tol_toboard","","","","tol_peg_1","1166","1166","0","[[1,0,0],[2,3],[0]]","1","[[1,2,0],[3,0],[0]]","7","0","","","","","","4","","","","","","","","",""
"","","","","","single-stim-button","134","638098","0.0-2.0-31.1-0.1","6058466a43c6819ea1d84822","F1","batch6","","2237","tol_tohand","","","","tol_peg_2","2237","2237","0","[[1,0,0],[2,0],[0]]","2","[[1,2,0],[3,0],[0]]","7","0","","","","","","4","","","","","","","","",""
"","","","","","single-stim-button","135","638872","0.0-2.0-31.1-1.1","6058466a43c6819ea1d84822","F1","batch6","","773","tol_toboard","","","","tol_peg_3","773","773","0","[[1,0,0],[2,0],[3]]","2","[[1,2,0],[3,0],[0]]","7","0","","","","","","4","","","","","","","","",""
"","","","","","single-stim-button","136","639657","0.0-2.0-31.2-0.2","6058466a43c6819ea1d84822","F1","batch6","","783","tol_tohand","","","","tol_peg_2","783","783","0","[[1,0,0],[0,0],[3]]","3","[[1,2,0],[3,0],[0]]","7","0","","","","","","4","","","","","","","","",""
"","","","","","single-stim-button","137","640521","0.0-2.0-31.2-1.2","6058466a43c6819ea1d84822","F1","batch6","","863","tol_toboard","","","","tol_peg_1","863","863","0","[[1,2,0],[0,0],[3]]","3","[[1,2,0],[3,0],[0]]","7","0","","","","","","4","","","","","","","","",""
"","","","","","single-stim-button","138","641280","0.0-2.0-31.3-0.3","6058466a43c6819ea1d84822","F1","batch6","","757","tol_tohand","","","","tol_peg_3","757","757","0","[[1,2,0],[0,0],[0]]","4","[[1,2,0],[3,0],[0]]","7","0","","","","","","4","","","","","","","","",""
"","","","","","single-stim-button","139","641944","0.0-2.0-31.3-1.3","6058466a43c6819ea1d84822","F1","batch6","","662","tol_toboard","","","","tol_peg_2","662","662","0","[[1,2,0],[3,0],[0]]","4","[[1,2,0],[3,0],[0]]","7","0","","","","","","4","","","","","","","","",""
"","","","","","poldrack-single-stim","140","642952","0.0-2.0-32.0","6058466a43c6819ea1d84822","F1","batch6","","-1","tol_feedback","","","true","","1000","1000","500","","","","","","-1","none","true","8458","12235","","","","","","","","","",""
"","","","","","html-button-response","141","644295","0.0-2.0-33.0","6058466a43c6819ea1d84822","F1","batch6","","1340.9000000022352","tol_trial_num","<div class = centerbox><p class = center-block-text>problem <strong>9</strong> out of 25 problems</p></div>","0","","","","","","","","","","","","","","","","","","","","","","","","",""
"","","","","","single-stim-button","142","663958","0.0-2.0-34.0-0.0","6058466a43c6819ea1d84822","F1","batch6","","19661","tol_tohand","","","","tol_peg_3","19661","19661","0","[[3,2,0],[0,0],[0]]","1","[[2,1,0],[3,0],[0]]","8","0","","","","","","6","","","","","","","","",""
"","","","","","single-stim-button","143","664797","0.0-2.0-34.0-1.0","6058466a43c6819ea1d84822","F1","batch6","","837","tol_toboard","","","","tol_peg_2","837","837","0","[[3,2,0],[1,0],[0]]","1","[[2,1,0],[3,0],[0]]","8","0","","","","","","6","","","","","","","","",""
"","","","","","single-stim-button","144","665758","0.0-2.0-34.1-0.1","6058466a43c6819ea1d84822","F1","batch6","","959","tol_tohand","","","","tol_peg_1","959","959","0","[[3,0,0],[1,0],[0]]","2","[[2,1,0],[3,0],[0]]","8","0","","","","","","6","","","","","","","","",""
"","","","","","single-stim-button","145","666548","0.0-2.0-34.1-1.1","6058466a43c6819ea1d84822","F1","batch6","","790","tol_toboard","","","","tol_peg_2","790","790","0","[[3,0,0],[1,2],[0]]","2","[[2,1,0],[3,0],[0]]","8","0","","","","","","6","","","","","","","","",""
"","","","","","single-stim-button","146","667444","0.0-2.0-34.2-0.2","6058466a43c6819ea1d84822","F1","batch6","","895","tol_tohand","","","","tol_peg_1","895","895","0","[[0,0,0],[1,2],[0]]","3","[[2,1,0],[3,0],[0]]","8","0","","","","","","6","","","","","","","","",""
"","","","","","single-stim-button","147","668611","0.0-2.0-34.2-1.2","6058466a43c6819ea1d84822","F1","batch6","","1166","tol_toboard","","","","tol_peg_3","1166","1166","0","[[0,0,0],[1,2],[3]]","3","[[2,1,0],[3,0],[0]]","8","0","","","","","","6","","","","","","","","",""
"","","","","","single-stim-button","148","670259","0.0-2.0-34.3-0.3","6058466a43c6819ea1d84822","F1","batch6","","1646","tol_tohand","","","","tol_peg_2","1646","1646","0","[[0,0,0],[1,0],[3]]","4","[[2,1,0],[3,0],[0]]","8","0","","","","","","6","","","","","","","","",""
"","","","","","single-stim-button","149","671026","0.0-2.0-34.3-1.3","6058466a43c6819ea1d84822","F1","batch6","","766","tol_toboard","","","","tol_peg_1","766","766","0","[[2,0,0],[1,0],[3]]","4","[[2,1,0],[3,0],[0]]","8","0","","","","","","6","","","","","","","","",""
"","","","","","single-stim-button","150","671890","0.0-2.0-34.4-0.4","6058466a43c6819ea1d84822","F1","batch6","","863","tol_tohand","","","","tol_peg_2","863","863","0","[[2,0,0],[0,0],[3]]","5","[[2,1,0],[3,0],[0]]","8","0","","","","","","6","","","","","","","","",""
"","","","","","single-stim-button","151","672490","0.0-2.0-34.4-1.4","6058466a43c6819ea1d84822","F1","batch6","","598","tol_toboard","","","","tol_peg_1","598","598","0","[[2,1,0],[0,0],[3]]","5","[[2,1,0],[3,0],[0]]","8","0","","","","","","6","","","","","","","","",""
"","","","","","single-stim-button","152","673282","0.0-2.0-34.5-0.5","6058466a43c6819ea1d84822","F1","batch6","","790","tol_tohand","","","","tol_peg_3","790","790","0","[[2,1,0],[0,0],[0]]","6","[[2,1,0],[3,0],[0]]","8","0","","","","","","6","","","","","","","","",""
"","","","","","single-stim-button","153","674426","0.0-2.0-34.5-1.5","6058466a43c6819ea1d84822","F1","batch6","","1142","tol_toboard","","","","tol_peg_2","1142","1142","0","[[2,1,0],[3,0],[0]]","6","[[2,1,0],[3,0],[0]]","8","0","","","","","","6","","","","","","","","",""
"","","","","","poldrack-single-stim","154","675432","0.0-2.0-35.0","6058466a43c6819ea1d84822","F1","batch6","","-1","tol_feedback","","","true","","1000","1000","500","","","","","","-1","none","true","19661","24814","","","","","","","","","",""
"","","","","","html-button-response","155","676688","0.0-2.0-36.0","6058466a43c6819ea1d84822","F1","batch6","","1254.8999999985099","tol_trial_num","<div class = centerbox><p class = center-block-text>problem <strong>10</strong> out of 25 problems</p></div>","0","","","","","","","","","","","","","","","","","","","","","","","","",""
"","","","","","single-stim-button","156","681895","0.0-2.0-37.0-0.0","6058466a43c6819ea1d84822","F1","batch6","","5204","tol_tohand","","","","tol_peg_2","5204","5204","0","[[3,0,0],[0,0],[2]]","1","[[3,0,0],[2,1],[0]]","9","0","","","","","","3","","","","","","","","",""
"","","","","","single-stim-button","157","682710","0.0-2.0-37.0-1.0","6058466a43c6819ea1d84822","F1","batch6","","813","tol_toboard","","","","tol_peg_1","813","813","0","[[3,1,0],[0,0],[2]]","1","[[3,0,0],[2,1],[0]]","9","0","","","","","","3","","","","","","","","",""
"","","","","","single-stim-button","158","683382","0.0-2.0-37.1-0.1","6058466a43c6819ea1d84822","F1","batch6","","670","tol_tohand","","","","tol_peg_3","670","670","0","[[3,1,0],[0,0],[0]]","2","[[3,0,0],[2,1],[0]]","9","0","","","","","","3","","","","","","","","",""
"","","","","","single-stim-button","159","683941","0.0-2.0-37.1-1.1","6058466a43c6819ea1d84822","F1","batch6","","559","tol_toboard","","","","tol_peg_2","559","559","0","[[3,1,0],[2,0],[0]]","2","[[3,0,0],[2,1],[0]]","9","0","","","","","","3","","","","","","","","",""
"","","","","","single-stim-button","160","684468","0.0-2.0-37.2-0.2","6058466a43c6819ea1d84822","F1","batch6","","526","tol_tohand","","","","tol_peg_1","526","526","0","[[3,0,0],[2,0],[0]]","3","[[3,0,0],[2,1],[0]]","9","0","","","","","","3","","","","","","","","",""
"","","","","","single-stim-button","161","685076","0.0-2.0-37.2-1.2","6058466a43c6819ea1d84822","F1","batch6","","606","tol_toboard","","","","tol_peg_2","606","606","0","[[3,0,0],[2,1],[0]]","3","[[3,0,0],[2,1],[0]]","9","0","","","","","","3","","","","","","","","",""
"","","","","","poldrack-single-stim","162","686085","0.0-2.0-38.0","6058466a43c6819ea1d84822","F1","batch6","","-1","tol_feedback","","","true","","1000","1000","500","","","","","","-1","none","true","5204","6400","","","","","","","","","",""
"","","","","","html-button-response","163","687219","0.0-2.0-39.0","6058466a43c6819ea1d84822","F1","batch6","","1132.199999999255","tol_trial_num","<div class = centerbox><p class = center-block-text>problem <strong>11</strong> out of 25 problems</p></div>","0","","","","","","","","","","","","","","","","","","","","","","","","",""
"","","","","","single-stim-button","164","692553","0.0-2.0-40.0-0.0","6058466a43c6819ea1d84822","F1","batch6","","5332","tol_tohand","","","","tol_peg_2","5332","5332","0","[[1,2,0],[0,0],[0]]","1","[[2,0,0],[1,3],[0]]","10","0","","","","","","6","","","","","","","","",""
"","","","","","single-stim-button","165","696720","0.0-2.0-40.0-1.0","6058466a43c6819ea1d84822","F1","batch6","","4165","tol_toboard","","","","tol_peg_3","4165","4165","0","[[1,2,0],[0,0],[3]]","1","[[2,0,0],[1,3],[0]]","10","0","","","","","","6","","","","","","","","",""
"","","","","","single-stim-button","166","697495","0.0-2.0-40.1-0.1","6058466a43c6819ea1d84822","F1","batch6","","773","tol_tohand","","","","tol_peg_1","773","773","0","[[1,0,0],[0,0],[3]]","2","[[2,0,0],[1,3],[0]]","10","0","","","","","","6","","","","","","","","",""
"","","","","","single-stim-button","167","704012","0.0-2.0-40.1-1.1","6058466a43c6819ea1d84822","F1","batch6","","6516","tol_toboard","","","","tol_peg_2","6516","6516","0","[[1,0,0],[2,0],[3]]","2","[[2,0,0],[1,3],[0]]","10","0","","","","","","6","","","","","","","","",""
"","","","","","single-stim-button","168","705300","0.0-2.0-40.2-0.2","6058466a43c6819ea1d84822","F1","batch6","","1286","tol_tohand","","","","tol_peg_1","1286","1286","0","[[0,0,0],[2,0],[3]]","3","[[2,0,0],[1,3],[0]]","10","0","","","","","","6","","","","","","","","",""
"","","","","","single-stim-button","169","714863","0.0-2.0-40.2-1.2","6058466a43c6819ea1d84822","F1","batch6","","9562","tol_toboard","","","","tol_peg_1","9562","9562","0","[[1,0,0],[2,0],[3]]","3","[[2,0,0],[1,3],[0]]","10","0","","","","","","6","","","","","","","","",""
"","","","","","single-stim-button","170","718687","0.0-2.0-40.3-0.3","6058466a43c6819ea1d84822","F1","batch6","","3821","tol_tohand","","","","tol_peg_2","3821","3821","0","[[1,0,0],[0,0],[3]]","4","[[2,0,0],[1,3],[0]]","10","0","","","","","","6","","","","","","","","",""
"","","","","","single-stim-button","171","719589","0.0-2.0-40.3-1.3","6058466a43c6819ea1d84822","F1","batch6","","901","tol_toboard","","","","tol_peg_1","901","901","0","[[1,2,0],[0,0],[3]]","4","[[2,0,0],[1,3],[0]]","10","0","","","","","","6","","","","","","","","",""
"","","","","","single-stim-button","172","720854","0.0-2.0-40.4-0.4","6058466a43c6819ea1d84822","F1","batch6","","1263","tol_tohand","","","","tol_peg_3","1263","1263","0","[[1,2,0],[0,0],[0]]","5","[[2,0,0],[1,3],[0]]","10","0","","","","","","6","","","","","","","","",""
"","","","","","single-stim-button","173","726427","0.0-2.0-40.4-1.4","6058466a43c6819ea1d84822","F1","batch6","","5572","tol_toboard","","","","tol_peg_3","5572","5572","0","[[1,2,0],[0,0],[3]]","5","[[2,0,0],[1,3],[0]]","10","0","","","","","","6","","","","","","","","",""
"","","","","","single-stim-button","174","734927","0.0-2.0-40.5-0.5","6058466a43c6819ea1d84822","F1","batch6","","8498","tol_tohand","","","","tol_peg_3","8498","8498","0","[[1,2,0],[0,0],[0]]","6","[[2,0,0],[1,3],[0]]","10","0","","","","","","6","","","","","","","","",""
"","","","","","single-stim-button","175","736006","0.0-2.0-40.5-1.5","6058466a43c6819ea1d84822","F1","batch6","","1077","tol_toboard","","","","tol_peg_2","1077","1077","0","[[1,2,0],[3,0],[0]]","6","[[2,0,0],[1,3],[0]]","10","0","","","","","","6","","","","","","","","",""
"","","","","","single-stim-button","176","736598","0.0-2.0-40.6-0.6","6058466a43c6819ea1d84822","F1","batch6","","591","tol_tohand","","","","tol_peg_1","591","591","0","[[1,0,0],[3,0],[0]]","7","[[2,0,0],[1,3],[0]]","10","0","","","","","","6","","","","","","","","",""
"","","","","","single-stim-button","177","740412","0.0-2.0-40.6-1.6","6058466a43c6819ea1d84822","F1","batch6","","3812","tol_toboard","","","","tol_peg_3","3812","3812","0","[[1,0,0],[3,0],[2]]","7","[[2,0,0],[1,3],[0]]","10","0","","","","","","6","","","","","","","","",""
"","","","","","single-stim-button","178","747817","0.0-2.0-40.7-0.7","6058466a43c6819ea1d84822","F1","batch6","","7403","tol_tohand","","","","tol_peg_1","7403","7403","0","[[0,0,0],[3,0],[2]]","8","[[2,0,0],[1,3],[0]]","10","0","","","","","","6","","","","","","","","",""
"","","","","","single-stim-button","179","749000","0.0-2.0-40.7-1.7","6058466a43c6819ea1d84822","F1","batch6","","1182","tol_toboard","","","","tol_peg_2","1182","1182","0","[[0,0,0],[3,1],[2]]","8","[[2,0,0],[1,3],[0]]","10","0","","","","","","6","","","","","","","","",""
"","","","","","single-stim-button","180","749815","0.0-2.0-40.8-0.8","6058466a43c6819ea1d84822","F1","batch6","","814","tol_tohand","","","","tol_peg_3","814","814","0","[[0,0,0],[3,1],[0]]","9","[[2,0,0],[1,3],[0]]","10","0","","","","","","6","","","","","","","","",""
"","","","","","single-stim-button","181","751879","0.0-2.0-40.8-1.8","6058466a43c6819ea1d84822","F1","batch6","","2063","tol_toboard","","","","tol_peg_1","2063","2063","0","[[2,0,0],[3,1],[0]]","9","[[2,0,0],[1,3],[0]]","10","0","","","","","","6","","","","","","","","",""
"","","","","","single-stim-button","182","754125","0.0-2.0-40.9-0.9","6058466a43c6819ea1d84822","F1","batch6","","2245","tol_tohand","","","","tol_peg_2","2245","2245","0","[[2,0,0],[3,0],[0]]","10","[[2,0,0],[1,3],[0]]","10","0","","","","","","6","","","","","","","","",""
"","","","","","single-stim-button","183","757301","0.0-2.0-40.9-1.9","6058466a43c6819ea1d84822","F1","batch6","","3175","tol_toboard","","","","tol_peg_3","3175","3175","0","[[2,0,0],[3,0],[1]]","10","[[2,0,0],[1,3],[0]]","10","0","","","","","","6","","","","","","","","",""
"","","","","","single-stim-button","184","758444","0.0-2.0-40.10-0.10","6058466a43c6819ea1d84822","F1","batch6","","1141","tol_tohand","","","","tol_peg_2","1141","1141","0","[[2,0,0],[0,0],[1]]","11","[[2,0,0],[1,3],[0]]","10","0","","","","","","6","","","","","","","","",""
"","","","","","single-stim-button","185","759444","0.0-2.0-40.10-1.10","6058466a43c6819ea1d84822","F1","batch6","","998","tol_toboard","","","","tol_peg_1","998","998","0","[[2,3,0],[0,0],[1]]","11","[[2,0,0],[1,3],[0]]","10","0","","","","","","6","","","","","","","","",""
"","","","","","single-stim-button","186","760180","0.0-2.0-40.11-0.11","6058466a43c6819ea1d84822","F1","batch6","","735","tol_tohand","","","","tol_peg_3","735","735","0","[[2,3,0],[0,0],[0]]","12","[[2,0,0],[1,3],[0]]","10","0","","","","","","6","","","","","","","","",""
"","","","","","single-stim-button","187","760883","0.0-2.0-40.11-1.11","6058466a43c6819ea1d84822","F1","batch6","","701","tol_toboard","","","","tol_peg_2","701","701","0","[[2,3,0],[1,0],[0]]","12","[[2,0,0],[1,3],[0]]","10","0","","","","","","6","","","","","","","","",""
"","","","","","single-stim-button","188","761410","0.0-2.0-40.12-0.12","6058466a43c6819ea1d84822","F1","batch6","","525","tol_tohand","","","","tol_peg_1","525","525","0","[[2,0,0],[1,0],[0]]","13","[[2,0,0],[1,3],[0]]","10","0","","","","","","6","","","","","","","","",""
"","","","","","single-stim-button","189","761994","0.0-2.0-40.12-1.12","6058466a43c6819ea1d84822","F1","batch6","","583","tol_toboard","","","","tol_peg_2","583","583","0","[[2,0,0],[1,3],[0]]","13","[[2,0,0],[1,3],[0]]","10","0","","","","","","6","","","","","","","","",""
"","","","","","poldrack-single-stim","190","762997","0.0-2.0-41.0","6058466a43c6819ea1d84822","F1","batch6","","-1","tol_feedback","","","true","","1000","1000","500","","","","","","-1","none","true","5332","34427","","","","","","","","","",""
"","","","","","html-button-response","191","763938","0.0-2.0-42.0","6058466a43c6819ea1d84822","F1","batch6","","938.8999999985099","tol_trial_num","<div class = centerbox><p class = center-block-text>problem <strong>12</strong> out of 25 problems</p></div>","0","","","","","","","","","","","","","","","","","","","","","","","","",""
"","","","","","single-stim-button","192","770760","0.0-2.0-43.0-0.0","6058466a43c6819ea1d84822","F1","batch6","","6819","tol_tohand","","","","tol_peg_1","6819","6819","0","[[1,0,0],[3,0],[0]]","1","[[2,3,0],[0,0],[1]]","11","0","","","","","","4","","","","","","","","",""
"","","","","","single-stim-button","193","771368","0.0-2.0-43.0-1.0","6058466a43c6819ea1d84822","F1","batch6","","606","tol_toboard","","","","tol_peg_2","606","606","0","[[1,0,0],[3,2],[0]]","1","[[2,3,0],[0,0],[1]]","11","0","","","","","","4","","","","","","","","",""
"","","","","","single-stim-button","194","772054","0.0-2.0-43.1-0.1","6058466a43c6819ea1d84822","F1","batch6","","684","tol_tohand","","","","tol_peg_1","684","684","0","[[0,0,0],[3,2],[0]]","2","[[2,3,0],[0,0],[1]]","11","0","","","","","","4","","","","","","","","",""
"","","","","","single-stim-button","195","772750","0.0-2.0-43.1-1.1","6058466a43c6819ea1d84822","F1","batch6","","695","tol_toboard","","","","tol_peg_3","695","695","0","[[0,0,0],[3,2],[1]]","2","[[2,3,0],[0,0],[1]]","11","0","","","","","","4","","","","","","","","",""
"","","","","","single-stim-button","196","777508","0.0-2.0-43.2-0.2","6058466a43c6819ea1d84822","F1","batch6","","4756","tol_tohand","","","","tol_peg_2","4756","4756","0","[[0,0,0],[3,0],[1]]","3","[[2,3,0],[0,0],[1]]","11","0","","","","","","4","","","","","","","","",""
"","","","","","single-stim-button","197","778500","0.0-2.0-43.2-1.2","6058466a43c6819ea1d84822","F1","batch6","","990","tol_toboard","","","","tol_peg_1","990","990","0","[[2,0,0],[3,0],[1]]","3","[[2,3,0],[0,0],[1]]","11","0","","","","","","4","","","","","","","","",""
"","","","","","single-stim-button","198","780227","0.0-2.0-43.3-0.3","6058466a43c6819ea1d84822","F1","batch6","","1725","tol_tohand","","","","tol_peg_2","1725","1725","0","[[2,0,0],[0,0],[1]]","4","[[2,3,0],[0,0],[1]]","11","0","","","","","","4","","","","","","","","",""
"","","","","","single-stim-button","199","781234","0.0-2.0-43.3-1.3","6058466a43c6819ea1d84822","F1","batch6","","1005","tol_toboard","","","","tol_peg_1","1005","1005","0","[[2,3,0],[0,0],[1]]","4","[[2,3,0],[0,0],[1]]","11","0","","","","","","4","","","","","","","","",""
"","","","","","poldrack-single-stim","200","782243","0.0-2.0-44.0","6058466a43c6819ea1d84822","F1","batch6","","-1","tol_feedback","","","true","","1000","1000","500","","","","","","-1","none","true","6819","13984","","","","","","","","","",""
"","","","","","html-button-response","201","783266","0.0-2.0-45.0","6058466a43c6819ea1d84822","F1","batch6","","1020.8999999985099","tol_trial_num","<div class = centerbox><p class = center-block-text>problem <strong>13</strong> out of 25 problems</p></div>","0","","","","","","","","","","","","","","","","","","","","","","","","",""
"","","","","","single-stim-button","202","786512","0.0-2.0-46.0-0.0","6058466a43c6819ea1d84822","F1","batch6","","3245","tol_tohand","","","","tol_peg_1","3245","3245","0","[[1,0,0],[3,0],[0]]","1","[[0,0,0],[2,3],[1]]","12","0","","","","","","4","","","","","","","","",""
"","","","","","single-stim-button","203","787288","0.0-2.0-46.0-1.0","6058466a43c6819ea1d84822","F1","batch6","","774","tol_toboard","","","","tol_peg_2","774","774","0","[[1,0,0],[3,2],[0]]","1","[[0,0,0],[2,3],[1]]","12","0","","","","","","4","","","","","","","","",""
"","","","","","single-stim-button","204","788063","0.0-2.0-46.1-0.1","6058466a43c6819ea1d84822","F1","batch6","","773","tol_tohand","","","","tol_peg_1","773","773","0","[[0,0,0],[3,2],[0]]","2","[[0,0,0],[2,3],[1]]","12","0","","","","","","4","","","","","","","","",""
"","","","","","single-stim-button","205","788902","0.0-2.0-46.1-1.1","6058466a43c6819ea1d84822","F1","batch6","","839","tol_toboard","","","","tol_peg_3","839","839","0","[[0,0,0],[3,2],[1]]","2","[[0,0,0],[2,3],[1]]","12","0","","","","","","4","","","","","","","","",""
"","","","","","single-stim-button","206","791319","0.0-2.0-46.2-0.2","6058466a43c6819ea1d84822","F1","batch6","","2415","tol_tohand","","","","tol_peg_2","2415","2415","0","[[0,0,0],[3,0],[1]]","3","[[0,0,0],[2,3],[1]]","12","0","","","","","","4","","","","","","","","",""
"","","","","","single-stim-button","207","791941","0.0-2.0-46.2-1.2","6058466a43c6819ea1d84822","F1","batch6","","621","tol_toboard","","","","tol_peg_1","621","621","0","[[2,0,0],[3,0],[1]]","3","[[0,0,0],[2,3],[1]]","12","0","","","","","","4","","","","","","","","",""
"","","","","","single-stim-button","208","792661","0.0-2.0-46.3-0.3","6058466a43c6819ea1d84822","F1","batch6","","719","tol_tohand","","","","tol_peg_2","719","719","0","[[2,0,0],[0,0],[1]]","4","[[0,0,0],[2,3],[1]]","12","0","","","","","","4","","","","","","","","",""
"","","","","","single-stim-button","209","793245","0.0-2.0-46.3-1.3","6058466a43c6819ea1d84822","F1","batch6","","582","tol_toboard","","","","tol_peg_1","582","582","0","[[2,3,0],[0,0],[1]]","4","[[0,0,0],[2,3],[1]]","12","0","","","","","","4","","","","","","","","",""
"","","","","","single-stim-button","210","796508","0.0-2.0-46.4-0.4","6058466a43c6819ea1d84822","F1","batch6","","3262","tol_tohand","","","","tol_peg_1","3262","3262","0","[[2,0,0],[0,0],[1]]","5","[[0,0,0],[2,3],[1]]","12","0","","","","","","4","","","","","","","","",""
"","","","","","single-stim-button","211","800794","0.0-2.0-46.4-1.4","6058466a43c6819ea1d84822","F1","batch6","","4285","tol_toboard","","","","tol_peg_2","4285","4285","0","[[2,0,0],[3,0],[1]]","5","[[0,0,0],[2,3],[1]]","12","0","","","","","","4","","","","","","","","",""
"","","","","","single-stim-button","212","801442","0.0-2.0-46.5-0.5","6058466a43c6819ea1d84822","F1","batch6","","645","tol_tohand","","","","tol_peg_3","645","645","0","[[2,0,0],[3,0],[0]]","6","[[0,0,0],[2,3],[1]]","12","0","","","","","","4","","","","","","","","",""
"","","","","","single-stim-button","213","801945","0.0-2.0-46.5-1.5","6058466a43c6819ea1d84822","F1","batch6","","501","tol_toboard","","","","tol_peg_2","501","501","0","[[2,0,0],[3,1],[0]]","6","[[0,0,0],[2,3],[1]]","12","0","","","","","","4","","","","","","","","",""
"","","","","","single-stim-button","214","802921","0.0-2.0-46.6-0.6","6058466a43c6819ea1d84822","F1","batch6","","974","tol_tohand","","","","tol_peg_1","974","974","0","[[0,0,0],[3,1],[0]]","7","[[0,0,0],[2,3],[1]]","12","0","","","","","","4","","","","","","","","",""
"","","","","","single-stim-button","215","803865","0.0-2.0-46.6-1.6","6058466a43c6819ea1d84822","F1","batch6","","943","tol_toboard","","","","tol_peg_3","943","943","0","[[0,0,0],[3,1],[2]]","7","[[0,0,0],[2,3],[1]]","12","0","","","","","","4","","","","","","","","",""
"","","","","","single-stim-button","216","807047","0.0-2.0-46.7-0.7","6058466a43c6819ea1d84822","F1","batch6","","3181","tol_tohand","","","","tol_peg_2","3181","3181","0","[[0,0,0],[3,0],[2]]","8","[[0,0,0],[2,3],[1]]","12","0","","","","","","4","","","","","","","","",""
"","","","","","single-stim-button","217","807863","0.0-2.0-46.7-1.7","6058466a43c6819ea1d84822","F1","batch6","","815","tol_toboard","","","","tol_peg_1","815","815","0","[[1,0,0],[3,0],[2]]","8","[[0,0,0],[2,3],[1]]","12","0","","","","","","4","","","","","","","","",""
"","","","","","single-stim-button","218","808351","0.0-2.0-46.8-0.8","6058466a43c6819ea1d84822","F1","batch6","","485","tol_tohand","","","","tol_peg_2","485","485","0","[[1,0,0],[0,0],[2]]","9","[[0,0,0],[2,3],[1]]","12","0","","","","","","4","","","","","","","","",""
"","","","","","single-stim-button","219","808990","0.0-2.0-46.8-1.8","6058466a43c6819ea1d84822","F1","batch6","","638","tol_toboard","","","","tol_peg_1","638","638","0","[[1,3,0],[0,0],[2]]","9","[[0,0,0],[2,3],[1]]","12","0","","","","","","4","","","","","","","","",""
"","","","","","single-stim-button","220","809854","0.0-2.0-46.9-0.9","6058466a43c6819ea1d84822","F1","batch6","","863","tol_tohand","","","","tol_peg_3","863","863","0","[[1,3,0],[0,0],[0]]","10","[[0,0,0],[2,3],[1]]","12","0","","","","","","4","","","","","","","","",""
"","","","","","single-stim-button","221","810518","0.0-2.0-46.9-1.9","6058466a43c6819ea1d84822","F1","batch6","","662","tol_toboard","","","","tol_peg_2","662","662","0","[[1,3,0],[2,0],[0]]","10","[[0,0,0],[2,3],[1]]","12","0","","","","","","4","","","","","","","","",""
"","","","","","single-stim-button","222","811061","0.0-2.0-46.10-0.10","6058466a43c6819ea1d84822","F1","batch6","","541","tol_tohand","","","","tol_peg_1","541","541","0","[[1,0,0],[2,0],[0]]","11","[[0,0,0],[2,3],[1]]","12","0","","","","","","4","","","","","","","","",""
"","","","","","single-stim-button","223","811509","0.0-2.0-46.10-1.10","6058466a43c6819ea1d84822","F1","batch6","","447","tol_toboard","","","","tol_peg_2","447","447","0","[[1,0,0],[2,3],[0]]","11","[[0,0,0],[2,3],[1]]","12","0","","","","","","4","","","","","","","","",""
"","","","","","single-stim-button","224","812524","0.0-2.0-46.11-0.11","6058466a43c6819ea1d84822","F1","batch6","","1014","tol_tohand","","","","tol_peg_1","1014","1014","0","[[0,0,0],[2,3],[0]]","12","[[0,0,0],[2,3],[1]]","12","0","","","","","","4","","","","","","","","",""
"","","","","","single-stim-button","225","813108","0.0-2.0-46.11-1.11","6058466a43c6819ea1d84822","F1","batch6","","583","tol_toboard","","","","tol_peg_3","583","583","0","[[0,0,0],[2,3],[1]]","12","[[0,0,0],[2,3],[1]]","12","0","","","","","","4","","","","","","","","",""
"","","","","","poldrack-single-stim","226","814117","0.0-2.0-47.0","6058466a43c6819ea1d84822","F1","batch6","","-1","tol_feedback","","","true","","1000","1000","500","","","","","","-1","none","true","3245","18117","","","","","","","","","",""
"","","","","","html-button-response","227","817755","0.0-2.0-48.0","6058466a43c6819ea1d84822","F1","batch6","","3636.60000000149","attention_check","<p class = block-text>How many balls are in your board<br></p>","1","true","","","","","","","","","","","","","","","","","","","","","","","",""
"","","","","","html-button-response","228","819153","0.0-2.0-49.0","6058466a43c6819ea1d84822","F1","batch6","","1395.9000000022352","tol_trial_num","<div class = centerbox><p class = center-block-text>problem <strong>14</strong> out of 25 problems</p></div>","0","","","","","","","","","","","","","","","","","","","","","","","","",""
"","","","","","single-stim-button","229","826247","0.0-2.0-50.0-0.0","6058466a43c6819ea1d84822","F1","batch6","","7092","tol_tohand","","","","tol_peg_1","7092","7092","0","[[2,0,0],[3,0],[0]]","1","[[1,2,0],[3,0],[0]]","13","0","","","","","","4","","","","","","","","",""
"","","","","","single-stim-button","230","829342","0.0-2.0-50.0-1.0","6058466a43c6819ea1d84822","F1","batch6","","3094","tol_toboard","","","","tol_peg_2","3094","3094","0","[[2,0,0],[3,1],[0]]","1","[[1,2,0],[3,0],[0]]","13","0","","","","","","4","","","","","","","","",""
"","","","","","single-stim-button","231","830397","0.0-2.0-50.1-0.1","6058466a43c6819ea1d84822","F1","batch6","","1053","tol_tohand","","","","tol_peg_1","1053","1053","0","[[0,0,0],[3,1],[0]]","2","[[1,2,0],[3,0],[0]]","13","0","","","","","","4","","","","","","","","",""
"","","","","","single-stim-button","232","831068","0.0-2.0-50.1-1.1","6058466a43c6819ea1d84822","F1","batch6","","670","tol_toboard","","","","tol_peg_3","670","670","0","[[0,0,0],[3,1],[2]]","2","[[1,2,0],[3,0],[0]]","13","0","","","","","","4","","","","","","","","",""
"","","","","","single-stim-button","233","831796","0.0-2.0-50.2-0.2","6058466a43c6819ea1d84822","F1","batch6","","726","tol_tohand","","","","tol_peg_2","726","726","0","[[0,0,0],[3,0],[2]]","3","[[1,2,0],[3,0],[0]]","13","0","","","","","","4","","","","","","","","",""
"","","","","","single-stim-button","234","832836","0.0-2.0-50.2-1.2","6058466a43c6819ea1d84822","F1","batch6","","1038","tol_toboard","","","","tol_peg_1","1038","1038","0","[[1,0,0],[3,0],[2]]","3","[[1,2,0],[3,0],[0]]","13","0","","","","","","4","","","","","","","","",""
"","","","","","single-stim-button","235","833476","0.0-2.0-50.3-0.3","6058466a43c6819ea1d84822","F1","batch6","","638","tol_tohand","","","","tol_peg_3","638","638","0","[[1,0,0],[3,0],[0]]","4","[[1,2,0],[3,0],[0]]","13","0","","","","","","4","","","","","","","","",""
"","","","","","single-stim-button","236","834299","0.0-2.0-50.3-1.3","6058466a43c6819ea1d84822","F1","batch6","","821","tol_toboard","","","","tol_peg_1","821","821","0","[[1,2,0],[3,0],[0]]","4","[[1,2,0],[3,0],[0]]","13","0","","","","","","4","","","","","","","","",""
"","","","","","poldrack-single-stim","237","835308","0.0-2.0-51.0","6058466a43c6819ea1d84822","F1","batch6","","-1","tol_feedback","","","true","","1000","1000","500","","","","","","-1","none","true","7092","9509","","","","","","","","","",""
"","","","","","html-button-response","238","836746","0.0-2.0-52.0","6058466a43c6819ea1d84822","F1","batch6","","1436.199999999255","tol_trial_num","<div class = centerbox><p class = center-block-text>problem <strong>15</strong> out of 25 problems</p></div>","0","","","","","","","","","","","","","","","","","","","","","","","","",""
"","","","","","single-stim-button","239","842960","0.0-2.0-53.0-0.0","6058466a43c6819ea1d84822","F1","batch6","","6212","tol_tohand","","","","tol_peg_1","6212","6212","0","[[1,0,0],[3,0],[0]]","1","[[2,0,0],[3,0],[1]]","14","0","","","","","","3","","","","","","","","",""
"","","","","","single-stim-button","240","844271","0.0-2.0-53.0-1.0","6058466a43c6819ea1d84822","F1","batch6","","1309","tol_toboard","","","","tol_peg_2","1309","1309","0","[[1,0,0],[3,2],[0]]","1","[[2,0,0],[3,0],[1]]","14","0","","","","","","3","","","","","","","","",""
"","","","","","single-stim-button","241","845279","0.0-2.0-53.1-0.1","6058466a43c6819ea1d84822","F1","batch6","","1006","tol_tohand","","","","tol_peg_1","1006","1006","0","[[0,0,0],[3,2],[0]]","2","[[2,0,0],[3,0],[1]]","14","0","","","","","","3","","","","","","","","",""
"","","","","","single-stim-button","242","846029","0.0-2.0-53.1-1.1","6058466a43c6819ea1d84822","F1","batch6","","749","tol_toboard","","","","tol_peg_3","749","749","0","[[0,0,0],[3,2],[1]]","2","[[2,0,0],[3,0],[1]]","14","0","","","","","","3","","","","","","","","",""
"","","","","","single-stim-button","243","846765","0.0-2.0-53.2-0.2","6058466a43c6819ea1d84822","F1","batch6","","734","tol_tohand","","","","tol_peg_2","734","734","0","[[0,0,0],[3,0],[1]]","3","[[2,0,0],[3,0],[1]]","14","0","","","","","","3","","","","","","","","",""
"","","","","","single-stim-button","244","847438","0.0-2.0-53.2-1.2","6058466a43c6819ea1d84822","F1","batch6","","671","tol_toboard","","","","tol_peg_1","671","671","0","[[2,0,0],[3,0],[1]]","3","[[2,0,0],[3,0],[1]]","14","0","","","","","","3","","","","","","","","",""
"","","","","","poldrack-single-stim","245","848452","0.0-2.0-54.0","6058466a43c6819ea1d84822","F1","batch6","","-1","tol_feedback","","","true","","1000","1000","500","","","","","","-1","none","true","6212","7952","","","","","","","","","",""
"","","","","","html-button-response","246","849605","0.0-2.0-55.0","6058466a43c6819ea1d84822","F1","batch6","","1151.300000000745","tol_trial_num","<div class = centerbox><p class = center-block-text>problem <strong>16</strong> out of 25 problems</p></div>","0","","","","","","","","","","","","","","","","","","","","","","","","",""
"","","","","","single-stim-button","247","871907","0.0-2.0-56.0-0.0","6058466a43c6819ea1d84822","F1","batch6","","22300","tol_tohand","","","","tol_peg_3","22300","22300","0","[[0,0,0],[2,3],[0]]","1","[[2,3,0],[1,0],[0]]","15","0","","","","","","7","","","","","","","","",""
"","","","","","single-stim-button","248","873067","0.0-2.0-56.0-1.0","6058466a43c6819ea1d84822","F1","batch6","","1158","tol_toboard","","","","tol_peg_1","1158","1158","0","[[1,0,0],[2,3],[0]]","1","[[2,3,0],[1,0],[0]]","15","0","","","","","","7","","","","","","","","",""
"","","","","","single-stim-button","249","876897","0.0-2.0-56.1-0.1","6058466a43c6819ea1d84822","F1","batch6","","3828","tol_tohand","","","","tol_peg_2","3828","3828","0","[[1,0,0],[2,0],[0]]","2","[[2,3,0],[1,0],[0]]","15","0","","","","","","7","","","","","","","","",""
"","","","","","single-stim-button","250","878024","0.0-2.0-56.1-1.1","6058466a43c6819ea1d84822","F1","batch6","","1126","tol_toboard","","","","tol_peg_1","1126","1126","0","[[1,3,0],[2,0],[0]]","2","[[2,3,0],[1,0],[0]]","15","0","","","","","","7","","","","","","","","",""
"","","","","","single-stim-button","251","878984","0.0-2.0-56.2-0.2","6058466a43c6819ea1d84822","F1","batch6","","958","tol_tohand","","","","tol_peg_2","958","958","0","[[1,3,0],[0,0],[0]]","3","[[2,3,0],[1,0],[0]]","15","0","","","","","","7","","","","","","","","",""
"","","","","","single-stim-button","252","880519","0.0-2.0-56.2-1.2","6058466a43c6819ea1d84822","F1","batch6","","1533","tol_toboard","","","","tol_peg_3","1533","1533","0","[[1,3,0],[0,0],[2]]","3","[[2,3,0],[1,0],[0]]","15","0","","","","","","7","","","","","","","","",""
"","","","","","single-stim-button","253","884772","0.0-2.0-56.3-0.3","6058466a43c6819ea1d84822","F1","batch6","","4252","tol_tohand","","","","tol_peg_1","4252","4252","0","[[1,0,0],[0,0],[2]]","4","[[2,3,0],[1,0],[0]]","15","0","","","","","","7","","","","","","","","",""
"","","","","","single-stim-button","254","885732","0.0-2.0-56.3-1.3","6058466a43c6819ea1d84822","F1","batch6","","959","tol_toboard","","","","tol_peg_2","959","959","0","[[1,0,0],[3,0],[2]]","4","[[2,3,0],[1,0],[0]]","15","0","","","","","","7","","","","","","","","",""
"","","","","","single-stim-button","255","886548","0.0-2.0-56.4-0.4","6058466a43c6819ea1d84822","F1","batch6","","815","tol_tohand","","","","tol_peg_1","815","815","0","[[0,0,0],[3,0],[2]]","5","[[2,3,0],[1,0],[0]]","15","0","","","","","","7","","","","","","","","",""
"","","","","","single-stim-button","256","887003","0.0-2.0-56.4-1.4","6058466a43c6819ea1d84822","F1","batch6","","454","tol_toboard","","","","tol_peg_2","454","454","0","[[0,0,0],[3,1],[2]]","5","[[2,3,0],[1,0],[0]]","15","0","","","","","","7","","","","","","","","",""
"","","","","","single-stim-button","257","888083","0.0-2.0-56.5-0.5","6058466a43c6819ea1d84822","F1","batch6","","1079","tol_tohand","","","","tol_peg_3","1079","1079","0","[[0,0,0],[3,1],[0]]","6","[[2,3,0],[1,0],[0]]","15","0","","","","","","7","","","","","","","","",""
"","","","","","single-stim-button","258","889244","0.0-2.0-56.5-1.5","6058466a43c6819ea1d84822","F1","batch6","","1160","tol_toboard","","","","tol_peg_1","1160","1160","0","[[2,0,0],[3,1],[0]]","6","[[2,3,0],[1,0],[0]]","15","0","","","","","","7","","","","","","","","",""
"","","","","","single-stim-button","259","889826","0.0-2.0-56.6-0.6","6058466a43c6819ea1d84822","F1","batch6","","580","tol_tohand","","","","tol_peg_2","580","580","0","[[2,0,0],[3,0],[0]]","7","[[2,3,0],[1,0],[0]]","15","0","","","","","","7","","","","","","","","",""
"","","","","","single-stim-button","260","891010","0.0-2.0-56.6-1.6","6058466a43c6819ea1d84822","F1","batch6","","1183","tol_toboard","","","","tol_peg_3","1183","1183","0","[[2,0,0],[3,0],[1]]","7","[[2,3,0],[1,0],[0]]","15","0","","","","","","7","","","","","","","","",""
"","","","","","single-stim-button","261","892010","0.0-2.0-56.7-0.7","6058466a43c6819ea1d84822","F1","batch6","","998","tol_tohand","","","","tol_peg_2","998","998","0","[[2,0,0],[0,0],[1]]","8","[[2,3,0],[1,0],[0]]","15","0","","","","","","7","","","","","","","","",""
"","","","","","single-stim-button","262","892913","0.0-2.0-56.7-1.7","6058466a43c6819ea1d84822","F1","batch6","","902","tol_toboard","","","","tol_peg_1","902","902","0","[[2,3,0],[0,0],[1]]","8","[[2,3,0],[1,0],[0]]","15","0","","","","","","7","","","","","","","","",""
"","","","","","single-stim-button","263","893609","0.0-2.0-56.8-0.8","6058466a43c6819ea1d84822","F1","batch6","","694","tol_tohand","","","","tol_peg_3","694","694","0","[[2,3,0],[0,0],[0]]","9","[[2,3,0],[1,0],[0]]","15","0","","","","","","7","","","","","","","","",""
"","","","","","single-stim-button","264","894303","0.0-2.0-56.8-1.8","6058466a43c6819ea1d84822","F1","batch6","","693","tol_toboard","","","","tol_peg_2","693","693","0","[[2,3,0],[1,0],[0]]","9","[[2,3,0],[1,0],[0]]","15","0","","","","","","7","","","","","","","","",""
"","","","","","poldrack-single-stim","265","895310","0.0-2.0-57.0","6058466a43c6819ea1d84822","F1","batch6","","-1","tol_feedback","","","true","","1000","1000","500","","","","","","-1","none","true","22300","35504","","","","","","","","","",""
"","","","","","html-button-response","266","896376","0.0-2.0-58.0","6058466a43c6819ea1d84822","F1","batch6","","1063.8999999985099","tol_trial_num","<div class = centerbox><p class = center-block-text>problem <strong>17</strong> out of 25 problems</p></div>","0","","","","","","","","","","","","","","","","","","","","","","","","",""
"","","","","","single-stim-button","267","899463","0.0-2.0-59.0-0.0","6058466a43c6819ea1d84822","F1","batch6","","3085","tol_tohand","","","","tol_peg_1","3085","3085","0","[[1,0,0],[3,0],[0]]","1","[[3,1,0],[2,0],[0]]","16","0","","","","","","5","","","","","","","","",""
"","","","","","single-stim-button","268","906084","0.0-2.0-59.0-1.0","6058466a43c6819ea1d84822","F1","batch6","","6620","tol_toboard","","","","tol_peg_2","6620","6620","0","[[1,0,0],[3,2],[0]]","1","[[3,1,0],[2,0],[0]]","16","0","","","","","","5","","","","","","","","",""
"","","","","","single-stim-button","269","906899","0.0-2.0-59.1-0.1","6058466a43c6819ea1d84822","F1","batch6","","813","tol_tohand","","","","tol_peg_1","813","813","0","[[0,0,0],[3,2],[0]]","2","[[3,1,0],[2,0],[0]]","16","0","","","","","","5","","","","","","","","",""
"","","","","","single-stim-button","270","908131","0.0-2.0-59.1-1.1","6058466a43c6819ea1d84822","F1","batch6","","1230","tol_toboard","","","","tol_peg_3","1230","1230","0","[[0,0,0],[3,2],[1]]","2","[[3,1,0],[2,0],[0]]","16","0","","","","","","5","","","","","","","","",""
"","","","","","single-stim-button","271","916104","0.0-2.0-59.2-0.2","6058466a43c6819ea1d84822","F1","batch6","","7971","tol_tohand","","","","tol_peg_3","7971","7971","0","[[0,0,0],[3,2],[0]]","3","[[3,1,0],[2,0],[0]]","16","0","","","","","","5","","","","","","","","",""
"","","","","","single-stim-button","272","917014","0.0-2.0-59.2-1.2","6058466a43c6819ea1d84822","F1","batch6","","909","tol_toboard","","","","tol_peg_1","909","909","0","[[1,0,0],[3,2],[0]]","3","[[3,1,0],[2,0],[0]]","16","0","","","","","","5","","","","","","","","",""
"","","","","","single-stim-button","273","922045","0.0-2.0-59.3-0.3","6058466a43c6819ea1d84822","F1","batch6","","5029","tol_tohand","","","","tol_peg_2","5029","5029","0","[[1,0,0],[3,0],[0]]","4","[[3,1,0],[2,0],[0]]","16","0","","","","","","5","","","","","","","","",""
"","","","","","single-stim-button","274","922908","0.0-2.0-59.3-1.3","6058466a43c6819ea1d84822","F1","batch6","","861","tol_toboard","","","","tol_peg_1","861","861","0","[[1,2,0],[3,0],[0]]","4","[[3,1,0],[2,0],[0]]","16","0","","","","","","5","","","","","","","","",""
"","","","","","single-stim-button","275","923677","0.0-2.0-59.4-0.4","6058466a43c6819ea1d84822","F1","batch6","","767","tol_tohand","","","","tol_peg_2","767","767","0","[[1,2,0],[0,0],[0]]","5","[[3,1,0],[2,0],[0]]","16","0","","","","","","5","","","","","","","","",""
"","","","","","single-stim-button","276","924858","0.0-2.0-59.4-1.4","6058466a43c6819ea1d84822","F1","batch6","","1180","tol_toboard","","","","tol_peg_3","1180","1180","0","[[1,2,0],[0,0],[3]]","5","[[3,1,0],[2,0],[0]]","16","0","","","","","","5","","","","","","","","",""
"","","","","","single-stim-button","277","930698","0.0-2.0-59.5-0.5","6058466a43c6819ea1d84822","F1","batch6","","5839","tol_tohand","","","","tol_peg_1","5839","5839","0","[[1,0,0],[0,0],[3]]","6","[[3,1,0],[2,0],[0]]","16","0","","","","","","5","","","","","","","","",""
"","","","","","single-stim-button","278","934344","0.0-2.0-59.5-1.5","6058466a43c6819ea1d84822","F1","batch6","","3644","tol_toboard","","","","tol_peg_2","3644","3644","0","[[1,0,0],[2,0],[3]]","6","[[3,1,0],[2,0],[0]]","16","0","","","","","","5","","","","","","","","",""
"","","","","","single-stim-button","279","935191","0.0-2.0-59.6-0.6","6058466a43c6819ea1d84822","F1","batch6","","846","tol_tohand","","","","tol_peg_1","846","846","0","[[0,0,0],[2,0],[3]]","7","[[3,1,0],[2,0],[0]]","16","0","","","","","","5","","","","","","","","",""
"","","","","","single-stim-button","280","936052","0.0-2.0-59.6-1.6","6058466a43c6819ea1d84822","F1","batch6","","860","tol_toboard","","","","tol_peg_2","860","860","0","[[0,0,0],[2,1],[3]]","7","[[3,1,0],[2,0],[0]]","16","0","","","","","","5","","","","","","","","",""
"","","","","","single-stim-button","281","937063","0.0-2.0-59.7-0.7","6058466a43c6819ea1d84822","F1","batch6","","1009","tol_tohand","","","","tol_peg_3","1009","1009","0","[[0,0,0],[2,1],[0]]","8","[[3,1,0],[2,0],[0]]","16","0","","","","","","5","","","","","","","","",""
"","","","","","single-stim-button","282","937965","0.0-2.0-59.7-1.7","6058466a43c6819ea1d84822","F1","batch6","","900","tol_toboard","","","","tol_peg_1","900","900","0","[[3,0,0],[2,1],[0]]","8","[[3,1,0],[2,0],[0]]","16","0","","","","","","5","","","","","","","","",""
"","","","","","single-stim-button","283","938461","0.0-2.0-59.8-0.8","6058466a43c6819ea1d84822","F1","batch6","","494","tol_tohand","","","","tol_peg_2","494","494","0","[[3,0,0],[2,0],[0]]","9","[[3,1,0],[2,0],[0]]","16","0","","","","","","5","","","","","","","","",""
"","","","","","single-stim-button","284","938997","0.0-2.0-59.8-1.8","6058466a43c6819ea1d84822","F1","batch6","","534","tol_toboard","","","","tol_peg_1","534","534","0","[[3,1,0],[2,0],[0]]","9","[[3,1,0],[2,0],[0]]","16","0","","","","","","5","","","","","","","","",""
"","","","","","poldrack-single-stim","285","940007","0.0-2.0-60.0","6058466a43c6819ea1d84822","F1","batch6","","-1","tol_feedback","","","true","","1000","1000","500","","","","","","-1","none","true","3085","25853","","","","","","","","","",""
"","","","","","html-button-response","286","940932","0.0-2.0-61.0","6058466a43c6819ea1d84822","F1","batch6","","923.0999999977648","tol_trial_num","<div class = centerbox><p class = center-block-text>problem <strong>18</strong> out of 25 problems</p></div>","0","","","","","","","","","","","","","","","","","","","","","","","","",""
"","","","","","single-stim-button","287","956830","0.0-2.0-62.0-0.0","6058466a43c6819ea1d84822","F1","batch6","","15896","tol_tohand","","","","tol_peg_1","15896","15896","0","[[1,0,0],[3,0],[0]]","1","[[3,0,0],[2,0],[1]]","17","0","","","","","","5","","","","","","","","",""
"","","","","","single-stim-button","288","959107","0.0-2.0-62.0-1.0","6058466a43c6819ea1d84822","F1","batch6","","2276","tol_toboard","","","","tol_peg_2","2276","2276","0","[[1,0,0],[3,2],[0]]","1","[[3,0,0],[2,0],[1]]","17","0","","","","","","5","","","","","","","","",""
"","","","","","single-stim-button","289","960052","0.0-2.0-62.1-0.1","6058466a43c6819ea1d84822","F1","batch6","","944","tol_tohand","","","","tol_peg_1","944","944","0","[[0,0,0],[3,2],[0]]","2","[[3,0,0],[2,0],[1]]","17","0","","","","","","5","","","","","","","","",""
"","","","","","single-stim-button","290","961067","0.0-2.0-62.1-1.1","6058466a43c6819ea1d84822","F1","batch6","","1013","tol_toboard","","","","tol_peg_3","1013","1013","0","[[0,0,0],[3,2],[1]]","2","[[3,0,0],[2,0],[1]]","17","0","","","","","","5","","","","","","","","",""
"","","","","","single-stim-button","291","962363","0.0-2.0-62.2-0.2","6058466a43c6819ea1d84822","F1","batch6","","1295","tol_tohand","","","","tol_peg_2","1295","1295","0","[[0,0,0],[3,0],[1]]","3","[[3,0,0],[2,0],[1]]","17","0","","","","","","5","","","","","","","","",""
"","","","","","single-stim-button","292","963698","0.0-2.0-62.2-1.2","6058466a43c6819ea1d84822","F1","batch6","","1334","tol_toboard","","","","tol_peg_1","1334","1334","0","[[2,0,0],[3,0],[1]]","3","[[3,0,0],[2,0],[1]]","17","0","","","","","","5","","","","","","","","",""
"","","","","","single-stim-button","293","970855","0.0-2.0-62.3-0.3","6058466a43c6819ea1d84822","F1","batch6","","7155","tol_tohand","","","","tol_peg_2","7155","7155","0","[[2,0,0],[0,0],[1]]","4","[[3,0,0],[2,0],[1]]","17","0","","","","","","5","","","","","","","","",""
"","","","","","single-stim-button","294","971359","0.0-2.0-62.3-1.3","6058466a43c6819ea1d84822","F1","batch6","","502","tol_toboard","","","","tol_peg_1","502","502","0","[[2,3,0],[0,0],[1]]","4","[[3,0,0],[2,0],[1]]","17","0","","","","","","5","","","","","","","","",""
"","","","","","single-stim-button","295","974182","0.0-2.0-62.4-0.4","6058466a43c6819ea1d84822","F1","batch6","","2821","tol_tohand","","","","tol_peg_3","2821","2821","0","[[2,3,0],[0,0],[0]]","5","[[3,0,0],[2,0],[1]]","17","0","","","","","","5","","","","","","","","",""
"","","","","","single-stim-button","296","975221","0.0-2.0-62.4-1.4","6058466a43c6819ea1d84822","F1","batch6","","1037","tol_toboard","","","","tol_peg_2","1037","1037","0","[[2,3,0],[1,0],[0]]","5","[[3,0,0],[2,0],[1]]","17","0","","","","","","5","","","","","","","","",""
"","","","","","single-stim-button","297","977340","0.0-2.0-62.5-0.5","6058466a43c6819ea1d84822","F1","batch6","","2117","tol_tohand","","","","tol_peg_1","2117","2117","0","[[2,0,0],[1,0],[0]]","6","[[3,0,0],[2,0],[1]]","17","0","","","","","","5","","","","","","","","",""
"","","","","","single-stim-button","298","978258","0.0-2.0-62.5-1.5","6058466a43c6819ea1d84822","F1","batch6","","917","tol_toboard","","","","tol_peg_3","917","917","0","[[2,0,0],[1,0],[3]]","6","[[3,0,0],[2,0],[1]]","17","0","","","","","","5","","","","","","","","",""
"","","","","","single-stim-button","299","978788","0.0-2.0-62.6-0.6","6058466a43c6819ea1d84822","F1","batch6","","529","tol_tohand","","","","tol_peg_2","529","529","0","[[2,0,0],[0,0],[3]]","7","[[3,0,0],[2,0],[1]]","17","0","","","","","","5","","","","","","","","",""
"","","","","","single-stim-button","300","979851","0.0-2.0-62.6-1.6","6058466a43c6819ea1d84822","F1","batch6","","1061","tol_toboard","","","","tol_peg_1","1061","1061","0","[[2,1,0],[0,0],[3]]","7","[[3,0,0],[2,0],[1]]","17","0","","","","","","5","","","","","","","","",""
"","","","","","single-stim-button","301","980403","0.0-2.0-62.7-0.7","6058466a43c6819ea1d84822","F1","batch6","","550","tol_tohand","","","","tol_peg_1","550","550","0","[[2,0,0],[0,0],[3]]","8","[[3,0,0],[2,0],[1]]","17","0","","","","","","5","","","","","","","","",""
"","","","","","single-stim-button","302","993581","0.0-2.0-62.7-1.7","6058466a43c6819ea1d84822","F1","batch6","","13177","tol_toboard","","","","tol_peg_2","13177","13177","0","[[2,0,0],[1,0],[3]]","8","[[3,0,0],[2,0],[1]]","17","0","","","","","","5","","","","","","","","",""
"","","","","","single-stim-button","303","994453","0.0-2.0-62.8-0.8","6058466a43c6819ea1d84822","F1","batch6","","869","tol_tohand","","","","tol_peg_1","869","869","0","[[0,0,0],[1,0],[3]]","9","[[3,0,0],[2,0],[1]]","17","0","","","","","","5","","","","","","","","",""
"","","","","","single-stim-button","304","995053","0.0-2.0-62.8-1.8","6058466a43c6819ea1d84822","F1","batch6","","599","tol_toboard","","","","tol_peg_2","599","599","0","[[0,0,0],[1,2],[3]]","9","[[3,0,0],[2,0],[1]]","17","0","","","","","","5","","","","","","","","",""
"","","","","","single-stim-button","305","996148","0.0-2.0-62.9-0.9","6058466a43c6819ea1d84822","F1","batch6","","1092","tol_tohand","","","","tol_peg_3","1092","1092","0","[[0,0,0],[1,2],[0]]","10","[[3,0,0],[2,0],[1]]","17","0","","","","","","5","","","","","","","","",""
"","","","","","single-stim-button","306","997373","0.0-2.0-62.9-1.9","6058466a43c6819ea1d84822","F1","batch6","","1223","tol_toboard","","","","tol_peg_1","1223","1223","0","[[3,0,0],[1,2],[0]]","10","[[3,0,0],[2,0],[1]]","17","0","","","","","","5","","","","","","","","",""
"","","","","","single-stim-button","307","997850","0.0-2.0-62.10-0.10","6058466a43c6819ea1d84822","F1","batch6","","476","tol_tohand","","","","tol_peg_2","476","476","0","[[3,0,0],[1,0],[0]]","11","[[3,0,0],[2,0],[1]]","17","0","","","","","","5","","","","","","","","",""
"","","","","","single-stim-button","308","998426","0.0-2.0-62.10-1.10","6058466a43c6819ea1d84822","F1","batch6","","575","tol_toboard","","","","tol_peg_3","575","575","0","[[3,0,0],[1,0],[2]]","11","[[3,0,0],[2,0],[1]]","17","0","","","","","","5","","","","","","","","",""
"","","","","","single-stim-button","309","999994","0.0-2.0-62.11-0.11","6058466a43c6819ea1d84822","F1","batch6","","1565","tol_tohand","","","","tol_peg_2","1565","1565","0","[[3,0,0],[0,0],[2]]","12","[[3,0,0],[2,0],[1]]","17","0","","","","","","5","","","","","","","","",""
"","","","","","single-stim-button","310","1000626","0.0-2.0-62.11-1.11","6058466a43c6819ea1d84822","F1","batch6","","631","tol_toboard","","","","tol_peg_1","631","631","0","[[3,1,0],[0,0],[2]]","12","[[3,0,0],[2,0],[1]]","17","0","","","","","","5","","","","","","","","",""
"","","","","","single-stim-button","311","1001362","0.0-2.0-62.12-0.12","6058466a43c6819ea1d84822","F1","batch6","","733","tol_tohand","","","","tol_peg_3","733","733","0","[[3,1,0],[0,0],[0]]","13","[[3,0,0],[2,0],[1]]","17","0","","","","","","5","","","","","","","","",""
"","","","","","single-stim-button","312","1002897","0.0-2.0-62.12-1.12","6058466a43c6819ea1d84822","F1","batch6","","1533","tol_toboard","","","","tol_peg_2","1533","1533","0","[[3,1,0],[2,0],[0]]","13","[[3,0,0],[2,0],[1]]","17","0","","","","","","5","","","","","","","","",""
"","","","","","single-stim-button","313","1003641","0.0-2.0-62.13-0.13","6058466a43c6819ea1d84822","F1","batch6","","742","tol_tohand","","","","tol_peg_1","742","742","0","[[3,0,0],[2,0],[0]]","14","[[3,0,0],[2,0],[1]]","17","0","","","","","","5","","","","","","","","",""
"","","","","","single-stim-button","314","1004760","0.0-2.0-62.13-1.13","6058466a43c6819ea1d84822","F1","batch6","","1117","tol_toboard","","","","tol_peg_3","1117","1117","0","[[3,0,0],[2,0],[1]]","14","[[3,0,0],[2,0],[1]]","17","0","","","","","","5","","","","","","","","",""
"","","","","","poldrack-single-stim","315","1005767","0.0-2.0-63.0","6058466a43c6819ea1d84822","F1","batch6","","-1","tol_feedback","","","true","","1000","1000","500","","","","","","-1","none","true","15896","36784","","","","","","","","","",""
"","","","","","html-button-response","316","1006767","0.0-2.0-64.0","6058466a43c6819ea1d84822","F1","batch6","","997.8000000007451","tol_trial_num","<div class = centerbox><p class = center-block-text>problem <strong>19</strong> out of 25 problems</p></div>","0","","","","","","","","","","","","","","","","","","","","","","","","",""
"","","","","","single-stim-button","317","1010631","0.0-2.0-65.0-0.0","6058466a43c6819ea1d84822","F1","batch6","","3862","tol_tohand","","","","tol_peg_2","3862","3862","0","[[1,2,0],[0,0],[0]]","1","[[0,0,0],[1,2],[3]]","18","0","","","","","","7","","","","","","","","",""
"","","","","","single-stim-button","318","1012238","0.0-2.0-65.0-1.0","6058466a43c6819ea1d84822","F1","batch6","","1605","tol_toboard","","","","tol_peg_3","1605","1605","0","[[1,2,0],[0,0],[3]]","1","[[0,0,0],[1,2],[3]]","18","0","","","","","","7","","","","","","","","",""
"","","","","","single-stim-button","319","1014268","0.0-2.0-65.1-0.1","6058466a43c6819ea1d84822","F1","batch6","","2029","tol_tohand","","","","tol_peg_1","2029","2029","0","[[1,0,0],[0,0],[3]]","2","[[0,0,0],[1,2],[3]]","18","0","","","","","","7","","","","","","","","",""
"","","","","","single-stim-button","320","1015197","0.0-2.0-65.1-1.1","6058466a43c6819ea1d84822","F1","batch6","","927","tol_toboard","","","","tol_peg_2","927","927","0","[[1,0,0],[2,0],[3]]","2","[[0,0,0],[1,2],[3]]","18","0","","","","","","7","","","","","","","","",""
"","","","","","single-stim-button","321","1018306","0.0-2.0-65.2-0.2","6058466a43c6819ea1d84822","F1","batch6","","3107","tol_tohand","","","","tol_peg_1","3107","3107","0","[[0,0,0],[2,0],[3]]","3","[[0,0,0],[1,2],[3]]","18","0","","","","","","7","","","","","","","","",""
"","","","","","single-stim-button","322","1019162","0.0-2.0-65.2-1.2","6058466a43c6819ea1d84822","F1","batch6","","854","tol_toboard","","","","tol_peg_2","854","854","0","[[0,0,0],[2,1],[3]]","3","[[0,0,0],[1,2],[3]]","18","0","","","","","","7","","","","","","","","",""
"","","","","","single-stim-button","323","1020274","0.0-2.0-65.3-0.3","6058466a43c6819ea1d84822","F1","batch6","","1110","tol_tohand","","","","tol_peg_2","1110","1110","0","[[0,0,0],[2,0],[3]]","4","[[0,0,0],[1,2],[3]]","18","0","","","","","","7","","","","","","","","",""
"","","","","","single-stim-button","324","1021193","0.0-2.0-65.3-1.3","6058466a43c6819ea1d84822","F1","batch6","","917","tol_toboard","","","","tol_peg_1","917","917","0","[[1,0,0],[2,0],[3]]","4","[[0,0,0],[1,2],[3]]","18","0","","","","","","7","","","","","","","","",""
"","","","","","single-stim-button","325","1022561","0.0-2.0-65.4-0.4","6058466a43c6819ea1d84822","F1","batch6","","1367","tol_tohand","","","","tol_peg_3","1367","1367","0","[[1,0,0],[2,0],[0]]","5","[[0,0,0],[1,2],[3]]","18","0","","","","","","7","","","","","","","","",""
"","","","","","single-stim-button","326","1025152","0.0-2.0-65.4-1.4","6058466a43c6819ea1d84822","F1","batch6","","2590","tol_toboard","","","","tol_peg_1","2590","2590","0","[[1,3,0],[2,0],[0]]","5","[[0,0,0],[1,2],[3]]","18","0","","","","","","7","","","","","","","","",""
"","","","","","single-stim-button","327","1025991","0.0-2.0-65.5-0.5","6058466a43c6819ea1d84822","F1","batch6","","837","tol_tohand","","","","tol_peg_2","837","837","0","[[1,3,0],[0,0],[0]]","6","[[0,0,0],[1,2],[3]]","18","0","","","","","","7","","","","","","","","",""
"","","","","","single-stim-button","328","1026591","0.0-2.0-65.5-1.5","6058466a43c6819ea1d84822","F1","batch6","","599","tol_toboard","","","","tol_peg_3","599","599","0","[[1,3,0],[0,0],[2]]","6","[[0,0,0],[1,2],[3]]","18","0","","","","","","7","","","","","","","","",""
"","","","","","single-stim-button","329","1028478","0.0-2.0-65.6-0.6","6058466a43c6819ea1d84822","F1","batch6","","1886","tol_tohand","","","","tol_peg_1","1886","1886","0","[[1,0,0],[0,0],[2]]","7","[[0,0,0],[1,2],[3]]","18","0","","","","","","7","","","","","","","","",""
"","","","","","single-stim-button","330","1033908","0.0-2.0-65.6-1.6","6058466a43c6819ea1d84822","F1","batch6","","5428","tol_toboard","","","","tol_peg_1","5428","5428","0","[[1,3,0],[0,0],[2]]","7","[[0,0,0],[1,2],[3]]","18","0","","","","","","7","","","","","","","","",""
"","","","","","single-stim-button","331","1039344","0.0-2.0-65.7-0.7","6058466a43c6819ea1d84822","F1","batch6","","5435","tol_tohand","","","","tol_peg_3","5435","5435","0","[[1,3,0],[0,0],[0]]","8","[[0,0,0],[1,2],[3]]","18","0","","","","","","7","","","","","","","","",""
"","","","","","single-stim-button","332","1040289","0.0-2.0-65.7-1.7","6058466a43c6819ea1d84822","F1","batch6","","943","tol_toboard","","","","tol_peg_2","943","943","0","[[1,3,0],[2,0],[0]]","8","[[0,0,0],[1,2],[3]]","18","0","","","","","","7","","","","","","","","",""
"","","","","","single-stim-button","333","1041073","0.0-2.0-65.8-0.8","6058466a43c6819ea1d84822","F1","batch6","","783","tol_tohand","","","","tol_peg_1","783","783","0","[[1,0,0],[2,0],[0]]","9","[[0,0,0],[1,2],[3]]","18","0","","","","","","7","","","","","","","","",""
"","","","","","single-stim-button","334","1041928","0.0-2.0-65.8-1.8","6058466a43c6819ea1d84822","F1","batch6","","853","tol_toboard","","","","tol_peg_3","853","853","0","[[1,0,0],[2,0],[3]]","9","[[0,0,0],[1,2],[3]]","18","0","","","","","","7","","","","","","","","",""
"","","","","","single-stim-button","335","1061640","0.0-2.0-65.9-0.9","6058466a43c6819ea1d84822","F1","batch6","","19711","tol_tohand","","","","tol_peg_1","19711","19711","0","[[0,0,0],[2,0],[3]]","10","[[0,0,0],[1,2],[3]]","18","0","","","","","","7","","","","","","","","",""
"","","","","","single-stim-button","336","1063071","0.0-2.0-65.9-1.9","6058466a43c6819ea1d84822","F1","batch6","","1429","tol_toboard","","","","tol_peg_2","1429","1429","0","[[0,0,0],[2,1],[3]]","10","[[0,0,0],[1,2],[3]]","18","0","","","","","","7","","","","","","","","",""
"","","","","","single-stim-button","337","1065797","0.0-2.0-65.10-0.10","6058466a43c6819ea1d84822","F1","batch6","","2724","tol_tohand","","","","tol_peg_3","2724","2724","0","[[0,0,0],[2,1],[0]]","11","[[0,0,0],[1,2],[3]]","18","0","","","","","","7","","","","","","","","",""
"","","","","","single-stim-button","338","1066621","0.0-2.0-65.10-1.10","6058466a43c6819ea1d84822","F1","batch6","","822","tol_toboard","","","","tol_peg_1","822","822","0","[[3,0,0],[2,1],[0]]","11","[[0,0,0],[1,2],[3]]","18","0","","","","","","7","","","","","","","","",""
"","","","","","single-stim-button","339","1067276","0.0-2.0-65.11-0.11","6058466a43c6819ea1d84822","F1","batch6","","655","tol_tohand","","","","tol_peg_2","655","655","0","[[3,0,0],[2,0],[0]]","12","[[0,0,0],[1,2],[3]]","18","0","","","","","","7","","","","","","","","",""
"","","","","","single-stim-button","340","1067884","0.0-2.0-65.11-1.11","6058466a43c6819ea1d84822","F1","batch6","","607","tol_toboard","","","","tol_peg_3","607","607","0","[[3,0,0],[2,0],[1]]","12","[[0,0,0],[1,2],[3]]","18","0","","","","","","7","","","","","","","","",""
"","","","","","single-stim-button","341","1069572","0.0-2.0-65.12-0.12","6058466a43c6819ea1d84822","F1","batch6","","1686","tol_tohand","","","","tol_peg_2","1686","1686","0","[[3,0,0],[0,0],[1]]","13","[[0,0,0],[1,2],[3]]","18","0","","","","","","7","","","","","","","","",""
"","","","","","single-stim-button","342","1070453","0.0-2.0-65.12-1.12","6058466a43c6819ea1d84822","F1","batch6","","880","tol_toboard","","","","tol_peg_1","880","880","0","[[3,2,0],[0,0],[1]]","13","[[0,0,0],[1,2],[3]]","18","0","","","","","","7","","","","","","","","",""
"","","","","","single-stim-button","343","1071195","0.0-2.0-65.13-0.13","6058466a43c6819ea1d84822","F1","batch6","","741","tol_tohand","","","","tol_peg_3","741","741","0","[[3,2,0],[0,0],[0]]","14","[[0,0,0],[1,2],[3]]","18","0","","","","","","7","","","","","","","","",""
"","","","","","single-stim-button","344","1071938","0.0-2.0-65.13-1.13","6058466a43c6819ea1d84822","F1","batch6","","742","tol_toboard","","","","tol_peg_2","742","742","0","[[3,2,0],[1,0],[0]]","14","[[0,0,0],[1,2],[3]]","18","0","","","","","","7","","","","","","","","",""
"","","","","","single-stim-button","345","1072722","0.0-2.0-65.14-0.14","6058466a43c6819ea1d84822","F1","batch6","","782","tol_tohand","","","","tol_peg_1","782","782","0","[[3,0,0],[1,0],[0]]","15","[[0,0,0],[1,2],[3]]","18","0","","","","","","7","","","","","","","","",""
"","","","","","single-stim-button","346","1073586","0.0-2.0-65.14-1.14","6058466a43c6819ea1d84822","F1","batch6","","862","tol_toboard","","","","tol_peg_2","862","862","0","[[3,0,0],[1,2],[0]]","15","[[0,0,0],[1,2],[3]]","18","0","","","","","","7","","","","","","","","",""
"","","","","","single-stim-button","347","1074281","0.0-2.0-65.15-0.15","6058466a43c6819ea1d84822","F1","batch6","","693","tol_tohand","","","","tol_peg_1","693","693","0","[[0,0,0],[1,2],[0]]","16","[[0,0,0],[1,2],[3]]","18","0","","","","","","7","","","","","","","","",""
"","","","","","single-stim-button","348","1075418","0.0-2.0-65.15-1.15","6058466a43c6819ea1d84822","F1","batch6","","1135","tol_toboard","","","","tol_peg_3","1135","1135","0","[[0,0,0],[1,2],[3]]","16","[[0,0,0],[1,2],[3]]","18","0","","","","","","7","","","","","","","","",""
"","","","","","poldrack-single-stim","349","1076429","0.0-2.0-66.0","6058466a43c6819ea1d84822","F1","batch6","","-1","tol_feedback","","","true","","1000","1000","500","","","","","","-1","none","true","3862","47408","","","","","","","","","",""
"","","","","","html-button-response","350","1077489","0.0-2.0-67.0","6058466a43c6819ea1d84822","F1","batch6","","1057.3999999985099","tol_trial_num","<div class = centerbox><p class = center-block-text>problem <strong>20</strong> out of 25 problems</p></div>","0","","","","","","","","","","","","","","","","","","","","","","","","",""
"","","","","","single-stim-button","351","1081543","0.0-2.0-68.0-0.0","6058466a43c6819ea1d84822","F1","batch6","","4053","tol_tohand","","","","tol_peg_2","4053","4053","0","[[1,2,0],[0,0],[0]]","1","[[2,1,0],[0,0],[3]]","19","0","","","","","","5","","","","","","","","",""
"","","","","","single-stim-button","352","1085269","0.0-2.0-68.0-1.0","6058466a43c6819ea1d84822","F1","batch6","","3724","tol_toboard","","","","tol_peg_3","3724","3724","0","[[1,2,0],[0,0],[3]]","1","[[2,1,0],[0,0],[3]]","19","0","","","","","","5","","","","","","","","",""
"","","","","","single-stim-button","353","1087788","0.0-2.0-68.1-0.1","6058466a43c6819ea1d84822","F1","batch6","","2516","tol_tohand","","","","tol_peg_1","2516","2516","0","[[1,0,0],[0,0],[3]]","2","[[2,1,0],[0,0],[3]]","19","0","","","","","","5","","","","","","","","",""
"","","","","","single-stim-button","354","1088324","0.0-2.0-68.1-1.1","6058466a43c6819ea1d84822","F1","batch6","","534","tol_toboard","","","","tol_peg_2","534","534","0","[[1,0,0],[2,0],[3]]","2","[[2,1,0],[0,0],[3]]","19","0","","","","","","5","","","","","","","","",""
