"success","timeout","failed_images","failed_audio","failed_video","trial_type","trial_index","time_elapsed","internal_node_id","subject_id","study_id","session_id","task","rt","stimulus","response","item","answer","correct","spm_correct","spm_rt","view_history","mouse_click","stim_duration","block_duration","timing_post_trial","current_position","tol_num_moves_made","tol_target","tol_problem_id","tol_rt","key_press","possible_responses","tol_correct","preplanning","tol_rt_per_trial","tol_min_moves","fiar_detect_rt","fiar_detect_correct","total_correct_fiar_detect","post_trial_gap","choices"
"true","false","[]","[]","[]","preload","0","6726","0.0-0.0","6061fff2c21e787791b1d052","C3","batch3","","","","","","","","","","","","","","","","","","","","","","","","","","","","","",""
"true","","","","","fullscreen","1","30768","0.0-1.0-0.0","6061fff2c21e787791b1d052","C3","batch3","","","","","","","","","","","","","","","","","","","","","","","","","","","","","",""
"true","","","","","fullscreen","2","33642","0.0-2.0-0.0","6061fff2c21e787791b1d052","C3","batch3","spm_fullscreen","","","","","","","","","","","","","","","","","","","","","","","","","","","","",""
"","","","","","html-button-response","3","50681","0.0-2.0-1.0","6061fff2c21e787791b1d052","C3","batch3","","17036.29999999702","<p class = block-text><b>Instructions</b> <br>This is a widely used intelligence test in research. <br>In this test, a figure with a missing piece will be presented.<br>Below the figure are alternative pieces to complete the figure, only one of which is correct.<br> Different figures might involve different principles for obtaining the missing piece<br>Your job is to select the most logical piece to complete the figure.</p>","0","","","","","","","","","","","","","","","","","","","","","","","","","",""
"","","","","","html-keyboard-response","4","51486","0.0-2.0-2.0-0.0","6061fff2c21e787791b1d052","C3","batch3","spm_show_trial_num","null","<p class=block-text>Trial 1 out of 60</p>","null","","","","","","","","","","","","","","","","","","","","","","","","","",""
"","","","","","image-button-response","5","60224","0.0-2.0-2.0-1.0","6061fff2c21e787791b1d052","C3","batch3","spm_respsonse","8733.29999999702","img/question_1_1.jpeg","3","mat_01","4","1","1","8733.29999999702","","","","","","","","","","","","","","","","","","","","",""
"","","","","","html-keyboard-response","6","61285","0.0-2.0-2.0-0.1","6061fff2c21e787791b1d052","C3","batch3","spm_show_trial_num","null","<p class=block-text>Trial 2 out of 60</p>","null","","","","","","","","","","","","","","","","","","","","","","","","","",""
"","","","","","image-button-response","7","64932","0.0-2.0-2.0-1.1","6061fff2c21e787791b1d052","C3","batch3","spm_respsonse","3645.2999999970198","img/question_1_2.jpeg","5","mat_02","5","0","0","3645.2999999970198","","","","","","","","","","","","","","","","","","","","",""
"","","","","","html-keyboard-response","8","66005","0.0-2.0-2.0-0.2","6061fff2c21e787791b1d052","C3","batch3","spm_show_trial_num","null","<p class=block-text>Trial 3 out of 60</p>","null","","","","","","","","","","","","","","","","","","","","","","","","","",""
"","","","","","image-button-response","9","69756","0.0-2.0-2.0-1.2","6061fff2c21e787791b1d052","C3","batch3","spm_respsonse","3748.7999999970198","img/question_1_3.jpeg","0","mat_03","1","1","1","3748.7999999970198","","","","","","","","","","","","","","","","","","","","",""
"","","","","","html-keyboard-response","10","70824","0.0-2.0-2.0-0.3","6061fff2c21e787791b1d052","C3","batch3","spm_show_trial_num","null","<p class=block-text>Trial 4 out of 60</p>","null","","","","","","","","","","","","","","","","","","","","","","","","","",""
"","","","","","image-button-response","11","78115","0.0-2.0-2.0-1.3","6061fff2c21e787791b1d052","C3","batch3","spm_respsonse","7289","img/question_1_4.jpeg","1","mat_04","2","1","1","7289","","","","","","","","","","","","","","","","","","","","",""
"","","","","","html-keyboard-response","12","79180","0.0-2.0-2.0-0.4","6061fff2c21e787791b1d052","C3","batch3","spm_show_trial_num","null","<p class=block-text>Trial 5 out of 60</p>","null","","","","","","","","","","","","","","","","","","","","","","","","","",""
"","","","","","image-button-response","13","83979","0.0-2.0-2.0-1.4","6061fff2c21e787791b1d052","C3","batch3","spm_respsonse","4796.5","img/question_1_5.jpeg","5","mat_05","6","1","1","4796.5","","","","","","","","","","","","","","","","","","","","",""
"","","","","","html-keyboard-response","14","85047","0.0-2.0-2.0-0.5","6061fff2c21e787791b1d052","C3","batch3","spm_show_trial_num","null","<p class=block-text>Trial 6 out of 60</p>","null","","","","","","","","","","","","","","","","","","","","","","","","","",""
"","","","","","image-button-response","15","90381","0.0-2.0-2.0-1.5","6061fff2c21e787791b1d052","C3","batch3","spm_respsonse","5331.4000000059605","img/question_1_6.jpeg","2","mat_06","3","1","1","5331.4000000059605","","","","","","","","","","","","","","","","","","","","",""
"","","","","","html-keyboard-response","16","91447","0.0-2.0-2.0-0.6","6061fff2c21e787791b1d052","C3","batch3","spm_show_trial_num","null","<p class=block-text>Trial 7 out of 60</p>","null","","","","","","","","","","","","","","","","","","","","","","","","","",""
"","","","","","image-button-response","17","100497","0.0-2.0-2.0-1.6","6061fff2c21e787791b1d052","C3","batch3","spm_respsonse","9047","img/question_1_7.jpeg","5","mat_07","6","1","1","9047","","","","","","","","","","","","","","","","","","","","",""
"","","","","","html-keyboard-response","18","101562","0.0-2.0-2.0-0.7","6061fff2c21e787791b1d052","C3","batch3","spm_show_trial_num","null","<p class=block-text>Trial 8 out of 60</p>","null","","","","","","","","","","","","","","","","","","","","","","","","","",""
"","","","","","image-button-response","19","112118","0.0-2.0-2.0-1.7","6061fff2c21e787791b1d052","C3","batch3","spm_respsonse","10554","img/question_1_8.jpeg","1","mat_08","2","1","1","10554","","","","","","","","","","","","","","","","","","","","",""
"","","","","","html-keyboard-response","20","113192","0.0-2.0-2.0-0.8","6061fff2c21e787791b1d052","C3","batch3","spm_show_trial_num","null","<p class=block-text>Trial 9 out of 60</p>","null","","","","","","","","","","","","","","","","","","","","","","","","","",""
"","","","","","image-button-response","21","123751","0.0-2.0-2.0-1.8","6061fff2c21e787791b1d052","C3","batch3","spm_respsonse","10556.199999988079","img/question_1_9.jpeg","0","mat_09","1","1","1","10556.199999988079","","","","","","","","","","","","","","","","","","","","",""
"","","","","","html-keyboard-response","22","124809","0.0-2.0-2.0-0.9","6061fff2c21e787791b1d052","C3","batch3","spm_show_trial_num","null","<p class=block-text>Trial 10 out of 60</p>","null","","","","","","","","","","","","","","","","","","","","","","","","","",""
"","","","","","image-button-response","23","135941","0.0-2.0-2.0-1.9","6061fff2c21e787791b1d052","C3","batch3","spm_respsonse","11129.89999999106","img/question_1_10.jpeg","2","mat_10","3","1","1","11129.89999999106","","","","","","","","","","","","","","","","","","","","",""
"","","","","","html-keyboard-response","24","137008","0.0-2.0-2.0-0.10","6061fff2c21e787791b1d052","C3","batch3","spm_show_trial_num","null","<p class=block-text>Trial 11 out of 60</p>","null","","","","","","","","","","","","","","","","","","","","","","","","","",""
"","","","","","image-button-response","25","155042","0.0-2.0-2.0-1.10","6061fff2c21e787791b1d052","C3","batch3","spm_respsonse","18032.20000000298","img/question_1_11.jpeg","3","mat_11","4","1","1","18032.20000000298","","","","","","","","","","","","","","","","","","","","",""
"","","","","","html-keyboard-response","26","156108","0.0-2.0-2.0-0.11","6061fff2c21e787791b1d052","C3","batch3","spm_show_trial_num","null","<p class=block-text>Trial 12 out of 60</p>","null","","","","","","","","","","","","","","","","","","","","","","","","","",""
"","","","","","image-button-response","27","192015","0.0-2.0-2.0-1.11","6061fff2c21e787791b1d052","C3","batch3","spm_respsonse","35905.5","img/question_1_12.jpeg","0","mat_12","5","0","0","35905.5","","","","","","","","","","","","","","","","","","","","",""
"","","","","","html-keyboard-response","28","193079","0.0-2.0-2.0-0.12","6061fff2c21e787791b1d052","C3","batch3","spm_show_trial_num","null","<p class=block-text>Trial 13 out of 60</p>","null","","","","","","","","","","","","","","","","","","","","","","","","","",""
"","","","","","image-button-response","29","197671","0.0-2.0-2.0-1.12","6061fff2c21e787791b1d052","C3","batch3","spm_respsonse","4589.100000008941","img/question_2_1.jpeg","1","mat_13","2","1","1","4589.100000008941","","","","","","","","","","","","","","","","","","","","",""
"","","","","","html-keyboard-response","30","198747","0.0-2.0-2.0-0.13","6061fff2c21e787791b1d052","C3","batch3","spm_show_trial_num","null","<p class=block-text>Trial 14 out of 60</p>","null","","","","","","","","","","","","","","","","","","","","","","","","","",""
"","","","","","image-button-response","31","206128","0.0-2.0-2.0-1.13","6061fff2c21e787791b1d052","C3","batch3","spm_respsonse","7379.4000000059605","img/question_2_2.jpeg","5","mat_14","6","1","1","7379.4000000059605","","","","","","","","","","","","","","","","","","","","",""
"","","","","","html-keyboard-response","32","207196","0.0-2.0-2.0-0.14","6061fff2c21e787791b1d052","C3","batch3","spm_show_trial_num","null","<p class=block-text>Trial 15 out of 60</p>","null","","","","","","","","","","","","","","","","","","","","","","","","","",""
"","","","","","image-button-response","33","210690","0.0-2.0-2.0-1.14","6061fff2c21e787791b1d052","C3","batch3","spm_respsonse","3491.2000000029802","img/question_2_3.jpeg","0","mat_15","1","1","1","3491.2000000029802","","","","","","","","","","","","","","","","","","","","",""
"","","","","","html-keyboard-response","34","211756","0.0-2.0-2.0-0.15","6061fff2c21e787791b1d052","C3","batch3","spm_show_trial_num","null","<p class=block-text>Trial 16 out of 60</p>","null","","","","","","","","","","","","","","","","","","","","","","","","","",""
"","","","","","image-button-response","35","216858","0.0-2.0-2.0-1.15","6061fff2c21e787791b1d052","C3","batch3","spm_respsonse","5100","img/question_2_4.jpeg","1","mat_16","2","1","1","5100","","","","","","","","","","","","","","","","","","","","",""
"","","","","","html-keyboard-response","36","217914","0.0-2.0-2.0-0.16","6061fff2c21e787791b1d052","C3","batch3","spm_show_trial_num","null","<p class=block-text>Trial 17 out of 60</p>","null","","","","","","","","","","","","","","","","","","","","","","","","","",""
"","","","","","image-button-response","37","225264","0.0-2.0-2.0-1.16","6061fff2c21e787791b1d052","C3","batch3","spm_respsonse","7348.699999988079","img/question_2_5.jpeg","0","mat_17","1","1","1","7348.699999988079","","","","","","","","","","","","","","","","","","","","",""
"","","","","","html-keyboard-response","38","226344","0.0-2.0-2.0-0.17","6061fff2c21e787791b1d052","C3","batch3","spm_show_trial_num","null","<p class=block-text>Trial 18 out of 60</p>","null","","","","","","","","","","","","","","","","","","","","","","","","","",""
"","","","","","image-button-response","39","233554","0.0-2.0-2.0-1.17","6061fff2c21e787791b1d052","C3","batch3","spm_respsonse","7207.800000011921","img/question_2_6.jpeg","2","mat_18","3","1","1","7207.800000011921","","","","","","","","","","","","","","","","","","","","",""
"","","","","","html-keyboard-response","40","234619","0.0-2.0-2.0-0.18","6061fff2c21e787791b1d052","C3","batch3","spm_show_trial_num","null","<p class=block-text>Trial 19 out of 60</p>","null","","","","","","","","","","","","","","","","","","","","","","","","","",""
"","","","","","image-button-response","41","239438","0.0-2.0-2.0-1.18","6061fff2c21e787791b1d052","C3","batch3","spm_respsonse","4816.20000000298","img/question_2_7.jpeg","5","mat_19","5","0","0","4816.20000000298","","","","","","","","","","","","","","","","","","","","",""
"","","","","","html-keyboard-response","42","240507","0.0-2.0-2.0-0.19","6061fff2c21e787791b1d052","C3","batch3","spm_show_trial_num","null","<p class=block-text>Trial 20 out of 60</p>","null","","","","","","","","","","","","","","","","","","","","","","","","","",""
"","","","","","image-button-response","43","246872","0.0-2.0-2.0-1.19","6061fff2c21e787791b1d052","C3","batch3","spm_respsonse","6362.79999999702","img/question_2_8.jpeg","5","mat_20","6","1","1","6362.79999999702","","","","","","","","","","","","","","","","","","","","",""
"","","","","","html-keyboard-response","44","247939","0.0-2.0-2.0-0.20","6061fff2c21e787791b1d052","C3","batch3","spm_show_trial_num","null","<p class=block-text>Trial 21 out of 60</p>","null","","","","","","","","","","","","","","","","","","","","","","","","","",""
"","","","","","image-button-response","45","254365","0.0-2.0-2.0-1.20","6061fff2c21e787791b1d052","C3","batch3","spm_respsonse","6423.20000000298","img/question_2_9.jpeg","3","mat_21","4","1","1","6423.20000000298","","","","","","","","","","","","","","","","","","","","",""
"","","","","","html-keyboard-response","46","255423","0.0-2.0-2.0-0.21","6061fff2c21e787791b1d052","C3","batch3","spm_show_trial_num","null","<p class=block-text>Trial 22 out of 60</p>","null","","","","","","","","","","","","","","","","","","","","","","","","","",""
"","","","","","image-button-response","47","261806","0.0-2.0-2.0-1.21","6061fff2c21e787791b1d052","C3","batch3","spm_respsonse","6381.20000000298","img/question_2_10.jpeg","2","mat_22","3","1","1","6381.20000000298","","","","","","","","","","","","","","","","","","","","",""
"","","","","","html-keyboard-response","48","262873","0.0-2.0-2.0-0.22","6061fff2c21e787791b1d052","C3","batch3","spm_show_trial_num","null","<p class=block-text>Trial 23 out of 60</p>","null","","","","","","","","","","","","","","","","","","","","","","","","","",""
"","","","","","image-button-response","49","269321","0.0-2.0-2.0-1.22","6061fff2c21e787791b1d052","C3","batch3","spm_respsonse","6445.600000008941","img/question_2_11.jpeg","3","mat_23","4","1","1","6445.600000008941","","","","","","","","","","","","","","","","","","","","",""
"","","","","","html-keyboard-response","50","270386","0.0-2.0-2.0-0.23","6061fff2c21e787791b1d052","C3","batch3","spm_show_trial_num","null","<p class=block-text>Trial 24 out of 60</p>","null","","","","","","","","","","","","","","","","","","","","","","","","","",""
"","","","","","image-button-response","51","295933","0.0-2.0-2.0-1.23","6061fff2c21e787791b1d052","C3","batch3","spm_respsonse","25544.29999999702","img/question_2_12.jpeg","3","mat_24","5","0","0","25544.29999999702","","","","","","","","","","","","","","","","","","","","",""
"","","","","","html-button-response","52","299607","0.0-2.0-3.0","6061fff2c21e787791b1d052","C3","batch3","attention_check","3414.2000000029802","<p class = block-text>Attention check: Please choose 1<br></p>","0","","","true","","","","","","","","","","","","","","","","","","","","","","",""
"","","","","","html-keyboard-response","53","300416","0.0-2.0-4.0-0.0","6061fff2c21e787791b1d052","C3","batch3","spm_show_trial_num","null","<p class=block-text>Trial 25 out of 60</p>","null","","","","","","","","","","","","","","","","","","","","","","","","","",""
"","","","","","image-button-response","54","308259","0.0-2.0-4.0-1.0","6061fff2c21e787791b1d052","C3","batch3","spm_respsonse","7840.899999991059","img/question_3_1.jpeg","7","mat_25","8","1","1","7840.899999991059","","","","","","","","","","","","","","","","","","","","",""
"","","","","","html-keyboard-response","55","309320","0.0-2.0-4.0-0.1","6061fff2c21e787791b1d052","C3","batch3","spm_show_trial_num","null","<p class=block-text>Trial 26 out of 60</p>","null","","","","","","","","","","","","","","","","","","","","","","","","","",""
"","","","","","image-button-response","56","317569","0.0-2.0-4.0-1.1","6061fff2c21e787791b1d052","C3","batch3","spm_respsonse","8246","img/question_3_2.jpeg","1","mat_26","2","1","1","8246","","","","","","","","","","","","","","","","","","","","",""
"","","","","","html-keyboard-response","57","318631","0.0-2.0-4.0-0.2","6061fff2c21e787791b1d052","C3","batch3","spm_show_trial_num","null","<p class=block-text>Trial 27 out of 60</p>","null","","","","","","","","","","","","","","","","","","","","","","","","","",""
"","","","","","image-button-response","58","329554","0.0-2.0-4.0-1.2","6061fff2c21e787791b1d052","C3","batch3","spm_respsonse","10919.89999999106","img/question_3_3.jpeg","2","mat_27","3","1","1","10919.89999999106","","","","","","","","","","","","","","","","","","","","",""
"","","","","","html-keyboard-response","59","330627","0.0-2.0-4.0-0.3","6061fff2c21e787791b1d052","C3","batch3","spm_show_trial_num","null","<p class=block-text>Trial 28 out of 60</p>","null","","","","","","","","","","","","","","","","","","","","","","","","","",""
"","","","","","image-button-response","60","347548","0.0-2.0-4.0-1.3","6061fff2c21e787791b1d052","C3","batch3","spm_respsonse","16918.59999999404","img/question_3_4.jpeg","7","mat_28","8","1","1","16918.59999999404","","","","","","","","","","","","","","","","","","","","",""
"","","","","","html-keyboard-response","61","348607","0.0-2.0-4.0-0.4","6061fff2c21e787791b1d052","C3","batch3","spm_show_trial_num","null","<p class=block-text>Trial 29 out of 60</p>","null","","","","","","","","","","","","","","","","","","","","","","","","","",""
"","","","","","image-button-response","62","363350","0.0-2.0-4.0-1.4","6061fff2c21e787791b1d052","C3","batch3","spm_respsonse","14739.60000000894","img/question_3_5.jpeg","6","mat_29","7","1","1","14739.60000000894","","","","","","","","","","","","","","","","","","","","",""
"","","","","","html-keyboard-response","63","364421","0.0-2.0-4.0-0.5","6061fff2c21e787791b1d052","C3","batch3","spm_show_trial_num","null","<p class=block-text>Trial 30 out of 60</p>","null","","","","","","","","","","","","","","","","","","","","","","","","","",""
"","","","","","image-button-response","64","374442","0.0-2.0-4.0-1.5","6061fff2c21e787791b1d052","C3","batch3","spm_respsonse","10017.300000011921","img/question_3_6.jpeg","3","mat_30","4","1","1","10017.300000011921","","","","","","","","","","","","","","","","","","","","",""
"","","","","","html-keyboard-response","65","375507","0.0-2.0-4.0-0.6","6061fff2c21e787791b1d052","C3","batch3","spm_show_trial_num","null","<p class=block-text>Trial 31 out of 60</p>","null","","","","","","","","","","","","","","","","","","","","","","","","","",""
"","","","","","image-button-response","66","386866","0.0-2.0-4.0-1.6","6061fff2c21e787791b1d052","C3","batch3","spm_respsonse","11356.39999999106","img/question_3_7.jpeg","3","mat_31","5","0","0","11356.39999999106","","","","","","","","","","","","","","","","","","","","",""
"","","","","","html-keyboard-response","67","387934","0.0-2.0-4.0-0.7","6061fff2c21e787791b1d052","C3","batch3","spm_show_trial_num","null","<p class=block-text>Trial 32 out of 60</p>","null","","","","","","","","","","","","","","","","","","","","","","","","","",""
"","","","","","image-button-response","68","412807","0.0-2.0-4.0-1.7","6061fff2c21e787791b1d052","C3","batch3","spm_respsonse","24870","img/question_3_8.jpeg","0","mat_32","1","1","1","24870","","","","","","","","","","","","","","","","","","","","",""
"","","","","","html-keyboard-response","69","413873","0.0-2.0-4.0-0.8","6061fff2c21e787791b1d052","C3","batch3","spm_show_trial_num","null","<p class=block-text>Trial 33 out of 60</p>","null","","","","","","","","","","","","","","","","","","","","","","","","","",""
"","","","","","image-button-response","70","427368","0.0-2.0-4.0-1.8","6061fff2c21e787791b1d052","C3","batch3","spm_respsonse","13492.70000000298","img/question_3_9.jpeg","6","mat_33","7","1","1","13492.70000000298","","","","","","","","","","","","","","","","","","","","",""
"","","","","","html-keyboard-response","71","428432","0.0-2.0-4.0-0.9","6061fff2c21e787791b1d052","C3","batch3","spm_show_trial_num","null","<p class=block-text>Trial 34 out of 60</p>","null","","","","","","","","","","","","","","","","","","","","","","","","","",""
"","","","","","image-button-response","72","460990","0.0-2.0-4.0-1.9","6061fff2c21e787791b1d052","C3","batch3","spm_respsonse","32555.90000000596","img/question_3_10.jpeg","5","mat_34","6","1","1","32555.90000000596","","","","","","","","","","","","","","","","","","","","",""
"","","","","","html-keyboard-response","73","462045","0.0-2.0-4.0-0.10","6061fff2c21e787791b1d052","C3","batch3","spm_show_trial_num","null","<p class=block-text>Trial 35 out of 60</p>","null","","","","","","","","","","","","","","","","","","","","","","","","","",""
"","","","","","image-button-response","74","483857","0.0-2.0-4.0-1.10","6061fff2c21e787791b1d052","C3","batch3","spm_respsonse","21808.60000000894","img/question_3_11.jpeg","4","mat_35","1","0","0","21808.60000000894","","","","","","","","","","","","","","","","","","","","",""
"","","","","","html-keyboard-response","75","484923","0.0-2.0-4.0-0.11","6061fff2c21e787791b1d052","C3","batch3","spm_show_trial_num","null","<p class=block-text>Trial 36 out of 60</p>","null","","","","","","","","","","","","","","","","","","","","","","","","","",""
"","","","","","image-button-response","76","500138","0.0-2.0-4.0-1.11","6061fff2c21e787791b1d052","C3","batch3","spm_respsonse","15212.60000000894","img/question_3_12.jpeg","3","mat_36","2","0","0","15212.60000000894","","","","","","","","","","","","","","","","","","","","",""
"","","","","","html-keyboard-response","77","501206","0.0-2.0-4.0-0.12","6061fff2c21e787791b1d052","C3","batch3","spm_show_trial_num","null","<p class=block-text>Trial 37 out of 60</p>","null","","","","","","","","","","","","","","","","","","","","","","","","","",""
"","","","","","image-button-response","78","506949","0.0-2.0-4.0-1.12","6061fff2c21e787791b1d052","C3","batch3","spm_respsonse","5741.300000011921","img/question_4_1.jpeg","2","mat_37","3","1","1","5741.300000011921","","","","","","","","","","","","","","","","","","","","",""
"","","","","","html-keyboard-response","79","508005","0.0-2.0-4.0-0.13","6061fff2c21e787791b1d052","C3","batch3","spm_show_trial_num","null","<p class=block-text>Trial 38 out of 60</p>","null","","","","","","","","","","","","","","","","","","","","","","","","","",""
"","","","","","image-button-response","80","519143","0.0-2.0-4.0-1.13","6061fff2c21e787791b1d052","C3","batch3","spm_respsonse","11135.40000000596","img/question_4_2.jpeg","3","mat_38","4","1","1","11135.40000000596","","","","","","","","","","","","","","","","","","","","",""
"","","","","","html-keyboard-response","81","520202","0.0-2.0-4.0-0.14","6061fff2c21e787791b1d052","C3","batch3","spm_show_trial_num","null","<p class=block-text>Trial 39 out of 60</p>","null","","","","","","","","","","","","","","","","","","","","","","","","","",""
"","","","","","image-button-response","82","526175","0.0-2.0-4.0-1.14","6061fff2c21e787791b1d052","C3","batch3","spm_respsonse","5971","img/question_4_3.jpeg","2","mat_39","3","1","1","5971","","","","","","","","","","","","","","","","","","","","",""
"","","","","","html-keyboard-response","83","527238","0.0-2.0-4.0-0.15","6061fff2c21e787791b1d052","C3","batch3","spm_show_trial_num","null","<p class=block-text>Trial 40 out of 60</p>","null","","","","","","","","","","","","","","","","","","","","","","","","","",""
"","","","","","image-button-response","84","537529","0.0-2.0-4.0-1.15","6061fff2c21e787791b1d052","C3","batch3","spm_respsonse","10288.79999999702","img/question_4_4.jpeg","6","mat_40","7","1","1","10288.79999999702","","","","","","","","","","","","","","","","","","","","",""
"","","","","","html-keyboard-response","85","538596","0.0-2.0-4.0-0.16","6061fff2c21e787791b1d052","C3","batch3","spm_show_trial_num","null","<p class=block-text>Trial 41 out of 60</p>","null","","","","","","","","","","","","","","","","","","","","","","","","","",""
"","","","","","image-button-response","86","551662","0.0-2.0-4.0-1.16","6061fff2c21e787791b1d052","C3","batch3","spm_respsonse","13062.70000000298","img/question_4_5.jpeg","7","mat_41","8","1","1","13062.70000000298","","","","","","","","","","","","","","","","","","","","",""
"","","","","","html-keyboard-response","87","552731","0.0-2.0-4.0-0.17","6061fff2c21e787791b1d052","C3","batch3","spm_show_trial_num","null","<p class=block-text>Trial 42 out of 60</p>","null","","","","","","","","","","","","","","","","","","","","","","","","","",""
"","","","","","image-button-response","88","583506","0.0-2.0-4.0-1.17","6061fff2c21e787791b1d052","C3","batch3","spm_respsonse","30773.20000000298","img/question_4_6.jpeg","5","mat_42","6","1","1","30773.20000000298","","","","","","","","","","","","","","","","","","","","",""
"","","","","","html-keyboard-response","89","584574","0.0-2.0-4.0-0.18","6061fff2c21e787791b1d052","C3","batch3","spm_show_trial_num","null","<p class=block-text>Trial 43 out of 60</p>","null","","","","","","","","","","","","","","","","","","","","","","","","","",""
"","","","","","image-button-response","90","597282","0.0-2.0-4.0-1.18","6061fff2c21e787791b1d052","C3","batch3","spm_respsonse","12705.70000000298","img/question_4_7.jpeg","1","mat_43","5","0","0","12705.70000000298","","","","","","","","","","","","","","","","","","","","",""
"","","","","","html-keyboard-response","91","598339","0.0-2.0-4.0-0.19","6061fff2c21e787791b1d052","C3","batch3","spm_show_trial_num","null","<p class=block-text>Trial 44 out of 60</p>","null","","","","","","","","","","","","","","","","","","","","","","","","","",""
"","","","","","image-button-response","92","617881","0.0-2.0-4.0-1.19","6061fff2c21e787791b1d052","C3","batch3","spm_respsonse","19540","img/question_4_8.jpeg","3","mat_44","4","1","1","19540","","","","","","","","","","","","","","","","","","","","",""
"","","","","","html-keyboard-response","93","618942","0.0-2.0-4.0-0.20","6061fff2c21e787791b1d052","C3","batch3","spm_show_trial_num","null","<p class=block-text>Trial 45 out of 60</p>","null","","","","","","","","","","","","","","","","","","","","","","","","","",""
"","","","","","image-button-response","94","642905","0.0-2.0-4.0-1.20","6061fff2c21e787791b1d052","C3","batch3","spm_respsonse","23960.90000000596","img/question_4_9.jpeg","0","mat_45","1","1","1","23960.90000000596","","","","","","","","","","","","","","","","","","","","",""
"","","","","","html-keyboard-response","95","643972","0.0-2.0-4.0-0.21","6061fff2c21e787791b1d052","C3","batch3","spm_show_trial_num","null","<p class=block-text>Trial 46 out of 60</p>","null","","","","","","","","","","","","","","","","","","","","","","","","","",""
"","","","","","image-button-response","96","707465","0.0-2.0-4.0-1.21","6061fff2c21e787791b1d052","C3","batch3","spm_respsonse","63490.10000000894","img/question_4_10.jpeg","1","mat_46","2","1","1","63490.10000000894","","","","","","","","","","","","","","","","","","","","",""
"","","","","","html-keyboard-response","97","708537","0.0-2.0-4.0-0.22","6061fff2c21e787791b1d052","C3","batch3","spm_show_trial_num","null","<p class=block-text>Trial 47 out of 60</p>","null","","","","","","","","","","","","","","","","","","","","","","","","","",""
"","","","","","image-button-response","98","754532","0.0-2.0-4.0-1.22","6061fff2c21e787791b1d052","C3","batch3","spm_respsonse","45992.10000000894","img/question_4_11.jpeg","6","mat_47","5","0","0","45992.10000000894","","","","","","","","","","","","","","","","","","","","",""
"","","","","","html-keyboard-response","99","755592","0.0-2.0-4.0-0.23","6061fff2c21e787791b1d052","C3","batch3","spm_show_trial_num","null","<p class=block-text>Trial 48 out of 60</p>","null","","","","","","","","","","","","","","","","","","","","","","","","","",""
"","","","","","image-button-response","100","808484","0.0-2.0-4.0-1.23","6061fff2c21e787791b1d052","C3","batch3","spm_respsonse","52889.29999999702","img/question_4_12.jpeg","5","mat_48","6","1","1","52889.29999999702","","","","","","","","","","","","","","","","","","","","",""
"","","","","","html-keyboard-response","101","809555","0.0-2.0-4.0-0.24","6061fff2c21e787791b1d052","C3","batch3","spm_show_trial_num","null","<p class=block-text>Trial 49 out of 60</p>","null","","","","","","","","","","","","","","","","","","","","","","","","","",""
"","","","","","image-button-response","102","838181","0.0-2.0-4.0-1.24","6061fff2c21e787791b1d052","C3","batch3","spm_respsonse","28623.29999999702","img/question_5_1.jpeg","2","mat_49","7","0","0","28623.29999999702","","","","","","","","","","","","","","","","","","","","",""
"","","","","","html-keyboard-response","103","839243","0.0-2.0-4.0-0.25","6061fff2c21e787791b1d052","C3","batch3","spm_show_trial_num","null","<p class=block-text>Trial 50 out of 60</p>","null","","","","","","","","","","","","","","","","","","","","","","","","","",""
"","","","","","image-button-response","104","870255","0.0-2.0-4.0-1.25","6061fff2c21e787791b1d052","C3","batch3","spm_respsonse","31010.5","img/question_5_2.jpeg","5","mat_50","6","1","1","31010.5","","","","","","","","","","","","","","","","","","","","",""
"","","","","","html-keyboard-response","105","871320","0.0-2.0-4.0-0.26","6061fff2c21e787791b1d052","C3","batch3","spm_show_trial_num","null","<p class=block-text>Trial 51 out of 60</p>","null","","","","","","","","","","","","","","","","","","","","","","","","","",""
"","","","","","image-button-response","106","893942","0.0-2.0-4.0-1.26","6061fff2c21e787791b1d052","C3","batch3","spm_respsonse","22619.29999999702","img/question_5_3.jpeg","7","mat_51","8","1","1","22619.29999999702","","","","","","","","","","","","","","","","","","","","",""
"","","","","","html-keyboard-response","107","894998","0.0-2.0-4.0-0.27","6061fff2c21e787791b1d052","C3","batch3","spm_show_trial_num","null","<p class=block-text>Trial 52 out of 60</p>","null","","","","","","","","","","","","","","","","","","","","","","","","","",""
"","","","","","image-button-response","108","926326","0.0-2.0-4.0-1.27","6061fff2c21e787791b1d052","C3","batch3","spm_respsonse","31325.79999999702","img/question_5_4.jpeg","1","mat_52","2","1","1","31325.79999999702","","","","","","","","","","","","","","","","","","","","",""
"","","","","","html-keyboard-response","109","927400","0.0-2.0-4.0-0.28","6061fff2c21e787791b1d052","C3","batch3","spm_show_trial_num","null","<p class=block-text>Trial 53 out of 60</p>","null","","","","","","","","","","","","","","","","","","","","","","","","","",""
"","","","","","image-button-response","110","939491","0.0-2.0-4.0-1.28","6061fff2c21e787791b1d052","C3","batch3","spm_respsonse","12088","img/question_5_5.jpeg","0","mat_53","1","1","1","12088","","","","","","","","","","","","","","","","","","","","",""
"","","","","","html-keyboard-response","111","940549","0.0-2.0-4.0-0.29","6061fff2c21e787791b1d052","C3","batch3","spm_show_trial_num","null","<p class=block-text>Trial 54 out of 60</p>","null","","","","","","","","","","","","","","","","","","","","","","","","","",""
"","","","","","image-button-response","112","988152","0.0-2.0-4.0-1.29","6061fff2c21e787791b1d052","C3","batch3","spm_respsonse","47599.5","img/question_5_6.jpeg","4","mat_54","5","1","1","47599.5","","","","","","","","","","","","","","","","","","","","",""
"","","","","","html-keyboard-response","113","989222","0.0-2.0-4.0-0.30","6061fff2c21e787791b1d052","C3","batch3","spm_show_trial_num","null","<p class=block-text>Trial 55 out of 60</p>","null","","","","","","","","","","","","","","","","","","","","","","","","","",""
"","","","","","image-button-response","114","1028553","0.0-2.0-4.0-1.30","6061fff2c21e787791b1d052","C3","batch3","spm_respsonse","39328.70000000298","img/question_5_7.jpeg","0","mat_55","1","1","1","39328.70000000298","","","","","","","","","","","","","","","","","","","","",""
"","","","","","html-keyboard-response","115","1029619","0.0-2.0-4.0-0.31","6061fff2c21e787791b1d052","C3","batch3","spm_show_trial_num","null","<p class=block-text>Trial 56 out of 60</p>","null","","","","","","","","","","","","","","","","","","","","","","","","","",""
"","","","","","image-button-response","116","1050334","0.0-2.0-4.0-1.31","6061fff2c21e787791b1d052","C3","batch3","spm_respsonse","20711.80000001192","img/question_5_8.jpeg","7","mat_56","6","0","0","20711.80000001192","","","","","","","","","","","","","","","","","","","","",""
"","","","","","html-keyboard-response","117","1051394","0.0-2.0-4.0-0.32","6061fff2c21e787791b1d052","C3","batch3","spm_show_trial_num","null","<p class=block-text>Trial 57 out of 60</p>","null","","","","","","","","","","","","","","","","","","","","","","","","","",""
"","","","","","image-button-response","118","1090438","0.0-2.0-4.0-1.32","6061fff2c21e787791b1d052","C3","batch3","spm_respsonse","39041.10000000894","img/question_5_9.jpeg","3","mat_57","3","0","0","39041.10000000894","","","","","","","","","","","","","","","","","","","","",""
"","","","","","html-keyboard-response","119","1091506","0.0-2.0-4.0-0.33","6061fff2c21e787791b1d052","C3","batch3","spm_show_trial_num","null","<p class=block-text>Trial 58 out of 60</p>","null","","","","","","","","","","","","","","","","","","","","","","","","","",""
"","","","","","image-button-response","120","1165305","0.0-2.0-4.0-1.33","6061fff2c21e787791b1d052","C3","batch3","spm_respsonse","73795.79999999702","img/question_5_10.jpeg","6","mat_58","2","0","0","73795.79999999702","","","","","","","","","","","","","","","","","","","","",""
"","","","","","html-keyboard-response","121","1166363","0.0-2.0-4.0-0.34","6061fff2c21e787791b1d052","C3","batch3","spm_show_trial_num","null","<p class=block-text>Trial 59 out of 60</p>","null","","","","","","","","","","","","","","","","","","","","","","","","","",""
"","","","","","image-button-response","122","1203132","0.0-2.0-4.0-1.34","6061fff2c21e787791b1d052","C3","batch3","spm_respsonse","36766.39999999106","img/question_5_11.jpeg","7","mat_59","4","0","0","36766.39999999106","","","","","","","","","","","","","","","","","","","","",""
"","","","","","html-keyboard-response","123","1204191","0.0-2.0-4.0-0.35","6061fff2c21e787791b1d052","C3","batch3","spm_show_trial_num","null","<p class=block-text>Trial 60 out of 60</p>","null","","","","","","","","","","","","","","","","","","","","","","","","","",""
"","","","","","image-button-response","124","1245753","0.0-2.0-4.0-1.35","6061fff2c21e787791b1d052","C3","batch3","spm_respsonse","41559.10000000894","img/question_5_12.jpeg","1","mat_60","5","0","0","41559.10000000894","","","","","","","","","","","","","","","","","","","","",""
"","","","","","html-button-response","125","1249070","0.0-2.0-5.0","6061fff2c21e787791b1d052","C3","batch3","spm_goodbye","3054.199999988079","<p class= block-text>This concludes the Standard Progressive Matrix game. Thank you for your responses!<br> When you are ready, click the button continue</p>","0","","","","","","","","","","","","","","","","","","","","","","","","","",""
"true","","","","","fullscreen","126","1251402","0.0-3.0-0.0","6061fff2c21e787791b1d052","C3","batch3","","","","","","","","","","","","","","","","","","","","","","","","","","","","","",""
"","","","","","instructions","127","1304250","0.0-3.0-1.0-0.0-0.0","6061fff2c21e787791b1d052","C3","batch3","tol-instructions","52847.20000000298","","","","","","","","[{""page_index"":0,""viewing_time"":12435},{""page_index"":1,""viewing_time"":3896.7000000029802},{""page_index"":2,""viewing_time"":4699.399999991059},{""page_index"":3,""viewing_time"":9503.40000000596},{""page_index"":4,""viewing_time"":6021.4000000059605},{""page_index"":5,""viewing_time"":14060.79999999702},{""page_index"":6,""viewing_time"":2230.0999999940395}]","","","","","","","","","","","","","","","","","","","",""
"","","","","","html-button-response","128","1305406","0.0-3.0-1.0-1.0-0.0","6061fff2c21e787791b1d052","C3","batch3","tol_enter_quiz","1154.2000000029802","<p class=block-text> Let's answer a few questions <br>","0","","","","","","","","","","","","","","","","","","","","","","","","","",""
"","","","","","html-button-response","129","1310184","0.0-3.0-1.0-1.0-1.0","6061fff2c21e787791b1d052","C3","batch3","tol_quiz","4777.29999999702","<p class = block-text>True or False: You can only move the ball on top of a peg. <br></p>","1","","","false","","","","","","","","","","","","","","","","","","","","","","",""
"","","","","","html-button-response","130","1313264","0.0-3.0-1.0-1.0-2.0","6061fff2c21e787791b1d052","C3","batch3","tol_quiz_feedback","3077.699999988079","<p class = block-text>Incorrect. Remember, you can only move the ball on top of a peg.</p>","0","","","","","","","","","","","","","","","","","","","","","","","","","",""
"","","","","","html-button-response","131","1318168","0.0-3.0-1.0-1.0-3.0","6061fff2c21e787791b1d052","C3","batch3","tol_quiz","4903.9000000059605","<p class = block-text>True or False: You should try to match your board with the target board with fewest moves possible. <br></p>","0","","","true","","","","","","","","","","","","","","","","","","","","","","",""
"","","","","","html-button-response","132","1319247","0.0-3.0-1.0-1.0-4.0","6061fff2c21e787791b1d052","C3","batch3","tol_quiz_feedback","1078.0999999940395","<p class = block-text>Correct! </p>","0","","","","","","","","","","","","","","","","","","","","","","","","","",""
"","","","","","html-button-response","133","1320569","0.0-3.0-1.0-2.0-0.0","6061fff2c21e787791b1d052","C3","batch3","","1319.300000011921","<p class = block-text>You made too many incorrect choices.</p><p class = block-text>You will now repeat the instructions and quiz</p>","0","","","","","","","","","","","","","","","","","","","","","","","","","",""
"","","","","","instructions","134","1336839","0.0-3.0-1.1-0.1-0.1","6061fff2c21e787791b1d052","C3","batch3","tol-instructions","16269.29999999702","","","","","","","","[{""page_index"":0,""viewing_time"":1851.7999999970198},{""page_index"":1,""viewing_time"":3629.3999999910593},{""page_index"":2,""viewing_time"":1028.7000000029802},{""page_index"":3,""viewing_time"":1413.7999999970198},{""page_index"":4,""viewing_time"":1406.300000011921},{""page_index"":5,""viewing_time"":1163.199999988079},{""page_index"":6,""viewing_time"":5775.800000011921}]","","","","","","","","","","","","","","","","","","","",""
"","","","","","html-button-response","135","1337980","0.0-3.0-1.1-1.1-0.1","6061fff2c21e787791b1d052","C3","batch3","tol_enter_quiz","1140.7999999970198","<p class=block-text> Let's answer a few questions <br>","0","","","","","","","","","","","","","","","","","","","","","","","","","",""
"","","","","","html-button-response","136","1341527","0.0-3.0-1.1-1.1-1.1","6061fff2c21e787791b1d052","C3","batch3","tol_quiz","3546","<p class = block-text>True or False: You can only move the ball on top of a peg. <br></p>","0","","","true","","","","","","","","","","","","","","","","","","","","","","",""
"","","","","","html-button-response","137","1344538","0.0-3.0-1.1-1.1-2.1","6061fff2c21e787791b1d052","C3","batch3","tol_quiz_feedback","3009.5","<p class = block-text>Correct! You can only move the ball on top of a peg.</p>","0","","","","","","","","","","","","","","","","","","","","","","","","","",""
"","","","","","html-button-response","138","1349127","0.0-3.0-1.1-1.1-3.1","6061fff2c21e787791b1d052","C3","batch3","tol_quiz","4588.4000000059605","<p class = block-text>True or False: You should try to match your board with the target board with fewest moves possible. <br></p>","0","","","true","","","","","","","","","","","","","","","","","","","","","","",""
"","","","","","html-button-response","139","1349980","0.0-3.0-1.1-1.1-4.1","6061fff2c21e787791b1d052","C3","batch3","tol_quiz_feedback","851.4000000059605","<p class = block-text>Correct! </p>","0","","","","","","","","","","","","","","","","","","","","","","","","","",""
"","","","","","html-button-response","140","1352712","0.0-3.0-2.0","6061fff2c21e787791b1d052","C3","batch3","","2731.1000000089407","<p class=block-text> Now that you've understood the game, let's practice a few easier examples before we start!<br> <br>","0","","","","","","","","","","","","","","","","","","","","","","","","","",""
"","","","","","single-stim-button","141","1358727","0.0-3.0-3.0-0.0","6061fff2c21e787791b1d052","C3","batch3","tol_practice","6012","","","","","","","","","tol_peg_2","6012","6012","0","[[1,2,0],[0,0],[0]]","1","[[1,2,0],[0,0],[3]]","practice","6012","","","","","","","","","","",""
"","","","","","single-stim-button","142","1360630","0.0-3.0-3.0-1.0","6061fff2c21e787791b1d052","C3","batch3","tol_practice","1903","","","","","","","","","tol_peg_3","1903","1903","0","[[1,2,0],[0,0],[3]]","1","[[1,2,0],[0,0],[3]]","practice","1903","","","","","","","","","","",""
"","","","","","poldrack-single-stim","143","1361634","0.0-3.0-4.0","6061fff2c21e787791b1d052","C3","batch3","tol_feedback","-1","","","","","true","","","","","1000","1000","500","","","","","","-1","none","true","","0","","","","","",""
"","","","","","single-stim-button","144","1366477","0.0-3.0-5.0-0.0","6061fff2c21e787791b1d052","C3","batch3","tol_practice","4841","","","","","","","","","tol_peg_1","4841","4841","0","[[1,0,0],[3,0],[0]]","2","[[0,0,0],[3,1],[2]]","practice","4841","","","","","","","","","","",""
"","","","","","single-stim-button","145","1369354","0.0-3.0-5.0-1.0","6061fff2c21e787791b1d052","C3","batch3","tol_practice","2876","","","","","","","","","tol_peg_3","2876","2876","0","[[1,0,0],[3,0],[2]]","2","[[0,0,0],[3,1],[2]]","practice","2876","","","","","","","","","","",""
"","","","","","single-stim-button","146","1370770","0.0-3.0-5.1-0.1","6061fff2c21e787791b1d052","C3","batch3","tol_practice","1415","","","","","","","","","tol_peg_1","1415","1415","0","[[0,0,0],[3,0],[2]]","3","[[0,0,0],[3,1],[2]]","practice","1415","","","","","","","","","","",""
"","","","","","single-stim-button","147","1372109","0.0-3.0-5.1-1.1","6061fff2c21e787791b1d052","C3","batch3","tol_practice","1339","","","","","","","","","tol_peg_2","1339","1339","0","[[0,0,0],[3,1],[2]]","3","[[0,0,0],[3,1],[2]]","practice","1339","","","","","","","","","","",""
"","","","","","poldrack-single-stim","148","1373110","0.0-3.0-6.0","6061fff2c21e787791b1d052","C3","batch3","tol_feedback","-1","","","","","true","","","","","1000","1000","500","","","","","","-1","none","true","","0","","","","","",""
"","","","","","single-stim-button","149","1377314","0.0-3.0-7.0-0.0","6061fff2c21e787791b1d052","C3","batch3","tol_practice","4202","","","","","","","","","tol_peg_2","4202","4202","0","[[1,2,0],[0,0],[0]]","4","[[1,0,0],[2,0],[3]]","practice","4202","","","","","","","","","","",""
"","","","","","single-stim-button","150","1378722","0.0-3.0-7.0-1.0","6061fff2c21e787791b1d052","C3","batch3","tol_practice","1407","","","","","","","","","tol_peg_3","1407","1407","0","[[1,2,0],[0,0],[3]]","4","[[1,0,0],[2,0],[3]]","practice","1407","","","","","","","","","","",""
"","","","","","single-stim-button","151","1380116","0.0-3.0-7.1-0.1","6061fff2c21e787791b1d052","C3","batch3","tol_practice","1394","","","","","","","","","tol_peg_1","1394","1394","0","[[1,0,0],[0,0],[3]]","5","[[1,0,0],[2,0],[3]]","practice","1394","","","","","","","","","","",""
"","","","","","single-stim-button","152","1381387","0.0-3.0-7.1-1.1","6061fff2c21e787791b1d052","C3","batch3","tol_practice","1270","","","","","","","","","tol_peg_2","1270","1270","0","[[1,0,0],[2,0],[3]]","5","[[1,0,0],[2,0],[3]]","practice","1270","","","","","","","","","","",""
"","","","","","poldrack-single-stim","153","1382402","0.0-3.0-8.0","6061fff2c21e787791b1d052","C3","batch3","tol_feedback","-1","","","","","true","","","","","1000","1000","500","","","","","","-1","none","true","","0","","","","","",""
"","","","","","html-button-response","154","1385778","0.0-3.0-9.0","6061fff2c21e787791b1d052","C3","batch3","tol_instruction","3374.6000000089407","<div class = centerbox><p class = center-block-text>Great job! You are done with practice trials<br>You are about to start official trials.<br> <br> Problem <strong>1</strong> out of 25 problems</p></div>","0","","","","","","","","","","","","","","","","","","","","","","","","","",""
"","","","","","single-stim-button","155","1392836","0.0-3.0-10.0-0.0","6061fff2c21e787791b1d052","C3","batch3","tol_tohand","6052","","","","","","","","","tol_peg_2","6052","6052","0","[[1,2,0],[0,0],[0]]","1","[[1,3,0],[2,0],[0]]","0","0","","","","","","3","","","","",""
"","","","","","single-stim-button","156","1403119","0.0-3.0-10.0-1.0","6061fff2c21e787791b1d052","C3","batch3","tol_toboard","10282","","","","","","","","","tol_peg_1","10282","10282","0","[[1,2,3],[0,0],[0]]","1","[[1,3,0],[2,0],[0]]","0","0","","","","","","3","","","","",""
"","","","","","single-stim-button","157","1408047","0.0-3.0-10.1-0.1","6061fff2c21e787791b1d052","C3","batch3","tol_tohand","4927","","","","","","","","","tol_peg_1","4927","4927","0","[[1,2,0],[0,0],[0]]","2","[[1,3,0],[2,0],[0]]","0","0","","","","","","3","","","","",""
"","","","","","single-stim-button","158","1410359","0.0-3.0-10.1-1.1","6061fff2c21e787791b1d052","C3","batch3","tol_toboard","2311","","","","","","","","","tol_peg_3","2311","2311","0","[[1,2,0],[0,0],[3]]","2","[[1,3,0],[2,0],[0]]","0","0","","","","","","3","","","","",""
"","","","","","single-stim-button","159","1411434","0.0-3.0-10.2-0.2","6061fff2c21e787791b1d052","C3","batch3","tol_tohand","1074","","","","","","","","","tol_peg_1","1074","1074","0","[[1,0,0],[0,0],[3]]","3","[[1,3,0],[2,0],[0]]","0","0","","","","","","3","","","","",""
"","","","","","single-stim-button","160","1412804","0.0-3.0-10.2-1.2","6061fff2c21e787791b1d052","C3","batch3","tol_toboard","1370","","","","","","","","","tol_peg_2","1370","1370","0","[[1,0,0],[2,0],[3]]","3","[[1,3,0],[2,0],[0]]","0","0","","","","","","3","","","","",""
"","","","","","single-stim-button","161","1413948","0.0-3.0-10.3-0.3","6061fff2c21e787791b1d052","C3","batch3","tol_tohand","1142","","","","","","","","","tol_peg_3","1142","1142","0","[[1,0,0],[2,0],[0]]","4","[[1,3,0],[2,0],[0]]","0","0","","","","","","3","","","","",""
"","","","","","single-stim-button","162","1414993","0.0-3.0-10.3-1.3","6061fff2c21e787791b1d052","C3","batch3","tol_toboard","1044","","","","","","","","","tol_peg_1","1044","1044","0","[[1,3,0],[2,0],[0]]","4","[[1,3,0],[2,0],[0]]","0","0","","","","","","3","","","","",""
"","","","","","poldrack-single-stim","163","1415993","0.0-3.0-11.0","6061fff2c21e787791b1d052","C3","batch3","tol_feedback","-1","","","","","true","","","","","1000","1000","500","","","","","","-1","none","true","6052","13195","","","","","",""
"","","","","","html-button-response","164","1417293","0.0-3.0-12.0","6061fff2c21e787791b1d052","C3","batch3","tol_trial_num","1298.6000000089407","<div class = centerbox><p class = center-block-text>problem <strong>2</strong> out of 25 problems</p></div>","0","","","","","","","","","","","","","","","","","","","","","","","","","",""
"","","","","","single-stim-button","165","1434198","0.0-3.0-13.0-0.0","6061fff2c21e787791b1d052","C3","batch3","tol_tohand","16905","","","","","","","","","tol_peg_1","16905","16905","0","[[1,0,0],[3,0],[0]]","1","[[2,1,3],[0,0],[0]]","1","0","","","","","","5","","","","",""
"","","","","","single-stim-button","166","1437660","0.0-3.0-13.0-1.0","6061fff2c21e787791b1d052","C3","batch3","tol_toboard","3460","","","","","","","","","tol_peg_3","3460","3460","0","[[1,0,0],[3,0],[2]]","1","[[2,1,3],[0,0],[0]]","1","0","","","","","","5","","","","",""
"","","","","","single-stim-button","167","1439797","0.0-3.0-13.1-0.1","6061fff2c21e787791b1d052","C3","batch3","tol_tohand","2137","","","","","","","","","tol_peg_1","2137","2137","0","[[0,0,0],[3,0],[2]]","2","[[2,1,3],[0,0],[0]]","1","0","","","","","","5","","","","",""
"","","","","","single-stim-button","168","1446339","0.0-3.0-13.1-1.1","6061fff2c21e787791b1d052","C3","batch3","tol_toboard","6541","","","","","","","","","tol_peg_2","6541","6541","0","[[0,0,0],[3,1],[2]]","2","[[2,1,3],[0,0],[0]]","1","0","","","","","","5","","","","",""
"","","","","","single-stim-button","169","1447443","0.0-3.0-13.2-0.2","6061fff2c21e787791b1d052","C3","batch3","tol_tohand","1103","","","","","","","","","tol_peg_3","1103","1103","0","[[0,0,0],[3,1],[0]]","3","[[2,1,3],[0,0],[0]]","1","0","","","","","","5","","","","",""
"","","","","","single-stim-button","170","1448917","0.0-3.0-13.2-1.2","6061fff2c21e787791b1d052","C3","batch3","tol_toboard","1474","","","","","","","","","tol_peg_1","1474","1474","0","[[2,0,0],[3,1],[0]]","3","[[2,1,3],[0,0],[0]]","1","0","","","","","","5","","","","",""
"","","","","","single-stim-button","171","1449917","0.0-3.0-13.3-0.3","6061fff2c21e787791b1d052","C3","batch3","tol_tohand","998","","","","","","","","","tol_peg_2","998","998","0","[[2,0,0],[3,0],[0]]","4","[[2,1,3],[0,0],[0]]","1","0","","","","","","5","","","","",""
"","","","","","single-stim-button","172","1450902","0.0-3.0-13.3-1.3","6061fff2c21e787791b1d052","C3","batch3","tol_toboard","984","","","","","","","","","tol_peg_1","984","984","0","[[2,1,0],[3,0],[0]]","4","[[2,1,3],[0,0],[0]]","1","0","","","","","","5","","","","",""
"","","","","","single-stim-button","173","1452044","0.0-3.0-13.4-0.4","6061fff2c21e787791b1d052","C3","batch3","tol_tohand","1142","","","","","","","","","tol_peg_2","1142","1142","0","[[2,1,0],[0,0],[0]]","5","[[2,1,3],[0,0],[0]]","1","0","","","","","","5","","","","",""
"","","","","","single-stim-button","174","1452945","0.0-3.0-13.4-1.4","6061fff2c21e787791b1d052","C3","batch3","tol_toboard","900","","","","","","","","","tol_peg_1","900","900","0","[[2,1,3],[0,0],[0]]","5","[[2,1,3],[0,0],[0]]","1","0","","","","","","5","","","","",""
"","","","","","poldrack-single-stim","175","1453946","0.0-3.0-14.0","6061fff2c21e787791b1d052","C3","batch3","tol_feedback","-1","","","","","true","","","","","1000","1000","500","","","","","","-1","none","true","16905","22285","","","","","",""
"","","","","","html-button-response","176","1455293","0.0-3.0-15.0","6061fff2c21e787791b1d052","C3","batch3","tol_trial_num","1345.7999999970198","<div class = centerbox><p class = center-block-text>problem <strong>3</strong> out of 25 problems</p></div>","0","","","","","","","","","","","","","","","","","","","","","","","","","",""
"","","","","","single-stim-button","177","1465126","0.0-3.0-16.0-0.0","6061fff2c21e787791b1d052","C3","batch3","tol_tohand","9833","","","","","","","","","tol_peg_1","9833","9833","0","[[2,0,0],[0,0],[1]]","1","[[1,2,0],[3,0],[0]]","2","0","","","","","","4","","","","",""
"","","","","","single-stim-button","178","1466352","0.0-3.0-16.0-1.0","6061fff2c21e787791b1d052","C3","batch3","tol_toboard","1225","","","","","","","","","tol_peg_2","1225","1225","0","[[2,0,0],[3,0],[1]]","1","[[1,2,0],[3,0],[0]]","2","0","","","","","","4","","","","",""
"","","","","","single-stim-button","179","1470027","0.0-3.0-16.1-0.1","6061fff2c21e787791b1d052","C3","batch3","tol_tohand","3673","","","","","","","","","tol_peg_3","3673","3673","0","[[2,0,0],[3,0],[0]]","2","[[1,2,0],[3,0],[0]]","2","0","","","","","","4","","","","",""
"","","","","","single-stim-button","180","1471412","0.0-3.0-16.1-1.1","6061fff2c21e787791b1d052","C3","batch3","tol_toboard","1385","","","","","","","","","tol_peg_2","1385","1385","0","[[2,0,0],[3,1],[0]]","2","[[1,2,0],[3,0],[0]]","2","0","","","","","","4","","","","",""
"","","","","","single-stim-button","181","1474470","0.0-3.0-16.2-0.2","6061fff2c21e787791b1d052","C3","batch3","tol_tohand","3056","","","","","","","","","tol_peg_1","3056","3056","0","[[0,0,0],[3,1],[0]]","3","[[1,2,0],[3,0],[0]]","2","0","","","","","","4","","","","",""
"","","","","","single-stim-button","182","1478575","0.0-3.0-16.2-1.2","6061fff2c21e787791b1d052","C3","batch3","tol_toboard","4104","","","","","","","","","tol_peg_3","4104","4104","0","[[0,0,0],[3,1],[2]]","3","[[1,2,0],[3,0],[0]]","2","0","","","","","","4","","","","",""
"","","","","","single-stim-button","183","1480886","0.0-3.0-16.3-0.3","6061fff2c21e787791b1d052","C3","batch3","tol_tohand","2311","","","","","","","","","tol_peg_2","2311","2311","0","[[0,0,0],[3,0],[2]]","4","[[1,2,0],[3,0],[0]]","2","0","","","","","","4","","","","",""
"","","","","","single-stim-button","184","1481916","0.0-3.0-16.3-1.3","6061fff2c21e787791b1d052","C3","batch3","tol_toboard","1029","","","","","","","","","tol_peg_1","1029","1029","0","[[1,0,0],[3,0],[2]]","4","[[1,2,0],[3,0],[0]]","2","0","","","","","","4","","","","",""
"","","","","","single-stim-button","185","1482954","0.0-3.0-16.4-0.4","6061fff2c21e787791b1d052","C3","batch3","tol_tohand","1037","","","","","","","","","tol_peg_3","1037","1037","0","[[1,0,0],[3,0],[0]]","5","[[1,2,0],[3,0],[0]]","2","0","","","","","","4","","","","",""
"","","","","","single-stim-button","186","1484022","0.0-3.0-16.4-1.4","6061fff2c21e787791b1d052","C3","batch3","tol_toboard","1067","","","","","","","","","tol_peg_1","1067","1067","0","[[1,2,0],[3,0],[0]]","5","[[1,2,0],[3,0],[0]]","2","0","","","","","","4","","","","",""
"","","","","","poldrack-single-stim","187","1485036","0.0-3.0-17.0","6061fff2c21e787791b1d052","C3","batch3","tol_feedback","-1","","","","","true","","","","","1000","1000","500","","","","","","-1","none","true","9833","19910","","","","","",""
"","","","","","html-button-response","188","1486375","0.0-3.0-18.0","6061fff2c21e787791b1d052","C3","batch3","tol_trial_num","1338.3999999910593","<div class = centerbox><p class = center-block-text>problem <strong>4</strong> out of 25 problems</p></div>","0","","","","","","","","","","","","","","","","","","","","","","","","","",""
"","","","","","single-stim-button","189","1492333","0.0-3.0-19.0-0.0","6061fff2c21e787791b1d052","C3","batch3","tol_tohand","5957","","","","","","","","","tol_peg_2","5957","5957","0","[[3,0,0],[2,0],[0]]","1","[[3,0,0],[1,0],[2]]","3","0","","","","","","3","","","","",""
"","","","","","single-stim-button","190","1496717","0.0-3.0-19.0-1.0","6061fff2c21e787791b1d052","C3","batch3","tol_toboard","4383","","","","","","","","","tol_peg_1","4383","4383","0","[[3,1,0],[2,0],[0]]","1","[[3,0,0],[1,0],[2]]","3","0","","","","","","3","","","","",""
"","","","","","single-stim-button","191","1497951","0.0-3.0-19.1-0.1","6061fff2c21e787791b1d052","C3","batch3","tol_tohand","1233","","","","","","","","","tol_peg_2","1233","1233","0","[[3,1,0],[0,0],[0]]","2","[[3,0,0],[1,0],[2]]","3","0","","","","","","3","","","","",""
"","","","","","single-stim-button","192","1499025","0.0-3.0-19.1-1.1","6061fff2c21e787791b1d052","C3","batch3","tol_toboard","1073","","","","","","","","","tol_peg_3","1073","1073","0","[[3,1,0],[0,0],[2]]","2","[[3,0,0],[1,0],[2]]","3","0","","","","","","3","","","","",""
"","","","","","single-stim-button","193","1500223","0.0-3.0-19.2-0.2","6061fff2c21e787791b1d052","C3","batch3","tol_tohand","1198","","","","","","","","","tol_peg_1","1198","1198","0","[[3,0,0],[0,0],[2]]","3","[[3,0,0],[1,0],[2]]","3","0","","","","","","3","","","","",""
"","","","","","single-stim-button","194","1501276","0.0-3.0-19.2-1.2","6061fff2c21e787791b1d052","C3","batch3","tol_toboard","1051","","","","","","","","","tol_peg_2","1051","1051","0","[[3,0,0],[1,0],[2]]","3","[[3,0,0],[1,0],[2]]","3","0","","","","","","3","","","","",""
"","","","","","poldrack-single-stim","195","1502279","0.0-3.0-20.0","6061fff2c21e787791b1d052","C3","batch3","tol_feedback","-1","","","","","true","","","","","1000","1000","500","","","","","","-1","none","true","5957","8388","","","","","",""
"","","","","","html-button-response","196","1503507","0.0-3.0-21.0","6061fff2c21e787791b1d052","C3","batch3","tol_trial_num","1227","<div class = centerbox><p class = center-block-text>problem <strong>5</strong> out of 25 problems</p></div>","0","","","","","","","","","","","","","","","","","","","","","","","","","",""
"","","","","","single-stim-button","197","1520267","0.0-3.0-22.0-0.0","6061fff2c21e787791b1d052","C3","batch3","tol_tohand","16759","","","","","","","","","tol_peg_1","16759","16759","0","[[0,0,0],[2,0],[3]]","1","[[0,0,0],[1,2],[3]]","4","0","","","","","","7","","","","",""
"","","","","","single-stim-button","198","1528087","0.0-3.0-22.0-1.0","6061fff2c21e787791b1d052","C3","batch3","tol_toboard","7818","","","","","","","","","tol_peg_1","7818","7818","0","[[1,0,0],[2,0],[3]]","1","[[0,0,0],[1,2],[3]]","4","0","","","","","","7","","","","",""
"","","","","","single-stim-button","199","1529100","0.0-3.0-22.1-0.1","6061fff2c21e787791b1d052","C3","batch3","tol_tohand","1013","","","","","","","","","tol_peg_2","1013","1013","0","[[1,0,0],[0,0],[3]]","2","[[0,0,0],[1,2],[3]]","4","0","","","","","","7","","","","",""
"","","","","","single-stim-button","200","1535697","0.0-3.0-22.1-1.1","6061fff2c21e787791b1d052","C3","batch3","tol_toboard","6597","","","","","","","","","tol_peg_1","6597","6597","0","[[1,2,0],[0,0],[3]]","2","[[0,0,0],[1,2],[3]]","4","0","","","","","","7","","","","",""
"","","","","","single-stim-button","201","1539702","0.0-3.0-22.2-0.2","6061fff2c21e787791b1d052","C3","batch3","tol_tohand","4004","","","","","","","","","tol_peg_3","4004","4004","0","[[1,2,0],[0,0],[0]]","3","[[0,0,0],[1,2],[3]]","4","0","","","","","","7","","","","",""
"","","","","","single-stim-button","202","1540717","0.0-3.0-22.2-1.2","6061fff2c21e787791b1d052","C3","batch3","tol_toboard","1014","","","","","","","","","tol_peg_2","1014","1014","0","[[1,2,0],[3,0],[0]]","3","[[0,0,0],[1,2],[3]]","4","0","","","","","","7","","","","",""
"","","","","","single-stim-button","203","1542321","0.0-3.0-22.3-0.3","6061fff2c21e787791b1d052","C3","batch3","tol_tohand","1602","","","","","","","","","tol_peg_1","1602","1602","0","[[1,0,0],[3,0],[0]]","4","[[0,0,0],[1,2],[3]]","4","0","","","","","","7","","","","",""
"","","","","","single-stim-button","204","1543585","0.0-3.0-22.3-1.3","6061fff2c21e787791b1d052","C3","batch3","tol_toboard","1264","","","","","","","","","tol_peg_3","1264","1264","0","[[1,0,0],[3,0],[2]]","4","[[0,0,0],[1,2],[3]]","4","0","","","","","","7","","","","",""
"","","","","","single-stim-button","205","1558167","0.0-3.0-22.4-0.4","6061fff2c21e787791b1d052","C3","batch3","tol_tohand","14580","","","","","","","","","tol_peg_2","14580","14580","0","[[1,0,0],[0,0],[2]]","5","[[0,0,0],[1,2],[3]]","4","0","","","","","","7","","","","",""
"","","","","","single-stim-button","206","1559227","0.0-3.0-22.4-1.4","6061fff2c21e787791b1d052","C3","batch3","tol_toboard","1058","","","","","","","","","tol_peg_1","1058","1058","0","[[1,3,0],[0,0],[2]]","5","[[0,0,0],[1,2],[3]]","4","0","","","","","","7","","","","",""
"","","","","","single-stim-button","207","1560282","0.0-3.0-22.5-0.5","6061fff2c21e787791b1d052","C3","batch3","tol_tohand","1055","","","","","","","","","tol_peg_1","1055","1055","0","[[1,0,0],[0,0],[2]]","6","[[0,0,0],[1,2],[3]]","4","0","","","","","","7","","","","",""
"","","","","","single-stim-button","208","1567717","0.0-3.0-22.5-1.5","6061fff2c21e787791b1d052","C3","batch3","tol_toboard","7434","","","","","","","","","tol_peg_2","7434","7434","0","[[1,0,0],[3,0],[2]]","6","[[0,0,0],[1,2],[3]]","4","0","","","","","","7","","","","",""
"","","","","","single-stim-button","209","1570137","0.0-3.0-22.6-0.6","6061fff2c21e787791b1d052","C3","batch3","tol_tohand","2418","","","","","","","","","tol_peg_3","2418","2418","0","[[1,0,0],[3,0],[0]]","7","[[0,0,0],[1,2],[3]]","4","0","","","","","","7","","","","",""
"","","","","","single-stim-button","210","1573859","0.0-3.0-22.6-1.6","6061fff2c21e787791b1d052","C3","batch3","tol_toboard","3721","","","","","","","","","tol_peg_1","3721","3721","0","[[1,2,0],[3,0],[0]]","7","[[0,0,0],[1,2],[3]]","4","0","","","","","","7","","","","",""
"","","","","","single-stim-button","211","1578177","0.0-3.0-22.7-0.7","6061fff2c21e787791b1d052","C3","batch3","tol_tohand","4317","","","","","","","","","tol_peg_2","4317","4317","0","[[1,2,0],[0,0],[0]]","8","[[0,0,0],[1,2],[3]]","4","0","","","","","","7","","","","",""
"","","","","","single-stim-button","212","1580337","0.0-3.0-22.7-1.7","6061fff2c21e787791b1d052","C3","batch3","tol_toboard","2160","","","","","","","","","tol_peg_3","2160","2160","0","[[1,2,0],[0,0],[3]]","8","[[0,0,0],[1,2],[3]]","4","0","","","","","","7","","","","",""
"","","","","","single-stim-button","213","1582552","0.0-3.0-22.8-0.8","6061fff2c21e787791b1d052","C3","batch3","tol_tohand","2214","","","","","","","","","tol_peg_1","2214","2214","0","[[1,0,0],[0,0],[3]]","9","[[0,0,0],[1,2],[3]]","4","0","","","","","","7","","","","",""
"","","","","","single-stim-button","214","1589133","0.0-3.0-22.8-1.8","6061fff2c21e787791b1d052","C3","batch3","tol_toboard","6580","","","","","","","","","tol_peg_2","6580","6580","0","[[1,0,0],[2,0],[3]]","9","[[0,0,0],[1,2],[3]]","4","0","","","","","","7","","","","",""
"","","","","","single-stim-button","215","1591292","0.0-3.0-22.9-0.9","6061fff2c21e787791b1d052","C3","batch3","tol_tohand","2158","","","","","","","","","tol_peg_1","2158","2158","0","[[0,0,0],[2,0],[3]]","10","[[0,0,0],[1,2],[3]]","4","0","","","","","","7","","","","",""
"","","","","","single-stim-button","216","1596406","0.0-3.0-22.9-1.9","6061fff2c21e787791b1d052","C3","batch3","tol_toboard","5113","","","","","","","","","tol_peg_2","5113","5113","0","[[0,0,0],[2,1],[3]]","10","[[0,0,0],[1,2],[3]]","4","0","","","","","","7","","","","",""
"","","","","","single-stim-button","217","1597836","0.0-3.0-22.10-0.10","6061fff2c21e787791b1d052","C3","batch3","tol_tohand","1429","","","","","","","","","tol_peg_3","1429","1429","0","[[0,0,0],[2,1],[0]]","11","[[0,0,0],[1,2],[3]]","4","0","","","","","","7","","","","",""
"","","","","","single-stim-button","218","1599290","0.0-3.0-22.10-1.10","6061fff2c21e787791b1d052","C3","batch3","tol_toboard","1454","","","","","","","","","tol_peg_1","1454","1454","0","[[3,0,0],[2,1],[0]]","11","[[0,0,0],[1,2],[3]]","4","0","","","","","","7","","","","",""
"","","","","","single-stim-button","219","1601805","0.0-3.0-22.11-0.11","6061fff2c21e787791b1d052","C3","batch3","tol_tohand","2513","","","","","","","","","tol_peg_2","2513","2513","0","[[3,0,0],[2,0],[0]]","12","[[0,0,0],[1,2],[3]]","4","0","","","","","","7","","","","",""
"","","","","","single-stim-button","220","1603258","0.0-3.0-22.11-1.11","6061fff2c21e787791b1d052","C3","batch3","tol_toboard","1453","","","","","","","","","tol_peg_3","1453","1453","0","[[3,0,0],[2,0],[1]]","12","[[0,0,0],[1,2],[3]]","4","0","","","","","","7","","","","",""
"","","","","","single-stim-button","221","1604113","0.0-3.0-22.12-0.12","6061fff2c21e787791b1d052","C3","batch3","tol_tohand","854","","","","","","","","","tol_peg_2","854","854","0","[[3,0,0],[0,0],[1]]","13","[[0,0,0],[1,2],[3]]","4","0","","","","","","7","","","","",""
"","","","","","single-stim-button","222","1605522","0.0-3.0-22.12-1.12","6061fff2c21e787791b1d052","C3","batch3","tol_toboard","1409","","","","","","","","","tol_peg_1","1409","1409","0","[[3,2,0],[0,0],[1]]","13","[[0,0,0],[1,2],[3]]","4","0","","","","","","7","","","","",""
"","","","","","single-stim-button","223","1606658","0.0-3.0-22.13-0.13","6061fff2c21e787791b1d052","C3","batch3","tol_tohand","1136","","","","","","","","","tol_peg_3","1136","1136","0","[[3,2,0],[0,0],[0]]","14","[[0,0,0],[1,2],[3]]","4","0","","","","","","7","","","","",""
"","","","","","single-stim-button","224","1607544","0.0-3.0-22.13-1.13","6061fff2c21e787791b1d052","C3","batch3","tol_toboard","885","","","","","","","","","tol_peg_2","885","885","0","[[3,2,0],[1,0],[0]]","14","[[0,0,0],[1,2],[3]]","4","0","","","","","","7","","","","",""
"","","","","","single-stim-button","225","1608445","0.0-3.0-22.14-0.14","6061fff2c21e787791b1d052","C3","batch3","tol_tohand","901","","","","","","","","","tol_peg_1","901","901","0","[[3,0,0],[1,0],[0]]","15","[[0,0,0],[1,2],[3]]","4","0","","","","","","7","","","","",""
"","","","","","single-stim-button","226","1609325","0.0-3.0-22.14-1.14","6061fff2c21e787791b1d052","C3","batch3","tol_toboard","878","","","","","","","","","tol_peg_2","878","878","0","[[3,0,0],[1,2],[0]]","15","[[0,0,0],[1,2],[3]]","4","0","","","","","","7","","","","",""
"","","","","","single-stim-button","227","1610112","0.0-3.0-22.15-0.15","6061fff2c21e787791b1d052","C3","batch3","tol_tohand","787","","","","","","","","","tol_peg_1","787","787","0","[[0,0,0],[1,2],[0]]","16","[[0,0,0],[1,2],[3]]","4","0","","","","","","7","","","","",""
"","","","","","single-stim-button","228","1611528","0.0-3.0-22.15-1.15","6061fff2c21e787791b1d052","C3","batch3","tol_toboard","1416","","","","","","","","","tol_peg_3","1416","1416","0","[[0,0,0],[1,2],[3]]","16","[[0,0,0],[1,2],[3]]","4","0","","","","","","7","","","","",""
"","","","","","poldrack-single-stim","229","1612537","0.0-3.0-23.0","6061fff2c21e787791b1d052","C3","batch3","tol_feedback","-1","","","","","true","","","","","1000","1000","500","","","","","","-1","none","true","16759","57740","","","","","",""
"","","","","","html-button-response","230","1613569","0.0-3.0-24.0","6061fff2c21e787791b1d052","C3","batch3","tol_trial_num","1030.8999999910593","<div class = centerbox><p class = center-block-text>problem <strong>6</strong> out of 25 problems</p></div>","0","","","","","","","","","","","","","","","","","","","","","","","","","",""
"","","","","","single-stim-button","231","1628342","0.0-3.0-25.0-0.0","6061fff2c21e787791b1d052","C3","batch3","tol_tohand","14773","","","","","","","","","tol_peg_3","14773","14773","0","[[0,0,0],[1,2],[0]]","1","[[1,0,0],[2,3],[0]]","5","0","","","","","","6","","","","",""
"","","","","","single-stim-button","232","1630158","0.0-3.0-25.0-1.0","6061fff2c21e787791b1d052","C3","batch3","tol_toboard","1815","","","","","","","","","tol_peg_1","1815","1815","0","[[3,0,0],[1,2],[0]]","1","[[1,0,0],[2,3],[0]]","5","0","","","","","","6","","","","",""
"","","","","","single-stim-button","233","1631362","0.0-3.0-25.1-0.1","6061fff2c21e787791b1d052","C3","batch3","tol_tohand","1203","","","","","","","","","tol_peg_2","1203","1203","0","[[3,0,0],[1,0],[0]]","2","[[1,0,0],[2,3],[0]]","5","0","","","","","","6","","","","",""
"","","","","","single-stim-button","234","1632605","0.0-3.0-25.1-1.1","6061fff2c21e787791b1d052","C3","batch3","tol_toboard","1243","","","","","","","","","tol_peg_3","1243","1243","0","[[3,0,0],[1,0],[2]]","2","[[1,0,0],[2,3],[0]]","5","0","","","","","","6","","","","",""
"","","","","","single-stim-button","235","1633649","0.0-3.0-25.2-0.2","6061fff2c21e787791b1d052","C3","batch3","tol_tohand","1044","","","","","","","","","tol_peg_2","1044","1044","0","[[3,0,0],[0,0],[2]]","3","[[1,0,0],[2,3],[0]]","5","0","","","","","","6","","","","",""
"","","","","","single-stim-button","236","1635960","0.0-3.0-25.2-1.2","6061fff2c21e787791b1d052","C3","batch3","tol_toboard","2310","","","","","","","","","tol_peg_1","2310","2310","0","[[3,1,0],[0,0],[2]]","3","[[1,0,0],[2,3],[0]]","5","0","","","","","","6","","","","",""
"","","","","","single-stim-button","237","1637361","0.0-3.0-25.3-0.3","6061fff2c21e787791b1d052","C3","batch3","tol_tohand","1400","","","","","","","","","tol_peg_3","1400","1400","0","[[3,1,0],[0,0],[0]]","4","[[1,0,0],[2,3],[0]]","5","0","","","","","","6","","","","",""
"","","","","","single-stim-button","238","1638263","0.0-3.0-25.3-1.3","6061fff2c21e787791b1d052","C3","batch3","tol_toboard","901","","","","","","","","","tol_peg_2","901","901","0","[[3,1,0],[2,0],[0]]","4","[[1,0,0],[2,3],[0]]","5","0","","","","","","6","","","","",""
"","","","","","single-stim-button","239","1639239","0.0-3.0-25.4-0.4","6061fff2c21e787791b1d052","C3","batch3","tol_tohand","975","","","","","","","","","tol_peg_1","975","975","0","[[3,0,0],[2,0],[0]]","5","[[1,0,0],[2,3],[0]]","5","0","","","","","","6","","","","",""
"","","","","","single-stim-button","240","1641400","0.0-3.0-25.4-1.4","6061fff2c21e787791b1d052","C3","batch3","tol_toboard","2160","","","","","","","","","tol_peg_3","2160","2160","0","[[3,0,0],[2,0],[1]]","5","[[1,0,0],[2,3],[0]]","5","0","","","","","","6","","","","",""
"","","","","","single-stim-button","241","1642339","0.0-3.0-25.5-0.5","6061fff2c21e787791b1d052","C3","batch3","tol_tohand","939","","","","","","","","","tol_peg_1","939","939","0","[[0,0,0],[2,0],[1]]","6","[[1,0,0],[2,3],[0]]","5","0","","","","","","6","","","","",""
"","","","","","single-stim-button","242","1643393","0.0-3.0-25.5-1.5","6061fff2c21e787791b1d052","C3","batch3","tol_toboard","1054","","","","","","","","","tol_peg_2","1054","1054","0","[[0,0,0],[2,3],[1]]","6","[[1,0,0],[2,3],[0]]","5","0","","","","","","6","","","","",""
"","","","","","single-stim-button","243","1644151","0.0-3.0-25.6-0.6","6061fff2c21e787791b1d052","C3","batch3","tol_tohand","757","","","","","","","","","tol_peg_3","757","757","0","[[0,0,0],[2,3],[0]]","7","[[1,0,0],[2,3],[0]]","5","0","","","","","","6","","","","",""
"","","","","","single-stim-button","244","1645295","0.0-3.0-25.6-1.6","6061fff2c21e787791b1d052","C3","batch3","tol_toboard","1143","","","","","","","","","tol_peg_1","1143","1143","0","[[1,0,0],[2,3],[0]]","7","[[1,0,0],[2,3],[0]]","5","0","","","","","","6","","","","",""
"","","","","","poldrack-single-stim","245","1646300","0.0-3.0-26.0","6061fff2c21e787791b1d052","C3","batch3","tol_feedback","-1","","","","","true","","","","","1000","1000","500","","","","","","-1","none","true","14773","21091","","","","","",""
"","","","","","html-button-response","246","1647547","0.0-3.0-27.0","6061fff2c21e787791b1d052","C3","batch3","tol_trial_num","1246.1000000089407","<div class = centerbox><p class = center-block-text>problem <strong>7</strong> out of 25 problems</p></div>","0","","","","","","","","","","","","","","","","","","","","","","","","","",""
"","","","","","single-stim-button","247","1658801","0.0-3.0-28.0-0.0","6061fff2c21e787791b1d052","C3","batch3","tol_tohand","11253","","","","","","","","","tol_peg_3","11253","11253","0","[[2,1,0],[0,0],[0]]","1","[[1,2,0],[3,0],[0]]","6","0","","","","","","5","","","","",""
"","","","","","single-stim-button","248","1659929","0.0-3.0-28.0-1.0","6061fff2c21e787791b1d052","C3","batch3","tol_toboard","1128","","","","","","","","","tol_peg_2","1128","1128","0","[[2,1,0],[3,0],[0]]","1","[[1,2,0],[3,0],[0]]","6","0","","","","","","5","","","","",""
"","","","","","single-stim-button","249","1660822","0.0-3.0-28.1-0.1","6061fff2c21e787791b1d052","C3","batch3","tol_tohand","893","","","","","","","","","tol_peg_1","893","893","0","[[2,0,0],[3,0],[0]]","2","[[1,2,0],[3,0],[0]]","6","0","","","","","","5","","","","",""
"","","","","","single-stim-button","250","1663394","0.0-3.0-28.1-1.1","6061fff2c21e787791b1d052","C3","batch3","tol_toboard","2571","","","","","","","","","tol_peg_3","2571","2571","0","[[2,0,0],[3,0],[1]]","2","[[1,2,0],[3,0],[0]]","6","0","","","","","","5","","","","",""
"","","","","","single-stim-button","251","1664552","0.0-3.0-28.2-0.2","6061fff2c21e787791b1d052","C3","batch3","tol_tohand","1157","","","","","","","","","tol_peg_1","1157","1157","0","[[0,0,0],[3,0],[1]]","3","[[1,2,0],[3,0],[0]]","6","0","","","","","","5","","","","",""
"","","","","","single-stim-button","252","1665598","0.0-3.0-28.2-1.2","6061fff2c21e787791b1d052","C3","batch3","tol_toboard","1046","","","","","","","","","tol_peg_2","1046","1046","0","[[0,0,0],[3,2],[1]]","3","[[1,2,0],[3,0],[0]]","6","0","","","","","","5","","","","",""
"","","","","","single-stim-button","253","1666528","0.0-3.0-28.3-0.3","6061fff2c21e787791b1d052","C3","batch3","tol_tohand","930","","","","","","","","","tol_peg_3","930","930","0","[[0,0,0],[3,2],[0]]","4","[[1,2,0],[3,0],[0]]","6","0","","","","","","5","","","","",""
"","","","","","single-stim-button","254","1667528","0.0-3.0-28.3-1.3","6061fff2c21e787791b1d052","C3","batch3","tol_toboard","999","","","","","","","","","tol_peg_1","999","999","0","[[1,0,0],[3,2],[0]]","4","[[1,2,0],[3,0],[0]]","6","0","","","","","","5","","","","",""
"","","","","","single-stim-button","255","1669301","0.0-3.0-28.4-0.4","6061fff2c21e787791b1d052","C3","batch3","tol_tohand","1772","","","","","","","","","tol_peg_2","1772","1772","0","[[1,0,0],[3,0],[0]]","5","[[1,2,0],[3,0],[0]]","6","0","","","","","","5","","","","",""
"","","","","","single-stim-button","256","1670141","0.0-3.0-28.4-1.4","6061fff2c21e787791b1d052","C3","batch3","tol_toboard","839","","","","","","","","","tol_peg_1","839","839","0","[[1,2,0],[3,0],[0]]","5","[[1,2,0],[3,0],[0]]","6","0","","","","","","5","","","","",""
"","","","","","poldrack-single-stim","257","1671149","0.0-3.0-29.0","6061fff2c21e787791b1d052","C3","batch3","tol_feedback","-1","","","","","true","","","","","1000","1000","500","","","","","","-1","none","true","11253","16005","","","","","",""
"","","","","","html-button-response","258","1672386","0.0-3.0-30.0","6061fff2c21e787791b1d052","C3","batch3","tol_trial_num","1235.5999999940395","<div class = centerbox><p class = center-block-text>problem <strong>8</strong> out of 25 problems</p></div>","0","","","","","","","","","","","","","","","","","","","","","","","","","",""
"","","","","","single-stim-button","259","1680052","0.0-3.0-31.0-0.0","6061fff2c21e787791b1d052","C3","batch3","tol_tohand","7665","","","","","","","","","tol_peg_3","7665","7665","0","[[0,0,0],[2,3],[0]]","1","[[1,2,0],[3,0],[0]]","7","0","","","","","","4","","","","",""
"","","","","","single-stim-button","260","1681416","0.0-3.0-31.0-1.0","6061fff2c21e787791b1d052","C3","batch3","tol_toboard","1362","","","","","","","","","tol_peg_1","1362","1362","0","[[1,0,0],[2,3],[0]]","1","[[1,2,0],[3,0],[0]]","7","0","","","","","","4","","","","",""
"","","","","","single-stim-button","261","1682733","0.0-3.0-31.1-0.1","6061fff2c21e787791b1d052","C3","batch3","tol_tohand","1317","","","","","","","","","tol_peg_2","1317","1317","0","[[1,0,0],[2,0],[0]]","2","[[1,2,0],[3,0],[0]]","7","0","","","","","","4","","","","",""
"","","","","","single-stim-button","262","1683832","0.0-3.0-31.1-1.1","6061fff2c21e787791b1d052","C3","batch3","tol_toboard","1099","","","","","","","","","tol_peg_3","1099","1099","0","[[1,0,0],[2,0],[3]]","2","[[1,2,0],[3,0],[0]]","7","0","","","","","","4","","","","",""
"","","","","","single-stim-button","263","1684597","0.0-3.0-31.2-0.2","6061fff2c21e787791b1d052","C3","batch3","tol_tohand","764","","","","","","","","","tol_peg_2","764","764","0","[[1,0,0],[0,0],[3]]","3","[[1,2,0],[3,0],[0]]","7","0","","","","","","4","","","","",""
"","","","","","single-stim-button","264","1685870","0.0-3.0-31.2-1.2","6061fff2c21e787791b1d052","C3","batch3","tol_toboard","1273","","","","","","","","","tol_peg_1","1273","1273","0","[[1,2,0],[0,0],[3]]","3","[[1,2,0],[3,0],[0]]","7","0","","","","","","4","","","","",""
"","","","","","single-stim-button","265","1686877","0.0-3.0-31.3-0.3","6061fff2c21e787791b1d052","C3","batch3","tol_tohand","1006","","","","","","","","","tol_peg_3","1006","1006","0","[[1,2,0],[0,0],[0]]","4","[[1,2,0],[3,0],[0]]","7","0","","","","","","4","","","","",""
"","","","","","single-stim-button","266","1687832","0.0-3.0-31.3-1.3","6061fff2c21e787791b1d052","C3","batch3","tol_toboard","955","","","","","","","","","tol_peg_2","955","955","0","[[1,2,0],[3,0],[0]]","4","[[1,2,0],[3,0],[0]]","7","0","","","","","","4","","","","",""
"","","","","","poldrack-single-stim","267","1688833","0.0-3.0-32.0","6061fff2c21e787791b1d052","C3","batch3","tol_feedback","-1","","","","","true","","","","","1000","1000","500","","","","","","-1","none","true","7665","10752","","","","","",""
"","","","","","html-button-response","268","1689813","0.0-3.0-33.0","6061fff2c21e787791b1d052","C3","batch3","tol_trial_num","978.7000000029802","<div class = centerbox><p class = center-block-text>problem <strong>9</strong> out of 25 problems</p></div>","0","","","","","","","","","","","","","","","","","","","","","","","","","",""
"","","","","","single-stim-button","269","1703011","0.0-3.0-34.0-0.0","6061fff2c21e787791b1d052","C3","batch3","tol_tohand","13198","","","","","","","","","tol_peg_3","13198","13198","0","[[3,2,0],[0,0],[0]]","1","[[2,1,0],[3,0],[0]]","8","0","","","","","","6","","","","",""
"","","","","","single-stim-button","270","1704155","0.0-3.0-34.0-1.0","6061fff2c21e787791b1d052","C3","batch3","tol_toboard","1142","","","","","","","","","tol_peg_2","1142","1142","0","[[3,2,0],[1,0],[0]]","1","[[2,1,0],[3,0],[0]]","8","0","","","","","","6","","","","",""
"","","","","","single-stim-button","271","1707628","0.0-3.0-34.1-0.1","6061fff2c21e787791b1d052","C3","batch3","tol_tohand","3472","","","","","","","","","tol_peg_1","3472","3472","0","[[3,0,0],[1,0],[0]]","2","[[2,1,0],[3,0],[0]]","8","0","","","","","","6","","","","",""
"","","","","","single-stim-button","272","1712750","0.0-3.0-34.1-1.1","6061fff2c21e787791b1d052","C3","batch3","tol_toboard","5122","","","","","","","","","tol_peg_3","5122","5122","0","[[3,0,0],[1,0],[2]]","2","[[2,1,0],[3,0],[0]]","8","0","","","","","","6","","","","",""
"","","","","","single-stim-button","273","1716671","0.0-3.0-34.2-0.2","6061fff2c21e787791b1d052","C3","batch3","tol_tohand","3921","","","","","","","","","tol_peg_1","3921","3921","0","[[0,0,0],[1,0],[2]]","3","[[2,1,0],[3,0],[0]]","8","0","","","","","","6","","","","",""
"","","","","","single-stim-button","274","1717747","0.0-3.0-34.2-1.2","6061fff2c21e787791b1d052","C3","batch3","tol_toboard","1075","","","","","","","","","tol_peg_2","1075","1075","0","[[0,0,0],[1,3],[2]]","3","[[2,1,0],[3,0],[0]]","8","0","","","","","","6","","","","",""
"","","","","","single-stim-button","275","1718831","0.0-3.0-34.3-0.3","6061fff2c21e787791b1d052","C3","batch3","tol_tohand","1084","","","","","","","","","tol_peg_3","1084","1084","0","[[0,0,0],[1,3],[0]]","4","[[2,1,0],[3,0],[0]]","8","0","","","","","","6","","","","",""
"","","","","","single-stim-button","276","1720188","0.0-3.0-34.3-1.3","6061fff2c21e787791b1d052","C3","batch3","tol_toboard","1357","","","","","","","","","tol_peg_1","1357","1357","0","[[2,0,0],[1,3],[0]]","4","[[2,1,0],[3,0],[0]]","8","0","","","","","","6","","","","",""
"","","","","","single-stim-button","277","1721262","0.0-3.0-34.4-0.4","6061fff2c21e787791b1d052","C3","batch3","tol_tohand","1073","","","","","","","","","tol_peg_2","1073","1073","0","[[2,0,0],[1,0],[0]]","5","[[2,1,0],[3,0],[0]]","8","0","","","","","","6","","","","",""
"","","","","","single-stim-button","278","1722747","0.0-3.0-34.4-1.4","6061fff2c21e787791b1d052","C3","batch3","tol_toboard","1485","","","","","","","","","tol_peg_3","1485","1485","0","[[2,0,0],[1,0],[3]]","5","[[2,1,0],[3,0],[0]]","8","0","","","","","","6","","","","",""
"","","","","","single-stim-button","279","1723944","0.0-3.0-34.5-0.5","6061fff2c21e787791b1d052","C3","batch3","tol_tohand","1197","","","","","","","","","tol_peg_2","1197","1197","0","[[2,0,0],[0,0],[3]]","6","[[2,1,0],[3,0],[0]]","8","0","","","","","","6","","","","",""
"","","","","","single-stim-button","280","1724830","0.0-3.0-34.5-1.5","6061fff2c21e787791b1d052","C3","batch3","tol_toboard","885","","","","","","","","","tol_peg_1","885","885","0","[[2,1,0],[0,0],[3]]","6","[[2,1,0],[3,0],[0]]","8","0","","","","","","6","","","","",""
"","","","","","single-stim-button","281","1725921","0.0-3.0-34.6-0.6","6061fff2c21e787791b1d052","C3","batch3","tol_tohand","1090","","","","","","","","","tol_peg_3","1090","1090","0","[[2,1,0],[0,0],[0]]","7","[[2,1,0],[3,0],[0]]","8","0","","","","","","6","","","","",""
"","","","","","single-stim-button","282","1726914","0.0-3.0-34.6-1.6","6061fff2c21e787791b1d052","C3","batch3","tol_toboard","992","","","","","","","","","tol_peg_2","992","992","0","[[2,1,0],[3,0],[0]]","7","[[2,1,0],[3,0],[0]]","8","0","","","","","","6","","","","",""
"","","","","","poldrack-single-stim","283","1727929","0.0-3.0-35.0","6061fff2c21e787791b1d052","C3","batch3","tol_feedback","-1","","","","","true","","","","","1000","1000","500","","","","","","-1","none","true","13198","25035","","","","","",""
"","","","","","html-button-response","284","1729042","0.0-3.0-36.0","6061fff2c21e787791b1d052","C3","batch3","tol_trial_num","1111.7000000029802","<div class = centerbox><p class = center-block-text>problem <strong>10</strong> out of 25 problems</p></div>","0","","","","","","","","","","","","","","","","","","","","","","","","","",""
"","","","","","single-stim-button","285","1733154","0.0-3.0-37.0-0.0","6061fff2c21e787791b1d052","C3","batch3","tol_tohand","4111","","","","","","","","","tol_peg_2","4111","4111","0","[[3,0,0],[0,0],[2]]","1","[[3,0,0],[2,1],[0]]","9","0","","","","","","3","","","","",""
"","","","","","single-stim-button","286","1735519","0.0-3.0-37.0-1.0","6061fff2c21e787791b1d052","C3","batch3","tol_toboard","2364","","","","","","","","","tol_peg_1","2364","2364","0","[[3,1,0],[0,0],[2]]","1","[[3,0,0],[2,1],[0]]","9","0","","","","","","3","","","","",""
"","","","","","single-stim-button","287","1736754","0.0-3.0-37.1-0.1","6061fff2c21e787791b1d052","C3","batch3","tol_tohand","1235","","","","","","","","","tol_peg_3","1235","1235","0","[[3,1,0],[0,0],[0]]","2","[[3,0,0],[2,1],[0]]","9","0","","","","","","3","","","","",""
"","","","","","single-stim-button","288","1737823","0.0-3.0-37.1-1.1","6061fff2c21e787791b1d052","C3","batch3","tol_toboard","1067","","","","","","","","","tol_peg_2","1067","1067","0","[[3,1,0],[2,0],[0]]","2","[[3,0,0],[2,1],[0]]","9","0","","","","","","3","","","","",""
"","","","","","single-stim-button","289","1738776","0.0-3.0-37.2-0.2","6061fff2c21e787791b1d052","C3","batch3","tol_tohand","953","","","","","","","","","tol_peg_1","953","953","0","[[3,0,0],[2,0],[0]]","3","[[3,0,0],[2,1],[0]]","9","0","","","","","","3","","","","",""
"","","","","","single-stim-button","290","1739966","0.0-3.0-37.2-1.2","6061fff2c21e787791b1d052","C3","batch3","tol_toboard","1189","","","","","","","","","tol_peg_2","1189","1189","0","[[3,0,0],[2,1],[0]]","3","[[3,0,0],[2,1],[0]]","9","0","","","","","","3","","","","",""
"","","","","","poldrack-single-stim","291","1740976","0.0-3.0-38.0","6061fff2c21e787791b1d052","C3","batch3","tol_feedback","-1","","","","","true","","","","","1000","1000","500","","","","","","-1","none","true","4111","6299","","","","","",""
"","","","","","html-button-response","292","1741998","0.0-3.0-39.0","6061fff2c21e787791b1d052","C3","batch3","tol_trial_num","1020.5999999940395","<div class = centerbox><p class = center-block-text>problem <strong>11</strong> out of 25 problems</p></div>","0","","","","","","","","","","","","","","","","","","","","","","","","","",""
"","","","","","single-stim-button","293","1748247","0.0-3.0-40.0-0.0","6061fff2c21e787791b1d052","C3","batch3","tol_tohand","6248","","","","","","","","","tol_peg_2","6248","6248","0","[[1,2,0],[0,0],[0]]","1","[[2,0,0],[1,3],[0]]","10","0","","","","","","6","","","","",""
"","","","","","single-stim-button","294","1749292","0.0-3.0-40.0-1.0","6061fff2c21e787791b1d052","C3","batch3","tol_toboard","1044","","","","","","","","","tol_peg_3","1044","1044","0","[[1,2,0],[0,0],[3]]","1","[[2,0,0],[1,3],[0]]","10","0","","","","","","6","","","","",""
"","","","","","single-stim-button","295","1755614","0.0-3.0-40.1-0.1","6061fff2c21e787791b1d052","C3","batch3","tol_tohand","6320","","","","","","","","","tol_peg_1","6320","6320","0","[[1,0,0],[0,0],[3]]","2","[[2,0,0],[1,3],[0]]","10","0","","","","","","6","","","","",""
"","","","","","single-stim-button","296","1765551","0.0-3.0-40.1-1.1","6061fff2c21e787791b1d052","C3","batch3","tol_toboard","9937","","","","","","","","","tol_peg_1","9937","9937","0","[[1,2,0],[0,0],[3]]","2","[[2,0,0],[1,3],[0]]","10","0","","","","","","6","","","","",""
"","","","","","single-stim-button","297","1766769","0.0-3.0-40.2-0.2","6061fff2c21e787791b1d052","C3","batch3","tol_tohand","1217","","","","","","","","","tol_peg_3","1217","1217","0","[[1,2,0],[0,0],[0]]","3","[[2,0,0],[1,3],[0]]","10","0","","","","","","6","","","","",""
"","","","","","single-stim-button","298","1767707","0.0-3.0-40.2-1.2","6061fff2c21e787791b1d052","C3","batch3","tol_toboard","937","","","","","","","","","tol_peg_2","937","937","0","[[1,2,0],[3,0],[0]]","3","[[2,0,0],[1,3],[0]]","10","0","","","","","","6","","","","",""
"","","","","","single-stim-button","299","1768911","0.0-3.0-40.3-0.3","6061fff2c21e787791b1d052","C3","batch3","tol_tohand","1203","","","","","","","","","tol_peg_1","1203","1203","0","[[1,0,0],[3,0],[0]]","4","[[2,0,0],[1,3],[0]]","10","0","","","","","","6","","","","",""
"","","","","","single-stim-button","300","1770269","0.0-3.0-40.3-1.3","6061fff2c21e787791b1d052","C3","batch3","tol_toboard","1356","","","","","","","","","tol_peg_3","1356","1356","0","[[1,0,0],[3,0],[2]]","4","[[2,0,0],[1,3],[0]]","10","0","","","","","","6","","","","",""
"","","","","","single-stim-button","301","1773595","0.0-3.0-40.4-0.4","6061fff2c21e787791b1d052","C3","batch3","tol_tohand","3326","","","","","","","","","tol_peg_1","3326","3326","0","[[0,0,0],[3,0],[2]]","5","[[2,0,0],[1,3],[0]]","10","0","","","","","","6","","","","",""
"","","","","","single-stim-button","302","1775378","0.0-3.0-40.4-1.4","6061fff2c21e787791b1d052","C3","batch3","tol_toboard","1782","","","","","","","","","tol_peg_2","1782","1782","0","[[0,0,0],[3,1],[2]]","5","[[2,0,0],[1,3],[0]]","10","0","","","","","","6","","","","",""
"","","","","","single-stim-button","303","1776270","0.0-3.0-40.5-0.5","6061fff2c21e787791b1d052","C3","batch3","tol_tohand","891","","","","","","","","","tol_peg_3","891","891","0","[[0,0,0],[3,1],[0]]","6","[[2,0,0],[1,3],[0]]","10","0","","","","","","6","","","","",""
"","","","","","single-stim-button","304","1777742","0.0-3.0-40.5-1.5","6061fff2c21e787791b1d052","C3","batch3","tol_toboard","1471","","","","","","","","","tol_peg_1","1471","1471","0","[[2,0,0],[3,1],[0]]","6","[[2,0,0],[1,3],[0]]","10","0","","","","","","6","","","","",""
"","","","","","single-stim-button","305","1778673","0.0-3.0-40.6-0.6","6061fff2c21e787791b1d052","C3","batch3","tol_tohand","929","","","","","","","","","tol_peg_2","929","929","0","[[2,0,0],[3,0],[0]]","7","[[2,0,0],[1,3],[0]]","10","0","","","","","","6","","","","",""
"","","","","","single-stim-button","306","1779696","0.0-3.0-40.6-1.6","6061fff2c21e787791b1d052","C3","batch3","tol_toboard","1022","","","","","","","","","tol_peg_3","1022","1022","0","[[2,0,0],[3,0],[1]]","7","[[2,0,0],[1,3],[0]]","10","0","","","","","","6","","","","",""
"","","","","","single-stim-button","307","1780656","0.0-3.0-40.7-0.7","6061fff2c21e787791b1d052","C3","batch3","tol_tohand","960","","","","","","","","","tol_peg_2","960","960","0","[[2,0,0],[0,0],[1]]","8","[[2,0,0],[1,3],[0]]","10","0","","","","","","6","","","","",""
"","","","","","single-stim-button","308","1781657","0.0-3.0-40.7-1.7","6061fff2c21e787791b1d052","C3","batch3","tol_toboard","1000","","","","","","","","","tol_peg_1","1000","1000","0","[[2,3,0],[0,0],[1]]","8","[[2,0,0],[1,3],[0]]","10","0","","","","","","6","","","","",""
"","","","","","single-stim-button","309","1782717","0.0-3.0-40.8-0.8","6061fff2c21e787791b1d052","C3","batch3","tol_tohand","1060","","","","","","","","","tol_peg_3","1060","1060","0","[[2,3,0],[0,0],[0]]","9","[[2,0,0],[1,3],[0]]","10","0","","","","","","6","","","","",""
"","","","","","single-stim-button","310","1783664","0.0-3.0-40.8-1.8","6061fff2c21e787791b1d052","C3","batch3","tol_toboard","945","","","","","","","","","tol_peg_2","945","945","0","[[2,3,0],[1,0],[0]]","9","[[2,0,0],[1,3],[0]]","10","0","","","","","","6","","","","",""
"","","","","","single-stim-button","311","1784603","0.0-3.0-40.9-0.9","6061fff2c21e787791b1d052","C3","batch3","tol_tohand","939","","","","","","","","","tol_peg_1","939","939","0","[[2,0,0],[1,0],[0]]","10","[[2,0,0],[1,3],[0]]","10","0","","","","","","6","","","","",""
"","","","","","single-stim-button","312","1785529","0.0-3.0-40.9-1.9","6061fff2c21e787791b1d052","C3","batch3","tol_toboard","926","","","","","","","","","tol_peg_2","926","926","0","[[2,0,0],[1,3],[0]]","10","[[2,0,0],[1,3],[0]]","10","0","","","","","","6","","","","",""
"","","","","","poldrack-single-stim","313","1786533","0.0-3.0-41.0","6061fff2c21e787791b1d052","C3","batch3","tol_feedback","-1","","","","","true","","","","","1000","1000","500","","","","","","-1","none","true","6248","23093","","","","","",""
"","","","","","html-button-response","314","1787337","0.0-3.0-42.0","6061fff2c21e787791b1d052","C3","batch3","tol_trial_num","803.7999999970198","<div class = centerbox><p class = center-block-text>problem <strong>12</strong> out of 25 problems</p></div>","0","","","","","","","","","","","","","","","","","","","","","","","","","",""
"","","","","","single-stim-button","315","1792469","0.0-3.0-43.0-0.0","6061fff2c21e787791b1d052","C3","batch3","tol_tohand","5130","","","","","","","","","tol_peg_1","5130","5130","0","[[1,0,0],[3,0],[0]]","1","[[2,3,0],[0,0],[1]]","11","0","","","","","","4","","","","",""
"","","","","","single-stim-button","316","1793574","0.0-3.0-43.0-1.0","6061fff2c21e787791b1d052","C3","batch3","tol_toboard","1105","","","","","","","","","tol_peg_2","1105","1105","0","[[1,0,0],[3,2],[0]]","1","[[2,3,0],[0,0],[1]]","11","0","","","","","","4","","","","",""
"","","","","","single-stim-button","317","1794583","0.0-3.0-43.1-0.1","6061fff2c21e787791b1d052","C3","batch3","tol_tohand","1007","","","","","","","","","tol_peg_1","1007","1007","0","[[0,0,0],[3,2],[0]]","2","[[2,3,0],[0,0],[1]]","11","0","","","","","","4","","","","",""
"","","","","","single-stim-button","318","1796114","0.0-3.0-43.1-1.1","6061fff2c21e787791b1d052","C3","batch3","tol_toboard","1531","","","","","","","","","tol_peg_3","1531","1531","0","[[0,0,0],[3,2],[1]]","2","[[2,3,0],[0,0],[1]]","11","0","","","","","","4","","","","",""
"","","","","","single-stim-button","319","1805295","0.0-3.0-43.2-0.2","6061fff2c21e787791b1d052","C3","batch3","tol_tohand","9180","","","","","","","","","tol_peg_2","9180","9180","0","[[0,0,0],[3,0],[1]]","3","[[2,3,0],[0,0],[1]]","11","0","","","","","","4","","","","",""
"","","","","","single-stim-button","320","1809038","0.0-3.0-43.2-1.2","6061fff2c21e787791b1d052","C3","batch3","tol_toboard","3743","","","","","","","","","tol_peg_1","3743","3743","0","[[2,0,0],[3,0],[1]]","3","[[2,3,0],[0,0],[1]]","11","0","","","","","","4","","","","",""
"","","","","","single-stim-button","321","1809985","0.0-3.0-43.3-0.3","6061fff2c21e787791b1d052","C3","batch3","tol_tohand","946","","","","","","","","","tol_peg_2","946","946","0","[[2,0,0],[0,0],[1]]","4","[[2,3,0],[0,0],[1]]","11","0","","","","","","4","","","","",""
"","","","","","single-stim-button","322","1810924","0.0-3.0-43.3-1.3","6061fff2c21e787791b1d052","C3","batch3","tol_toboard","939","","","","","","","","","tol_peg_1","939","939","0","[[2,3,0],[0,0],[1]]","4","[[2,3,0],[0,0],[1]]","11","0","","","","","","4","","","","",""
"","","","","","poldrack-single-stim","323","1811929","0.0-3.0-44.0","6061fff2c21e787791b1d052","C3","batch3","tol_feedback","-1","","","","","true","","","","","1000","1000","500","","","","","","-1","none","true","5130","16263","","","","","",""
"","","","","","html-button-response","324","1813210","0.0-3.0-45.0","6061fff2c21e787791b1d052","C3","batch3","tol_trial_num","1279.9000000059605","<div class = centerbox><p class = center-block-text>problem <strong>13</strong> out of 25 problems</p></div>","0","","","","","","","","","","","","","","","","","","","","","","","","","",""
"","","","","","single-stim-button","325","1820531","0.0-3.0-46.0-0.0","6061fff2c21e787791b1d052","C3","batch3","tol_tohand","7319","","","","","","","","","tol_peg_2","7319","7319","0","[[1,2,0],[0,0],[0]]","1","[[0,0,0],[2,3],[1]]","12","0","","","","","","4","","","","",""
"","","","","","single-stim-button","326","1821660","0.0-3.0-46.0-1.0","6061fff2c21e787791b1d052","C3","batch3","tol_toboard","1128","","","","","","","","","tol_peg_1","1128","1128","0","[[1,2,3],[0,0],[0]]","1","[[0,0,0],[2,3],[1]]","12","0","","","","","","4","","","","",""
"","","","","","single-stim-button","327","1824280","0.0-3.0-46.1-0.1","6061fff2c21e787791b1d052","C3","batch3","tol_tohand","2620","","","","","","","","","tol_peg_1","2620","2620","0","[[1,2,0],[0,0],[0]]","2","[[0,0,0],[2,3],[1]]","12","0","","","","","","4","","","","",""
"","","","","","single-stim-button","328","1825853","0.0-3.0-46.1-1.1","6061fff2c21e787791b1d052","C3","batch3","tol_toboard","1573","","","","","","","","","tol_peg_3","1573","1573","0","[[1,2,0],[0,0],[3]]","2","[[0,0,0],[2,3],[1]]","12","0","","","","","","4","","","","",""
"","","","","","single-stim-button","329","1826982","0.0-3.0-46.2-0.2","6061fff2c21e787791b1d052","C3","batch3","tol_tohand","1129","","","","","","","","","tol_peg_1","1129","1129","0","[[1,0,0],[0,0],[3]]","3","[[0,0,0],[2,3],[1]]","12","0","","","","","","4","","","","",""
"","","","","","single-stim-button","330","1828299","0.0-3.0-46.2-1.2","6061fff2c21e787791b1d052","C3","batch3","tol_toboard","1317","","","","","","","","","tol_peg_2","1317","1317","0","[[1,0,0],[2,0],[3]]","3","[[0,0,0],[2,3],[1]]","12","0","","","","","","4","","","","",""
"","","","","","single-stim-button","331","1829124","0.0-3.0-46.3-0.3","6061fff2c21e787791b1d052","C3","batch3","tol_tohand","824","","","","","","","","","tol_peg_3","824","824","0","[[1,0,0],[2,0],[0]]","4","[[0,0,0],[2,3],[1]]","12","0","","","","","","4","","","","",""
"","","","","","single-stim-button","332","1830177","0.0-3.0-46.3-1.3","6061fff2c21e787791b1d052","C3","batch3","tol_toboard","1052","","","","","","","","","tol_peg_2","1052","1052","0","[[1,0,0],[2,3],[0]]","4","[[0,0,0],[2,3],[1]]","12","0","","","","","","4","","","","",""
"","","","","","single-stim-button","333","1831298","0.0-3.0-46.4-0.4","6061fff2c21e787791b1d052","C3","batch3","tol_tohand","1120","","","","","","","","","tol_peg_1","1120","1120","0","[[0,0,0],[2,3],[0]]","5","[[0,0,0],[2,3],[1]]","12","0","","","","","","4","","","","",""
"","","","","","single-stim-button","334","1832404","0.0-3.0-46.4-1.4","6061fff2c21e787791b1d052","C3","batch3","tol_toboard","1105","","","","","","","","","tol_peg_3","1105","1105","0","[[0,0,0],[2,3],[1]]","5","[[0,0,0],[2,3],[1]]","12","0","","","","","","4","","","","",""
"","","","","","poldrack-single-stim","335","1833408","0.0-3.0-47.0","6061fff2c21e787791b1d052","C3","batch3","tol_feedback","-1","","","","","true","","","","","1000","1000","500","","","","","","-1","none","true","7319","13012","","","","","",""
"","","","","","html-button-response","336","1836891","0.0-3.0-48.0","6061fff2c21e787791b1d052","C3","batch3","attention_check","3481.300000011921","<p class = block-text>How many balls are in your board<br></p>","1","","","true","","","","","","","","","","","","","","","","","","","","","","",""
"","","","","","html-button-response","337","1837969","0.0-3.0-49.0","6061fff2c21e787791b1d052","C3","batch3","tol_trial_num","1076.7000000029802","<div class = centerbox><p class = center-block-text>problem <strong>14</strong> out of 25 problems</p></div>","0","","","","","","","","","","","","","","","","","","","","","","","","","",""
"","","","","","single-stim-button","338","1842417","0.0-3.0-50.0-0.0","6061fff2c21e787791b1d052","C3","batch3","tol_tohand","4447","","","","","","","","","tol_peg_1","4447","4447","0","[[2,0,0],[3,0],[0]]","1","[[1,2,0],[3,0],[0]]","13","0","","","","","","4","","","","",""
"","","","","","single-stim-button","339","1844114","0.0-3.0-50.0-1.0","6061fff2c21e787791b1d052","C3","batch3","tol_toboard","1696","","","","","","","","","tol_peg_3","1696","1696","0","[[2,0,0],[3,0],[1]]","1","[[1,2,0],[3,0],[0]]","13","0","","","","","","4","","","","",""
"","","","","","single-stim-button","340","1845326","0.0-3.0-50.1-0.1","6061fff2c21e787791b1d052","C3","batch3","tol_tohand","1212","","","","","","","","","tol_peg_1","1212","1212","0","[[0,0,0],[3,0],[1]]","2","[[1,2,0],[3,0],[0]]","13","0","","","","","","4","","","","",""
"","","","","","single-stim-button","341","1846387","0.0-3.0-50.1-1.1","6061fff2c21e787791b1d052","C3","batch3","tol_toboard","1061","","","","","","","","","tol_peg_2","1061","1061","0","[[0,0,0],[3,2],[1]]","2","[[1,2,0],[3,0],[0]]","13","0","","","","","","4","","","","",""
"","","","","","single-stim-button","342","1847152","0.0-3.0-50.2-0.2","6061fff2c21e787791b1d052","C3","batch3","tol_tohand","764","","","","","","","","","tol_peg_3","764","764","0","[[0,0,0],[3,2],[0]]","3","[[1,2,0],[3,0],[0]]","13","0","","","","","","4","","","","",""
"","","","","","single-stim-button","343","1848053","0.0-3.0-50.2-1.2","6061fff2c21e787791b1d052","C3","batch3","tol_toboard","900","","","","","","","","","tol_peg_1","900","900","0","[[1,0,0],[3,2],[0]]","3","[[1,2,0],[3,0],[0]]","13","0","","","","","","4","","","","",""
"","","","","","single-stim-button","344","1848818","0.0-3.0-50.3-0.3","6061fff2c21e787791b1d052","C3","batch3","tol_tohand","764","","","","","","","","","tol_peg_2","764","764","0","[[1,0,0],[3,0],[0]]","4","[[1,2,0],[3,0],[0]]","13","0","","","","","","4","","","","",""
"","","","","","single-stim-button","345","1849818","0.0-3.0-50.3-1.3","6061fff2c21e787791b1d052","C3","batch3","tol_toboard","1000","","","","","","","","","tol_peg_1","1000","1000","0","[[1,2,0],[3,0],[0]]","4","[[1,2,0],[3,0],[0]]","13","0","","","","","","4","","","","",""
"","","","","","poldrack-single-stim","346","1850826","0.0-3.0-51.0","6061fff2c21e787791b1d052","C3","batch3","tol_feedback","-1","","","","","true","","","","","1000","1000","500","","","","","","-1","none","true","4447","7187","","","","","",""
"","","","","","html-button-response","347","1851655","0.0-3.0-52.0","6061fff2c21e787791b1d052","C3","batch3","tol_trial_num","828.5","<div class = centerbox><p class = center-block-text>problem <strong>15</strong> out of 25 problems</p></div>","0","","","","","","","","","","","","","","","","","","","","","","","","","",""
"","","","","","single-stim-button","348","1857746","0.0-3.0-53.0-0.0","6061fff2c21e787791b1d052","C3","batch3","tol_tohand","6089","","","","","","","","","tol_peg_1","6089","6089","0","[[1,0,0],[3,0],[0]]","1","[[2,0,0],[3,0],[1]]","14","0","","","","","","3","","","","",""
"","","","","","single-stim-button","349","1861097","0.0-3.0-53.0-1.0","6061fff2c21e787791b1d052","C3","batch3","tol_toboard","3351","","","","","","","","","tol_peg_2","3351","3351","0","[[1,0,0],[3,2],[0]]","1","[[2,0,0],[3,0],[1]]","14","0","","","","","","3","","","","",""
"","","","","","single-stim-button","350","1862734","0.0-3.0-53.1-0.1","6061fff2c21e787791b1d052","C3","batch3","tol_tohand","1636","","","","","","","","","tol_peg_1","1636","1636","0","[[0,0,0],[3,2],[0]]","2","[[2,0,0],[3,0],[1]]","14","0","","","","","","3","","","","",""
"","","","","","single-stim-button","351","1863900","0.0-3.0-53.1-1.1","6061fff2c21e787791b1d052","C3","batch3","tol_toboard","1166","","","","","","","","","tol_peg_3","1166","1166","0","[[0,0,0],[3,2],[1]]","2","[[2,0,0],[3,0],[1]]","14","0","","","","","","3","","","","",""
