"success","timeout","failed_images","failed_audio","failed_video","trial_type","trial_index","time_elapsed","internal_node_id","subject_id","study_id","session_id","view_history","rt","stimulus","response","task","correct","answer","item","fiar_detect_rt","fiar_detect_correct","total_correct_fiar_detect","post_trial_gap","choices","mouse_click","stim_duration","block_duration","timing_post_trial","current_position","tol_num_moves_made","tol_target","tol_problem_id","tol_rt","key_press","possible_responses","tol_correct","preplanning","tol_rt_per_trial","tol_min_moves","spm_correct","spm_rt"
"true","false","[]","[]","[]","preload","0","2585","0.0-0.0","6066736bd2119d9d5f7232eb","C3","batch3","","","","","","","","","","","","","","","","","","","","","","","","","","","","","",""
"true","","","","","fullscreen","1","44287","0.0-1.0-0.0","6066736bd2119d9d5f7232eb","C3","batch3","","","","","","","","","","","","","","","","","","","","","","","","","","","","","",""
"true","","","","","fullscreen","2","49873","0.0-2.0-0.0","6066736bd2119d9d5f7232eb","C3","batch3","","","","","","","","","","","","","","","","","","","","","","","","","","","","","",""
"","","","","","instructions","3","75371","0.0-2.0-1.0-0.0","6066736bd2119d9d5f7232eb","C3","batch3","[{""page_index"":0,""viewing_time"":18698.099999904633},{""page_index"":1,""viewing_time"":6797.700000047684}]","25496.199999809265","","","","","","","","","","","","","","","","","","","","","","","","","","","",""
"","","","","","html-button-response","4","77077","0.0-2.0-1.0-1.0-0.0","6066736bd2119d9d5f7232eb","C3","batch3","","1704.7000000476837","<p class=block-text> Let's answer a few questions <br>","0","pattern_enter_quiz","","","","","","","","","","","","","","","","","","","","","","","","",""
"","","","","","html-button-response","5","81579","0.0-2.0-1.0-1.0-1.0","6066736bd2119d9d5f7232eb","C3","batch3","","4500.099999904633","<p class = block-text>True or False: You will have as much time as you want to make each choice. <br></p>","1","pattern_quiz","true","","","","","","","","","","","","","","","","","","","","","","","",""
"","","","","","html-button-response","6","83498","0.0-2.0-1.0-1.0-2.0","6066736bd2119d9d5f7232eb","C3","batch3","","1916.7999999523163","<p class = block-text>Correct! You should make your choice <strong> as fast as you can</strong>.</p>","0","pattern_quiz_feedback","","","","","","","","","","","","","","","","","","","","","","","","",""
"","","","","","html-button-response","7","89631","0.0-2.0-1.0-1.0-3.0","6066736bd2119d9d5f7232eb","C3","batch3","","6131.899999856949","<p class = block-text>True or False: You will look for 4 pieces in black or white color connected in a row either horizontally, vertically or diagonally. <br></p>","0","pattern_quiz","true","","","","","","","","","","","","","","","","","","","","","","","",""
"","","","","","html-button-response","8","91336","0.0-2.0-1.0-1.0-4.0","6066736bd2119d9d5f7232eb","C3","batch3","","1704.1000001430511","<p class = block-text>Correct! </p>","0","pattern_quiz_feedback","","","","","","","","","","","","","","","","","","","","","","","","",""
"","","","","","html-button-response","9","94158","0.0-2.0-2.0","6066736bd2119d9d5f7232eb","C3","batch3","","2820.2000000476837","<p class=block-text> Now that you've understood the game, let's do a few practice trials before we start!<br> <br>","0","pattern_enter_practice","","","","","","","","","","","","","","","","","","","","","","","","",""
"","","","","","image-keyboard-response","10","96546","0.0-2.0-3.0-0.0","6066736bd2119d9d5f7232eb","C3","batch3","","2383","stim/prac_no_18_1.png","j","pattern_practice","true","j","","","","","","","","","","","","","","","","","","","","","","",""
"","","","","","html-keyboard-response","11","97552","0.0-2.0-3.0-1.0","6066736bd2119d9d5f7232eb","C3","batch3","","null","<p style=""font-size:30px;color:green;"">Correct!</p>","null","pattern_feedback","","","","","","","","","","","","","","","","","","","","","","","","",""
"","","","","","image-keyboard-response","12","98541","0.0-2.0-3.0-0.1","6066736bd2119d9d5f7232eb","C3","batch3","","987.8000001907349","stim/prac_yes_20_dia_b1.png","f","pattern_practice","true","f","","","","","","","","","","","","","","","","","","","","","","",""
"","","","","","html-keyboard-response","13","99559","0.0-2.0-3.0-1.1","6066736bd2119d9d5f7232eb","C3","batch3","","null","<p style=""font-size:30px;color:green;"">Correct!</p>","null","pattern_feedback","","","","","","","","","","","","","","","","","","","","","","","","",""
"","","","","","image-keyboard-response","14","100523","0.0-2.0-3.0-0.2","6066736bd2119d9d5f7232eb","C3","batch3","","962.3999998569489","stim/prac_yes_18_hor_w1.png","f","pattern_practice","true","f","","","","","","","","","","","","","","","","","","","","","","",""
"","","","","","html-keyboard-response","15","101546","0.0-2.0-3.0-1.2","6066736bd2119d9d5f7232eb","C3","batch3","","null","<p style=""font-size:30px;color:green;"">Correct!</p>","null","pattern_feedback","","","","","","","","","","","","","","","","","","","","","","","","",""
"","","","","","image-keyboard-response","16","102895","0.0-2.0-3.0-0.3","6066736bd2119d9d5f7232eb","C3","batch3","","1348.2000000476837","stim/prac_no_16_1.png","j","pattern_practice","true","j","","","","","","","","","","","","","","","","","","","","","","",""
"","","","","","html-keyboard-response","17","103922","0.0-2.0-3.0-1.3","6066736bd2119d9d5f7232eb","C3","batch3","","null","<p style=""font-size:30px;color:green;"">Correct!</p>","null","pattern_feedback","","","","","","","","","","","","","","","","","","","","","","","","",""
"","","","","","image-keyboard-response","18","105035","0.0-2.0-3.0-0.4","6066736bd2119d9d5f7232eb","C3","batch3","","1112","stim/prac_yes_16_ver_w1.png","f","pattern_practice","true","f","","","","","","","","","","","","","","","","","","","","","","",""
"","","","","","html-keyboard-response","19","106051","0.0-2.0-3.0-1.4","6066736bd2119d9d5f7232eb","C3","batch3","","null","<p style=""font-size:30px;color:green;"">Correct!</p>","null","pattern_feedback","","","","","","","","","","","","","","","","","","","","","","","","",""
"","","","","","html-button-response","20","112521","0.0-2.0-4.0","6066736bd2119d9d5f7232eb","C3","batch3","","6469.400000095367","<p class=block-text> Good job! You are done with practice trials!<br>
        You responded correctly on 100% of the trials.<br>
        Press the button below to start official trials. Now you won't see any feedback about your response</p>","0","pattern_enter_official_trials","","","","","","","","","","","","","","","","","","","","","","","","",""
"","","","","","html-keyboard-response","21","113324","0.0-2.0-5.0-0.0","6066736bd2119d9d5f7232eb","C3","batch3","","null","<p class=block-text>Trial 1 out of 78</p>","null","pattern_show_trial_num","","","","","","","","","","","","","","","","","","","","","","","","",""
"","","","","","image-keyboard-response","22","114981","0.0-2.0-5.0-1.0","6066736bd2119d9d5f7232eb","C3","batch3","","1655.2000000476837","stim/yes_17_ver_b1_b.png","f","pattern_response","true","f","pattern_46","1655.2000000476837","true","1","","","","","","","","","","","","","","","","","","",""
"","","","","","html-keyboard-response","23","116301","0.0-2.0-5.0-0.1","6066736bd2119d9d5f7232eb","C3","batch3","","null","<p class=block-text>Trial 2 out of 78</p>","null","pattern_show_trial_num","","","","","","","","","","","","","","","","","","","","","","","","",""
"","","","","","image-keyboard-response","24","117193","0.0-2.0-5.0-1.1","6066736bd2119d9d5f7232eb","C3","batch3","","890.7000000476837","stim/no_18_1_b.png","j","pattern_response","true","j","pattern_05","890.7000000476837","true","2","","","","","","","","","","","","","","","","","","",""
"","","","","","html-keyboard-response","25","118504","0.0-2.0-5.0-0.2","6066736bd2119d9d5f7232eb","C3","batch3","","null","<p class=block-text>Trial 3 out of 78</p>","null","pattern_show_trial_num","","","","","","","","","","","","","","","","","","","","","","","","",""
"","","","","","image-keyboard-response","26","120440","0.0-2.0-5.0-1.2","6066736bd2119d9d5f7232eb","C3","batch3","","1934.9000000953674","stim/no_49_2_b.png","j","pattern_response","true","j","pattern_29","1934.9000000953674","true","3","","","","","","","","","","","","","","","","","","",""
"","","","","","html-keyboard-response","27","121759","0.0-2.0-5.0-0.3","6066736bd2119d9d5f7232eb","C3","batch3","","null","<p class=block-text>Trial 4 out of 78</p>","null","pattern_show_trial_num","","","","","","","","","","","","","","","","","","","","","","","","",""
"","","","","","image-keyboard-response","28","124077","0.0-2.0-5.0-1.3","6066736bd2119d9d5f7232eb","C3","batch3","","2316.2999999523163","stim/yes_63_dia_b1.png","f","pattern_response","true","f","pattern_78","2316.2999999523163","true","4","","","","","","","","","","","","","","","","","","",""
"","","","","","html-keyboard-response","29","125395","0.0-2.0-5.0-0.4","6066736bd2119d9d5f7232eb","C3","batch3","","null","<p class=block-text>Trial 5 out of 78</p>","null","pattern_show_trial_num","","","","","","","","","","","","","","","","","","","","","","","","",""
"","","","","","image-keyboard-response","30","127643","0.0-2.0-5.0-1.4","6066736bd2119d9d5f7232eb","C3","batch3","","2246.2000000476837","stim/no_51_1.png","j","pattern_response","true","j","pattern_31","2246.2000000476837","true","5","","","","","","","","","","","","","","","","","","",""
"","","","","","html-keyboard-response","31","128959","0.0-2.0-5.0-0.5","6066736bd2119d9d5f7232eb","C3","batch3","","null","<p class=block-text>Trial 6 out of 78</p>","null","pattern_show_trial_num","","","","","","","","","","","","","","","","","","","","","","","","",""
"","","","","","image-keyboard-response","32","130387","0.0-2.0-5.0-1.5","6066736bd2119d9d5f7232eb","C3","batch3","","1427.7000000476837","stim/yes_33_dia_w1_w.png","f","pattern_response","true","f","pattern_56","1427.7000000476837","true","6","","","","","","","","","","","","","","","","","","",""
"","","","","","html-keyboard-response","33","131696","0.0-2.0-5.0-0.6","6066736bd2119d9d5f7232eb","C3","batch3","","null","<p class=block-text>Trial 7 out of 78</p>","null","pattern_show_trial_num","","","","","","","","","","","","","","","","","","","","","","","","",""
"","","","","","image-keyboard-response","34","135196","0.0-2.0-5.0-1.6","6066736bd2119d9d5f7232eb","C3","batch3","","3497.800000190735","stim/no_58_1_w.png","j","pattern_response","true","j","pattern_35","3497.800000190735","true","7","","","","","","","","","","","","","","","","","","",""
"","","","","","html-keyboard-response","35","136501","0.0-2.0-5.0-0.7","6066736bd2119d9d5f7232eb","C3","batch3","","null","<p class=block-text>Trial 8 out of 78</p>","null","pattern_show_trial_num","","","","","","","","","","","","","","","","","","","","","","","","",""
"","","","","","image-keyboard-response","36","138259","0.0-2.0-5.0-1.7","6066736bd2119d9d5f7232eb","C3","batch3","","1757.2000000476837","stim/yes_70_ver_b1.png","f","pattern_response","true","f","pattern_80","1757.2000000476837","true","8","","","","","","","","","","","","","","","","","","",""
"","","","","","html-keyboard-response","37","139570","0.0-2.0-5.0-0.8","6066736bd2119d9d5f7232eb","C3","batch3","","null","<p class=block-text>Trial 9 out of 78</p>","null","pattern_show_trial_num","","","","","","","","","","","","","","","","","","","","","","","","",""
"","","","","","image-keyboard-response","38","140448","0.0-2.0-5.0-1.8","6066736bd2119d9d5f7232eb","C3","batch3","","876.0999999046326","stim/yes_36_ver_w1_w.png","j","pattern_response","false","f","pattern_58","876.0999999046326","false","8","","","","","","","","","","","","","","","","","","",""
"","","","","","html-keyboard-response","39","141766","0.0-2.0-5.0-0.9","6066736bd2119d9d5f7232eb","C3","batch3","","null","<p class=block-text>Trial 10 out of 78</p>","null","pattern_show_trial_num","","","","","","","","","","","","","","","","","","","","","","","","",""
"","","","","","image-keyboard-response","40","143488","0.0-2.0-5.0-1.9","6066736bd2119d9d5f7232eb","C3","batch3","","1721","stim/yes_30_ver_b1_b.png","f","pattern_response","true","f","pattern_54","1721","true","9","","","","","","","","","","","","","","","","","","",""
"","","","","","html-keyboard-response","41","144793","0.0-2.0-5.0-0.10","6066736bd2119d9d5f7232eb","C3","batch3","","null","<p class=block-text>Trial 11 out of 78</p>","null","pattern_show_trial_num","","","","","","","","","","","","","","","","","","","","","","","","",""
"","","","","","image-keyboard-response","42","150193","0.0-2.0-5.0-1.10","6066736bd2119d9d5f7232eb","C3","batch3","","5398","stim/yes_58_dia_w1_w.png","j","pattern_response","false","f","pattern_76","5398","false","9","","","","","","","","","","","","","","","","","","",""
"","","","","","html-keyboard-response","43","151501","0.0-2.0-5.0-0.11","6066736bd2119d9d5f7232eb","C3","batch3","","null","<p class=block-text>Trial 12 out of 78</p>","null","pattern_show_trial_num","","","","","","","","","","","","","","","","","","","","","","","","",""
"","","","","","image-keyboard-response","44","152723","0.0-2.0-5.0-1.11","6066736bd2119d9d5f7232eb","C3","batch3","","1220.1999998092651","stim/yes_12_hor_w1_w.png","f","pattern_response","true","f","pattern_42","1220.1999998092651","true","10","","","","","","","","","","","","","","","","","","",""
"","","","","","html-keyboard-response","45","154038","0.0-2.0-5.0-0.12","6066736bd2119d9d5f7232eb","C3","batch3","","null","<p class=block-text>Trial 13 out of 78</p>","null","pattern_show_trial_num","","","","","","","","","","","","","","","","","","","","","","","","",""
"","","","","","image-keyboard-response","46","155597","0.0-2.0-5.0-1.12","6066736bd2119d9d5f7232eb","C3","batch3","","1557.2999999523163","stim/no_12_1.png","j","pattern_response","true","j","pattern_01","1557.2999999523163","true","11","","","","","","","","","","","","","","","","","","",""
"","","","","","html-keyboard-response","47","156899","0.0-2.0-5.0-0.13","6066736bd2119d9d5f7232eb","C3","batch3","","null","<p class=block-text>Trial 14 out of 78</p>","null","pattern_show_trial_num","","","","","","","","","","","","","","","","","","","","","","","","",""
"","","","","","image-keyboard-response","48","159513","0.0-2.0-5.0-1.13","6066736bd2119d9d5f7232eb","C3","batch3","","2612.5999999046326","stim/no_22_1_b.png","j","pattern_response","true","j","pattern_07","2612.5999999046326","true","12","","","","","","","","","","","","","","","","","","",""
"","","","","","html-keyboard-response","49","160819","0.0-2.0-5.0-0.14","6066736bd2119d9d5f7232eb","C3","batch3","","null","<p class=block-text>Trial 15 out of 78</p>","null","pattern_show_trial_num","","","","","","","","","","","","","","","","","","","","","","","","",""
"","","","","","image-keyboard-response","50","164560","0.0-2.0-5.0-1.14","6066736bd2119d9d5f7232eb","C3","batch3","","3739","stim/no_53_1_b.png","j","pattern_response","true","j","pattern_33","3739","true","13","","","","","","","","","","","","","","","","","","",""
"","","","","","html-keyboard-response","51","165873","0.0-2.0-5.0-0.15","6066736bd2119d9d5f7232eb","C3","batch3","","null","<p class=block-text>Trial 16 out of 78</p>","null","pattern_show_trial_num","","","","","","","","","","","","","","","","","","","","","","","","",""
"","","","","","image-keyboard-response","52","168006","0.0-2.0-5.0-1.15","6066736bd2119d9d5f7232eb","C3","batch3","","2131.399999856949","stim/no_25_1_b.png","j","pattern_response","true","j","pattern_09","2131.399999856949","true","14","","","","","","","","","","","","","","","","","","",""
"","","","","","html-keyboard-response","53","169311","0.0-2.0-5.0-0.16","6066736bd2119d9d5f7232eb","C3","batch3","","null","<p class=block-text>Trial 17 out of 78</p>","null","pattern_show_trial_num","","","","","","","","","","","","","","","","","","","","","","","","",""
"","","","","","image-keyboard-response","54","170695","0.0-2.0-5.0-1.16","6066736bd2119d9d5f7232eb","C3","batch3","","1382.1999998092651","stim/yes_15_dia_b1u_b.png","f","pattern_response","true","f","pattern_44","1382.1999998092651","true","15","","","","","","","","","","","","","","","","","","",""
"","","","","","html-keyboard-response","55","172004","0.0-2.0-5.0-0.17","6066736bd2119d9d5f7232eb","C3","batch3","","null","<p class=block-text>Trial 18 out of 78</p>","null","pattern_show_trial_num","","","","","","","","","","","","","","","","","","","","","","","","",""
"","","","","","image-keyboard-response","56","175798","0.0-2.0-5.0-1.17","6066736bd2119d9d5f7232eb","C3","batch3","","3792.7999999523163","stim/no_47_1_b.png","j","pattern_response","true","j","pattern_27","3792.7999999523163","true","16","","","","","","","","","","","","","","","","","","",""
"","","","","","html-keyboard-response","57","177118","0.0-2.0-5.0-0.18","6066736bd2119d9d5f7232eb","C3","batch3","","null","<p class=block-text>Trial 19 out of 78</p>","null","pattern_show_trial_num","","","","","","","","","","","","","","","","","","","","","","","","",""
"","","","","","image-keyboard-response","58","178304","0.0-2.0-5.0-1.18","6066736bd2119d9d5f7232eb","C3","batch3","","1183.7000000476837","stim/yes_39_hor_w1_w.png","f","pattern_response","true","f","pattern_62","1183.7000000476837","true","17","","","","","","","","","","","","","","","","","","",""
"","","","","","html-keyboard-response","59","179618","0.0-2.0-5.0-0.19","6066736bd2119d9d5f7232eb","C3","batch3","","null","<p class=block-text>Trial 20 out of 78</p>","null","pattern_show_trial_num","","","","","","","","","","","","","","","","","","","","","","","","",""
"","","","","","image-keyboard-response","60","181559","0.0-2.0-5.0-1.19","6066736bd2119d9d5f7232eb","C3","batch3","","1940.1000001430511","stim/no_28_2.png","j","pattern_response","true","j","pattern_11","1940.1000001430511","true","18","","","","","","","","","","","","","","","","","","",""
"","","","","","html-keyboard-response","61","182869","0.0-2.0-5.0-0.20","6066736bd2119d9d5f7232eb","C3","batch3","","null","<p class=block-text>Trial 21 out of 78</p>","null","pattern_show_trial_num","","","","","","","","","","","","","","","","","","","","","","","","",""
"","","","","","image-keyboard-response","62","185444","0.0-2.0-5.0-1.20","6066736bd2119d9d5f7232eb","C3","batch3","","2573.7999999523163","stim/no_43_2_b.png","j","pattern_response","true","j","pattern_23","2573.7999999523163","true","19","","","","","","","","","","","","","","","","","","",""
"","","","","","html-keyboard-response","63","186759","0.0-2.0-5.0-0.21","6066736bd2119d9d5f7232eb","C3","batch3","","null","<p class=block-text>Trial 22 out of 78</p>","null","pattern_show_trial_num","","","","","","","","","","","","","","","","","","","","","","","","",""
"","","","","","image-keyboard-response","64","188859","0.0-2.0-5.0-1.21","6066736bd2119d9d5f7232eb","C3","batch3","","2098.899999856949","stim/yes_42_dia_w1_w.png","f","pattern_response","true","f","pattern_64","2098.899999856949","true","20","","","","","","","","","","","","","","","","","","",""
"","","","","","html-keyboard-response","65","190168","0.0-2.0-5.0-0.22","6066736bd2119d9d5f7232eb","C3","batch3","","null","<p class=block-text>Trial 23 out of 78</p>","null","pattern_show_trial_num","","","","","","","","","","","","","","","","","","","","","","","","",""
"","","","","","image-keyboard-response","66","192943","0.0-2.0-5.0-1.22","6066736bd2119d9d5f7232eb","C3","batch3","","2773.2000000476837","stim/no_37_2_w.png","j","pattern_response","true","j","pattern_19","2773.2000000476837","true","21","","","","","","","","","","","","","","","","","","",""
"","","","","","html-keyboard-response","67","194255","0.0-2.0-5.0-0.23","6066736bd2119d9d5f7232eb","C3","batch3","","null","<p class=block-text>Trial 24 out of 78</p>","null","pattern_show_trial_num","","","","","","","","","","","","","","","","","","","","","","","","",""
"","","","","","image-keyboard-response","68","195457","0.0-2.0-5.0-1.23","6066736bd2119d9d5f7232eb","C3","batch3","","1200.8999998569489","stim/yes_49_hor_w1_b.png","f","pattern_response","true","f","pattern_70","1200.8999998569489","true","22","","","","","","","","","","","","","","","","","","",""
"","","","","","html-keyboard-response","69","196767","0.0-2.0-5.0-0.24","6066736bd2119d9d5f7232eb","C3","batch3","","null","<p class=block-text>Trial 25 out of 78</p>","null","pattern_show_trial_num","","","","","","","","","","","","","","","","","","","","","","","","",""
"","","","","","image-keyboard-response","70","197653","0.0-2.0-5.0-1.24","6066736bd2119d9d5f7232eb","C3","batch3","","885.0999999046326","stim/yes_29_hor_b1_b.png","f","pattern_response","true","f","pattern_52","885.0999999046326","true","23","","","","","","","","","","","","","","","","","","",""
"","","","","","html-keyboard-response","71","198957","0.0-2.0-5.0-0.25","6066736bd2119d9d5f7232eb","C3","batch3","","null","<p class=block-text>Trial 26 out of 78</p>","null","pattern_show_trial_num","","","","","","","","","","","","","","","","","","","","","","","","",""
"","","","","","image-keyboard-response","72","202741","0.0-2.0-5.0-1.25","6066736bd2119d9d5f7232eb","C3","batch3","","3782.7000000476837","stim/no_36_1_b.png","j","pattern_response","true","j","pattern_17","3782.7000000476837","true","24","","","","","","","","","","","","","","","","","","",""
"","","","","","html-keyboard-response","73","204049","0.0-2.0-5.0-0.26","6066736bd2119d9d5f7232eb","C3","batch3","","null","<p class=block-text>Trial 27 out of 78</p>","null","pattern_show_trial_num","","","","","","","","","","","","","","","","","","","","","","","","",""
"","","","","","image-keyboard-response","74","205207","0.0-2.0-5.0-1.26","6066736bd2119d9d5f7232eb","C3","batch3","","1156.8999998569489","stim/yes_46_ver_b1_b.png","f","pattern_response","true","f","pattern_68","1156.8999998569489","true","25","","","","","","","","","","","","","","","","","","",""
"","","","","","html-keyboard-response","75","206522","0.0-2.0-5.0-0.27","6066736bd2119d9d5f7232eb","C3","batch3","","null","<p class=block-text>Trial 28 out of 78</p>","null","pattern_show_trial_num","","","","","","","","","","","","","","","","","","","","","","","","",""
"","","","","","image-keyboard-response","76","208885","0.0-2.0-5.0-1.27","6066736bd2119d9d5f7232eb","C3","batch3","","2361.7000000476837","stim/no_67_1.png","j","pattern_response","true","j","pattern_39","2361.7000000476837","true","26","","","","","","","","","","","","","","","","","","",""
"","","","","","html-keyboard-response","77","210207","0.0-2.0-5.0-0.28","6066736bd2119d9d5f7232eb","C3","batch3","","null","<p class=block-text>Trial 29 out of 78</p>","null","pattern_show_trial_num","","","","","","","","","","","","","","","","","","","","","","","","",""
"","","","","","image-keyboard-response","78","211901","0.0-2.0-5.0-1.28","6066736bd2119d9d5f7232eb","C3","batch3","","1693.0999999046326","stim/yes_53_ver_b1_b.png","f","pattern_response","true","f","pattern_74","1693.0999999046326","true","27","","","","","","","","","","","","","","","","","","",""
"","","","","","html-keyboard-response","79","213208","0.0-2.0-5.0-0.29","6066736bd2119d9d5f7232eb","C3","batch3","","null","<p class=block-text>Trial 30 out of 78</p>","null","pattern_show_trial_num","","","","","","","","","","","","","","","","","","","","","","","","",""
"","","","","","image-keyboard-response","80","214679","0.0-2.0-5.0-1.29","6066736bd2119d9d5f7232eb","C3","batch3","","1470.4000000953674","stim/yes_26_dia_w2_w.png","f","pattern_response","true","f","pattern_50","1470.4000000953674","true","28","","","","","","","","","","","","","","","","","","",""
"","","","","","html-keyboard-response","81","215988","0.0-2.0-5.0-0.30","6066736bd2119d9d5f7232eb","C3","batch3","","null","<p class=block-text>Trial 31 out of 78</p>","null","pattern_show_trial_num","","","","","","","","","","","","","","","","","","","","","","","","",""
"","","","","","image-keyboard-response","82","217338","0.0-2.0-5.0-1.30","6066736bd2119d9d5f7232eb","C3","batch3","","1348.2999999523163","stim/no_30_1_b.png","j","pattern_response","true","j","pattern_13","1348.2999999523163","true","29","","","","","","","","","","","","","","","","","","",""
"","","","","","html-keyboard-response","83","218655","0.0-2.0-5.0-0.31","6066736bd2119d9d5f7232eb","C3","batch3","","null","<p class=block-text>Trial 32 out of 78</p>","null","pattern_show_trial_num","","","","","","","","","","","","","","","","","","","","","","","","",""
"","","","","","image-keyboard-response","84","219806","0.0-2.0-5.0-1.31","6066736bd2119d9d5f7232eb","C3","batch3","","1149.6000001430511","stim/no_15_1_w.png","j","pattern_response","true","j","pattern_03","1149.6000001430511","true","30","","","","","","","","","","","","","","","","","","",""
"","","","","","html-keyboard-response","85","221112","0.0-2.0-5.0-0.32","6066736bd2119d9d5f7232eb","C3","batch3","","null","<p class=block-text>Trial 33 out of 78</p>","null","pattern_show_trial_num","","","","","","","","","","","","","","","","","","","","","","","","",""
"","","","","","image-keyboard-response","86","222136","0.0-2.0-5.0-1.32","6066736bd2119d9d5f7232eb","C3","batch3","","1023.1999998092651","stim/yes_37_hor_w1_w.png","f","pattern_response","true","f","pattern_60","1023.1999998092651","true","31","","","","","","","","","","","","","","","","","","",""
"","","","","","html-keyboard-response","87","223442","0.0-2.0-5.0-0.33","6066736bd2119d9d5f7232eb","C3","batch3","","null","<p class=block-text>Trial 34 out of 78</p>","null","pattern_show_trial_num","","","","","","","","","","","","","","","","","","","","","","","","",""
"","","","","","image-keyboard-response","88","224468","0.0-2.0-5.0-1.33","6066736bd2119d9d5f7232eb","C3","batch3","","1025.1000001430511","stim/yes_23_ver_b1.png","f","pattern_response","true","f","pattern_48","1025.1000001430511","true","32","","","","","","","","","","","","","","","","","","",""
"","","","","","html-keyboard-response","89","225785","0.0-2.0-5.0-0.34","6066736bd2119d9d5f7232eb","C3","batch3","","null","<p class=block-text>Trial 35 out of 78</p>","null","pattern_show_trial_num","","","","","","","","","","","","","","","","","","","","","","","","",""
"","","","","","image-keyboard-response","90","226920","0.0-2.0-5.0-1.34","6066736bd2119d9d5f7232eb","C3","batch3","","1132.7999999523163","stim/yes_44_ver_w1_w.png","f","pattern_response","true","f","pattern_66","1132.7999999523163","true","33","","","","","","","","","","","","","","","","","","",""
"","","","","","html-keyboard-response","91","228234","0.0-2.0-5.0-0.35","6066736bd2119d9d5f7232eb","C3","batch3","","null","<p class=block-text>Trial 36 out of 78</p>","null","pattern_show_trial_num","","","","","","","","","","","","","","","","","","","","","","","","",""
"","","","","","image-keyboard-response","92","230319","0.0-2.0-5.0-1.35","6066736bd2119d9d5f7232eb","C3","batch3","","2083.5","stim/no_33_1_b.png","j","pattern_response","true","j","pattern_15","2083.5","true","34","","","","","","","","","","","","","","","","","","",""
"","","","","","html-keyboard-response","93","231644","0.0-2.0-5.0-0.36","6066736bd2119d9d5f7232eb","C3","batch3","","null","<p class=block-text>Trial 37 out of 78</p>","null","pattern_show_trial_num","","","","","","","","","","","","","","","","","","","","","","","","",""
"","","","","","image-keyboard-response","94","234921","0.0-2.0-5.0-1.36","6066736bd2119d9d5f7232eb","C3","batch3","","3275.199999809265","stim/no_45_1_w.png","j","pattern_response","true","j","pattern_25","3275.199999809265","true","35","","","","","","","","","","","","","","","","","","",""
"","","","","","html-keyboard-response","95","236236","0.0-2.0-5.0-0.37","6066736bd2119d9d5f7232eb","C3","batch3","","null","<p class=block-text>Trial 38 out of 78</p>","null","pattern_show_trial_num","","","","","","","","","","","","","","","","","","","","","","","","",""
"","","","","","image-keyboard-response","96","240542","0.0-2.0-5.0-1.37","6066736bd2119d9d5f7232eb","C3","batch3","","4305","stim/yes_51_dia_b1.png","f","pattern_response","true","f","pattern_72","4305","true","36","","","","","","","","","","","","","","","","","","",""
"","","","","","html-keyboard-response","97","241854","0.0-2.0-5.0-0.38","6066736bd2119d9d5f7232eb","C3","batch3","","null","<p class=block-text>Trial 39 out of 78</p>","null","pattern_show_trial_num","","","","","","","","","","","","","","","","","","","","","","","","",""
"","","","","","image-keyboard-response","98","245303","0.0-2.0-5.0-1.38","6066736bd2119d9d5f7232eb","C3","batch3","","3448.2999999523163","stim/no_39_1_w.png","j","pattern_response","true","j","pattern_21","3448.2999999523163","true","37","","","","","","","","","","","","","","","","","","",""
"","","","","","image-keyboard-response","99","249196","0.0-2.0-6.0","6066736bd2119d9d5f7232eb","C3","batch3","","3383.399999856949","stim/empty_board.png","j","attention_check","true","j","","","","","500","[""f"",""j""]","","","","","","","","","","","","","","","","",""
"","","","","","html-keyboard-response","100","250012","0.0-2.0-7.0-0.0","6066736bd2119d9d5f7232eb","C3","batch3","","null","<p class=block-text>Trial 40 out of 78</p>","null","pattern_show_trial_num","","","","","","","","","","","","","","","","","","","","","","","","",""
"","","","","","image-keyboard-response","101","252420","0.0-2.0-7.0-1.0","6066736bd2119d9d5f7232eb","C3","batch3","","2406.2999999523163","stim/yes_35_dia_b1.png","f","pattern_response","true","f","pattern_57","2406.2999999523163","true","38","","","","","","","","","","","","","","","","","","",""
"","","","","","html-keyboard-response","102","253731","0.0-2.0-7.0-0.1","6066736bd2119d9d5f7232eb","C3","batch3","","null","<p class=block-text>Trial 41 out of 78</p>","null","pattern_show_trial_num","","","","","","","","","","","","","","","","","","","","","","","","",""
"","","","","","image-keyboard-response","103","256137","0.0-2.0-7.0-1.1","6066736bd2119d9d5f7232eb","C3","batch3","","2404.4000000953674","stim/yes_67_hor_b1.png","f","pattern_response","true","f","pattern_79","2404.4000000953674","true","39","","","","","","","","","","","","","","","","","","",""
"","","","","","html-keyboard-response","104","257448","0.0-2.0-7.0-0.2","6066736bd2119d9d5f7232eb","C3","batch3","","null","<p class=block-text>Trial 42 out of 78</p>","null","pattern_show_trial_num","","","","","","","","","","","","","","","","","","","","","","","","",""
"","","","","","image-keyboard-response","105","259496","0.0-2.0-7.0-1.2","6066736bd2119d9d5f7232eb","C3","batch3","","2046.7999999523163","stim/yes_31_hor_b1.png","f","pattern_response","true","f","pattern_55","2046.7999999523163","true","40","","","","","","","","","","","","","","","","","","",""
"","","","","","html-keyboard-response","106","260815","0.0-2.0-7.0-0.3","6066736bd2119d9d5f7232eb","C3","batch3","","null","<p class=block-text>Trial 43 out of 78</p>","null","pattern_show_trial_num","","","","","","","","","","","","","","","","","","","","","","","","",""
"","","","","","image-keyboard-response","107","262975","0.0-2.0-7.0-1.3","6066736bd2119d9d5f7232eb","C3","batch3","","2158.899999856949","stim/no_38_1_b.png","j","pattern_response","true","j","pattern_20","2158.899999856949","true","41","","","","","","","","","","","","","","","","","","",""
"","","","","","html-keyboard-response","108","264287","0.0-2.0-7.0-0.4","6066736bd2119d9d5f7232eb","C3","batch3","","null","<p class=block-text>Trial 44 out of 78</p>","null","pattern_show_trial_num","","","","","","","","","","","","","","","","","","","","","","","","",""
"","","","","","image-keyboard-response","109","265578","0.0-2.0-7.0-1.4","6066736bd2119d9d5f7232eb","C3","batch3","","1289.4000000953674","stim/no_13_2_b.png","j","pattern_response","true","j","pattern_02","1289.4000000953674","true","42","","","","","","","","","","","","","","","","","","",""
"","","","","","html-keyboard-response","110","266880","0.0-2.0-7.0-0.5","6066736bd2119d9d5f7232eb","C3","batch3","","null","<p class=block-text>Trial 45 out of 78</p>","null","pattern_show_trial_num","","","","","","","","","","","","","","","","","","","","","","","","",""
"","","","","","image-keyboard-response","111","267885","0.0-2.0-7.0-1.5","6066736bd2119d9d5f7232eb","C3","batch3","","1003.6000001430511","stim/no_20_1_w.png","j","pattern_response","true","j","pattern_06","1003.6000001430511","true","43","","","","","","","","","","","","","","","","","","",""
"","","","","","html-keyboard-response","112","269204","0.0-2.0-7.0-0.6","6066736bd2119d9d5f7232eb","C3","batch3","","null","<p class=block-text>Trial 46 out of 78</p>","null","pattern_show_trial_num","","","","","","","","","","","","","","","","","","","","","","","","",""
"","","","","","image-keyboard-response","113","270607","0.0-2.0-7.0-1.6","6066736bd2119d9d5f7232eb","C3","batch3","","1402.2000000476837","stim/no_32_1_w.png","j","pattern_response","true","j","pattern_14","1402.2000000476837","true","44","","","","","","","","","","","","","","","","","","",""
"","","","","","html-keyboard-response","114","271929","0.0-2.0-7.0-0.7","6066736bd2119d9d5f7232eb","C3","batch3","","null","<p class=block-text>Trial 47 out of 78</p>","null","pattern_show_trial_num","","","","","","","","","","","","","","","","","","","","","","","","",""
"","","","","","image-keyboard-response","115","272962","0.0-2.0-7.0-1.7","6066736bd2119d9d5f7232eb","C3","batch3","","1032.4000000953674","stim/yes_28_ver_b1.png","f","pattern_response","true","f","pattern_51","1032.4000000953674","true","45","","","","","","","","","","","","","","","","","","",""
"","","","","","html-keyboard-response","116","274282","0.0-2.0-7.0-0.8","6066736bd2119d9d5f7232eb","C3","batch3","","null","<p class=block-text>Trial 48 out of 78</p>","null","pattern_show_trial_num","","","","","","","","","","","","","","","","","","","","","","","","",""
"","","","","","image-keyboard-response","117","275247","0.0-2.0-7.0-1.8","6066736bd2119d9d5f7232eb","C3","batch3","","963.3999998569489","stim/yes_22_ver_w1.png","f","pattern_response","true","f","pattern_47","963.3999998569489","true","46","","","","","","","","","","","","","","","","","","",""
"","","","","","html-keyboard-response","118","276551","0.0-2.0-7.0-0.9","6066736bd2119d9d5f7232eb","C3","batch3","","null","<p class=block-text>Trial 49 out of 78</p>","null","pattern_show_trial_num","","","","","","","","","","","","","","","","","","","","","","","","",""
"","","","","","image-keyboard-response","119","278754","0.0-2.0-7.0-1.9","6066736bd2119d9d5f7232eb","C3","batch3","","2202","stim/no_44_1.png","j","pattern_response","true","j","pattern_24","2202","true","47","","","","","","","","","","","","","","","","","","",""
"","","","","","html-keyboard-response","120","280083","0.0-2.0-7.0-0.10","6066736bd2119d9d5f7232eb","C3","batch3","","null","<p class=block-text>Trial 50 out of 78</p>","null","pattern_show_trial_num","","","","","","","","","","","","","","","","","","","","","","","","",""
"","","","","","image-keyboard-response","121","283062","0.0-2.0-7.0-1.10","6066736bd2119d9d5f7232eb","C3","batch3","","2977.4000000953674","stim/no_65_1_b.png","j","pattern_response","true","j","pattern_38","2977.4000000953674","true","48","","","","","","","","","","","","","","","","","","",""
"","","","","","html-keyboard-response","122","284375","0.0-2.0-7.0-0.11","6066736bd2119d9d5f7232eb","C3","batch3","","null","<p class=block-text>Trial 51 out of 78</p>","null","pattern_show_trial_num","","","","","","","","","","","","","","","","","","","","","","","","",""
"","","","","","image-keyboard-response","123","285281","0.0-2.0-7.0-1.11","6066736bd2119d9d5f7232eb","C3","batch3","","904.2999999523163","stim/yes_25_hor_b1_b.png","f","pattern_response","true","f","pattern_49","904.2999999523163","true","49","","","","","","","","","","","","","","","","","","",""
"","","","","","html-keyboard-response","124","286596","0.0-2.0-7.0-0.12","6066736bd2119d9d5f7232eb","C3","batch3","","null","<p class=block-text>Trial 52 out of 78</p>","null","pattern_show_trial_num","","","","","","","","","","","","","","","","","","","","","","","","",""
"","","","","","image-keyboard-response","125","289293","0.0-2.0-7.0-1.12","6066736bd2119d9d5f7232eb","C3","batch3","","2695.399999856949","stim/yes_50_dia_w1.png","j","pattern_response","false","f","pattern_71","2695.399999856949","false","49","","","","","","","","","","","","","","","","","","",""
"","","","","","html-keyboard-response","126","290610","0.0-2.0-7.0-0.13","6066736bd2119d9d5f7232eb","C3","batch3","","null","<p class=block-text>Trial 53 out of 78</p>","null","pattern_show_trial_num","","","","","","","","","","","","","","","","","","","","","","","","",""
"","","","","","image-keyboard-response","127","293138","0.0-2.0-7.0-1.13","6066736bd2119d9d5f7232eb","C3","batch3","","2525.5999999046326","stim/no_50_1.png","j","pattern_response","true","j","pattern_30","2525.5999999046326","true","50","","","","","","","","","","","","","","","","","","",""
"","","","","","html-keyboard-response","128","294453","0.0-2.0-7.0-0.14","6066736bd2119d9d5f7232eb","C3","batch3","","null","<p class=block-text>Trial 54 out of 78</p>","null","pattern_show_trial_num","","","","","","","","","","","","","","","","","","","","","","","","",""
"","","","","","image-keyboard-response","129","295892","0.0-2.0-7.0-1.14","6066736bd2119d9d5f7232eb","C3","batch3","","1437.2999999523163","stim/no_29_1_b.png","j","pattern_response","true","j","pattern_12","1437.2999999523163","true","51","","","","","","","","","","","","","","","","","","",""
"","","","","","html-keyboard-response","130","297195","0.0-2.0-7.0-0.15","6066736bd2119d9d5f7232eb","C3","batch3","","null","<p class=block-text>Trial 55 out of 78</p>","null","pattern_show_trial_num","","","","","","","","","","","","","","","","","","","","","","","","",""
"","","","","","image-keyboard-response","131","298566","0.0-2.0-7.0-1.15","6066736bd2119d9d5f7232eb","C3","batch3","","1369.7000000476837","stim/no_17_1_w.png","j","pattern_response","true","j","pattern_04","1369.7000000476837","true","52","","","","","","","","","","","","","","","","","","",""
"","","","","","html-keyboard-response","132","299872","0.0-2.0-7.0-0.16","6066736bd2119d9d5f7232eb","C3","batch3","","null","<p class=block-text>Trial 56 out of 78</p>","null","pattern_show_trial_num","","","","","","","","","","","","","","","","","","","","","","","","",""
"","","","","","image-keyboard-response","133","302037","0.0-2.0-7.0-1.16","6066736bd2119d9d5f7232eb","C3","batch3","","2162.5999999046326","stim/yes_38_hor_b1_b.png","f","pattern_response","true","f","pattern_61","2162.5999999046326","true","53","","","","","","","","","","","","","","","","","","",""
"","","","","","html-keyboard-response","134","303343","0.0-2.0-7.0-0.17","6066736bd2119d9d5f7232eb","C3","batch3","","null","<p class=block-text>Trial 57 out of 78</p>","null","pattern_show_trial_num","","","","","","","","","","","","","","","","","","","","","","","","",""
"","","","","","image-keyboard-response","135","304432","0.0-2.0-7.0-1.17","6066736bd2119d9d5f7232eb","C3","batch3","","1088.5999999046326","stim/yes_14_hor_b1_w.png","f","pattern_response","true","f","pattern_43","1088.5999999046326","true","54","","","","","","","","","","","","","","","","","","",""
"","","","","","html-keyboard-response","136","305760","0.0-2.0-7.0-0.18","6066736bd2119d9d5f7232eb","C3","batch3","","null","<p class=block-text>Trial 58 out of 78</p>","null","pattern_show_trial_num","","","","","","","","","","","","","","","","","","","","","","","","",""
"","","","","","image-keyboard-response","137","311513","0.0-2.0-7.0-1.18","6066736bd2119d9d5f7232eb","C3","batch3","","5747.299999952316","stim/no_62_1_w.png","j","pattern_response","true","j","pattern_36","5747.299999952316","true","55","","","","","","","","","","","","","","","","","","",""
"","","","","","html-keyboard-response","138","312816","0.0-2.0-7.0-0.19","6066736bd2119d9d5f7232eb","C3","batch3","","null","<p class=block-text>Trial 59 out of 78</p>","null","pattern_show_trial_num","","","","","","","","","","","","","","","","","","","","","","","","",""
"","","","","","image-keyboard-response","139","314936","0.0-2.0-7.0-1.19","6066736bd2119d9d5f7232eb","C3","batch3","","2117.7000000476837","stim/no_48_1_w.png","j","pattern_response","true","j","pattern_28","2117.7000000476837","true","56","","","","","","","","","","","","","","","","","","",""
"","","","","","html-keyboard-response","140","316263","0.0-2.0-7.0-0.20","6066736bd2119d9d5f7232eb","C3","batch3","","null","<p class=block-text>Trial 60 out of 78</p>","null","pattern_show_trial_num","","","","","","","","","","","","","","","","","","","","","","","","",""
"","","","","","image-keyboard-response","141","317546","0.0-2.0-7.0-1.20","6066736bd2119d9d5f7232eb","C3","batch3","","1281.0999999046326","stim/no_26_1_w.png","j","pattern_response","true","j","pattern_10","1281.0999999046326","true","57","","","","","","","","","","","","","","","","","","",""
"","","","","","html-keyboard-response","142","318869","0.0-2.0-7.0-0.21","6066736bd2119d9d5f7232eb","C3","batch3","","null","<p class=block-text>Trial 61 out of 78</p>","null","pattern_show_trial_num","","","","","","","","","","","","","","","","","","","","","","","","",""
"","","","","","image-keyboard-response","143","319822","0.0-2.0-7.0-1.21","6066736bd2119d9d5f7232eb","C3","batch3","","951.4000000953674","stim/yes_60_ver_b1_b.png","f","pattern_response","true","f","pattern_77","951.4000000953674","true","58","","","","","","","","","","","","","","","","","","",""
"","","","","","html-keyboard-response","144","321148","0.0-2.0-7.0-0.22","6066736bd2119d9d5f7232eb","C3","batch3","","null","<p class=block-text>Trial 62 out of 78</p>","null","pattern_show_trial_num","","","","","","","","","","","","","","","","","","","","","","","","",""
"","","","","","image-keyboard-response","145","324066","0.0-2.0-7.0-1.22","6066736bd2119d9d5f7232eb","C3","batch3","","2917.0999999046326","stim/no_36_2_w.png","j","pattern_response","true","j","pattern_18","2917.0999999046326","true","59","","","","","","","","","","","","","","","","","","",""
"","","","","","html-keyboard-response","146","325381","0.0-2.0-7.0-0.23","6066736bd2119d9d5f7232eb","C3","batch3","","null","<p class=block-text>Trial 63 out of 78</p>","null","pattern_show_trial_num","","","","","","","","","","","","","","","","","","","","","","","","",""
"","","","","","image-keyboard-response","147","326357","0.0-2.0-7.0-1.23","6066736bd2119d9d5f7232eb","C3","batch3","","974.6000001430511","stim/yes_43_ver_w1_w.png","f","pattern_response","true","f","pattern_65","974.6000001430511","true","60","","","","","","","","","","","","","","","","","","",""
"","","","","","html-keyboard-response","148","327662","0.0-2.0-7.0-0.24","6066736bd2119d9d5f7232eb","C3","batch3","","null","<p class=block-text>Trial 64 out of 78</p>","null","pattern_show_trial_num","","","","","","","","","","","","","","","","","","","","","","","","",""
"","","","","","image-keyboard-response","149","329000","0.0-2.0-7.0-1.24","6066736bd2119d9d5f7232eb","C3","batch3","","1336.7999999523163","stim/no_23_1.png","j","pattern_response","true","j","pattern_08","1336.7999999523163","true","61","","","","","","","","","","","","","","","","","","",""
"","","","","","html-keyboard-response","150","330327","0.0-2.0-7.0-0.25","6066736bd2119d9d5f7232eb","C3","batch3","","null","<p class=block-text>Trial 65 out of 78</p>","null","pattern_show_trial_num","","","","","","","","","","","","","","","","","","","","","","","","",""
"","","","","","image-keyboard-response","151","331324","0.0-2.0-7.0-1.25","6066736bd2119d9d5f7232eb","C3","batch3","","995.7999999523163","stim/yes_17_dia_w1.png","f","pattern_response","true","f","pattern_45","995.7999999523163","true","62","","","","","","","","","","","","","","","","","","",""
"","","","","","html-keyboard-response","152","332637","0.0-2.0-7.0-0.26","6066736bd2119d9d5f7232eb","C3","batch3","","null","<p class=block-text>Trial 66 out of 78</p>","null","pattern_show_trial_num","","","","","","","","","","","","","","","","","","","","","","","","",""
"","","","","","image-keyboard-response","153","335464","0.0-2.0-7.0-1.26","6066736bd2119d9d5f7232eb","C3","batch3","","2825.899999856949","stim/yes_55_hor_w1_w.png","f","pattern_response","true","f","pattern_75","2825.899999856949","true","63","","","","","","","","","","","","","","","","","","",""
"","","","","","html-keyboard-response","154","336781","0.0-2.0-7.0-0.27","6066736bd2119d9d5f7232eb","C3","batch3","","null","<p class=block-text>Trial 67 out of 78</p>","null","pattern_show_trial_num","","","","","","","","","","","","","","","","","","","","","","","","",""
"","","","","","image-keyboard-response","155","339056","0.0-2.0-7.0-1.27","6066736bd2119d9d5f7232eb","C3","batch3","","2272.9000000953674","stim/no_34_1_b.png","j","pattern_response","true","j","pattern_16","2272.9000000953674","true","64","","","","","","","","","","","","","","","","","","",""
"","","","","","html-keyboard-response","156","340378","0.0-2.0-7.0-0.28","6066736bd2119d9d5f7232eb","C3","batch3","","null","<p class=block-text>Trial 68 out of 78</p>","null","pattern_show_trial_num","","","","","","","","","","","","","","","","","","","","","","","","",""
"","","","","","image-keyboard-response","157","341801","0.0-2.0-7.0-1.28","6066736bd2119d9d5f7232eb","C3","batch3","","1421.5999999046326","stim/yes_29_ver_w1.png","j","pattern_response","false","f","pattern_53","1421.5999999046326","false","64","","","","","","","","","","","","","","","","","","",""
"","","","","","html-keyboard-response","158","343128","0.0-2.0-7.0-0.29","6066736bd2119d9d5f7232eb","C3","batch3","","null","<p class=block-text>Trial 69 out of 78</p>","null","pattern_show_trial_num","","","","","","","","","","","","","","","","","","","","","","","","",""
"","","","","","image-keyboard-response","159","347153","0.0-2.0-7.0-1.29","6066736bd2119d9d5f7232eb","C3","batch3","","4022.899999856949","stim/no_52_1.png","j","pattern_response","true","j","pattern_32","4022.899999856949","true","65","","","","","","","","","","","","","","","","","","",""
"","","","","","html-keyboard-response","160","348466","0.0-2.0-7.0-0.30","6066736bd2119d9d5f7232eb","C3","batch3","","null","<p class=block-text>Trial 70 out of 78</p>","null","pattern_show_trial_num","","","","","","","","","","","","","","","","","","","","","","","","",""
"","","","","","image-keyboard-response","161","352710","0.0-2.0-7.0-1.30","6066736bd2119d9d5f7232eb","C3","batch3","","4242.700000047684","stim/no_55_1_w.png","j","pattern_response","true","j","pattern_34","4242.700000047684","true","66","","","","","","","","","","","","","","","","","","",""
"","","","","","html-keyboard-response","162","354019","0.0-2.0-7.0-0.31","6066736bd2119d9d5f7232eb","C3","batch3","","null","<p class=block-text>Trial 71 out of 78</p>","null","pattern_show_trial_num","","","","","","","","","","","","","","","","","","","","","","","","",""
"","","","","","image-keyboard-response","163","357639","0.0-2.0-7.0-1.31","6066736bd2119d9d5f7232eb","C3","batch3","","3618.399999856949","stim/yes_37_dia_w1.png","j","pattern_response","false","f","pattern_59","3618.399999856949","false","66","","","","","","","","","","","","","","","","","","",""
"","","","","","html-keyboard-response","164","358950","0.0-2.0-7.0-0.32","6066736bd2119d9d5f7232eb","C3","batch3","","null","<p class=block-text>Trial 72 out of 78</p>","null","pattern_show_trial_num","","","","","","","","","","","","","","","","","","","","","","","","",""
"","","","","","image-keyboard-response","165","360503","0.0-2.0-7.0-1.32","6066736bd2119d9d5f7232eb","C3","batch3","","1552.1000001430511","stim/yes_48_dia_w1_w.png","f","pattern_response","true","f","pattern_69","1552.1000001430511","true","67","","","","","","","","","","","","","","","","","","",""
"","","","","","html-keyboard-response","166","361809","0.0-2.0-7.0-0.33","6066736bd2119d9d5f7232eb","C3","batch3","","null","<p class=block-text>Trial 73 out of 78</p>","null","pattern_show_trial_num","","","","","","","","","","","","","","","","","","","","","","","","",""
"","","","","","image-keyboard-response","167","363576","0.0-2.0-7.0-1.33","6066736bd2119d9d5f7232eb","C3","batch3","","1765.5","stim/yes_45_hor_b2_b.png","f","pattern_response","true","f","pattern_67","1765.5","true","68","","","","","","","","","","","","","","","","","","",""
"","","","","","html-keyboard-response","168","364904","0.0-2.0-7.0-0.34","6066736bd2119d9d5f7232eb","C3","batch3","","null","<p class=block-text>Trial 74 out of 78</p>","null","pattern_show_trial_num","","","","","","","","","","","","","","","","","","","","","","","","",""
"","","","","","image-keyboard-response","169","368083","0.0-2.0-7.0-1.34","6066736bd2119d9d5f7232eb","C3","batch3","","3178","stim/no_42_1_w.png","j","pattern_response","true","j","pattern_22","3178","true","69","","","","","","","","","","","","","","","","","","",""
"","","","","","html-keyboard-response","170","369392","0.0-2.0-7.0-0.35","6066736bd2119d9d5f7232eb","C3","batch3","","null","<p class=block-text>Trial 75 out of 78</p>","null","pattern_show_trial_num","","","","","","","","","","","","","","","","","","","","","","","","",""
"","","","","","image-keyboard-response","171","372717","0.0-2.0-7.0-1.35","6066736bd2119d9d5f7232eb","C3","batch3","","3323.2000000476837","stim/no_46_1_b.png","j","pattern_response","true","j","pattern_26","3323.2000000476837","true","70","","","","","","","","","","","","","","","","","","",""
"","","","","","html-keyboard-response","172","374034","0.0-2.0-7.0-0.36","6066736bd2119d9d5f7232eb","C3","batch3","","null","<p class=block-text>Trial 76 out of 78</p>","null","pattern_show_trial_num","","","","","","","","","","","","","","","","","","","","","","","","",""
"","","","","","image-keyboard-response","173","378132","0.0-2.0-7.0-1.36","6066736bd2119d9d5f7232eb","C3","batch3","","4096.400000095367","stim/no_70_2.png","j","pattern_response","true","j","pattern_40","4096.400000095367","true","71","","","","","","","","","","","","","","","","","","",""
"","","","","","html-keyboard-response","174","379442","0.0-2.0-7.0-0.37","6066736bd2119d9d5f7232eb","C3","batch3","","null","<p class=block-text>Trial 77 out of 78</p>","null","pattern_show_trial_num","","","","","","","","","","","","","","","","","","","","","","","","",""
"","","","","","image-keyboard-response","175","380447","0.0-2.0-7.0-1.37","6066736bd2119d9d5f7232eb","C3","batch3","","1002.7999999523163","stim/yes_52_ver_w1.png","f","pattern_response","true","f","pattern_73","1002.7999999523163","true","72","","","","","","","","","","","","","","","","","","",""
"","","","","","html-keyboard-response","176","381761","0.0-2.0-7.0-0.38","6066736bd2119d9d5f7232eb","C3","batch3","","null","<p class=block-text>Trial 78 out of 78</p>","null","pattern_show_trial_num","","","","","","","","","","","","","","","","","","","","","","","","",""
"","","","","","image-keyboard-response","177","383902","0.0-2.0-7.0-1.38","6066736bd2119d9d5f7232eb","C3","batch3","","2139.5999999046326","stim/yes_40_dia_b1_b.png","f","pattern_response","true","f","pattern_63","2139.5999999046326","true","73","","","","","","","","","","","","","","","","","","",""
"","","","","","html-button-response","178","388873","0.0-2.0-8.0","6066736bd2119d9d5f7232eb","C3","batch3","","4467.599999904633","<p class = block-text>This concludes the 4-in-a-row detection game.Thank you for your responses!<br>
            You responded correctly on 94% of the trials.<br>
            When you are ready, press ""Continue"" button to continue </p>","0","","","","","","","","","","","","","","","","","","","","","","","","","",""
"true","","","","","fullscreen","179","395175","0.0-3.0-0.0","6066736bd2119d9d5f7232eb","C3","batch3","","","","","","","","","","","","","","","","","","","","","","","","","","","","","",""
"","","","","","instructions","180","496060","0.0-3.0-1.0-0.0-0.0","6066736bd2119d9d5f7232eb","C3","batch3","[{""page_index"":0,""viewing_time"":17472.700000047684},{""page_index"":1,""viewing_time"":10150.5},{""page_index"":2,""viewing_time"":11456.400000095367},{""page_index"":3,""viewing_time"":17629},{""page_index"":4,""viewing_time"":10588.700000047684},{""page_index"":5,""viewing_time"":29234.39999985695},{""page_index"":6,""viewing_time"":4353}]","100885","","","tol-instructions","","","","","","","","","","","","","","","","","","","","","","","","",""
"","","","","","html-button-response","181","497591","0.0-3.0-1.0-1.0-0.0","6066736bd2119d9d5f7232eb","C3","batch3","","1530.3999998569489","<p class=block-text> Let's answer a few questions <br>","0","tol_enter_quiz","","","","","","","","","","","","","","","","","","","","","","","","",""
"","","","","","html-button-response","182","502811","0.0-3.0-1.0-1.0-1.0","6066736bd2119d9d5f7232eb","C3","batch3","","5218.100000143051","<p class = block-text>True or False: You can only move the ball on top of a peg. <br></p>","1","tol_quiz","false","","","","","","","","","","","","","","","","","","","","","","","",""
"","","","","","html-button-response","183","504918","0.0-3.0-1.0-1.0-2.0","6066736bd2119d9d5f7232eb","C3","batch3","","2106.0999999046326","<p class = block-text>Incorrect. Remember, you can only move the ball on top of a peg.</p>","0","tol_quiz_feedback","","","","","","","","","","","","","","","","","","","","","","","","",""
"","","","","","html-button-response","184","508532","0.0-3.0-1.0-1.0-3.0","6066736bd2119d9d5f7232eb","C3","batch3","","3613.7000000476837","<p class = block-text>True or False: You should try to match your board with the target board with fewest moves possible. <br></p>","0","tol_quiz","true","","","","","","","","","","","","","","","","","","","","","","","",""
"","","","","","html-button-response","185","510075","0.0-3.0-1.0-1.0-4.0","6066736bd2119d9d5f7232eb","C3","batch3","","1541.1999998092651","<p class = block-text>Correct! </p>","0","tol_quiz_feedback","","","","","","","","","","","","","","","","","","","","","","","","",""
"","","","","","html-button-response","186","512408","0.0-3.0-1.0-2.0-0.0","6066736bd2119d9d5f7232eb","C3","batch3","","2332.7999999523163","<p class = block-text>You made too many incorrect choices.</p><p class = block-text>You will now repeat the instructions and quiz</p>","0","","","","","","","","","","","","","","","","","","","","","","","","","",""
"","","","","","instructions","187","523086","0.0-3.0-1.1-0.1-0.1","6066736bd2119d9d5f7232eb","C3","batch3","[{""page_index"":0,""viewing_time"":1529.7000000476837},{""page_index"":1,""viewing_time"":1519.2999999523163},{""page_index"":2,""viewing_time"":965},{""page_index"":3,""viewing_time"":877.5},{""page_index"":4,""viewing_time"":816.2000000476837},{""page_index"":5,""viewing_time"":702.3999998569489},{""page_index"":6,""viewing_time"":4266.5}]","10676.899999856949","","","tol-instructions","","","","","","","","","","","","","","","","","","","","","","","","",""
"","","","","","html-button-response","188","524628","0.0-3.0-1.1-1.1-0.1","6066736bd2119d9d5f7232eb","C3","batch3","","1541.5","<p class=block-text> Let's answer a few questions <br>","0","tol_enter_quiz","","","","","","","","","","","","","","","","","","","","","","","","",""
"","","","","","html-button-response","189","527037","0.0-3.0-1.1-1.1-1.1","6066736bd2119d9d5f7232eb","C3","batch3","","2408","<p class = block-text>True or False: You can only move the ball on top of a peg. <br></p>","0","tol_quiz","true","","","","","","","","","","","","","","","","","","","","","","","",""
"","","","","","html-button-response","190","528757","0.0-3.0-1.1-1.1-2.1","6066736bd2119d9d5f7232eb","C3","batch3","","1718.5999999046326","<p class = block-text>Correct! You can only move the ball on top of a peg.</p>","0","tol_quiz_feedback","","","","","","","","","","","","","","","","","","","","","","","","",""
"","","","","","html-button-response","191","530989","0.0-3.0-1.1-1.1-3.1","6066736bd2119d9d5f7232eb","C3","batch3","","2231.9000000953674","<p class = block-text>True or False: You should try to match your board with the target board with fewest moves possible. <br></p>","0","tol_quiz","true","","","","","","","","","","","","","","","","","","","","","","","",""
"","","","","","html-button-response","192","532145","0.0-3.0-1.1-1.1-4.1","6066736bd2119d9d5f7232eb","C3","batch3","","1154.2999999523163","<p class = block-text>Correct! </p>","0","tol_quiz_feedback","","","","","","","","","","","","","","","","","","","","","","","","",""
"","","","","","html-button-response","193","537176","0.0-3.0-2.0","6066736bd2119d9d5f7232eb","C3","batch3","","5030.099999904633","<p class=block-text> Now that you've understood the game, let's practice a few easier examples before we start!<br> <br>","0","","","","","","","","","","","","","","","","","","","","","","","","","",""
"","","","","","single-stim-button","194","540767","0.0-3.0-3.0-0.0","6066736bd2119d9d5f7232eb","C3","batch3","","3588","","","tol_practice","","","","","","","","","tol_peg_2","3588","3588","0","[[1,2,0],[0,0],[0]]","1","[[1,2,0],[0,0],[3]]","practice","3588","","","","","","","",""
"","","","","","single-stim-button","195","542133","0.0-3.0-3.0-1.0","6066736bd2119d9d5f7232eb","C3","batch3","","1365","","","tol_practice","","","","","","","","","tol_peg_3","1365","1365","0","[[1,2,0],[0,0],[3]]","1","[[1,2,0],[0,0],[3]]","practice","1365","","","","","","","",""
"","","","","","poldrack-single-stim","196","543134","0.0-3.0-4.0","6066736bd2119d9d5f7232eb","C3","batch3","","-1","","","tol_feedback","true","","","","","","","","","1000","1000","500","","","","","","-1","none","true","","0","","",""
"","","","","","single-stim-button","197","547980","0.0-3.0-5.0-0.0","6066736bd2119d9d5f7232eb","C3","batch3","","4845","","","tol_practice","","","","","","","","","tol_peg_1","4845","4845","0","[[1,0,0],[3,0],[0]]","2","[[0,0,0],[3,1],[2]]","practice","4845","","","","","","","",""
"","","","","","single-stim-button","198","551606","0.0-3.0-5.0-1.0","6066736bd2119d9d5f7232eb","C3","batch3","","3625","","","tol_practice","","","","","","","","","tol_peg_3","3625","3625","0","[[1,0,0],[3,0],[2]]","2","[[0,0,0],[3,1],[2]]","practice","3625","","","","","","","",""
"","","","","","single-stim-button","199","553074","0.0-3.0-5.1-0.1","6066736bd2119d9d5f7232eb","C3","batch3","","1468","","","tol_practice","","","","","","","","","tol_peg_1","1468","1468","0","[[0,0,0],[3,0],[2]]","3","[[0,0,0],[3,1],[2]]","practice","1468","","","","","","","",""
"","","","","","single-stim-button","200","554353","0.0-3.0-5.1-1.1","6066736bd2119d9d5f7232eb","C3","batch3","","1279","","","tol_practice","","","","","","","","","tol_peg_2","1279","1279","0","[[0,0,0],[3,1],[2]]","3","[[0,0,0],[3,1],[2]]","practice","1279","","","","","","","",""
"","","","","","poldrack-single-stim","201","555355","0.0-3.0-6.0","6066736bd2119d9d5f7232eb","C3","batch3","","-1","","","tol_feedback","true","","","","","","","","","1000","1000","500","","","","","","-1","none","true","","0","","",""
"","","","","","single-stim-button","202","559410","0.0-3.0-7.0-0.0","6066736bd2119d9d5f7232eb","C3","batch3","","4055","","","tol_practice","","","","","","","","","tol_peg_2","4055","4055","0","[[1,2,0],[0,0],[0]]","4","[[1,0,0],[2,0],[3]]","practice","4055","","","","","","","",""
"","","","","","single-stim-button","203","560741","0.0-3.0-7.0-1.0","6066736bd2119d9d5f7232eb","C3","batch3","","1329","","","tol_practice","","","","","","","","","tol_peg_3","1329","1329","0","[[1,2,0],[0,0],[3]]","4","[[1,0,0],[2,0],[3]]","practice","1329","","","","","","","",""
"","","","","","single-stim-button","204","561983","0.0-3.0-7.1-0.1","6066736bd2119d9d5f7232eb","C3","batch3","","1242","","","tol_practice","","","","","","","","","tol_peg_1","1242","1242","0","[[1,0,0],[0,0],[3]]","5","[[1,0,0],[2,0],[3]]","practice","1242","","","","","","","",""
"","","","","","single-stim-button","205","563162","0.0-3.0-7.1-1.1","6066736bd2119d9d5f7232eb","C3","batch3","","1178","","","tol_practice","","","","","","","","","tol_peg_2","1178","1178","0","[[1,0,0],[2,0],[3]]","5","[[1,0,0],[2,0],[3]]","practice","1178","","","","","","","",""
"","","","","","poldrack-single-stim","206","564165","0.0-3.0-8.0","6066736bd2119d9d5f7232eb","C3","batch3","","-1","","","tol_feedback","true","","","","","","","","","1000","1000","500","","","","","","-1","none","true","","0","","",""
"","","","","","html-button-response","207","570690","0.0-3.0-9.0","6066736bd2119d9d5f7232eb","C3","batch3","","6524.200000047684","<div class = centerbox><p class = center-block-text>Great job! You are done with practice trials<br>You are about to start official trials.<br> <br> Problem <strong>1</strong> out of 25 problems</p></div>","0","tol_instruction","","","","","","","","","","","","","","","","","","","","","","","","",""
"","","","","","single-stim-button","208","574956","0.0-3.0-10.0-0.0","6066736bd2119d9d5f7232eb","C3","batch3","","3259","","","tol_tohand","","","","","","","","","tol_peg_1","3259","3259","0","[[1,0,0],[3,0],[0]]","1","[[1,3,0],[2,0],[0]]","0","0","","","","","","3","",""
"","","","","","single-stim-button","209","577252","0.0-3.0-10.0-1.0","6066736bd2119d9d5f7232eb","C3","batch3","","2295","","","tol_toboard","","","","","","","","","tol_peg_2","2295","2295","0","[[1,0,0],[3,2],[0]]","1","[[1,3,0],[2,0],[0]]","0","0","","","","","","3","",""
"","","","","","single-stim-button","210","579624","0.0-3.0-10.1-0.1","6066736bd2119d9d5f7232eb","C3","batch3","","2371","","","tol_tohand","","","","","","","","","tol_peg_2","2371","2371","0","[[1,0,0],[3,0],[0]]","2","[[1,3,0],[2,0],[0]]","0","0","","","","","","3","",""
"","","","","","single-stim-button","211","580741","0.0-3.0-10.1-1.1","6066736bd2119d9d5f7232eb","C3","batch3","","1116","","","tol_toboard","","","","","","","","","tol_peg_3","1116","1116","0","[[1,0,0],[3,0],[2]]","2","[[1,3,0],[2,0],[0]]","0","0","","","","","","3","",""
"","","","","","single-stim-button","212","581707","0.0-3.0-10.2-0.2","6066736bd2119d9d5f7232eb","C3","batch3","","965","","","tol_tohand","","","","","","","","","tol_peg_2","965","965","0","[[1,0,0],[0,0],[2]]","3","[[1,3,0],[2,0],[0]]","0","0","","","","","","3","",""
"","","","","","single-stim-button","213","582923","0.0-3.0-10.2-1.2","6066736bd2119d9d5f7232eb","C3","batch3","","1216","","","tol_toboard","","","","","","","","","tol_peg_1","1216","1216","0","[[1,3,0],[0,0],[2]]","3","[[1,3,0],[2,0],[0]]","0","0","","","","","","3","",""
"","","","","","single-stim-button","214","584178","0.0-3.0-10.3-0.3","6066736bd2119d9d5f7232eb","C3","batch3","","1254","","","tol_tohand","","","","","","","","","tol_peg_3","1254","1254","0","[[1,3,0],[0,0],[0]]","4","[[1,3,0],[2,0],[0]]","0","0","","","","","","3","",""
"","","","","","single-stim-button","215","585233","0.0-3.0-10.3-1.3","6066736bd2119d9d5f7232eb","C3","batch3","","1054","","","tol_toboard","","","","","","","","","tol_peg_2","1054","1054","0","[[1,3,0],[2,0],[0]]","4","[[1,3,0],[2,0],[0]]","0","0","","","","","","3","",""
"","","","","","poldrack-single-stim","216","586234","0.0-3.0-11.0","6066736bd2119d9d5f7232eb","C3","batch3","","-1","","","tol_feedback","true","","","","","","","","","1000","1000","500","","","","","","-1","none","true","3259","7849","","",""
"","","","","","html-button-response","217","587779","0.0-3.0-12.0","6066736bd2119d9d5f7232eb","C3","batch3","","1544.0999999046326","<div class = centerbox><p class = center-block-text>problem <strong>2</strong> out of 25 problems</p></div>","0","tol_trial_num","","","","","","","","","","","","","","","","","","","","","","","","",""
"","","","","","single-stim-button","218","590664","0.0-3.0-13.0-0.0","6066736bd2119d9d5f7232eb","C3","batch3","","2884","","","tol_tohand","","","","","","","","","tol_peg_1","2884","2884","0","[[1,0,0],[3,0],[0]]","1","[[2,1,3],[0,0],[0]]","1","0","","","","","","5","",""
"","","","","","single-stim-button","219","591806","0.0-3.0-13.0-1.0","6066736bd2119d9d5f7232eb","C3","batch3","","1142","","","tol_toboard","","","","","","","","","tol_peg_3","1142","1142","0","[[1,0,0],[3,0],[2]]","1","[[2,1,3],[0,0],[0]]","1","0","","","","","","5","",""
"","","","","","single-stim-button","220","593249","0.0-3.0-13.1-0.1","6066736bd2119d9d5f7232eb","C3","batch3","","1443","","","tol_tohand","","","","","","","","","tol_peg_1","1443","1443","0","[[0,0,0],[3,0],[2]]","2","[[2,1,3],[0,0],[0]]","1","0","","","","","","5","",""
"","","","","","single-stim-button","221","603022","0.0-3.0-13.1-1.1","6066736bd2119d9d5f7232eb","C3","batch3","","9772","","","tol_toboard","","","","","","","","","tol_peg_1","9772","9772","0","[[1,0,0],[3,0],[2]]","2","[[2,1,3],[0,0],[0]]","1","0","","","","","","5","",""
"","","","","","single-stim-button","222","604314","0.0-3.0-13.2-0.2","6066736bd2119d9d5f7232eb","C3","batch3","","1291","","","tol_tohand","","","","","","","","","tol_peg_2","1291","1291","0","[[1,0,0],[0,0],[2]]","3","[[2,1,3],[0,0],[0]]","1","0","","","","","","5","",""
"","","","","","single-stim-button","223","611166","0.0-3.0-13.2-1.2","6066736bd2119d9d5f7232eb","C3","batch3","","6850","","","tol_toboard","","","","","","","","","tol_peg_2","6850","6850","0","[[1,0,0],[3,0],[2]]","3","[[2,1,3],[0,0],[0]]","1","0","","","","","","5","",""
"","","","","","single-stim-button","224","612144","0.0-3.0-13.3-0.3","6066736bd2119d9d5f7232eb","C3","batch3","","978","","","tol_tohand","","","","","","","","","tol_peg_3","978","978","0","[[1,0,0],[3,0],[0]]","4","[[2,1,3],[0,0],[0]]","1","0","","","","","","5","",""
"","","","","","single-stim-button","225","615820","0.0-3.0-13.3-1.3","6066736bd2119d9d5f7232eb","C3","batch3","","3675","","","tol_toboard","","","","","","","","","tol_peg_1","3675","3675","0","[[1,2,0],[3,0],[0]]","4","[[2,1,3],[0,0],[0]]","1","0","","","","","","5","",""
"","","","","","single-stim-button","226","618468","0.0-3.0-13.4-0.4","6066736bd2119d9d5f7232eb","C3","batch3","","2646","","","tol_tohand","","","","","","","","","tol_peg_2","2646","2646","0","[[1,2,0],[0,0],[0]]","5","[[2,1,3],[0,0],[0]]","1","0","","","","","","5","",""
"","","","","","single-stim-button","227","619785","0.0-3.0-13.4-1.4","6066736bd2119d9d5f7232eb","C3","batch3","","1316","","","tol_toboard","","","","","","","","","tol_peg_3","1316","1316","0","[[1,2,0],[0,0],[3]]","5","[[2,1,3],[0,0],[0]]","1","0","","","","","","5","",""
"","","","","","single-stim-button","228","620938","0.0-3.0-13.5-0.5","6066736bd2119d9d5f7232eb","C3","batch3","","1153","","","tol_tohand","","","","","","","","","tol_peg_1","1153","1153","0","[[1,0,0],[0,0],[3]]","6","[[2,1,3],[0,0],[0]]","1","0","","","","","","5","",""
"","","","","","single-stim-button","229","628994","0.0-3.0-13.5-1.5","6066736bd2119d9d5f7232eb","C3","batch3","","8056","","","tol_toboard","","","","","","","","","tol_peg_2","8056","8056","0","[[1,0,0],[2,0],[3]]","6","[[2,1,3],[0,0],[0]]","1","0","","","","","","5","",""
"","","","","","single-stim-button","230","630148","0.0-3.0-13.6-0.6","6066736bd2119d9d5f7232eb","C3","batch3","","1154","","","tol_tohand","","","","","","","","","tol_peg_1","1154","1154","0","[[0,0,0],[2,0],[3]]","7","[[2,1,3],[0,0],[0]]","1","0","","","","","","5","",""
"","","","","","single-stim-button","231","635078","0.0-3.0-13.6-1.6","6066736bd2119d9d5f7232eb","C3","batch3","","4930","","","tol_toboard","","","","","","","","","tol_peg_1","4930","4930","0","[[1,0,0],[2,0],[3]]","7","[[2,1,3],[0,0],[0]]","1","0","","","","","","5","",""
"","","","","","single-stim-button","232","637865","0.0-3.0-13.7-0.7","6066736bd2119d9d5f7232eb","C3","batch3","","2785","","","tol_tohand","","","","","","","","","tol_peg_3","2785","2785","0","[[1,0,0],[2,0],[0]]","8","[[2,1,3],[0,0],[0]]","1","0","","","","","","5","",""
"","","","","","single-stim-button","233","640901","0.0-3.0-13.7-1.7","6066736bd2119d9d5f7232eb","C3","batch3","","3035","","","tol_toboard","","","","","","","","","tol_peg_1","3035","3035","0","[[1,3,0],[2,0],[0]]","8","[[2,1,3],[0,0],[0]]","1","0","","","","","","5","",""
"","","","","","single-stim-button","234","641101","0.0-3.0-13.8-0.8","6066736bd2119d9d5f7232eb","C3","batch3","","199","","","tol_tohand","","","","","","","","","tol_peg_1","199","199","0","[[1,0,0],[2,0],[0]]","9","[[2,1,3],[0,0],[0]]","1","0","","","","","","5","",""
"","","","","","single-stim-button","235","643234","0.0-3.0-13.8-1.8","6066736bd2119d9d5f7232eb","C3","batch3","","2132","","","tol_toboard","","","","","","","","","tol_peg_1","2132","2132","0","[[1,3,0],[2,0],[0]]","9","[[2,1,3],[0,0],[0]]","1","0","","","","","","5","",""
"","","","","","single-stim-button","236","645643","0.0-3.0-13.9-0.9","6066736bd2119d9d5f7232eb","C3","batch3","","2408","","","tol_tohand","","","","","","","","","tol_peg_2","2408","2408","0","[[1,3,0],[0,0],[0]]","10","[[2,1,3],[0,0],[0]]","1","0","","","","","","5","",""
"","","","","","single-stim-button","237","647060","0.0-3.0-13.9-1.9","6066736bd2119d9d5f7232eb","C3","batch3","","1417","","","tol_toboard","","","","","","","","","tol_peg_3","1417","1417","0","[[1,3,0],[0,0],[2]]","10","[[2,1,3],[0,0],[0]]","1","0","","","","","","5","",""
"","","","","","single-stim-button","238","649080","0.0-3.0-13.10-0.10","6066736bd2119d9d5f7232eb","C3","batch3","","2019","","","tol_tohand","","","","","","","","","tol_peg_1","2019","2019","0","[[1,0,0],[0,0],[2]]","11","[[2,1,3],[0,0],[0]]","1","0","","","","","","5","",""
"","","","","","single-stim-button","239","651238","0.0-3.0-13.10-1.10","6066736bd2119d9d5f7232eb","C3","batch3","","2158","","","tol_toboard","","","","","","","","","tol_peg_2","2158","2158","0","[[1,0,0],[3,0],[2]]","11","[[2,1,3],[0,0],[0]]","1","0","","","","","","5","",""
"","","","","","single-stim-button","240","651251","0.0-3.0-13.11-0.11","6066736bd2119d9d5f7232eb","C3","batch3","","12","","","tol_tohand","","","","","","","","","tol_peg_2","12","12","0","[[1,0,0],[0,0],[2]]","12","[[2,1,3],[0,0],[0]]","1","0","","","","","","5","",""
"","","","","","single-stim-button","241","651264","0.0-3.0-13.11-1.11","6066736bd2119d9d5f7232eb","C3","batch3","","12","","","tol_toboard","","","","","","","","","tol_peg_2","12","12","0","[[1,0,0],[3,0],[2]]","12","[[2,1,3],[0,0],[0]]","1","0","","","","","","5","",""
"","","","","","single-stim-button","242","651278","0.0-3.0-13.12-0.12","6066736bd2119d9d5f7232eb","C3","batch3","","13","","","tol_tohand","","","","","","","","","tol_peg_2","13","13","0","[[1,0,0],[0,0],[2]]","13","[[2,1,3],[0,0],[0]]","1","0","","","","","","5","",""
"","","","","","single-stim-button","243","651288","0.0-3.0-13.12-1.12","6066736bd2119d9d5f7232eb","C3","batch3","","9","","","tol_toboard","","","","","","","","","tol_peg_2","9","9","0","[[1,0,0],[3,0],[2]]","13","[[2,1,3],[0,0],[0]]","1","0","","","","","","5","",""
"","","","","","single-stim-button","244","651301","0.0-3.0-13.13-0.13","6066736bd2119d9d5f7232eb","C3","batch3","","12","","","tol_tohand","","","","","","","","","tol_peg_2","12","12","0","[[1,0,0],[0,0],[2]]","14","[[2,1,3],[0,0],[0]]","1","0","","","","","","5","",""
"","","","","","single-stim-button","245","651314","0.0-3.0-13.13-1.13","6066736bd2119d9d5f7232eb","C3","batch3","","13","","","tol_toboard","","","","","","","","","tol_peg_2","13","13","0","[[1,0,0],[3,0],[2]]","14","[[2,1,3],[0,0],[0]]","1","0","","","","","","5","",""
"","","","","","single-stim-button","246","651326","0.0-3.0-13.14-0.14","6066736bd2119d9d5f7232eb","C3","batch3","","11","","","tol_tohand","","","","","","","","","tol_peg_2","11","11","0","[[1,0,0],[0,0],[2]]","15","[[2,1,3],[0,0],[0]]","1","0","","","","","","5","",""
"","","","","","single-stim-button","247","651339","0.0-3.0-13.14-1.14","6066736bd2119d9d5f7232eb","C3","batch3","","13","","","tol_toboard","","","","","","","","","tol_peg_2","13","13","0","[[1,0,0],[3,0],[2]]","15","[[2,1,3],[0,0],[0]]","1","0","","","","","","5","",""
"","","","","","single-stim-button","248","651352","0.0-3.0-13.15-0.15","6066736bd2119d9d5f7232eb","C3","batch3","","11","","","tol_tohand","","","","","","","","","tol_peg_2","11","11","0","[[1,0,0],[0,0],[2]]","16","[[2,1,3],[0,0],[0]]","1","0","","","","","","5","",""
"","","","","","single-stim-button","249","651364","0.0-3.0-13.15-1.15","6066736bd2119d9d5f7232eb","C3","batch3","","10","","","tol_toboard","","","","","","","","","tol_peg_2","10","10","0","[[1,0,0],[3,0],[2]]","16","[[2,1,3],[0,0],[0]]","1","0","","","","","","5","",""
"","","","","","single-stim-button","250","652343","0.0-3.0-13.16-0.16","6066736bd2119d9d5f7232eb","C3","batch3","","978","","","tol_tohand","","","","","","","","","tol_peg_1","978","978","0","[[0,0,0],[3,0],[2]]","17","[[2,1,3],[0,0],[0]]","1","0","","","","","","5","",""
"","","","","","single-stim-button","251","654275","0.0-3.0-13.16-1.16","6066736bd2119d9d5f7232eb","C3","batch3","","1932","","","tol_toboard","","","","","","","","","tol_peg_2","1932","1932","0","[[0,0,0],[3,1],[2]]","17","[[2,1,3],[0,0],[0]]","1","0","","","","","","5","",""
"","","","","","single-stim-button","252","655166","0.0-3.0-13.17-0.17","6066736bd2119d9d5f7232eb","C3","batch3","","891","","","tol_tohand","","","","","","","","","tol_peg_3","891","891","0","[[0,0,0],[3,1],[0]]","18","[[2,1,3],[0,0],[0]]","1","0","","","","","","5","",""
"","","","","","single-stim-button","253","656433","0.0-3.0-13.17-1.17","6066736bd2119d9d5f7232eb","C3","batch3","","1267","","","tol_toboard","","","","","","","","","tol_peg_1","1267","1267","0","[[2,0,0],[3,1],[0]]","18","[[2,1,3],[0,0],[0]]","1","0","","","","","","5","",""
"","","","","","single-stim-button","254","657475","0.0-3.0-13.18-0.18","6066736bd2119d9d5f7232eb","C3","batch3","","1040","","","tol_tohand","","","","","","","","","tol_peg_2","1040","1040","0","[[2,0,0],[3,0],[0]]","19","[[2,1,3],[0,0],[0]]","1","0","","","","","","5","",""
"","","","","","single-stim-button","255","658604","0.0-3.0-13.18-1.18","6066736bd2119d9d5f7232eb","C3","batch3","","1128","","","tol_toboard","","","","","","","","","tol_peg_1","1128","1128","0","[[2,1,0],[3,0],[0]]","19","[[2,1,3],[0,0],[0]]","1","0","","","","","","5","",""
"","","","","","single-stim-button","256","661277","0.0-3.0-13.19-0.19","6066736bd2119d9d5f7232eb","C3","batch3","","2673","","","tol_tohand","","","","","","","","","tol_peg_2","2673","2673","0","[[2,1,0],[0,0],[0]]","20","[[2,1,3],[0,0],[0]]","1","0","","","","","","5","",""
"","","","","","single-stim-button","257","662393","0.0-3.0-13.19-1.19","6066736bd2119d9d5f7232eb","C3","batch3","","1115","","","tol_toboard","","","","","","","","","tol_peg_1","1115","1115","0","[[2,1,3],[0,0],[0]]","20","[[2,1,3],[0,0],[0]]","1","0","","","","","","5","",""
"","","","","","poldrack-single-stim","258","663410","0.0-3.0-14.0","6066736bd2119d9d5f7232eb","C3","batch3","","-1","","","tol_feedback","true","","","","","","","","","1000","1000","500","","","","","","-1","none","true","2884","24601","","",""
"","","","","","html-button-response","259","664589","0.0-3.0-15.0","6066736bd2119d9d5f7232eb","C3","batch3","","1177.7000000476837","<div class = centerbox><p class = center-block-text>problem <strong>3</strong> out of 25 problems</p></div>","0","tol_trial_num","","","","","","","","","","","","","","","","","","","","","","","","",""
"","","","","","single-stim-button","260","670487","0.0-3.0-16.0-0.0","6066736bd2119d9d5f7232eb","C3","batch3","","5898","","","tol_tohand","","","","","","","","","tol_peg_1","5898","5898","0","[[2,0,0],[0,0],[1]]","1","[[1,2,0],[3,0],[0]]","2","0","","","","","","4","",""
"","","","","","single-stim-button","261","672168","0.0-3.0-16.0-1.0","6066736bd2119d9d5f7232eb","C3","batch3","","1680","","","tol_toboard","","","","","","","","","tol_peg_2","1680","1680","0","[[2,0,0],[3,0],[1]]","1","[[1,2,0],[3,0],[0]]","2","0","","","","","","4","",""
"","","","","","single-stim-button","262","675192","0.0-3.0-16.1-0.1","6066736bd2119d9d5f7232eb","C3","batch3","","3023","","","tol_tohand","","","","","","","","","tol_peg_1","3023","3023","0","[[0,0,0],[3,0],[1]]","2","[[1,2,0],[3,0],[0]]","2","0","","","","","","4","",""
"","","","","","single-stim-button","263","676961","0.0-3.0-16.1-1.1","6066736bd2119d9d5f7232eb","C3","batch3","","1768","","","tol_toboard","","","","","","","","","tol_peg_2","1768","1768","0","[[0,0,0],[3,2],[1]]","2","[[1,2,0],[3,0],[0]]","2","0","","","","","","4","",""
"","","","","","single-stim-button","264","677915","0.0-3.0-16.2-0.2","6066736bd2119d9d5f7232eb","C3","batch3","","952","","","tol_tohand","","","","","","","","","tol_peg_3","952","952","0","[[0,0,0],[3,2],[0]]","3","[[1,2,0],[3,0],[0]]","2","0","","","","","","4","",""
"","","","","","single-stim-button","265","679082","0.0-3.0-16.2-1.2","6066736bd2119d9d5f7232eb","C3","batch3","","1167","","","tol_toboard","","","","","","","","","tol_peg_1","1167","1167","0","[[1,0,0],[3,2],[0]]","3","[[1,2,0],[3,0],[0]]","2","0","","","","","","4","",""
"","","","","","single-stim-button","266","680337","0.0-3.0-16.3-0.3","6066736bd2119d9d5f7232eb","C3","batch3","","1254","","","tol_tohand","","","","","","","","","tol_peg_2","1254","1254","0","[[1,0,0],[3,0],[0]]","4","[[1,2,0],[3,0],[0]]","2","0","","","","","","4","",""
"","","","","","single-stim-button","267","681491","0.0-3.0-16.3-1.3","6066736bd2119d9d5f7232eb","C3","batch3","","1153","","","tol_toboard","","","","","","","","","tol_peg_1","1153","1153","0","[[1,2,0],[3,0],[0]]","4","[[1,2,0],[3,0],[0]]","2","0","","","","","","4","",""
"","","","","","poldrack-single-stim","268","682500","0.0-3.0-17.0","6066736bd2119d9d5f7232eb","C3","batch3","","-1","","","tol_feedback","true","","","","","","","","","1000","1000","500","","","","","","-1","none","true","5898","11127","","",""
"","","","","","html-button-response","269","683900","0.0-3.0-18.0","6066736bd2119d9d5f7232eb","C3","batch3","","1399.5999999046326","<div class = centerbox><p class = center-block-text>problem <strong>4</strong> out of 25 problems</p></div>","0","tol_trial_num","","","","","","","","","","","","","","","","","","","","","","","","",""
"","","","","","single-stim-button","270","690100","0.0-3.0-19.0-0.0","6066736bd2119d9d5f7232eb","C3","batch3","","6198","","","tol_tohand","","","","","","","","","tol_peg_2","6198","6198","0","[[3,0,0],[2,0],[0]]","1","[[3,0,0],[1,0],[2]]","3","0","","","","","","3","",""
"","","","","","single-stim-button","271","691530","0.0-3.0-19.0-1.0","6066736bd2119d9d5f7232eb","C3","batch3","","1430","","","tol_toboard","","","","","","","","","tol_peg_1","1430","1430","0","[[3,1,0],[2,0],[0]]","1","[[3,0,0],[1,0],[2]]","3","0","","","","","","3","",""
"","","","","","single-stim-button","272","692822","0.0-3.0-19.1-0.1","6066736bd2119d9d5f7232eb","C3","batch3","","1291","","","tol_tohand","","","","","","","","","tol_peg_2","1291","1291","0","[[3,1,0],[0,0],[0]]","2","[[3,0,0],[1,0],[2]]","3","0","","","","","","3","",""
"","","","","","single-stim-button","273","693977","0.0-3.0-19.1-1.1","6066736bd2119d9d5f7232eb","C3","batch3","","1155","","","tol_toboard","","","","","","","","","tol_peg_3","1155","1155","0","[[3,1,0],[0,0],[2]]","2","[[3,0,0],[1,0],[2]]","3","0","","","","","","3","",""
"","","","","","single-stim-button","274","694968","0.0-3.0-19.2-0.2","6066736bd2119d9d5f7232eb","C3","batch3","","990","","","tol_tohand","","","","","","","","","tol_peg_1","990","990","0","[[3,0,0],[0,0],[2]]","3","[[3,0,0],[1,0],[2]]","3","0","","","","","","3","",""
"","","","","","single-stim-button","275","696035","0.0-3.0-19.2-1.2","6066736bd2119d9d5f7232eb","C3","batch3","","1066","","","tol_toboard","","","","","","","","","tol_peg_2","1066","1066","0","[[3,0,0],[1,0],[2]]","3","[[3,0,0],[1,0],[2]]","3","0","","","","","","3","",""
"","","","","","poldrack-single-stim","276","697040","0.0-3.0-20.0","6066736bd2119d9d5f7232eb","C3","batch3","","-1","","","tol_feedback","true","","","","","","","","","1000","1000","500","","","","","","-1","none","true","6198","8479","","",""
"","","","","","html-button-response","277","698255","0.0-3.0-21.0","6066736bd2119d9d5f7232eb","C3","batch3","","1214.3999998569489","<div class = centerbox><p class = center-block-text>problem <strong>5</strong> out of 25 problems</p></div>","0","tol_trial_num","","","","","","","","","","","","","","","","","","","","","","","","",""
"","","","","","single-stim-button","278","705897","0.0-3.0-22.0-0.0","6066736bd2119d9d5f7232eb","C3","batch3","","7642","","","tol_tohand","","","","","","","","","tol_peg_3","7642","7642","0","[[1,0,0],[2,0],[0]]","1","[[0,0,0],[1,2],[3]]","4","0","","","","","","7","",""
"","","","","","single-stim-button","279","707954","0.0-3.0-22.0-1.0","6066736bd2119d9d5f7232eb","C3","batch3","","2056","","","tol_toboard","","","","","","","","","tol_peg_1","2056","2056","0","[[1,3,0],[2,0],[0]]","1","[[0,0,0],[1,2],[3]]","4","0","","","","","","7","",""
"","","","","","single-stim-button","280","709020","0.0-3.0-22.1-0.1","6066736bd2119d9d5f7232eb","C3","batch3","","1065","","","tol_tohand","","","","","","","","","tol_peg_2","1065","1065","0","[[1,3,0],[0,0],[0]]","2","[[0,0,0],[1,2],[3]]","4","0","","","","","","7","",""
"","","","","","single-stim-button","281","716185","0.0-3.0-22.1-1.1","6066736bd2119d9d5f7232eb","C3","batch3","","7164","","","tol_toboard","","","","","","","","","tol_peg_3","7164","7164","0","[[1,3,0],[0,0],[2]]","2","[[0,0,0],[1,2],[3]]","4","0","","","","","","7","",""
"","","","","","single-stim-button","282","718469","0.0-3.0-22.2-0.2","6066736bd2119d9d5f7232eb","C3","batch3","","2282","","","tol_tohand","","","","","","","","","tol_peg_1","2282","2282","0","[[1,0,0],[0,0],[2]]","3","[[0,0,0],[1,2],[3]]","4","0","","","","","","7","",""
"","","","","","single-stim-button","283","720276","0.0-3.0-22.2-1.2","6066736bd2119d9d5f7232eb","C3","batch3","","1807","","","tol_toboard","","","","","","","","","tol_peg_2","1807","1807","0","[[1,0,0],[3,0],[2]]","3","[[0,0,0],[1,2],[3]]","4","0","","","","","","7","",""
"","","","","","single-stim-button","284","723049","0.0-3.0-22.3-0.3","6066736bd2119d9d5f7232eb","C3","batch3","","2772","","","tol_tohand","","","","","","","","","tol_peg_2","2772","2772","0","[[1,0,0],[0,0],[2]]","4","[[0,0,0],[1,2],[3]]","4","0","","","","","","7","",""
"","","","","","single-stim-button","285","724454","0.0-3.0-22.3-1.3","6066736bd2119d9d5f7232eb","C3","batch3","","1405","","","tol_toboard","","","","","","","","","tol_peg_1","1405","1405","0","[[1,3,0],[0,0],[2]]","4","[[0,0,0],[1,2],[3]]","4","0","","","","","","7","",""
"","","","","","single-stim-button","286","726574","0.0-3.0-22.4-0.4","6066736bd2119d9d5f7232eb","C3","batch3","","2119","","","tol_tohand","","","","","","","","","tol_peg_3","2119","2119","0","[[1,3,0],[0,0],[0]]","5","[[0,0,0],[1,2],[3]]","4","0","","","","","","7","",""
"","","","","","single-stim-button","287","728808","0.0-3.0-22.4-1.4","6066736bd2119d9d5f7232eb","C3","batch3","","2233","","","tol_toboard","","","","","","","","","tol_peg_2","2233","2233","0","[[1,3,0],[2,0],[0]]","5","[[0,0,0],[1,2],[3]]","4","0","","","","","","7","",""
"","","","","","single-stim-button","288","731405","0.0-3.0-22.5-0.5","6066736bd2119d9d5f7232eb","C3","batch3","","2596","","","tol_tohand","","","","","","","","","tol_peg_1","2596","2596","0","[[1,0,0],[2,0],[0]]","6","[[0,0,0],[1,2],[3]]","4","0","","","","","","7","",""
"","","","","","single-stim-button","289","735671","0.0-3.0-22.5-1.5","6066736bd2119d9d5f7232eb","C3","batch3","","4266","","","tol_toboard","","","","","","","","","tol_peg_2","4266","4266","0","[[1,0,0],[2,3],[0]]","6","[[0,0,0],[1,2],[3]]","4","0","","","","","","7","",""
"","","","","","single-stim-button","290","736763","0.0-3.0-22.6-0.6","6066736bd2119d9d5f7232eb","C3","batch3","","1091","","","tol_tohand","","","","","","","","","tol_peg_1","1091","1091","0","[[0,0,0],[2,3],[0]]","7","[[0,0,0],[1,2],[3]]","4","0","","","","","","7","",""
"","","","","","single-stim-button","291","738231","0.0-3.0-22.6-1.6","6066736bd2119d9d5f7232eb","C3","batch3","","1467","","","tol_toboard","","","","","","","","","tol_peg_3","1467","1467","0","[[0,0,0],[2,3],[1]]","7","[[0,0,0],[1,2],[3]]","4","0","","","","","","7","",""
"","","","","","single-stim-button","292","739750","0.0-3.0-22.7-0.7","6066736bd2119d9d5f7232eb","C3","batch3","","1518","","","tol_tohand","","","","","","","","","tol_peg_2","1518","1518","0","[[0,0,0],[2,0],[1]]","8","[[0,0,0],[1,2],[3]]","4","0","","","","","","7","",""
"","","","","","single-stim-button","293","741118","0.0-3.0-22.7-1.7","6066736bd2119d9d5f7232eb","C3","batch3","","1367","","","tol_toboard","","","","","","","","","tol_peg_1","1367","1367","0","[[3,0,0],[2,0],[1]]","8","[[0,0,0],[1,2],[3]]","4","0","","","","","","7","",""
"","","","","","single-stim-button","294","742347","0.0-3.0-22.8-0.8","6066736bd2119d9d5f7232eb","C3","batch3","","1229","","","tol_tohand","","","","","","","","","tol_peg_2","1229","1229","0","[[3,0,0],[0,0],[1]]","9","[[0,0,0],[1,2],[3]]","4","0","","","","","","7","",""
"","","","","","single-stim-button","295","744292","0.0-3.0-22.8-1.8","6066736bd2119d9d5f7232eb","C3","batch3","","1945","","","tol_toboard","","","","","","","","","tol_peg_1","1945","1945","0","[[3,2,0],[0,0],[1]]","9","[[0,0,0],[1,2],[3]]","4","0","","","","","","7","",""
"","","","","","single-stim-button","296","745522","0.0-3.0-22.9-0.9","6066736bd2119d9d5f7232eb","C3","batch3","","1229","","","tol_tohand","","","","","","","","","tol_peg_3","1229","1229","0","[[3,2,0],[0,0],[0]]","10","[[0,0,0],[1,2],[3]]","4","0","","","","","","7","",""
"","","","","","single-stim-button","297","746639","0.0-3.0-22.9-1.9","6066736bd2119d9d5f7232eb","C3","batch3","","1117","","","tol_toboard","","","","","","","","","tol_peg_2","1117","1117","0","[[3,2,0],[1,0],[0]]","10","[[0,0,0],[1,2],[3]]","4","0","","","","","","7","",""
"","","","","","single-stim-button","298","746990","0.0-3.0-22.10-0.10","6066736bd2119d9d5f7232eb","C3","batch3","","350","","","tol_tohand","","","","","","","","","tol_peg_2","350","350","0","[[3,2,0],[0,0],[0]]","11","[[0,0,0],[1,2],[3]]","4","0","","","","","","7","",""
"","","","","","single-stim-button","299","748409","0.0-3.0-22.10-1.10","6066736bd2119d9d5f7232eb","C3","batch3","","1418","","","tol_toboard","","","","","","","","","tol_peg_2","1418","1418","0","[[3,2,0],[1,0],[0]]","11","[[0,0,0],[1,2],[3]]","4","0","","","","","","7","",""
"","","","","","single-stim-button","300","749349","0.0-3.0-22.11-0.11","6066736bd2119d9d5f7232eb","C3","batch3","","940","","","tol_tohand","","","","","","","","","tol_peg_1","940","940","0","[[3,0,0],[1,0],[0]]","12","[[0,0,0],[1,2],[3]]","4","0","","","","","","7","",""
"","","","","","single-stim-button","301","750441","0.0-3.0-22.11-1.11","6066736bd2119d9d5f7232eb","C3","batch3","","1092","","","tol_toboard","","","","","","","","","tol_peg_2","1092","1092","0","[[3,0,0],[1,2],[0]]","12","[[0,0,0],[1,2],[3]]","4","0","","","","","","7","",""
"","","","","","single-stim-button","302","751696","0.0-3.0-22.12-0.12","6066736bd2119d9d5f7232eb","C3","batch3","","1254","","","tol_tohand","","","","","","","","","tol_peg_1","1254","1254","0","[[0,0,0],[1,2],[0]]","13","[[0,0,0],[1,2],[3]]","4","0","","","","","","7","",""
"","","","","","single-stim-button","303","752712","0.0-3.0-22.12-1.12","6066736bd2119d9d5f7232eb","C3","batch3","","1016","","","tol_toboard","","","","","","","","","tol_peg_3","1016","1016","0","[[0,0,0],[1,2],[3]]","13","[[0,0,0],[1,2],[3]]","4","0","","","","","","7","",""
"","","","","","poldrack-single-stim","304","753719","0.0-3.0-23.0","6066736bd2119d9d5f7232eb","C3","batch3","","-1","","","tol_feedback","true","","","","","","","","","1000","1000","500","","","","","","-1","none","true","7642","26087","","",""
"","","","","","html-button-response","305","754896","0.0-3.0-24.0","6066736bd2119d9d5f7232eb","C3","batch3","","1176.2999999523163","<div class = centerbox><p class = center-block-text>problem <strong>6</strong> out of 25 problems</p></div>","0","tol_trial_num","","","","","","","","","","","","","","","","","","","","","","","","",""
"","","","","","single-stim-button","306","760292","0.0-3.0-25.0-0.0","6066736bd2119d9d5f7232eb","C3","batch3","","5395","","","tol_tohand","","","","","","","","","tol_peg_3","5395","5395","0","[[0,0,0],[1,2],[0]]","1","[[1,0,0],[2,3],[0]]","5","0","","","","","","6","",""
"","","","","","single-stim-button","307","763630","0.0-3.0-25.0-1.0","6066736bd2119d9d5f7232eb","C3","batch3","","3337","","","tol_toboard","","","","","","","","","tol_peg_1","3337","3337","0","[[3,0,0],[1,2],[0]]","1","[[1,0,0],[2,3],[0]]","5","0","","","","","","6","",""
"","","","","","single-stim-button","308","765312","0.0-3.0-25.1-0.1","6066736bd2119d9d5f7232eb","C3","batch3","","1680","","","tol_tohand","","","","","","","","","tol_peg_2","1680","1680","0","[[3,0,0],[1,0],[0]]","2","[[1,0,0],[2,3],[0]]","5","0","","","","","","6","",""
"","","","","","single-stim-button","309","766592","0.0-3.0-25.1-1.1","6066736bd2119d9d5f7232eb","C3","batch3","","1280","","","tol_toboard","","","","","","","","","tol_peg_3","1280","1280","0","[[3,0,0],[1,0],[2]]","2","[[1,0,0],[2,3],[0]]","5","0","","","","","","6","",""
"","","","","","single-stim-button","310","774009","0.0-3.0-25.2-0.2","6066736bd2119d9d5f7232eb","C3","batch3","","7416","","","tol_tohand","","","","","","","","","tol_peg_3","7416","7416","0","[[3,0,0],[1,0],[0]]","3","[[1,0,0],[2,3],[0]]","5","0","","","","","","6","",""
"","","","","","single-stim-button","311","775177","0.0-3.0-25.2-1.2","6066736bd2119d9d5f7232eb","C3","batch3","","1167","","","tol_toboard","","","","","","","","","tol_peg_1","1167","1167","0","[[3,2,0],[1,0],[0]]","3","[[1,0,0],[2,3],[0]]","5","0","","","","","","6","",""
"","","","","","single-stim-button","312","776018","0.0-3.0-25.3-0.3","6066736bd2119d9d5f7232eb","C3","batch3","","840","","","tol_tohand","","","","","","","","","tol_peg_2","840","840","0","[[3,2,0],[0,0],[0]]","4","[[1,0,0],[2,3],[0]]","5","0","","","","","","6","",""
"","","","","","single-stim-button","313","777324","0.0-3.0-25.3-1.3","6066736bd2119d9d5f7232eb","C3","batch3","","1305","","","tol_toboard","","","","","","","","","tol_peg_3","1305","1305","0","[[3,2,0],[0,0],[1]]","4","[[1,0,0],[2,3],[0]]","5","0","","","","","","6","",""
"","","","","","single-stim-button","314","779270","0.0-3.0-25.4-0.4","6066736bd2119d9d5f7232eb","C3","batch3","","1945","","","tol_tohand","","","","","","","","","tol_peg_1","1945","1945","0","[[3,0,0],[0,0],[1]]","5","[[1,0,0],[2,3],[0]]","5","0","","","","","","6","",""
"","","","","","single-stim-button","315","781053","0.0-3.0-25.4-1.4","6066736bd2119d9d5f7232eb","C3","batch3","","1782","","","tol_toboard","","","","","","","","","tol_peg_2","1782","1782","0","[[3,0,0],[2,0],[1]]","5","[[1,0,0],[2,3],[0]]","5","0","","","","","","6","",""
"","","","","","single-stim-button","316","782006","0.0-3.0-25.5-0.5","6066736bd2119d9d5f7232eb","C3","batch3","","952","","","tol_tohand","","","","","","","","","tol_peg_1","952","952","0","[[0,0,0],[2,0],[1]]","6","[[1,0,0],[2,3],[0]]","5","0","","","","","","6","",""
"","","","","","single-stim-button","317","783123","0.0-3.0-25.5-1.5","6066736bd2119d9d5f7232eb","C3","batch3","","1117","","","tol_toboard","","","","","","","","","tol_peg_2","1117","1117","0","[[0,0,0],[2,3],[1]]","6","[[1,0,0],[2,3],[0]]","5","0","","","","","","6","",""
"","","","","","single-stim-button","318","784001","0.0-3.0-25.6-0.6","6066736bd2119d9d5f7232eb","C3","batch3","","878","","","tol_tohand","","","","","","","","","tol_peg_3","878","878","0","[[0,0,0],[2,3],[0]]","7","[[1,0,0],[2,3],[0]]","5","0","","","","","","6","",""
"","","","","","single-stim-button","319","785282","0.0-3.0-25.6-1.6","6066736bd2119d9d5f7232eb","C3","batch3","","1280","","","tol_toboard","","","","","","","","","tol_peg_1","1280","1280","0","[[1,0,0],[2,3],[0]]","7","[[1,0,0],[2,3],[0]]","5","0","","","","","","6","",""
"","","","","","poldrack-single-stim","320","786283","0.0-3.0-26.0","6066736bd2119d9d5f7232eb","C3","batch3","","-1","","","tol_feedback","true","","","","","","","","","1000","1000","500","","","","","","-1","none","true","5395","19106","","",""
"","","","","","html-button-response","321","787754","0.0-3.0-27.0","6066736bd2119d9d5f7232eb","C3","batch3","","1470.2999999523163","<div class = centerbox><p class = center-block-text>problem <strong>7</strong> out of 25 problems</p></div>","0","tol_trial_num","","","","","","","","","","","","","","","","","","","","","","","","",""
"","","","","","single-stim-button","322","792472","0.0-3.0-28.0-0.0","6066736bd2119d9d5f7232eb","C3","batch3","","4718","","","tol_tohand","","","","","","","","","tol_peg_1","4718","4718","0","[[2,0,0],[0,0],[3]]","1","[[1,2,0],[3,0],[0]]","6","0","","","","","","5","",""
"","","","","","single-stim-button","323","792485","0.0-3.0-28.0-1.0","6066736bd2119d9d5f7232eb","C3","batch3","","13","","","tol_toboard","","","","","","","","","tol_peg_1","13","13","0","[[2,1,0],[0,0],[3]]","1","[[1,2,0],[3,0],[0]]","6","0","","","","","","5","",""
"","","","","","single-stim-button","324","792500","0.0-3.0-28.1-0.1","6066736bd2119d9d5f7232eb","C3","batch3","","14","","","tol_tohand","","","","","","","","","tol_peg_1","14","14","0","[[2,0,0],[0,0],[3]]","2","[[1,2,0],[3,0],[0]]","6","0","","","","","","5","",""
"","","","","","single-stim-button","325","792510","0.0-3.0-28.1-1.1","6066736bd2119d9d5f7232eb","C3","batch3","","10","","","tol_toboard","","","","","","","","","tol_peg_1","10","10","0","[[2,1,0],[0,0],[3]]","2","[[1,2,0],[3,0],[0]]","6","0","","","","","","5","",""
"","","","","","single-stim-button","326","792523","0.0-3.0-28.2-0.2","6066736bd2119d9d5f7232eb","C3","batch3","","12","","","tol_tohand","","","","","","","","","tol_peg_1","12","12","0","[[2,0,0],[0,0],[3]]","3","[[1,2,0],[3,0],[0]]","6","0","","","","","","5","",""
"","","","","","single-stim-button","327","792539","0.0-3.0-28.2-1.2","6066736bd2119d9d5f7232eb","C3","batch3","","16","","","tol_toboard","","","","","","","","","tol_peg_1","16","16","0","[[2,1,0],[0,0],[3]]","3","[[1,2,0],[3,0],[0]]","6","0","","","","","","5","",""
"","","","","","single-stim-button","328","792548","0.0-3.0-28.3-0.3","6066736bd2119d9d5f7232eb","C3","batch3","","7","","","tol_tohand","","","","","","","","","tol_peg_1","7","7","0","[[2,0,0],[0,0],[3]]","4","[[1,2,0],[3,0],[0]]","6","0","","","","","","5","",""
"","","","","","single-stim-button","329","792560","0.0-3.0-28.3-1.3","6066736bd2119d9d5f7232eb","C3","batch3","","12","","","tol_toboard","","","","","","","","","tol_peg_1","12","12","0","[[2,1,0],[0,0],[3]]","4","[[1,2,0],[3,0],[0]]","6","0","","","","","","5","",""
"","","","","","single-stim-button","330","792573","0.0-3.0-28.4-0.4","6066736bd2119d9d5f7232eb","C3","batch3","","13","","","tol_tohand","","","","","","","","","tol_peg_1","13","13","0","[[2,0,0],[0,0],[3]]","5","[[1,2,0],[3,0],[0]]","6","0","","","","","","5","",""
"","","","","","single-stim-button","331","792585","0.0-3.0-28.4-1.4","6066736bd2119d9d5f7232eb","C3","batch3","","11","","","tol_toboard","","","","","","","","","tol_peg_1","11","11","0","[[2,1,0],[0,0],[3]]","5","[[1,2,0],[3,0],[0]]","6","0","","","","","","5","",""
"","","","","","single-stim-button","332","792598","0.0-3.0-28.5-0.5","6066736bd2119d9d5f7232eb","C3","batch3","","12","","","tol_tohand","","","","","","","","","tol_peg_1","12","12","0","[[2,0,0],[0,0],[3]]","6","[[1,2,0],[3,0],[0]]","6","0","","","","","","5","",""
"","","","","","single-stim-button","333","793853","0.0-3.0-28.5-1.5","6066736bd2119d9d5f7232eb","C3","batch3","","1254","","","tol_toboard","","","","","","","","","tol_peg_2","1254","1254","0","[[2,0,0],[1,0],[3]]","6","[[1,2,0],[3,0],[0]]","6","0","","","","","","5","",""
"","","","","","single-stim-button","334","795986","0.0-3.0-28.6-0.6","6066736bd2119d9d5f7232eb","C3","batch3","","2133","","","tol_tohand","","","","","","","","","tol_peg_3","2133","2133","0","[[2,0,0],[1,0],[0]]","7","[[1,2,0],[3,0],[0]]","6","0","","","","","","5","",""
"","","","","","single-stim-button","335","796275","0.0-3.0-28.6-1.6","6066736bd2119d9d5f7232eb","C3","batch3","","288","","","tol_toboard","","","","","","","","","tol_peg_3","288","288","0","[[2,0,0],[1,0],[3]]","7","[[1,2,0],[3,0],[0]]","6","0","","","","","","5","",""
"","","","","","single-stim-button","336","797518","0.0-3.0-28.7-0.7","6066736bd2119d9d5f7232eb","C3","batch3","","1243","","","tol_tohand","","","","","","","","","tol_peg_3","1243","1243","0","[[2,0,0],[1,0],[0]]","8","[[1,2,0],[3,0],[0]]","6","0","","","","","","5","",""
"","","","","","single-stim-button","337","798746","0.0-3.0-28.7-1.7","6066736bd2119d9d5f7232eb","C3","batch3","","1228","","","tol_toboard","","","","","","","","","tol_peg_1","1228","1228","0","[[2,3,0],[1,0],[0]]","8","[[1,2,0],[3,0],[0]]","6","0","","","","","","5","",""
"","","","","","single-stim-button","338","799851","0.0-3.0-28.8-0.8","6066736bd2119d9d5f7232eb","C3","batch3","","1103","","","tol_tohand","","","","","","","","","tol_peg_2","1103","1103","0","[[2,3,0],[0,0],[0]]","9","[[1,2,0],[3,0],[0]]","6","0","","","","","","5","",""
"","","","","","single-stim-button","339","801256","0.0-3.0-28.8-1.8","6066736bd2119d9d5f7232eb","C3","batch3","","1405","","","tol_toboard","","","","","","","","","tol_peg_3","1405","1405","0","[[2,3,0],[0,0],[1]]","9","[[1,2,0],[3,0],[0]]","6","0","","","","","","5","",""
"","","","","","single-stim-button","340","802686","0.0-3.0-28.9-0.9","6066736bd2119d9d5f7232eb","C3","batch3","","1430","","","tol_tohand","","","","","","","","","tol_peg_1","1430","1430","0","[[2,0,0],[0,0],[1]]","10","[[1,2,0],[3,0],[0]]","6","0","","","","","","5","",""
"","","","","","single-stim-button","341","803928","0.0-3.0-28.9-1.9","6066736bd2119d9d5f7232eb","C3","batch3","","1242","","","tol_toboard","","","","","","","","","tol_peg_2","1242","1242","0","[[2,0,0],[3,0],[1]]","10","[[1,2,0],[3,0],[0]]","6","0","","","","","","5","",""
"","","","","","single-stim-button","342","804957","0.0-3.0-28.10-0.10","6066736bd2119d9d5f7232eb","C3","batch3","","1027","","","tol_tohand","","","","","","","","","tol_peg_1","1027","1027","0","[[0,0,0],[3,0],[1]]","11","[[1,2,0],[3,0],[0]]","6","0","","","","","","5","",""
"","","","","","single-stim-button","343","806074","0.0-3.0-28.10-1.10","6066736bd2119d9d5f7232eb","C3","batch3","","1117","","","tol_toboard","","","","","","","","","tol_peg_2","1117","1117","0","[[0,0,0],[3,2],[1]]","11","[[1,2,0],[3,0],[0]]","6","0","","","","","","5","",""
"","","","","","single-stim-button","344","806989","0.0-3.0-28.11-0.11","6066736bd2119d9d5f7232eb","C3","batch3","","914","","","tol_tohand","","","","","","","","","tol_peg_3","914","914","0","[[0,0,0],[3,2],[0]]","12","[[1,2,0],[3,0],[0]]","6","0","","","","","","5","",""
"","","","","","single-stim-button","345","808270","0.0-3.0-28.11-1.11","6066736bd2119d9d5f7232eb","C3","batch3","","1280","","","tol_toboard","","","","","","","","","tol_peg_1","1280","1280","0","[[1,0,0],[3,2],[0]]","12","[[1,2,0],[3,0],[0]]","6","0","","","","","","5","",""
