"success","timeout","failed_images","failed_audio","failed_video","trial_type","trial_index","time_elapsed","internal_node_id","subject_id","study_id","session_id","view_history","rt","task","stimulus","response","correct","mouse_click","stim_duration","block_duration","timing_post_trial","current_position","tol_num_moves_made","tol_target","tol_problem_id","tol_rt","key_press","possible_responses","tol_correct","preplanning","tol_rt_per_trial","tol_min_moves","answer","item","fiar_detect_rt","fiar_detect_correct","total_correct_fiar_detect","post_trial_gap","choices","spm_correct","spm_rt"
"true","false","[]","[]","[]","preload","0","2873","0.0-0.0","607b155c459cf45e913f93a6","F1","batch6","","","","","","","","","","","","","","","","","","","","","","","","","","","","","",""
"true","","","","","fullscreen","1","27782","0.0-1.0-0.0","607b155c459cf45e913f93a6","F1","batch6","","","","","","","","","","","","","","","","","","","","","","","","","","","","","",""
"true","","","","","fullscreen","2","31876","0.0-2.0-0.0","607b155c459cf45e913f93a6","F1","batch6","","","","","","","","","","","","","","","","","","","","","","","","","","","","","",""
"","","","","","instructions","3","115010","0.0-2.0-1.0-0.0-0.0","607b155c459cf45e913f93a6","F1","batch6","[{""page_index"":0,""viewing_time"":14267},{""page_index"":1,""viewing_time"":5615},{""page_index"":2,""viewing_time"":2767},{""page_index"":3,""viewing_time"":8514},{""page_index"":4,""viewing_time"":11034},{""page_index"":5,""viewing_time"":13404},{""page_index"":4,""viewing_time"":5037},{""page_index"":3,""viewing_time"":2074},{""page_index"":4,""viewing_time"":12513},{""page_index"":5,""viewing_time"":5687},{""page_index"":6,""viewing_time"":2221}]","83133","tol-instructions","","","","","","","","","","","","","","","","","","","","","","","","","","",""
"","","","","","html-button-response","4","116314","0.0-2.0-1.0-1.0-0.0","607b155c459cf45e913f93a6","F1","batch6","","1302","tol_enter_quiz","<p class=block-text> Let's answer a few questions <br>","0","","","","","","","","","","","","","","","","","","","","","","","","",""
"","","","","","html-button-response","5","125398","0.0-2.0-1.0-1.0-1.0","607b155c459cf45e913f93a6","F1","batch6","","9082","tol_quiz","<p class = block-text>True or False: You can only move the ball on top of a peg. <br></p>","1","false","","","","","","","","","","","","","","","","","","","","","","","",""
"","","","","","html-button-response","6","126868","0.0-2.0-1.0-1.0-2.0","607b155c459cf45e913f93a6","F1","batch6","","1470","tol_quiz_feedback","<p class = block-text>Incorrect. Remember, you can only move the ball on top of a peg.</p>","0","","","","","","","","","","","","","","","","","","","","","","","","",""
"","","","","","html-button-response","7","129300","0.0-2.0-1.0-1.0-3.0","607b155c459cf45e913f93a6","F1","batch6","","2429","tol_quiz","<p class = block-text>True or False: You should try to match your board with the target board with fewest moves possible. <br></p>","0","true","","","","","","","","","","","","","","","","","","","","","","","",""
"","","","","","html-button-response","8","130159","0.0-2.0-1.0-1.0-4.0","607b155c459cf45e913f93a6","F1","batch6","","859","tol_quiz_feedback","<p class = block-text>Correct! </p>","0","","","","","","","","","","","","","","","","","","","","","","","","",""
"","","","","","html-button-response","9","132607","0.0-2.0-1.0-2.0-0.0","607b155c459cf45e913f93a6","F1","batch6","","2446","","<p class = block-text>You made too many incorrect choices.</p><p class = block-text>You will now repeat the instructions and quiz</p>","0","","","","","","","","","","","","","","","","","","","","","","","","",""
"","","","","","instructions","10","137206","0.0-2.0-1.1-0.1-0.1","607b155c459cf45e913f93a6","F1","batch6","[{""page_index"":0,""viewing_time"":919},{""page_index"":1,""viewing_time"":412},{""page_index"":2,""viewing_time"":389},{""page_index"":3,""viewing_time"":402},{""page_index"":4,""viewing_time"":397},{""page_index"":5,""viewing_time"":433},{""page_index"":6,""viewing_time"":1647}]","4599","tol-instructions","","","","","","","","","","","","","","","","","","","","","","","","","","",""
"","","","","","html-button-response","11","137915","0.0-2.0-1.1-1.1-0.1","607b155c459cf45e913f93a6","F1","batch6","","709","tol_enter_quiz","<p class=block-text> Let's answer a few questions <br>","0","","","","","","","","","","","","","","","","","","","","","","","","",""
"","","","","","html-button-response","12","139251","0.0-2.0-1.1-1.1-1.1","607b155c459cf45e913f93a6","F1","batch6","","1336","tol_quiz","<p class = block-text>True or False: You can only move the ball on top of a peg. <br></p>","0","true","","","","","","","","","","","","","","","","","","","","","","","",""
"","","","","","html-button-response","13","140976","0.0-2.0-1.1-1.1-2.1","607b155c459cf45e913f93a6","F1","batch6","","1724","tol_quiz_feedback","<p class = block-text>Correct! You can only move the ball on top of a peg.</p>","0","","","","","","","","","","","","","","","","","","","","","","","","",""
"","","","","","html-button-response","14","143355","0.0-2.0-1.1-1.1-3.1","607b155c459cf45e913f93a6","F1","batch6","","2377","tol_quiz","<p class = block-text>True or False: You should try to match your board with the target board with fewest moves possible. <br></p>","0","true","","","","","","","","","","","","","","","","","","","","","","","",""
"","","","","","html-button-response","15","143976","0.0-2.0-1.1-1.1-4.1","607b155c459cf45e913f93a6","F1","batch6","","620","tol_quiz_feedback","<p class = block-text>Correct! </p>","0","","","","","","","","","","","","","","","","","","","","","","","","",""
"","","","","","html-button-response","16","145914","0.0-2.0-2.0","607b155c459cf45e913f93a6","F1","batch6","","1936","","<p class=block-text> Now that you've understood the game, let's practice a few easier examples before we start!<br> <br>","0","","","","","","","","","","","","","","","","","","","","","","","","",""
"","","","","","single-stim-button","17","147489","0.0-2.0-3.0-0.0","607b155c459cf45e913f93a6","F1","batch6","","1574","tol_practice","","","","tol_peg_2","1574","1574","0","[[1,2,0],[0,0],[0]]","1","[[1,2,0],[0,0],[3]]","practice","1574","","","","","","","","","","","","","","",""
"","","","","","single-stim-button","18","150496","0.0-2.0-3.0-1.0","607b155c459cf45e913f93a6","F1","batch6","","3006","tol_practice","","","","tol_peg_3","3006","3006","0","[[1,2,0],[0,0],[3]]","1","[[1,2,0],[0,0],[3]]","practice","3006","","","","","","","","","","","","","","",""
"","","","","","poldrack-single-stim","19","151497","0.0-2.0-4.0","607b155c459cf45e913f93a6","F1","batch6","","-1","tol_feedback","","","true","","1000","1000","500","","","","","","-1","none","true","","0","","","","","","","","","",""
"","","","","","single-stim-button","20","153011","0.0-2.0-5.0-0.0","607b155c459cf45e913f93a6","F1","batch6","","1512","tol_practice","","","","tol_peg_1","1512","1512","0","[[1,0,0],[3,0],[0]]","2","[[0,0,0],[3,1],[2]]","practice","1512","","","","","","","","","","","","","","",""
"","","","","","single-stim-button","21","153925","0.0-2.0-5.0-1.0","607b155c459cf45e913f93a6","F1","batch6","","914","tol_practice","","","","tol_peg_2","914","914","0","[[1,0,0],[3,2],[0]]","2","[[0,0,0],[3,1],[2]]","practice","914","","","","","","","","","","","","","","",""
"","","","","","single-stim-button","22","157371","0.0-2.0-5.1-0.1","607b155c459cf45e913f93a6","F1","batch6","","3444","tol_practice","","","","tol_peg_2","3444","3444","0","[[1,0,0],[3,0],[0]]","3","[[0,0,0],[3,1],[2]]","practice","3444","","","","","","","","","","","","","","",""
"","","","","","single-stim-button","23","158417","0.0-2.0-5.1-1.1","607b155c459cf45e913f93a6","F1","batch6","","1045","tol_practice","","","","tol_peg_3","1045","1045","0","[[1,0,0],[3,0],[2]]","3","[[0,0,0],[3,1],[2]]","practice","1045","","","","","","","","","","","","","","",""
"","","","","","single-stim-button","24","159281","0.0-2.0-5.2-0.2","607b155c459cf45e913f93a6","F1","batch6","","864","tol_practice","","","","tol_peg_1","864","864","0","[[0,0,0],[3,0],[2]]","4","[[0,0,0],[3,1],[2]]","practice","864","","","","","","","","","","","","","","",""
"","","","","","single-stim-button","25","159594","0.0-2.0-5.2-1.2","607b155c459cf45e913f93a6","F1","batch6","","313","tol_practice","","","","tol_peg_2","313","313","0","[[0,0,0],[3,1],[2]]","4","[[0,0,0],[3,1],[2]]","practice","313","","","","","","","","","","","","","","",""
"","","","","","poldrack-single-stim","26","160595","0.0-2.0-6.0","607b155c459cf45e913f93a6","F1","batch6","","-1","tol_feedback","","","true","","1000","1000","500","","","","","","-1","none","true","","0","","","","","","","","","",""
"","","","","","single-stim-button","27","163495","0.0-2.0-7.0-0.0","607b155c459cf45e913f93a6","F1","batch6","","2899","tol_practice","","","","tol_peg_2","2899","2899","0","[[1,2,0],[0,0],[0]]","5","[[1,0,0],[2,0],[3]]","practice","2899","","","","","","","","","","","","","","",""
"","","","","","single-stim-button","28","164161","0.0-2.0-7.0-1.0","607b155c459cf45e913f93a6","F1","batch6","","666","tol_practice","","","","tol_peg_3","666","666","0","[[1,2,0],[0,0],[3]]","5","[[1,0,0],[2,0],[3]]","practice","666","","","","","","","","","","","","","","",""
"","","","","","single-stim-button","29","164705","0.0-2.0-7.1-0.1","607b155c459cf45e913f93a6","F1","batch6","","543","tol_practice","","","","tol_peg_1","543","543","0","[[1,0,0],[0,0],[3]]","6","[[1,0,0],[2,0],[3]]","practice","543","","","","","","","","","","","","","","",""
"","","","","","single-stim-button","30","165127","0.0-2.0-7.1-1.1","607b155c459cf45e913f93a6","F1","batch6","","422","tol_practice","","","","tol_peg_2","422","422","0","[[1,0,0],[2,0],[3]]","6","[[1,0,0],[2,0],[3]]","practice","422","","","","","","","","","","","","","","",""
"","","","","","poldrack-single-stim","31","166128","0.0-2.0-8.0","607b155c459cf45e913f93a6","F1","batch6","","-1","tol_feedback","","","true","","1000","1000","500","","","","","","-1","none","true","","0","","","","","","","","","",""
"","","","","","html-button-response","32","168226","0.0-2.0-9.0","607b155c459cf45e913f93a6","F1","batch6","","2098","tol_instruction","<div class = centerbox><p class = center-block-text>Great job! You are done with practice trials<br>You are about to start official trials.<br> <br> Problem <strong>1</strong> out of 25 problems</p></div>","0","","","","","","","","","","","","","","","","","","","","","","","","",""
"","","","","","single-stim-button","33","175397","0.0-2.0-10.0-0.0","607b155c459cf45e913f93a6","F1","batch6","","6171","tol_tohand","","","","tol_peg_2","6171","6171","0","[[1,2,0],[0,0],[0]]","1","[[1,3,0],[2,0],[0]]","0","0","","","","","","3","","","","","","","","",""
"","","","","","single-stim-button","34","176304","0.0-2.0-10.0-1.0","607b155c459cf45e913f93a6","F1","batch6","","907","tol_toboard","","","","tol_peg_3","907","907","0","[[1,2,0],[0,0],[3]]","1","[[1,3,0],[2,0],[0]]","0","0","","","","","","3","","","","","","","","",""
"","","","","","single-stim-button","35","176893","0.0-2.0-10.1-0.1","607b155c459cf45e913f93a6","F1","batch6","","589","tol_tohand","","","","tol_peg_1","589","589","0","[[1,0,0],[0,0],[3]]","2","[[1,3,0],[2,0],[0]]","0","0","","","","","","3","","","","","","","","",""
"","","","","","single-stim-button","36","177478","0.0-2.0-10.1-1.1","607b155c459cf45e913f93a6","F1","batch6","","583","tol_toboard","","","","tol_peg_2","583","583","0","[[1,0,0],[2,0],[3]]","2","[[1,3,0],[2,0],[0]]","0","0","","","","","","3","","","","","","","","",""
"","","","","","single-stim-button","37","178381","0.0-2.0-10.2-0.2","607b155c459cf45e913f93a6","F1","batch6","","903","tol_tohand","","","","tol_peg_3","903","903","0","[[1,0,0],[2,0],[0]]","3","[[1,3,0],[2,0],[0]]","0","0","","","","","","3","","","","","","","","",""
"","","","","","single-stim-button","38","179019","0.0-2.0-10.2-1.2","607b155c459cf45e913f93a6","F1","batch6","","638","tol_toboard","","","","tol_peg_1","638","638","0","[[1,3,0],[2,0],[0]]","3","[[1,3,0],[2,0],[0]]","0","0","","","","","","3","","","","","","","","",""
"","","","","","poldrack-single-stim","39","180020","0.0-2.0-11.0","607b155c459cf45e913f93a6","F1","batch6","","-1","tol_feedback","","","true","","1000","1000","500","","","","","","-1","none","true","6171","7663","","","","","","","","","",""
"","","","","","html-button-response","40","181128","0.0-2.0-12.0","607b155c459cf45e913f93a6","F1","batch6","","1108","tol_trial_num","<div class = centerbox><p class = center-block-text>problem <strong>2</strong> out of 25 problems</p></div>","0","","","","","","","","","","","","","","","","","","","","","","","","",""
"","","","","","single-stim-button","41","185856","0.0-2.0-13.0-0.0","607b155c459cf45e913f93a6","F1","batch6","","4728","tol_tohand","","","","tol_peg_1","4728","4728","0","[[1,0,0],[3,0],[0]]","1","[[2,1,3],[0,0],[0]]","1","0","","","","","","5","","","","","","","","",""
"","","","","","single-stim-button","42","189501","0.0-2.0-13.0-1.0","607b155c459cf45e913f93a6","F1","batch6","","3645","tol_toboard","","","","tol_peg_1","3645","3645","0","[[1,2,0],[3,0],[0]]","1","[[2,1,3],[0,0],[0]]","1","0","","","","","","5","","","","","","","","",""
"","","","","","single-stim-button","43","190771","0.0-2.0-13.1-0.1","607b155c459cf45e913f93a6","F1","batch6","","1270","tol_tohand","","","","tol_peg_1","1270","1270","0","[[1,0,0],[3,0],[0]]","2","[[2,1,3],[0,0],[0]]","1","0","","","","","","5","","","","","","","","",""
"","","","","","single-stim-button","44","192086","0.0-2.0-13.1-1.1","607b155c459cf45e913f93a6","F1","batch6","","1314","tol_toboard","","","","tol_peg_3","1314","1314","0","[[1,0,0],[3,0],[2]]","2","[[2,1,3],[0,0],[0]]","1","0","","","","","","5","","","","","","","","",""
"","","","","","single-stim-button","45","194931","0.0-2.0-13.2-0.2","607b155c459cf45e913f93a6","F1","batch6","","2845","tol_tohand","","","","tol_peg_1","2845","2845","0","[[0,0,0],[3,0],[2]]","3","[[2,1,3],[0,0],[0]]","1","0","","","","","","5","","","","","","","","",""
"","","","","","single-stim-button","46","195770","0.0-2.0-13.2-1.2","607b155c459cf45e913f93a6","F1","batch6","","838","tol_toboard","","","","tol_peg_2","838","838","0","[[0,0,0],[3,1],[2]]","3","[[2,1,3],[0,0],[0]]","1","0","","","","","","5","","","","","","","","",""
"","","","","","single-stim-button","47","196439","0.0-2.0-13.3-0.3","607b155c459cf45e913f93a6","F1","batch6","","668","tol_tohand","","","","tol_peg_3","668","668","0","[[0,0,0],[3,1],[0]]","4","[[2,1,3],[0,0],[0]]","1","0","","","","","","5","","","","","","","","",""
"","","","","","single-stim-button","48","197529","0.0-2.0-13.3-1.3","607b155c459cf45e913f93a6","F1","batch6","","1089","tol_toboard","","","","tol_peg_1","1089","1089","0","[[2,0,0],[3,1],[0]]","4","[[2,1,3],[0,0],[0]]","1","0","","","","","","5","","","","","","","","",""
"","","","","","single-stim-button","49","198034","0.0-2.0-13.4-0.4","607b155c459cf45e913f93a6","F1","batch6","","505","tol_tohand","","","","tol_peg_2","505","505","0","[[2,0,0],[3,0],[0]]","5","[[2,1,3],[0,0],[0]]","1","0","","","","","","5","","","","","","","","",""
"","","","","","single-stim-button","50","198794","0.0-2.0-13.4-1.4","607b155c459cf45e913f93a6","F1","batch6","","758","tol_toboard","","","","tol_peg_1","758","758","0","[[2,1,0],[3,0],[0]]","5","[[2,1,3],[0,0],[0]]","1","0","","","","","","5","","","","","","","","",""
"","","","","","single-stim-button","51","199298","0.0-2.0-13.5-0.5","607b155c459cf45e913f93a6","F1","batch6","","504","tol_tohand","","","","tol_peg_2","504","504","0","[[2,1,0],[0,0],[0]]","6","[[2,1,3],[0,0],[0]]","1","0","","","","","","5","","","","","","","","",""
"","","","","","single-stim-button","52","199841","0.0-2.0-13.5-1.5","607b155c459cf45e913f93a6","F1","batch6","","542","tol_toboard","","","","tol_peg_1","542","542","0","[[2,1,3],[0,0],[0]]","6","[[2,1,3],[0,0],[0]]","1","0","","","","","","5","","","","","","","","",""
"","","","","","poldrack-single-stim","53","200841","0.0-2.0-14.0","607b155c459cf45e913f93a6","F1","batch6","","-1","tol_feedback","","","true","","1000","1000","500","","","","","","-1","none","true","4728","10520","","","","","","","","","",""
"","","","","","html-button-response","54","202199","0.0-2.0-15.0","607b155c459cf45e913f93a6","F1","batch6","","1357","tol_trial_num","<div class = centerbox><p class = center-block-text>problem <strong>3</strong> out of 25 problems</p></div>","0","","","","","","","","","","","","","","","","","","","","","","","","",""
"","","","","","single-stim-button","55","208427","0.0-2.0-16.0-0.0","607b155c459cf45e913f93a6","F1","batch6","","6228","tol_tohand","","","","tol_peg_1","6228","6228","0","[[2,0,0],[0,0],[1]]","1","[[1,2,0],[3,0],[0]]","2","0","","","","","","4","","","","","","","","",""
"","","","","","single-stim-button","56","209555","0.0-2.0-16.0-1.0","607b155c459cf45e913f93a6","F1","batch6","","1128","tol_toboard","","","","tol_peg_2","1128","1128","0","[[2,0,0],[3,0],[1]]","1","[[1,2,0],[3,0],[0]]","2","0","","","","","","4","","","","","","","","",""
"","","","","","single-stim-button","57","210216","0.0-2.0-16.1-0.1","607b155c459cf45e913f93a6","F1","batch6","","661","tol_tohand","","","","tol_peg_1","661","661","0","[[0,0,0],[3,0],[1]]","2","[[1,2,0],[3,0],[0]]","2","0","","","","","","4","","","","","","","","",""
"","","","","","single-stim-button","58","211243","0.0-2.0-16.1-1.1","607b155c459cf45e913f93a6","F1","batch6","","1027","tol_toboard","","","","tol_peg_2","1027","1027","0","[[0,0,0],[3,2],[1]]","2","[[1,2,0],[3,0],[0]]","2","0","","","","","","4","","","","","","","","",""
"","","","","","single-stim-button","59","212770","0.0-2.0-16.2-0.2","607b155c459cf45e913f93a6","F1","batch6","","1527","tol_tohand","","","","tol_peg_3","1527","1527","0","[[0,0,0],[3,2],[0]]","3","[[1,2,0],[3,0],[0]]","2","0","","","","","","4","","","","","","","","",""
"","","","","","single-stim-button","60","213710","0.0-2.0-16.2-1.2","607b155c459cf45e913f93a6","F1","batch6","","939","tol_toboard","","","","tol_peg_1","939","939","0","[[1,0,0],[3,2],[0]]","3","[[1,2,0],[3,0],[0]]","2","0","","","","","","4","","","","","","","","",""
"","","","","","single-stim-button","61","214332","0.0-2.0-16.3-0.3","607b155c459cf45e913f93a6","F1","batch6","","621","tol_tohand","","","","tol_peg_2","621","621","0","[[1,0,0],[3,0],[0]]","4","[[1,2,0],[3,0],[0]]","2","0","","","","","","4","","","","","","","","",""
"","","","","","single-stim-button","62","214801","0.0-2.0-16.3-1.3","607b155c459cf45e913f93a6","F1","batch6","","469","tol_toboard","","","","tol_peg_1","469","469","0","[[1,2,0],[3,0],[0]]","4","[[1,2,0],[3,0],[0]]","2","0","","","","","","4","","","","","","","","",""
"","","","","","poldrack-single-stim","63","215802","0.0-2.0-17.0","607b155c459cf45e913f93a6","F1","batch6","","-1","tol_feedback","","","true","","1000","1000","500","","","","","","-1","none","true","6228","9037","","","","","","","","","",""
"","","","","","html-button-response","64","216859","0.0-2.0-18.0","607b155c459cf45e913f93a6","F1","batch6","","1058","tol_trial_num","<div class = centerbox><p class = center-block-text>problem <strong>4</strong> out of 25 problems</p></div>","0","","","","","","","","","","","","","","","","","","","","","","","","",""
"","","","","","single-stim-button","65","219997","0.0-2.0-19.0-0.0","607b155c459cf45e913f93a6","F1","batch6","","3137","tol_tohand","","","","tol_peg_2","3137","3137","0","[[3,0,0],[2,0],[0]]","1","[[3,0,0],[1,0],[2]]","3","0","","","","","","3","","","","","","","","",""
"","","","","","single-stim-button","66","220984","0.0-2.0-19.0-1.0","607b155c459cf45e913f93a6","F1","batch6","","986","tol_toboard","","","","tol_peg_1","986","986","0","[[3,1,0],[2,0],[0]]","1","[[3,0,0],[1,0],[2]]","3","0","","","","","","3","","","","","","","","",""
"","","","","","single-stim-button","67","221656","0.0-2.0-19.1-0.1","607b155c459cf45e913f93a6","F1","batch6","","672","tol_tohand","","","","tol_peg_2","672","672","0","[[3,1,0],[0,0],[0]]","2","[[3,0,0],[1,0],[2]]","3","0","","","","","","3","","","","","","","","",""
"","","","","","single-stim-button","68","222262","0.0-2.0-19.1-1.1","607b155c459cf45e913f93a6","F1","batch6","","606","tol_toboard","","","","tol_peg_3","606","606","0","[[3,1,0],[0,0],[2]]","2","[[3,0,0],[1,0],[2]]","3","0","","","","","","3","","","","","","","","",""
"","","","","","single-stim-button","69","222950","0.0-2.0-19.2-0.2","607b155c459cf45e913f93a6","F1","batch6","","688","tol_tohand","","","","tol_peg_1","688","688","0","[[3,0,0],[0,0],[2]]","3","[[3,0,0],[1,0],[2]]","3","0","","","","","","3","","","","","","","","",""
"","","","","","single-stim-button","70","223597","0.0-2.0-19.2-1.2","607b155c459cf45e913f93a6","F1","batch6","","646","tol_toboard","","","","tol_peg_2","646","646","0","[[3,0,0],[1,0],[2]]","3","[[3,0,0],[1,0],[2]]","3","0","","","","","","3","","","","","","","","",""
"","","","","","poldrack-single-stim","71","224598","0.0-2.0-20.0","607b155c459cf45e913f93a6","F1","batch6","","-1","tol_feedback","","","true","","1000","1000","500","","","","","","-1","none","true","3137","4497","","","","","","","","","",""
"","","","","","html-button-response","72","225248","0.0-2.0-21.0","607b155c459cf45e913f93a6","F1","batch6","","651","tol_trial_num","<div class = centerbox><p class = center-block-text>problem <strong>5</strong> out of 25 problems</p></div>","0","","","","","","","","","","","","","","","","","","","","","","","","",""
"","","","","","single-stim-button","73","229682","0.0-2.0-22.0-0.0","607b155c459cf45e913f93a6","F1","batch6","","4433","tol_tohand","","","","tol_peg_2","4433","4433","0","[[1,0,0],[0,0],[3]]","1","[[0,0,0],[1,2],[3]]","4","0","","","","","","7","","","","","","","","",""
"","","","","","single-stim-button","74","232963","0.0-2.0-22.0-1.0","607b155c459cf45e913f93a6","F1","batch6","","3281","tol_toboard","","","","tol_peg_2","3281","3281","0","[[1,0,0],[2,0],[3]]","1","[[0,0,0],[1,2],[3]]","4","0","","","","","","7","","","","","","","","",""
"","","","","","single-stim-button","75","257191","0.0-2.0-22.1-0.1","607b155c459cf45e913f93a6","F1","batch6","","24228","tol_tohand","","","","tol_peg_3","24228","24228","0","[[1,0,0],[2,0],[0]]","2","[[0,0,0],[1,2],[3]]","4","0","","","","","","7","","","","","","","","",""
"","","","","","single-stim-button","76","257679","0.0-2.0-22.1-1.1","607b155c459cf45e913f93a6","F1","batch6","","486","tol_toboard","","","","tol_peg_2","486","486","0","[[1,0,0],[2,3],[0]]","2","[[0,0,0],[1,2],[3]]","4","0","","","","","","7","","","","","","","","",""
"","","","","","single-stim-button","77","264494","0.0-2.0-22.2-0.2","607b155c459cf45e913f93a6","F1","batch6","","6815","tol_tohand","","","","tol_peg_1","6815","6815","0","[[0,0,0],[2,3],[0]]","3","[[0,0,0],[1,2],[3]]","4","0","","","","","","7","","","","","","","","",""
"","","","","","single-stim-button","78","265110","0.0-2.0-22.2-1.2","607b155c459cf45e913f93a6","F1","batch6","","616","tol_toboard","","","","tol_peg_3","616","616","0","[[0,0,0],[2,3],[1]]","3","[[0,0,0],[1,2],[3]]","4","0","","","","","","7","","","","","","","","",""
"","","","","","single-stim-button","79","266966","0.0-2.0-22.3-0.3","607b155c459cf45e913f93a6","F1","batch6","","1856","tol_tohand","","","","tol_peg_2","1856","1856","0","[[0,0,0],[2,0],[1]]","4","[[0,0,0],[1,2],[3]]","4","0","","","","","","7","","","","","","","","",""
"","","","","","single-stim-button","80","267578","0.0-2.0-22.3-1.3","607b155c459cf45e913f93a6","F1","batch6","","612","tol_toboard","","","","tol_peg_1","612","612","0","[[3,0,0],[2,0],[1]]","4","[[0,0,0],[1,2],[3]]","4","0","","","","","","7","","","","","","","","",""
"","","","","","single-stim-button","81","269144","0.0-2.0-22.4-0.4","607b155c459cf45e913f93a6","F1","batch6","","1565","tol_tohand","","","","tol_peg_2","1565","1565","0","[[3,0,0],[0,0],[1]]","5","[[0,0,0],[1,2],[3]]","4","0","","","","","","7","","","","","","","","",""
"","","","","","single-stim-button","82","269669","0.0-2.0-22.4-1.4","607b155c459cf45e913f93a6","F1","batch6","","524","tol_toboard","","","","tol_peg_1","524","524","0","[[3,2,0],[0,0],[1]]","5","[[0,0,0],[1,2],[3]]","4","0","","","","","","7","","","","","","","","",""
"","","","","","single-stim-button","83","270216","0.0-2.0-22.5-0.5","607b155c459cf45e913f93a6","F1","batch6","","546","tol_tohand","","","","tol_peg_3","546","546","0","[[3,2,0],[0,0],[0]]","6","[[0,0,0],[1,2],[3]]","4","0","","","","","","7","","","","","","","","",""
"","","","","","single-stim-button","84","270735","0.0-2.0-22.5-1.5","607b155c459cf45e913f93a6","F1","batch6","","519","tol_toboard","","","","tol_peg_2","519","519","0","[[3,2,0],[1,0],[0]]","6","[[0,0,0],[1,2],[3]]","4","0","","","","","","7","","","","","","","","",""
"","","","","","single-stim-button","85","271205","0.0-2.0-22.6-0.6","607b155c459cf45e913f93a6","F1","batch6","","469","tol_tohand","","","","tol_peg_1","469","469","0","[[3,0,0],[1,0],[0]]","7","[[0,0,0],[1,2],[3]]","4","0","","","","","","7","","","","","","","","",""
"","","","","","single-stim-button","86","271781","0.0-2.0-22.6-1.6","607b155c459cf45e913f93a6","F1","batch6","","575","tol_toboard","","","","tol_peg_2","575","575","0","[[3,0,0],[1,2],[0]]","7","[[0,0,0],[1,2],[3]]","4","0","","","","","","7","","","","","","","","",""
"","","","","","single-stim-button","87","272234","0.0-2.0-22.7-0.7","607b155c459cf45e913f93a6","F1","batch6","","453","tol_tohand","","","","tol_peg_1","453","453","0","[[0,0,0],[1,2],[0]]","8","[[0,0,0],[1,2],[3]]","4","0","","","","","","7","","","","","","","","",""
"","","","","","single-stim-button","88","272737","0.0-2.0-22.7-1.7","607b155c459cf45e913f93a6","F1","batch6","","503","tol_toboard","","","","tol_peg_3","503","503","0","[[0,0,0],[1,2],[3]]","8","[[0,0,0],[1,2],[3]]","4","0","","","","","","7","","","","","","","","",""
"","","","","","poldrack-single-stim","89","273738","0.0-2.0-23.0","607b155c459cf45e913f93a6","F1","batch6","","-1","tol_feedback","","","true","","1000","1000","500","","","","","","-1","none","true","4433","40365","","","","","","","","","",""
"","","","","","html-button-response","90","275083","0.0-2.0-24.0","607b155c459cf45e913f93a6","F1","batch6","","1345","tol_trial_num","<div class = centerbox><p class = center-block-text>problem <strong>6</strong> out of 25 problems</p></div>","0","","","","","","","","","","","","","","","","","","","","","","","","",""
"","","","","","single-stim-button","91","287386","0.0-2.0-25.0-0.0","607b155c459cf45e913f93a6","F1","batch6","","12303","tol_tohand","","","","tol_peg_3","12303","12303","0","[[0,0,0],[1,2],[0]]","1","[[1,0,0],[2,3],[0]]","5","0","","","","","","6","","","","","","","","",""
"","","","","","single-stim-button","92","288164","0.0-2.0-25.0-1.0","607b155c459cf45e913f93a6","F1","batch6","","777","tol_toboard","","","","tol_peg_1","777","777","0","[[3,0,0],[1,2],[0]]","1","[[1,0,0],[2,3],[0]]","5","0","","","","","","6","","","","","","","","",""
"","","","","","single-stim-button","93","295576","0.0-2.0-25.1-0.1","607b155c459cf45e913f93a6","F1","batch6","","7411","tol_tohand","","","","tol_peg_2","7411","7411","0","[[3,0,0],[1,0],[0]]","2","[[1,0,0],[2,3],[0]]","5","0","","","","","","6","","","","","","","","",""
"","","","","","single-stim-button","94","297415","0.0-2.0-25.1-1.1","607b155c459cf45e913f93a6","F1","batch6","","1838","tol_toboard","","","","tol_peg_1","1838","1838","0","[[3,2,0],[1,0],[0]]","2","[[1,0,0],[2,3],[0]]","5","0","","","","","","6","","","","","","","","",""
"","","","","","single-stim-button","95","297983","0.0-2.0-25.2-0.2","607b155c459cf45e913f93a6","F1","batch6","","568","tol_tohand","","","","tol_peg_2","568","568","0","[[3,2,0],[0,0],[0]]","3","[[1,0,0],[2,3],[0]]","5","0","","","","","","6","","","","","","","","",""
"","","","","","single-stim-button","96","298545","0.0-2.0-25.2-1.2","607b155c459cf45e913f93a6","F1","batch6","","561","tol_toboard","","","","tol_peg_3","561","561","0","[[3,2,0],[0,0],[1]]","3","[[1,0,0],[2,3],[0]]","5","0","","","","","","6","","","","","","","","",""
"","","","","","single-stim-button","97","299204","0.0-2.0-25.3-0.3","607b155c459cf45e913f93a6","F1","batch6","","659","tol_tohand","","","","tol_peg_1","659","659","0","[[3,0,0],[0,0],[1]]","4","[[1,0,0],[2,3],[0]]","5","0","","","","","","6","","","","","","","","",""
"","","","","","single-stim-button","98","299810","0.0-2.0-25.3-1.3","607b155c459cf45e913f93a6","F1","batch6","","606","tol_toboard","","","","tol_peg_2","606","606","0","[[3,0,0],[2,0],[1]]","4","[[1,0,0],[2,3],[0]]","5","0","","","","","","6","","","","","","","","",""
"","","","","","single-stim-button","99","300385","0.0-2.0-25.4-0.4","607b155c459cf45e913f93a6","F1","batch6","","575","tol_tohand","","","","tol_peg_1","575","575","0","[[0,0,0],[2,0],[1]]","5","[[1,0,0],[2,3],[0]]","5","0","","","","","","6","","","","","","","","",""
"","","","","","single-stim-button","100","300952","0.0-2.0-25.4-1.4","607b155c459cf45e913f93a6","F1","batch6","","566","tol_toboard","","","","tol_peg_2","566","566","0","[[0,0,0],[2,3],[1]]","5","[[1,0,0],[2,3],[0]]","5","0","","","","","","6","","","","","","","","",""
"","","","","","single-stim-button","101","301576","0.0-2.0-25.5-0.5","607b155c459cf45e913f93a6","F1","batch6","","624","tol_tohand","","","","tol_peg_3","624","624","0","[[0,0,0],[2,3],[0]]","6","[[1,0,0],[2,3],[0]]","5","0","","","","","","6","","","","","","","","",""
"","","","","","single-stim-button","102","302136","0.0-2.0-25.5-1.5","607b155c459cf45e913f93a6","F1","batch6","","560","tol_toboard","","","","tol_peg_1","560","560","0","[[1,0,0],[2,3],[0]]","6","[[1,0,0],[2,3],[0]]","5","0","","","","","","6","","","","","","","","",""
"","","","","","poldrack-single-stim","103","303137","0.0-2.0-26.0","607b155c459cf45e913f93a6","F1","batch6","","-1","tol_feedback","","","true","","1000","1000","500","","","","","","-1","none","true","12303","22140","","","","","","","","","",""
"","","","","","html-button-response","104","304018","0.0-2.0-27.0","607b155c459cf45e913f93a6","F1","batch6","","881","tol_trial_num","<div class = centerbox><p class = center-block-text>problem <strong>7</strong> out of 25 problems</p></div>","0","","","","","","","","","","","","","","","","","","","","","","","","",""
"","","","","","single-stim-button","105","316042","0.0-2.0-28.0-0.0","607b155c459cf45e913f93a6","F1","batch6","","12023","tol_tohand","","","","tol_peg_3","12023","12023","0","[[2,1,0],[0,0],[0]]","1","[[1,2,0],[3,0],[0]]","6","0","","","","","","5","","","","","","","","",""
"","","","","","single-stim-button","106","316531","0.0-2.0-28.0-1.0","607b155c459cf45e913f93a6","F1","batch6","","489","tol_toboard","","","","tol_peg_2","489","489","0","[[2,1,0],[3,0],[0]]","1","[[1,2,0],[3,0],[0]]","6","0","","","","","","5","","","","","","","","",""
"","","","","","single-stim-button","107","319262","0.0-2.0-28.1-0.1","607b155c459cf45e913f93a6","F1","batch6","","2731","tol_tohand","","","","tol_peg_1","2731","2731","0","[[2,0,0],[3,0],[0]]","2","[[1,2,0],[3,0],[0]]","6","0","","","","","","5","","","","","","","","",""
"","","","","","single-stim-button","108","319896","0.0-2.0-28.1-1.1","607b155c459cf45e913f93a6","F1","batch6","","634","tol_toboard","","","","tol_peg_3","634","634","0","[[2,0,0],[3,0],[1]]","2","[[1,2,0],[3,0],[0]]","6","0","","","","","","5","","","","","","","","",""
"","","","","","single-stim-button","109","320424","0.0-2.0-28.2-0.2","607b155c459cf45e913f93a6","F1","batch6","","528","tol_tohand","","","","tol_peg_1","528","528","0","[[0,0,0],[3,0],[1]]","3","[[1,2,0],[3,0],[0]]","6","0","","","","","","5","","","","","","","","",""
"","","","","","single-stim-button","110","320913","0.0-2.0-28.2-1.2","607b155c459cf45e913f93a6","F1","batch6","","488","tol_toboard","","","","tol_peg_2","488","488","0","[[0,0,0],[3,2],[1]]","3","[[1,2,0],[3,0],[0]]","6","0","","","","","","5","","","","","","","","",""
"","","","","","single-stim-button","111","321535","0.0-2.0-28.3-0.3","607b155c459cf45e913f93a6","F1","batch6","","622","tol_tohand","","","","tol_peg_3","622","622","0","[[0,0,0],[3,2],[0]]","4","[[1,2,0],[3,0],[0]]","6","0","","","","","","5","","","","","","","","",""
"","","","","","single-stim-button","112","322070","0.0-2.0-28.3-1.3","607b155c459cf45e913f93a6","F1","batch6","","535","tol_toboard","","","","tol_peg_1","535","535","0","[[1,0,0],[3,2],[0]]","4","[[1,2,0],[3,0],[0]]","6","0","","","","","","5","","","","","","","","",""
"","","","","","single-stim-button","113","322518","0.0-2.0-28.4-0.4","607b155c459cf45e913f93a6","F1","batch6","","447","tol_tohand","","","","tol_peg_2","447","447","0","[[1,0,0],[3,0],[0]]","5","[[1,2,0],[3,0],[0]]","6","0","","","","","","5","","","","","","","","",""
"","","","","","single-stim-button","114","322988","0.0-2.0-28.4-1.4","607b155c459cf45e913f93a6","F1","batch6","","470","tol_toboard","","","","tol_peg_1","470","470","0","[[1,2,0],[3,0],[0]]","5","[[1,2,0],[3,0],[0]]","6","0","","","","","","5","","","","","","","","",""
"","","","","","poldrack-single-stim","115","323990","0.0-2.0-29.0","607b155c459cf45e913f93a6","F1","batch6","","-1","tol_feedback","","","true","","1000","1000","500","","","","","","-1","none","true","12023","16351","","","","","","","","","",""
"","","","","","html-button-response","116","325659","0.0-2.0-30.0","607b155c459cf45e913f93a6","F1","batch6","","1669","tol_trial_num","<div class = centerbox><p class = center-block-text>problem <strong>8</strong> out of 25 problems</p></div>","0","","","","","","","","","","","","","","","","","","","","","","","","",""
"","","","","","single-stim-button","117","334874","0.0-2.0-31.0-0.0","607b155c459cf45e913f93a6","F1","batch6","","9215","tol_tohand","","","","tol_peg_3","9215","9215","0","[[0,0,0],[2,3],[0]]","1","[[1,2,0],[3,0],[0]]","7","0","","","","","","4","","","","","","","","",""
"","","","","","single-stim-button","118","335546","0.0-2.0-31.0-1.0","607b155c459cf45e913f93a6","F1","batch6","","672","tol_toboard","","","","tol_peg_1","672","672","0","[[1,0,0],[2,3],[0]]","1","[[1,2,0],[3,0],[0]]","7","0","","","","","","4","","","","","","","","",""
"","","","","","single-stim-button","119","336095","0.0-2.0-31.1-0.1","607b155c459cf45e913f93a6","F1","batch6","","548","tol_tohand","","","","tol_peg_2","548","548","0","[[1,0,0],[2,0],[0]]","2","[[1,2,0],[3,0],[0]]","7","0","","","","","","4","","","","","","","","",""
"","","","","","single-stim-button","120","336701","0.0-2.0-31.1-1.1","607b155c459cf45e913f93a6","F1","batch6","","606","tol_toboard","","","","tol_peg_3","606","606","0","[[1,0,0],[2,0],[3]]","2","[[1,2,0],[3,0],[0]]","7","0","","","","","","4","","","","","","","","",""
"","","","","","single-stim-button","121","337474","0.0-2.0-31.2-0.2","607b155c459cf45e913f93a6","F1","batch6","","773","tol_tohand","","","","tol_peg_2","773","773","0","[[1,0,0],[0,0],[3]]","3","[[1,2,0],[3,0],[0]]","7","0","","","","","","4","","","","","","","","",""
"","","","","","single-stim-button","122","338034","0.0-2.0-31.2-1.2","607b155c459cf45e913f93a6","F1","batch6","","560","tol_toboard","","","","tol_peg_1","560","560","0","[[1,2,0],[0,0],[3]]","3","[[1,2,0],[3,0],[0]]","7","0","","","","","","4","","","","","","","","",""
"","","","","","single-stim-button","123","338609","0.0-2.0-31.3-0.3","607b155c459cf45e913f93a6","F1","batch6","","573","tol_tohand","","","","tol_peg_3","573","573","0","[[1,2,0],[0,0],[0]]","4","[[1,2,0],[3,0],[0]]","7","0","","","","","","4","","","","","","","","",""
"","","","","","single-stim-button","124","339182","0.0-2.0-31.3-1.3","607b155c459cf45e913f93a6","F1","batch6","","573","tol_toboard","","","","tol_peg_2","573","573","0","[[1,2,0],[3,0],[0]]","4","[[1,2,0],[3,0],[0]]","7","0","","","","","","4","","","","","","","","",""
"","","","","","poldrack-single-stim","125","340183","0.0-2.0-32.0","607b155c459cf45e913f93a6","F1","batch6","","-1","tol_feedback","","","true","","1000","1000","500","","","","","","-1","none","true","9215","11109","","","","","","","","","",""
"","","","","","html-button-response","126","341036","0.0-2.0-33.0","607b155c459cf45e913f93a6","F1","batch6","","851","tol_trial_num","<div class = centerbox><p class = center-block-text>problem <strong>9</strong> out of 25 problems</p></div>","0","","","","","","","","","","","","","","","","","","","","","","","","",""
"","","","","","single-stim-button","127","355075","0.0-2.0-34.0-0.0","607b155c459cf45e913f93a6","F1","batch6","","14039","tol_tohand","","","","tol_peg_3","14039","14039","0","[[3,2,0],[0,0],[0]]","1","[[2,1,0],[3,0],[0]]","8","0","","","","","","6","","","","","","","","",""
"","","","","","single-stim-button","128","355675","0.0-2.0-34.0-1.0","607b155c459cf45e913f93a6","F1","batch6","","599","tol_toboard","","","","tol_peg_2","599","599","0","[[3,2,0],[1,0],[0]]","1","[[2,1,0],[3,0],[0]]","8","0","","","","","","6","","","","","","","","",""
"","","","","","single-stim-button","129","356188","0.0-2.0-34.1-0.1","607b155c459cf45e913f93a6","F1","batch6","","513","tol_tohand","","","","tol_peg_1","513","513","0","[[3,0,0],[1,0],[0]]","2","[[2,1,0],[3,0],[0]]","8","0","","","","","","6","","","","","","","","",""
"","","","","","single-stim-button","130","356788","0.0-2.0-34.1-1.1","607b155c459cf45e913f93a6","F1","batch6","","599","tol_toboard","","","","tol_peg_3","599","599","0","[[3,0,0],[1,0],[2]]","2","[[2,1,0],[3,0],[0]]","8","0","","","","","","6","","","","","","","","",""
"","","","","","single-stim-button","131","358420","0.0-2.0-34.2-0.2","607b155c459cf45e913f93a6","F1","batch6","","1631","tol_tohand","","","","tol_peg_1","1631","1631","0","[[0,0,0],[1,0],[2]]","3","[[2,1,0],[3,0],[0]]","8","0","","","","","","6","","","","","","","","",""
"","","","","","single-stim-button","132","358933","0.0-2.0-34.2-1.2","607b155c459cf45e913f93a6","F1","batch6","","513","tol_toboard","","","","tol_peg_2","513","513","0","[[0,0,0],[1,3],[2]]","3","[[2,1,0],[3,0],[0]]","8","0","","","","","","6","","","","","","","","",""
"","","","","","single-stim-button","133","359457","0.0-2.0-34.3-0.3","607b155c459cf45e913f93a6","F1","batch6","","524","tol_tohand","","","","tol_peg_3","524","524","0","[[0,0,0],[1,3],[0]]","4","[[2,1,0],[3,0],[0]]","8","0","","","","","","6","","","","","","","","",""
"","","","","","single-stim-button","134","360051","0.0-2.0-34.3-1.3","607b155c459cf45e913f93a6","F1","batch6","","594","tol_toboard","","","","tol_peg_1","594","594","0","[[2,0,0],[1,3],[0]]","4","[[2,1,0],[3,0],[0]]","8","0","","","","","","6","","","","","","","","",""
"","","","","","single-stim-button","135","362531","0.0-2.0-34.4-0.4","607b155c459cf45e913f93a6","F1","batch6","","2479","tol_tohand","","","","tol_peg_2","2479","2479","0","[[2,0,0],[1,0],[0]]","5","[[2,1,0],[3,0],[0]]","8","0","","","","","","6","","","","","","","","",""
"","","","","","single-stim-button","136","363078","0.0-2.0-34.4-1.4","607b155c459cf45e913f93a6","F1","batch6","","547","tol_toboard","","","","tol_peg_3","547","547","0","[[2,0,0],[1,0],[3]]","5","[[2,1,0],[3,0],[0]]","8","0","","","","","","6","","","","","","","","",""
"","","","","","single-stim-button","137","363645","0.0-2.0-34.5-0.5","607b155c459cf45e913f93a6","F1","batch6","","567","tol_tohand","","","","tol_peg_2","567","567","0","[[2,0,0],[0,0],[3]]","6","[[2,1,0],[3,0],[0]]","8","0","","","","","","6","","","","","","","","",""
"","","","","","single-stim-button","138","364134","0.0-2.0-34.5-1.5","607b155c459cf45e913f93a6","F1","batch6","","489","tol_toboard","","","","tol_peg_1","489","489","0","[[2,1,0],[0,0],[3]]","6","[[2,1,0],[3,0],[0]]","8","0","","","","","","6","","","","","","","","",""
"","","","","","single-stim-button","139","364699","0.0-2.0-34.6-0.6","607b155c459cf45e913f93a6","F1","batch6","","565","tol_tohand","","","","tol_peg_3","565","565","0","[[2,1,0],[0,0],[0]]","7","[[2,1,0],[3,0],[0]]","8","0","","","","","","6","","","","","","","","",""
"","","","","","single-stim-button","140","365156","0.0-2.0-34.6-1.6","607b155c459cf45e913f93a6","F1","batch6","","457","tol_toboard","","","","tol_peg_2","457","457","0","[[2,1,0],[3,0],[0]]","7","[[2,1,0],[3,0],[0]]","8","0","","","","","","6","","","","","","","","",""
"","","","","","poldrack-single-stim","141","366157","0.0-2.0-35.0","607b155c459cf45e913f93a6","F1","batch6","","-1","tol_feedback","","","true","","1000","1000","500","","","","","","-1","none","true","14039","20318","","","","","","","","","",""
"","","","","","html-button-response","142","366951","0.0-2.0-36.0","607b155c459cf45e913f93a6","F1","batch6","","793","tol_trial_num","<div class = centerbox><p class = center-block-text>problem <strong>10</strong> out of 25 problems</p></div>","0","","","","","","","","","","","","","","","","","","","","","","","","",""
"","","","","","single-stim-button","143","370962","0.0-2.0-37.0-0.0","607b155c459cf45e913f93a6","F1","batch6","","4011","tol_tohand","","","","tol_peg_2","4011","4011","0","[[3,0,0],[0,0],[2]]","1","[[3,0,0],[2,1],[0]]","9","0","","","","","","3","","","","","","","","",""
"","","","","","single-stim-button","144","371649","0.0-2.0-37.0-1.0","607b155c459cf45e913f93a6","F1","batch6","","686","tol_toboard","","","","tol_peg_1","686","686","0","[[3,1,0],[0,0],[2]]","1","[[3,0,0],[2,1],[0]]","9","0","","","","","","3","","","","","","","","",""
"","","","","","single-stim-button","145","372807","0.0-2.0-37.1-0.1","607b155c459cf45e913f93a6","F1","batch6","","1158","tol_tohand","","","","tol_peg_3","1158","1158","0","[[3,1,0],[0,0],[0]]","2","[[3,0,0],[2,1],[0]]","9","0","","","","","","3","","","","","","","","",""
"","","","","","single-stim-button","146","373422","0.0-2.0-37.1-1.1","607b155c459cf45e913f93a6","F1","batch6","","614","tol_toboard","","","","tol_peg_2","614","614","0","[[3,1,0],[2,0],[0]]","2","[[3,0,0],[2,1],[0]]","9","0","","","","","","3","","","","","","","","",""
"","","","","","single-stim-button","147","374019","0.0-2.0-37.2-0.2","607b155c459cf45e913f93a6","F1","batch6","","597","tol_tohand","","","","tol_peg_1","597","597","0","[[3,0,0],[2,0],[0]]","3","[[3,0,0],[2,1],[0]]","9","0","","","","","","3","","","","","","","","",""
"","","","","","single-stim-button","148","374500","0.0-2.0-37.2-1.2","607b155c459cf45e913f93a6","F1","batch6","","481","tol_toboard","","","","tol_peg_2","481","481","0","[[3,0,0],[2,1],[0]]","3","[[3,0,0],[2,1],[0]]","9","0","","","","","","3","","","","","","","","",""
"","","","","","poldrack-single-stim","149","375501","0.0-2.0-38.0","607b155c459cf45e913f93a6","F1","batch6","","-1","tol_feedback","","","true","","1000","1000","500","","","","","","-1","none","true","4011","5766","","","","","","","","","",""
"","","","","","html-button-response","150","376238","0.0-2.0-39.0","607b155c459cf45e913f93a6","F1","batch6","","737","tol_trial_num","<div class = centerbox><p class = center-block-text>problem <strong>11</strong> out of 25 problems</p></div>","0","","","","","","","","","","","","","","","","","","","","","","","","",""
"","","","","","single-stim-button","151","385151","0.0-2.0-40.0-0.0","607b155c459cf45e913f93a6","F1","batch6","","8913","tol_tohand","","","","tol_peg_2","8913","8913","0","[[1,2,0],[0,0],[0]]","1","[[2,0,0],[1,3],[0]]","10","0","","","","","","6","","","","","","","","",""
"","","","","","single-stim-button","152","388067","0.0-2.0-40.0-1.0","607b155c459cf45e913f93a6","F1","batch6","","2916","tol_toboard","","","","tol_peg_3","2916","2916","0","[[1,2,0],[0,0],[3]]","1","[[2,0,0],[1,3],[0]]","10","0","","","","","","6","","","","","","","","",""
"","","","","","single-stim-button","153","392199","0.0-2.0-40.1-0.1","607b155c459cf45e913f93a6","F1","batch6","","4132","tol_tohand","","","","tol_peg_3","4132","4132","0","[[1,2,0],[0,0],[0]]","2","[[2,0,0],[1,3],[0]]","10","0","","","","","","6","","","","","","","","",""
"","","","","","single-stim-button","154","392687","0.0-2.0-40.1-1.1","607b155c459cf45e913f93a6","F1","batch6","","488","tol_toboard","","","","tol_peg_2","488","488","0","[[1,2,0],[3,0],[0]]","2","[[2,0,0],[1,3],[0]]","10","0","","","","","","6","","","","","","","","",""
"","","","","","single-stim-button","155","393165","0.0-2.0-40.2-0.2","607b155c459cf45e913f93a6","F1","batch6","","477","tol_tohand","","","","tol_peg_1","477","477","0","[[1,0,0],[3,0],[0]]","3","[[2,0,0],[1,3],[0]]","10","0","","","","","","6","","","","","","","","",""
"","","","","","single-stim-button","156","393761","0.0-2.0-40.2-1.2","607b155c459cf45e913f93a6","F1","batch6","","596","tol_toboard","","","","tol_peg_3","596","596","0","[[1,0,0],[3,0],[2]]","3","[[2,0,0],[1,3],[0]]","10","0","","","","","","6","","","","","","","","",""
"","","","","","single-stim-button","157","395046","0.0-2.0-40.3-0.3","607b155c459cf45e913f93a6","F1","batch6","","1284","tol_tohand","","","","tol_peg_1","1284","1284","0","[[0,0,0],[3,0],[2]]","4","[[2,0,0],[1,3],[0]]","10","0","","","","","","6","","","","","","","","",""
"","","","","","single-stim-button","158","395431","0.0-2.0-40.3-1.3","607b155c459cf45e913f93a6","F1","batch6","","384","tol_toboard","","","","tol_peg_2","384","384","0","[[0,0,0],[3,1],[2]]","4","[[2,0,0],[1,3],[0]]","10","0","","","","","","6","","","","","","","","",""
"","","","","","single-stim-button","159","396079","0.0-2.0-40.4-0.4","607b155c459cf45e913f93a6","F1","batch6","","647","tol_tohand","","","","tol_peg_3","647","647","0","[[0,0,0],[3,1],[0]]","5","[[2,0,0],[1,3],[0]]","10","0","","","","","","6","","","","","","","","",""
"","","","","","single-stim-button","160","397021","0.0-2.0-40.4-1.4","607b155c459cf45e913f93a6","F1","batch6","","942","tol_toboard","","","","tol_peg_1","942","942","0","[[2,0,0],[3,1],[0]]","5","[[2,0,0],[1,3],[0]]","10","0","","","","","","6","","","","","","","","",""
"","","","","","single-stim-button","161","398112","0.0-2.0-40.5-0.5","607b155c459cf45e913f93a6","F1","batch6","","1090","tol_tohand","","","","tol_peg_2","1090","1090","0","[[2,0,0],[3,0],[0]]","6","[[2,0,0],[1,3],[0]]","10","0","","","","","","6","","","","","","","","",""
"","","","","","single-stim-button","162","398690","0.0-2.0-40.5-1.5","607b155c459cf45e913f93a6","F1","batch6","","577","tol_toboard","","","","tol_peg_1","577","577","0","[[2,1,0],[3,0],[0]]","6","[[2,0,0],[1,3],[0]]","10","0","","","","","","6","","","","","","","","",""
"","","","","","single-stim-button","163","399254","0.0-2.0-40.6-0.6","607b155c459cf45e913f93a6","F1","batch6","","564","tol_tohand","","","","tol_peg_2","564","564","0","[[2,1,0],[0,0],[0]]","7","[[2,0,0],[1,3],[0]]","10","0","","","","","","6","","","","","","","","",""
"","","","","","single-stim-button","164","401359","0.0-2.0-40.6-1.6","607b155c459cf45e913f93a6","F1","batch6","","2105","tol_toboard","","","","tol_peg_3","2105","2105","0","[[2,1,0],[0,0],[3]]","7","[[2,0,0],[1,3],[0]]","10","0","","","","","","6","","","","","","","","",""
"","","","","","single-stim-button","165","401885","0.0-2.0-40.7-0.7","607b155c459cf45e913f93a6","F1","batch6","","525","tol_tohand","","","","tol_peg_1","525","525","0","[[2,0,0],[0,0],[3]]","8","[[2,0,0],[1,3],[0]]","10","0","","","","","","6","","","","","","","","",""
"","","","","","single-stim-button","166","402327","0.0-2.0-40.7-1.7","607b155c459cf45e913f93a6","F1","batch6","","441","tol_toboard","","","","tol_peg_2","441","441","0","[[2,0,0],[1,0],[3]]","8","[[2,0,0],[1,3],[0]]","10","0","","","","","","6","","","","","","","","",""
"","","","","","single-stim-button","167","402824","0.0-2.0-40.8-0.8","607b155c459cf45e913f93a6","F1","batch6","","497","tol_tohand","","","","tol_peg_3","497","497","0","[[2,0,0],[1,0],[0]]","9","[[2,0,0],[1,3],[0]]","10","0","","","","","","6","","","","","","","","",""
"","","","","","single-stim-button","168","403240","0.0-2.0-40.8-1.8","607b155c459cf45e913f93a6","F1","batch6","","416","tol_toboard","","","","tol_peg_2","416","416","0","[[2,0,0],[1,3],[0]]","9","[[2,0,0],[1,3],[0]]","10","0","","","","","","6","","","","","","","","",""
"","","","","","poldrack-single-stim","169","404241","0.0-2.0-41.0","607b155c459cf45e913f93a6","F1","batch6","","-1","tol_feedback","","","true","","1000","1000","500","","","","","","-1","none","true","8913","18129","","","","","","","","","",""
"","","","","","html-button-response","170","405016","0.0-2.0-42.0","607b155c459cf45e913f93a6","F1","batch6","","775","tol_trial_num","<div class = centerbox><p class = center-block-text>problem <strong>12</strong> out of 25 problems</p></div>","0","","","","","","","","","","","","","","","","","","","","","","","","",""
"","","","","","single-stim-button","171","411244","0.0-2.0-43.0-0.0","607b155c459cf45e913f93a6","F1","batch6","","6227","tol_tohand","","","","tol_peg_1","6227","6227","0","[[1,0,0],[3,0],[0]]","1","[[2,3,0],[0,0],[1]]","11","0","","","","","","4","","","","","","","","",""
"","","","","","single-stim-button","172","411824","0.0-2.0-43.0-1.0","607b155c459cf45e913f93a6","F1","batch6","","579","tol_toboard","","","","tol_peg_2","579","579","0","[[1,0,0],[3,2],[0]]","1","[[2,3,0],[0,0],[1]]","11","0","","","","","","4","","","","","","","","",""
"","","","","","single-stim-button","173","412292","0.0-2.0-43.1-0.1","607b155c459cf45e913f93a6","F1","batch6","","467","tol_tohand","","","","tol_peg_1","467","467","0","[[0,0,0],[3,2],[0]]","2","[[2,3,0],[0,0],[1]]","11","0","","","","","","4","","","","","","","","",""
"","","","","","single-stim-button","174","412830","0.0-2.0-43.1-1.1","607b155c459cf45e913f93a6","F1","batch6","","537","tol_toboard","","","","tol_peg_3","537","537","0","[[0,0,0],[3,2],[1]]","2","[[2,3,0],[0,0],[1]]","11","0","","","","","","4","","","","","","","","",""
"","","","","","single-stim-button","175","413372","0.0-2.0-43.2-0.2","607b155c459cf45e913f93a6","F1","batch6","","542","tol_tohand","","","","tol_peg_2","542","542","0","[[0,0,0],[3,0],[1]]","3","[[2,3,0],[0,0],[1]]","11","0","","","","","","4","","","","","","","","",""
"","","","","","single-stim-button","176","413881","0.0-2.0-43.2-1.2","607b155c459cf45e913f93a6","F1","batch6","","509","tol_toboard","","","","tol_peg_1","509","509","0","[[2,0,0],[3,0],[1]]","3","[[2,3,0],[0,0],[1]]","11","0","","","","","","4","","","","","","","","",""
"","","","","","single-stim-button","177","414424","0.0-2.0-43.3-0.3","607b155c459cf45e913f93a6","F1","batch6","","543","tol_tohand","","","","tol_peg_2","543","543","0","[[2,0,0],[0,0],[1]]","4","[[2,3,0],[0,0],[1]]","11","0","","","","","","4","","","","","","","","",""
"","","","","","single-stim-button","178","415027","0.0-2.0-43.3-1.3","607b155c459cf45e913f93a6","F1","batch6","","603","tol_toboard","","","","tol_peg_1","603","603","0","[[2,3,0],[0,0],[1]]","4","[[2,3,0],[0,0],[1]]","11","0","","","","","","4","","","","","","","","",""
"","","","","","poldrack-single-stim","179","416029","0.0-2.0-44.0","607b155c459cf45e913f93a6","F1","batch6","","-1","tol_feedback","","","true","","1000","1000","500","","","","","","-1","none","true","6227","7779","","","","","","","","","",""
"","","","","","html-button-response","180","416851","0.0-2.0-45.0","607b155c459cf45e913f93a6","F1","batch6","","822","tol_trial_num","<div class = centerbox><p class = center-block-text>problem <strong>13</strong> out of 25 problems</p></div>","0","","","","","","","","","","","","","","","","","","","","","","","","",""
"","","","","","single-stim-button","181","426240","0.0-2.0-46.0-0.0","607b155c459cf45e913f93a6","F1","batch6","","9389","tol_tohand","","","","tol_peg_2","9389","9389","0","[[1,2,0],[0,0],[0]]","1","[[0,0,0],[2,3],[1]]","12","0","","","","","","4","","","","","","","","",""
"","","","","","single-stim-button","182","426836","0.0-2.0-46.0-1.0","607b155c459cf45e913f93a6","F1","batch6","","596","tol_toboard","","","","tol_peg_3","596","596","0","[[1,2,0],[0,0],[3]]","1","[[0,0,0],[2,3],[1]]","12","0","","","","","","4","","","","","","","","",""
"","","","","","single-stim-button","183","427504","0.0-2.0-46.1-0.1","607b155c459cf45e913f93a6","F1","batch6","","666","tol_tohand","","","","tol_peg_1","666","666","0","[[1,0,0],[0,0],[3]]","2","[[0,0,0],[2,3],[1]]","12","0","","","","","","4","","","","","","","","",""
"","","","","","single-stim-button","184","428075","0.0-2.0-46.1-1.1","607b155c459cf45e913f93a6","F1","batch6","","571","tol_toboard","","","","tol_peg_2","571","571","0","[[1,0,0],[2,0],[3]]","2","[[0,0,0],[2,3],[1]]","12","0","","","","","","4","","","","","","","","",""
"","","","","","single-stim-button","185","428721","0.0-2.0-46.2-0.2","607b155c459cf45e913f93a6","F1","batch6","","645","tol_tohand","","","","tol_peg_3","645","645","0","[[1,0,0],[2,0],[0]]","3","[[0,0,0],[2,3],[1]]","12","0","","","","","","4","","","","","","","","",""
"","","","","","single-stim-button","186","429307","0.0-2.0-46.2-1.2","607b155c459cf45e913f93a6","F1","batch6","","586","tol_toboard","","","","tol_peg_2","586","586","0","[[1,0,0],[2,3],[0]]","3","[[0,0,0],[2,3],[1]]","12","0","","","","","","4","","","","","","","","",""
"","","","","","single-stim-button","187","429859","0.0-2.0-46.3-0.3","607b155c459cf45e913f93a6","F1","batch6","","550","tol_tohand","","","","tol_peg_1","550","550","0","[[0,0,0],[2,3],[0]]","4","[[0,0,0],[2,3],[1]]","12","0","","","","","","4","","","","","","","","",""
"","","","","","single-stim-button","188","430413","0.0-2.0-46.3-1.3","607b155c459cf45e913f93a6","F1","batch6","","554","tol_toboard","","","","tol_peg_3","554","554","0","[[0,0,0],[2,3],[1]]","4","[[0,0,0],[2,3],[1]]","12","0","","","","","","4","","","","","","","","",""
"","","","","","poldrack-single-stim","189","431414","0.0-2.0-47.0","607b155c459cf45e913f93a6","F1","batch6","","-1","tol_feedback","","","true","","1000","1000","500","","","","","","-1","none","true","9389","11250","","","","","","","","","",""
"","","","","","html-button-response","190","436903","0.0-2.0-48.0","607b155c459cf45e913f93a6","F1","batch6","","5489","attention_check","<p class = block-text>How many balls are in your board<br></p>","1","true","","","","","","","","","","","","","","","","","","","","","","","",""
"","","","","","html-button-response","191","438221","0.0-2.0-49.0","607b155c459cf45e913f93a6","F1","batch6","","1317","tol_trial_num","<div class = centerbox><p class = center-block-text>problem <strong>14</strong> out of 25 problems</p></div>","0","","","","","","","","","","","","","","","","","","","","","","","","",""
"","","","","","single-stim-button","192","446346","0.0-2.0-50.0-0.0","607b155c459cf45e913f93a6","F1","batch6","","8124","tol_tohand","","","","tol_peg_1","8124","8124","0","[[2,0,0],[3,0],[0]]","1","[[1,2,0],[3,0],[0]]","13","0","","","","","","4","","","","","","","","",""
"","","","","","single-stim-button","193","447323","0.0-2.0-50.0-1.0","607b155c459cf45e913f93a6","F1","batch6","","976","tol_toboard","","","","tol_peg_3","976","976","0","[[2,0,0],[3,0],[1]]","1","[[1,2,0],[3,0],[0]]","13","0","","","","","","4","","","","","","","","",""
"","","","","","single-stim-button","194","448011","0.0-2.0-50.1-0.1","607b155c459cf45e913f93a6","F1","batch6","","687","tol_tohand","","","","tol_peg_1","687","687","0","[[0,0,0],[3,0],[1]]","2","[[1,2,0],[3,0],[0]]","13","0","","","","","","4","","","","","","","","",""
"","","","","","single-stim-button","195","448528","0.0-2.0-50.1-1.1","607b155c459cf45e913f93a6","F1","batch6","","517","tol_toboard","","","","tol_peg_2","517","517","0","[[0,0,0],[3,2],[1]]","2","[[1,2,0],[3,0],[0]]","13","0","","","","","","4","","","","","","","","",""
"","","","","","single-stim-button","196","449039","0.0-2.0-50.2-0.2","607b155c459cf45e913f93a6","F1","batch6","","511","tol_tohand","","","","tol_peg_3","511","511","0","[[0,0,0],[3,2],[0]]","3","[[1,2,0],[3,0],[0]]","13","0","","","","","","4","","","","","","","","",""
"","","","","","single-stim-button","197","449526","0.0-2.0-50.2-1.2","607b155c459cf45e913f93a6","F1","batch6","","487","tol_toboard","","","","tol_peg_1","487","487","0","[[1,0,0],[3,2],[0]]","3","[[1,2,0],[3,0],[0]]","13","0","","","","","","4","","","","","","","","",""
"","","","","","single-stim-button","198","449965","0.0-2.0-50.3-0.3","607b155c459cf45e913f93a6","F1","batch6","","439","tol_tohand","","","","tol_peg_2","439","439","0","[[1,0,0],[3,0],[0]]","4","[[1,2,0],[3,0],[0]]","13","0","","","","","","4","","","","","","","","",""
"","","","","","single-stim-button","199","450451","0.0-2.0-50.3-1.3","607b155c459cf45e913f93a6","F1","batch6","","486","tol_toboard","","","","tol_peg_1","486","486","0","[[1,2,0],[3,0],[0]]","4","[[1,2,0],[3,0],[0]]","13","0","","","","","","4","","","","","","","","",""
"","","","","","poldrack-single-stim","200","451452","0.0-2.0-51.0","607b155c459cf45e913f93a6","F1","batch6","","-1","tol_feedback","","","true","","1000","1000","500","","","","","","-1","none","true","8124","9761","","","","","","","","","",""
"","","","","","html-button-response","201","452123","0.0-2.0-52.0","607b155c459cf45e913f93a6","F1","batch6","","671","tol_trial_num","<div class = centerbox><p class = center-block-text>problem <strong>15</strong> out of 25 problems</p></div>","0","","","","","","","","","","","","","","","","","","","","","","","","",""
"","","","","","single-stim-button","202","458446","0.0-2.0-53.0-0.0","607b155c459cf45e913f93a6","F1","batch6","","6322","tol_tohand","","","","tol_peg_1","6322","6322","0","[[1,0,0],[3,0],[0]]","1","[[2,0,0],[3,0],[1]]","14","0","","","","","","3","","","","","","","","",""
"","","","","","single-stim-button","203","459351","0.0-2.0-53.0-1.0","607b155c459cf45e913f93a6","F1","batch6","","904","tol_toboard","","","","tol_peg_2","904","904","0","[[1,0,0],[3,2],[0]]","1","[[2,0,0],[3,0],[1]]","14","0","","","","","","3","","","","","","","","",""
"","","","","","single-stim-button","204","460015","0.0-2.0-53.1-0.1","607b155c459cf45e913f93a6","F1","batch6","","664","tol_tohand","","","","tol_peg_1","664","664","0","[[0,0,0],[3,2],[0]]","2","[[2,0,0],[3,0],[1]]","14","0","","","","","","3","","","","","","","","",""
"","","","","","single-stim-button","205","460560","0.0-2.0-53.1-1.1","607b155c459cf45e913f93a6","F1","batch6","","544","tol_toboard","","","","tol_peg_3","544","544","0","[[0,0,0],[3,2],[1]]","2","[[2,0,0],[3,0],[1]]","14","0","","","","","","3","","","","","","","","",""
"","","","","","single-stim-button","206","461087","0.0-2.0-53.2-0.2","607b155c459cf45e913f93a6","F1","batch6","","527","tol_tohand","","","","tol_peg_2","527","527","0","[[0,0,0],[3,0],[1]]","3","[[2,0,0],[3,0],[1]]","14","0","","","","","","3","","","","","","","","",""
"","","","","","single-stim-button","207","461541","0.0-2.0-53.2-1.2","607b155c459cf45e913f93a6","F1","batch6","","454","tol_toboard","","","","tol_peg_1","454","454","0","[[2,0,0],[3,0],[1]]","3","[[2,0,0],[3,0],[1]]","14","0","","","","","","3","","","","","","","","",""
"","","","","","poldrack-single-stim","208","462542","0.0-2.0-54.0","607b155c459cf45e913f93a6","F1","batch6","","-1","tol_feedback","","","true","","1000","1000","500","","","","","","-1","none","true","6322","7513","","","","","","","","","",""
"","","","","","html-button-response","209","463183","0.0-2.0-55.0","607b155c459cf45e913f93a6","F1","batch6","","640","tol_trial_num","<div class = centerbox><p class = center-block-text>problem <strong>16</strong> out of 25 problems</p></div>","0","","","","","","","","","","","","","","","","","","","","","","","","",""
"","","","","","single-stim-button","210","475462","0.0-2.0-56.0-0.0","607b155c459cf45e913f93a6","F1","batch6","","12279","tol_tohand","","","","tol_peg_3","12279","12279","0","[[0,0,0],[2,3],[0]]","1","[[2,3,0],[1,0],[0]]","15","0","","","","","","7","","","","","","","","",""
"","","","","","single-stim-button","211","476002","0.0-2.0-56.0-1.0","607b155c459cf45e913f93a6","F1","batch6","","540","tol_toboard","","","","tol_peg_1","540","540","0","[[1,0,0],[2,3],[0]]","1","[[2,3,0],[1,0],[0]]","15","0","","","","","","7","","","","","","","","",""
"","","","","","single-stim-button","212","488898","0.0-2.0-56.1-0.1","607b155c459cf45e913f93a6","F1","batch6","","12896","tol_tohand","","","","tol_peg_2","12896","12896","0","[[1,0,0],[2,0],[0]]","2","[[2,3,0],[1,0],[0]]","15","0","","","","","","7","","","","","","","","",""
"","","","","","single-stim-button","213","489328","0.0-2.0-56.1-1.1","607b155c459cf45e913f93a6","F1","batch6","","429","tol_toboard","","","","tol_peg_3","429","429","0","[[1,0,0],[2,0],[3]]","2","[[2,3,0],[1,0],[0]]","15","0","","","","","","7","","","","","","","","",""
"","","","","","single-stim-button","214","496116","0.0-2.0-56.2-0.2","607b155c459cf45e913f93a6","F1","batch6","","6788","tol_tohand","","","","tol_peg_3","6788","6788","0","[[1,0,0],[2,0],[0]]","3","[[2,3,0],[1,0],[0]]","15","0","","","","","","7","","","","","","","","",""
"","","","","","single-stim-button","215","496738","0.0-2.0-56.2-1.2","607b155c459cf45e913f93a6","F1","batch6","","622","tol_toboard","","","","tol_peg_2","622","622","0","[[1,0,0],[2,3],[0]]","3","[[2,3,0],[1,0],[0]]","15","0","","","","","","7","","","","","","","","",""
"","","","","","single-stim-button","216","497268","0.0-2.0-56.3-0.3","607b155c459cf45e913f93a6","F1","batch6","","530","tol_tohand","","","","tol_peg_1","530","530","0","[[0,0,0],[2,3],[0]]","4","[[2,3,0],[1,0],[0]]","15","0","","","","","","7","","","","","","","","",""
"","","","","","single-stim-button","217","504084","0.0-2.0-56.3-1.3","607b155c459cf45e913f93a6","F1","batch6","","6816","tol_toboard","","","","tol_peg_1","6816","6816","0","[[1,0,0],[2,3],[0]]","4","[[2,3,0],[1,0],[0]]","15","0","","","","","","7","","","","","","","","",""
"","","","","","single-stim-button","218","532341","0.0-2.0-56.4-0.4","607b155c459cf45e913f93a6","F1","batch6","","28257","tol_tohand","","","","tol_peg_2","28257","28257","0","[[1,0,0],[2,0],[0]]","5","[[2,3,0],[1,0],[0]]","15","0","","","","","","7","","","","","","","","",""
"","","","","","single-stim-button","219","532868","0.0-2.0-56.4-1.4","607b155c459cf45e913f93a6","F1","batch6","","527","tol_toboard","","","","tol_peg_3","527","527","0","[[1,0,0],[2,0],[3]]","5","[[2,3,0],[1,0],[0]]","15","0","","","","","","7","","","","","","","","",""
"","","","","","single-stim-button","220","533450","0.0-2.0-56.5-0.5","607b155c459cf45e913f93a6","F1","batch6","","582","tol_tohand","","","","tol_peg_1","582","582","0","[[0,0,0],[2,0],[3]]","6","[[2,3,0],[1,0],[0]]","15","0","","","","","","7","","","","","","","","",""
"","","","","","single-stim-button","221","533947","0.0-2.0-56.5-1.5","607b155c459cf45e913f93a6","F1","batch6","","497","tol_toboard","","","","tol_peg_2","497","497","0","[[0,0,0],[2,1],[3]]","6","[[2,3,0],[1,0],[0]]","15","0","","","","","","7","","","","","","","","",""
"","","","","","single-stim-button","222","534492","0.0-2.0-56.6-0.6","607b155c459cf45e913f93a6","F1","batch6","","544","tol_tohand","","","","tol_peg_3","544","544","0","[[0,0,0],[2,1],[0]]","7","[[2,3,0],[1,0],[0]]","15","0","","","","","","7","","","","","","","","",""
"","","","","","single-stim-button","223","537130","0.0-2.0-56.6-1.6","607b155c459cf45e913f93a6","F1","batch6","","2637","tol_toboard","","","","tol_peg_1","2637","2637","0","[[3,0,0],[2,1],[0]]","7","[[2,3,0],[1,0],[0]]","15","0","","","","","","7","","","","","","","","",""
"","","","","","single-stim-button","224","537608","0.0-2.0-56.7-0.7","607b155c459cf45e913f93a6","F1","batch6","","478","tol_tohand","","","","tol_peg_2","478","478","0","[[3,0,0],[2,0],[0]]","8","[[2,3,0],[1,0],[0]]","15","0","","","","","","7","","","","","","","","",""
"","","","","","single-stim-button","225","538140","0.0-2.0-56.7-1.7","607b155c459cf45e913f93a6","F1","batch6","","531","tol_toboard","","","","tol_peg_3","531","531","0","[[3,0,0],[2,0],[1]]","8","[[2,3,0],[1,0],[0]]","15","0","","","","","","7","","","","","","","","",""
"","","","","","single-stim-button","226","539152","0.0-2.0-56.8-0.8","607b155c459cf45e913f93a6","F1","batch6","","1012","tol_tohand","","","","tol_peg_2","1012","1012","0","[[3,0,0],[0,0],[1]]","9","[[2,3,0],[1,0],[0]]","15","0","","","","","","7","","","","","","","","",""
"","","","","","single-stim-button","227","540128","0.0-2.0-56.8-1.8","607b155c459cf45e913f93a6","F1","batch6","","975","tol_toboard","","","","tol_peg_1","975","975","0","[[3,2,0],[0,0],[1]]","9","[[2,3,0],[1,0],[0]]","15","0","","","","","","7","","","","","","","","",""
"","","","","","single-stim-button","228","540770","0.0-2.0-56.9-0.9","607b155c459cf45e913f93a6","F1","batch6","","642","tol_tohand","","","","tol_peg_3","642","642","0","[[3,2,0],[0,0],[0]]","10","[[2,3,0],[1,0],[0]]","15","0","","","","","","7","","","","","","","","",""
"","","","","","single-stim-button","229","541459","0.0-2.0-56.9-1.9","607b155c459cf45e913f93a6","F1","batch6","","689","tol_toboard","","","","tol_peg_2","689","689","0","[[3,2,0],[1,0],[0]]","10","[[2,3,0],[1,0],[0]]","15","0","","","","","","7","","","","","","","","",""
"","","","","","single-stim-button","230","542983","0.0-2.0-56.10-0.10","607b155c459cf45e913f93a6","F1","batch6","","1523","tol_tohand","","","","tol_peg_1","1523","1523","0","[[3,0,0],[1,0],[0]]","11","[[2,3,0],[1,0],[0]]","15","0","","","","","","7","","","","","","","","",""
"","","","","","single-stim-button","231","543602","0.0-2.0-56.10-1.10","607b155c459cf45e913f93a6","F1","batch6","","619","tol_toboard","","","","tol_peg_3","619","619","0","[[3,0,0],[1,0],[2]]","11","[[2,3,0],[1,0],[0]]","15","0","","","","","","7","","","","","","","","",""
"","","","","","single-stim-button","232","544732","0.0-2.0-56.11-0.11","607b155c459cf45e913f93a6","F1","batch6","","1130","tol_tohand","","","","tol_peg_1","1130","1130","0","[[0,0,0],[1,0],[2]]","12","[[2,3,0],[1,0],[0]]","15","0","","","","","","7","","","","","","","","",""
"","","","","","single-stim-button","233","545205","0.0-2.0-56.11-1.11","607b155c459cf45e913f93a6","F1","batch6","","472","tol_toboard","","","","tol_peg_2","472","472","0","[[0,0,0],[1,3],[2]]","12","[[2,3,0],[1,0],[0]]","15","0","","","","","","7","","","","","","","","",""
"","","","","","single-stim-button","234","545587","0.0-2.0-56.12-0.12","607b155c459cf45e913f93a6","F1","batch6","","381","tol_tohand","","","","tol_peg_3","381","381","0","[[0,0,0],[1,3],[0]]","13","[[2,3,0],[1,0],[0]]","15","0","","","","","","7","","","","","","","","",""
"","","","","","single-stim-button","235","546066","0.0-2.0-56.12-1.12","607b155c459cf45e913f93a6","F1","batch6","","479","tol_toboard","","","","tol_peg_1","479","479","0","[[2,0,0],[1,3],[0]]","13","[[2,3,0],[1,0],[0]]","15","0","","","","","","7","","","","","","","","",""
"","","","","","single-stim-button","236","546479","0.0-2.0-56.13-0.13","607b155c459cf45e913f93a6","F1","batch6","","413","tol_tohand","","","","tol_peg_2","413","413","0","[[2,0,0],[1,0],[0]]","14","[[2,3,0],[1,0],[0]]","15","0","","","","","","7","","","","","","","","",""
"","","","","","single-stim-button","237","546804","0.0-2.0-56.13-1.13","607b155c459cf45e913f93a6","F1","batch6","","324","tol_toboard","","","","tol_peg_1","324","324","0","[[2,3,0],[1,0],[0]]","14","[[2,3,0],[1,0],[0]]","15","0","","","","","","7","","","","","","","","",""
"","","","","","poldrack-single-stim","238","547806","0.0-2.0-57.0","607b155c459cf45e913f93a6","F1","batch6","","-1","tol_feedback","","","true","","1000","1000","500","","","","","","-1","none","true","12279","67455","","","","","","","","","",""
"","","","","","html-button-response","239","548492","0.0-2.0-58.0","607b155c459cf45e913f93a6","F1","batch6","","684","tol_trial_num","<div class = centerbox><p class = center-block-text>problem <strong>17</strong> out of 25 problems</p></div>","0","","","","","","","","","","","","","","","","","","","","","","","","",""
"","","","","","single-stim-button","240","579691","0.0-2.0-59.0-0.0","607b155c459cf45e913f93a6","F1","batch6","","31199","tol_tohand","","","","tol_peg_2","31199","31199","0","[[1,2,0],[0,0],[0]]","1","[[3,1,0],[2,0],[0]]","16","0","","","","","","5","","","","","","","","",""
"","","","","","single-stim-button","241","580089","0.0-2.0-59.0-1.0","607b155c459cf45e913f93a6","F1","batch6","","398","tol_toboard","","","","tol_peg_3","398","398","0","[[1,2,0],[0,0],[3]]","1","[[3,1,0],[2,0],[0]]","16","0","","","","","","5","","","","","","","","",""
"","","","","","single-stim-button","242","580575","0.0-2.0-59.1-0.1","607b155c459cf45e913f93a6","F1","batch6","","485","tol_tohand","","","","tol_peg_1","485","485","0","[[1,0,0],[0,0],[3]]","2","[[3,1,0],[2,0],[0]]","16","0","","","","","","5","","","","","","","","",""
"","","","","","single-stim-button","243","581438","0.0-2.0-59.1-1.1","607b155c459cf45e913f93a6","F1","batch6","","863","tol_toboard","","","","tol_peg_2","863","863","0","[[1,0,0],[2,0],[3]]","2","[[3,1,0],[2,0],[0]]","16","0","","","","","","5","","","","","","","","",""
"","","","","","single-stim-button","244","581961","0.0-2.0-59.2-0.2","607b155c459cf45e913f93a6","F1","batch6","","522","tol_tohand","","","","tol_peg_1","522","522","0","[[0,0,0],[2,0],[3]]","3","[[3,1,0],[2,0],[0]]","16","0","","","","","","5","","","","","","","","",""
"","","","","","single-stim-button","245","582531","0.0-2.0-59.2-1.2","607b155c459cf45e913f93a6","F1","batch6","","569","tol_toboard","","","","tol_peg_2","569","569","0","[[0,0,0],[2,1],[3]]","3","[[3,1,0],[2,0],[0]]","16","0","","","","","","5","","","","","","","","",""
"","","","","","single-stim-button","246","583055","0.0-2.0-59.3-0.3","607b155c459cf45e913f93a6","F1","batch6","","524","tol_tohand","","","","tol_peg_3","524","524","0","[[0,0,0],[2,1],[0]]","4","[[3,1,0],[2,0],[0]]","16","0","","","","","","5","","","","","","","","",""
"","","","","","single-stim-button","247","583736","0.0-2.0-59.3-1.3","607b155c459cf45e913f93a6","F1","batch6","","681","tol_toboard","","","","tol_peg_1","681","681","0","[[3,0,0],[2,1],[0]]","4","[[3,1,0],[2,0],[0]]","16","0","","","","","","5","","","","","","","","",""
"","","","","","single-stim-button","248","584096","0.0-2.0-59.4-0.4","607b155c459cf45e913f93a6","F1","batch6","","359","tol_tohand","","","","tol_peg_2","359","359","0","[[3,0,0],[2,0],[0]]","5","[[3,1,0],[2,0],[0]]","16","0","","","","","","5","","","","","","","","",""
"","","","","","single-stim-button","249","584535","0.0-2.0-59.4-1.4","607b155c459cf45e913f93a6","F1","batch6","","439","tol_toboard","","","","tol_peg_1","439","439","0","[[3,1,0],[2,0],[0]]","5","[[3,1,0],[2,0],[0]]","16","0","","","","","","5","","","","","","","","",""
"","","","","","poldrack-single-stim","250","585536","0.0-2.0-60.0","607b155c459cf45e913f93a6","F1","batch6","","-1","tol_feedback","","","true","","1000","1000","500","","","","","","-1","none","true","31199","33089","","","","","","","","","",""
"","","","","","html-button-response","251","587511","0.0-2.0-61.0","607b155c459cf45e913f93a6","F1","batch6","","1975","tol_trial_num","<div class = centerbox><p class = center-block-text>problem <strong>18</strong> out of 25 problems</p></div>","0","","","","","","","","","","","","","","","","","","","","","","","","",""
"","","","","","single-stim-button","252","633207","0.0-2.0-62.0-0.0","607b155c459cf45e913f93a6","F1","batch6","","45696","tol_tohand","","","","tol_peg_2","45696","45696","0","[[1,2,0],[0,0],[0]]","1","[[3,0,0],[2,0],[1]]","17","0","","","","","","5","","","","","","","","",""
"","","","","","single-stim-button","253","633637","0.0-2.0-62.0-1.0","607b155c459cf45e913f93a6","F1","batch6","","430","tol_toboard","","","","tol_peg_3","430","430","0","[[1,2,0],[0,0],[3]]","1","[[3,0,0],[2,0],[1]]","17","0","","","","","","5","","","","","","","","",""
"","","","","","single-stim-button","254","634191","0.0-2.0-62.1-0.1","607b155c459cf45e913f93a6","F1","batch6","","552","tol_tohand","","","","tol_peg_1","552","552","0","[[1,0,0],[0,0],[3]]","2","[[3,0,0],[2,0],[1]]","17","0","","","","","","5","","","","","","","","",""
"","","","","","single-stim-button","255","634650","0.0-2.0-62.1-1.1","607b155c459cf45e913f93a6","F1","batch6","","459","tol_toboard","","","","tol_peg_2","459","459","0","[[1,0,0],[2,0],[3]]","2","[[3,0,0],[2,0],[1]]","17","0","","","","","","5","","","","","","","","",""
"","","","","","single-stim-button","256","635218","0.0-2.0-62.2-0.2","607b155c459cf45e913f93a6","F1","batch6","","568","tol_tohand","","","","tol_peg_1","568","568","0","[[0,0,0],[2,0],[3]]","3","[[3,0,0],[2,0],[1]]","17","0","","","","","","5","","","","","","","","",""
"","","","","","single-stim-button","257","635787","0.0-2.0-62.2-1.2","607b155c459cf45e913f93a6","F1","batch6","","569","tol_toboard","","","","tol_peg_2","569","569","0","[[0,0,0],[2,1],[3]]","3","[[3,0,0],[2,0],[1]]","17","0","","","","","","5","","","","","","","","",""
"","","","","","single-stim-button","258","636357","0.0-2.0-62.3-0.3","607b155c459cf45e913f93a6","F1","batch6","","570","tol_tohand","","","","tol_peg_3","570","570","0","[[0,0,0],[2,1],[0]]","4","[[3,0,0],[2,0],[1]]","17","0","","","","","","5","","","","","","","","",""
"","","","","","single-stim-button","259","636855","0.0-2.0-62.3-1.3","607b155c459cf45e913f93a6","F1","batch6","","498","tol_toboard","","","","tol_peg_1","498","498","0","[[3,0,0],[2,1],[0]]","4","[[3,0,0],[2,0],[1]]","17","0","","","","","","5","","","","","","","","",""
"","","","","","single-stim-button","260","637280","0.0-2.0-62.4-0.4","607b155c459cf45e913f93a6","F1","batch6","","424","tol_tohand","","","","tol_peg_2","424","424","0","[[3,0,0],[2,0],[0]]","5","[[3,0,0],[2,0],[1]]","17","0","","","","","","5","","","","","","","","",""
"","","","","","single-stim-button","261","637735","0.0-2.0-62.4-1.4","607b155c459cf45e913f93a6","F1","batch6","","455","tol_toboard","","","","tol_peg_3","455","455","0","[[3,0,0],[2,0],[1]]","5","[[3,0,0],[2,0],[1]]","17","0","","","","","","5","","","","","","","","",""
"","","","","","poldrack-single-stim","262","638736","0.0-2.0-63.0","607b155c459cf45e913f93a6","F1","batch6","","-1","tol_feedback","","","true","","1000","1000","500","","","","","","-1","none","true","45696","47810","","","","","","","","","",""
"","","","","","html-button-response","263","639753","0.0-2.0-64.0","607b155c459cf45e913f93a6","F1","batch6","","1017","tol_trial_num","<div class = centerbox><p class = center-block-text>problem <strong>19</strong> out of 25 problems</p></div>","0","","","","","","","","","","","","","","","","","","","","","","","","",""
"","","","","","single-stim-button","264","740905","0.0-2.0-65.0-0.0","607b155c459cf45e913f93a6","F1","batch6","","101151","tol_tohand","","","","tol_peg_1","101151","101151","0","[[1,0,0],[3,0],[0]]","1","[[0,0,0],[1,2],[3]]","18","0","","","","","","7","","","","","","","","",""
"","","","","","single-stim-button","265","741804","0.0-2.0-65.0-1.0","607b155c459cf45e913f93a6","F1","batch6","","899","tol_toboard","","","","tol_peg_3","899","899","0","[[1,0,0],[3,0],[2]]","1","[[0,0,0],[1,2],[3]]","18","0","","","","","","7","","","","","","","","",""
"","","","","","single-stim-button","266","746010","0.0-2.0-65.1-0.1","607b155c459cf45e913f93a6","F1","batch6","","4205","tol_tohand","","","","tol_peg_1","4205","4205","0","[[0,0,0],[3,0],[2]]","2","[[0,0,0],[1,2],[3]]","18","0","","","","","","7","","","","","","","","",""
"","","","","","single-stim-button","267","746983","0.0-2.0-65.1-1.1","607b155c459cf45e913f93a6","F1","batch6","","973","tol_toboard","","","","tol_peg_2","973","973","0","[[0,0,0],[3,1],[2]]","2","[[0,0,0],[1,2],[3]]","18","0","","","","","","7","","","","","","","","",""
"","","","","","single-stim-button","268","747656","0.0-2.0-65.2-0.2","607b155c459cf45e913f93a6","F1","batch6","","672","tol_tohand","","","","tol_peg_3","672","672","0","[[0,0,0],[3,1],[0]]","3","[[0,0,0],[1,2],[3]]","18","0","","","","","","7","","","","","","","","",""
"","","","","","single-stim-button","269","748480","0.0-2.0-65.2-1.2","607b155c459cf45e913f93a6","F1","batch6","","824","tol_toboard","","","","tol_peg_1","824","824","0","[[2,0,0],[3,1],[0]]","3","[[0,0,0],[1,2],[3]]","18","0","","","","","","7","","","","","","","","",""
"","","","","","single-stim-button","270","749136","0.0-2.0-65.3-0.3","607b155c459cf45e913f93a6","F1","batch6","","655","tol_tohand","","","","tol_peg_2","655","655","0","[[2,0,0],[3,0],[0]]","4","[[0,0,0],[1,2],[3]]","18","0","","","","","","7","","","","","","","","",""
"","","","","","single-stim-button","271","751546","0.0-2.0-65.3-1.3","607b155c459cf45e913f93a6","F1","batch6","","2410","tol_toboard","","","","tol_peg_1","2410","2410","0","[[2,1,0],[3,0],[0]]","4","[[0,0,0],[1,2],[3]]","18","0","","","","","","7","","","","","","","","",""
"","","","","","single-stim-button","272","752002","0.0-2.0-65.4-0.4","607b155c459cf45e913f93a6","F1","batch6","","456","tol_tohand","","","","tol_peg_2","456","456","0","[[2,1,0],[0,0],[0]]","5","[[0,0,0],[1,2],[3]]","18","0","","","","","","7","","","","","","","","",""
"","","","","","single-stim-button","273","752428","0.0-2.0-65.4-1.4","607b155c459cf45e913f93a6","F1","batch6","","426","tol_toboard","","","","tol_peg_3","426","426","0","[[2,1,0],[0,0],[3]]","5","[[0,0,0],[1,2],[3]]","18","0","","","","","","7","","","","","","","","",""
"","","","","","single-stim-button","274","752879","0.0-2.0-65.5-0.5","607b155c459cf45e913f93a6","F1","batch6","","451","tol_tohand","","","","tol_peg_1","451","451","0","[[2,0,0],[0,0],[3]]","6","[[0,0,0],[1,2],[3]]","18","0","","","","","","7","","","","","","","","",""
"","","","","","single-stim-button","275","753287","0.0-2.0-65.5-1.5","607b155c459cf45e913f93a6","F1","batch6","","408","tol_toboard","","","","tol_peg_2","408","408","0","[[2,0,0],[1,0],[3]]","6","[[0,0,0],[1,2],[3]]","18","0","","","","","","7","","","","","","","","",""
"","","","","","single-stim-button","276","753739","0.0-2.0-65.6-0.6","607b155c459cf45e913f93a6","F1","batch6","","452","tol_tohand","","","","tol_peg_1","452","452","0","[[0,0,0],[1,0],[3]]","7","[[0,0,0],[1,2],[3]]","18","0","","","","","","7","","","","","","","","",""
"","","","","","single-stim-button","277","754174","0.0-2.0-65.6-1.6","607b155c459cf45e913f93a6","F1","batch6","","435","tol_toboard","","","","tol_peg_2","435","435","0","[[0,0,0],[1,2],[3]]","7","[[0,0,0],[1,2],[3]]","18","0","","","","","","7","","","","","","","","",""
"","","","","","poldrack-single-stim","278","755176","0.0-2.0-66.0","607b155c459cf45e913f93a6","F1","batch6","","-1","tol_feedback","","","true","","1000","1000","500","","","","","","-1","none","true","101151","108042","","","","","","","","","",""
"","","","","","html-button-response","279","756292","0.0-2.0-67.0","607b155c459cf45e913f93a6","F1","batch6","","1116","tol_trial_num","<div class = centerbox><p class = center-block-text>problem <strong>20</strong> out of 25 problems</p></div>","0","","","","","","","","","","","","","","","","","","","","","","","","",""
"","","","","","single-stim-button","280","775718","0.0-2.0-68.0-0.0","607b155c459cf45e913f93a6","F1","batch6","","19426","tol_tohand","","","","tol_peg_1","19426","19426","0","[[1,0,0],[3,0],[0]]","1","[[2,1,0],[0,0],[3]]","19","0","","","","","","5","","","","","","","","",""
"","","","","","single-stim-button","281","776426","0.0-2.0-68.0-1.0","607b155c459cf45e913f93a6","F1","batch6","","708","tol_toboard","","","","tol_peg_3","708","708","0","[[1,0,0],[3,0],[2]]","1","[[2,1,0],[0,0],[3]]","19","0","","","","","","5","","","","","","","","",""
"","","","","","single-stim-button","282","777103","0.0-2.0-68.1-0.1","607b155c459cf45e913f93a6","F1","batch6","","677","tol_tohand","","","","tol_peg_1","677","677","0","[[0,0,0],[3,0],[2]]","2","[[2,1,0],[0,0],[3]]","19","0","","","","","","5","","","","","","","","",""
"","","","","","single-stim-button","283","777591","0.0-2.0-68.1-1.1","607b155c459cf45e913f93a6","F1","batch6","","488","tol_toboard","","","","tol_peg_2","488","488","0","[[0,0,0],[3,1],[2]]","2","[[2,1,0],[0,0],[3]]","19","0","","","","","","5","","","","","","","","",""
"","","","","","single-stim-button","284","778145","0.0-2.0-68.2-0.2","607b155c459cf45e913f93a6","F1","batch6","","553","tol_tohand","","","","tol_peg_3","553","553","0","[[0,0,0],[3,1],[0]]","3","[[2,1,0],[0,0],[3]]","19","0","","","","","","5","","","","","","","","",""
"","","","","","single-stim-button","285","779192","0.0-2.0-68.2-1.2","607b155c459cf45e913f93a6","F1","batch6","","1047","tol_toboard","","","","tol_peg_1","1047","1047","0","[[2,0,0],[3,1],[0]]","3","[[2,1,0],[0,0],[3]]","19","0","","","","","","5","","","","","","","","",""
"","","","","","single-stim-button","286","779624","0.0-2.0-68.3-0.3","607b155c459cf45e913f93a6","F1","batch6","","432","tol_tohand","","","","tol_peg_2","432","432","0","[[2,0,0],[3,0],[0]]","4","[[2,1,0],[0,0],[3]]","19","0","","","","","","5","","","","","","","","",""
"","","","","","single-stim-button","287","780054","0.0-2.0-68.3-1.3","607b155c459cf45e913f93a6","F1","batch6","","430","tol_toboard","","","","tol_peg_1","430","430","0","[[2,1,0],[3,0],[0]]","4","[[2,1,0],[0,0],[3]]","19","0","","","","","","5","","","","","","","","",""
"","","","","","single-stim-button","288","780421","0.0-2.0-68.4-0.4","607b155c459cf45e913f93a6","F1","batch6","","367","tol_tohand","","","","tol_peg_2","367","367","0","[[2,1,0],[0,0],[0]]","5","[[2,1,0],[0,0],[3]]","19","0","","","","","","5","","","","","","","","",""
"","","","","","single-stim-button","289","780751","0.0-2.0-68.4-1.4","607b155c459cf45e913f93a6","F1","batch6","","329","tol_toboard","","","","tol_peg_3","329","329","0","[[2,1,0],[0,0],[3]]","5","[[2,1,0],[0,0],[3]]","19","0","","","","","","5","","","","","","","","",""
"","","","","","poldrack-single-stim","290","781752","0.0-2.0-69.0","607b155c459cf45e913f93a6","F1","batch6","","-1","tol_feedback","","","true","","1000","1000","500","","","","","","-1","none","true","19426","21455","","","","","","","","","",""
"","","","","","html-button-response","291","782424","0.0-2.0-70.0","607b155c459cf45e913f93a6","F1","batch6","","673","tol_trial_num","<div class = centerbox><p class = center-block-text>problem <strong>21</strong> out of 25 problems</p></div>","0","","","","","","","","","","","","","","","","","","","","","","","","",""
"","","","","","single-stim-button","292","806713","0.0-2.0-71.0-0.0","607b155c459cf45e913f93a6","F1","batch6","","24288","tol_tohand","","","","tol_peg_1","24288","24288","0","[[1,0,0],[3,0],[0]]","1","[[3,2,0],[0,0],[1]]","20","0","","","","","","6","","","","","","","","",""
"","","","","","single-stim-button","293","807635","0.0-2.0-71.0-1.0","607b155c459cf45e913f93a6","F1","batch6","","921","tol_toboard","","","","tol_peg_3","921","921","0","[[1,0,0],[3,0],[2]]","1","[[3,2,0],[0,0],[1]]","20","0","","","","","","6","","","","","","","","",""
"","","","","","single-stim-button","294","808205","0.0-2.0-71.1-0.1","607b155c459cf45e913f93a6","F1","batch6","","570","tol_tohand","","","","tol_peg_1","570","570","0","[[0,0,0],[3,0],[2]]","2","[[3,2,0],[0,0],[1]]","20","0","","","","","","6","","","","","","","","",""
"","","","","","single-stim-button","295","808686","0.0-2.0-71.1-1.1","607b155c459cf45e913f93a6","F1","batch6","","480","tol_toboard","","","","tol_peg_2","480","480","0","[[0,0,0],[3,1],[2]]","2","[[3,2,0],[0,0],[1]]","20","0","","","","","","6","","","","","","","","",""
"","","","","","single-stim-button","296","809306","0.0-2.0-71.2-0.2","607b155c459cf45e913f93a6","F1","batch6","","620","tol_tohand","","","","tol_peg_3","620","620","0","[[0,0,0],[3,1],[0]]","3","[[3,2,0],[0,0],[1]]","20","0","","","","","","6","","","","","","","","",""
"","","","","","single-stim-button","297","823645","0.0-2.0-71.2-1.2","607b155c459cf45e913f93a6","F1","batch6","","14339","tol_toboard","","","","tol_peg_1","14339","14339","0","[[2,0,0],[3,1],[0]]","3","[[3,2,0],[0,0],[1]]","20","0","","","","","","6","","","","","","","","",""
"","","","","","single-stim-button","298","828546","0.0-2.0-71.3-0.3","607b155c459cf45e913f93a6","F1","batch6","","4900","tol_tohand","","","","tol_peg_2","4900","4900","0","[[2,0,0],[3,0],[0]]","4","[[3,2,0],[0,0],[1]]","20","0","","","","","","6","","","","","","","","",""
"","","","","","single-stim-button","299","829158","0.0-2.0-71.3-1.3","607b155c459cf45e913f93a6","F1","batch6","","612","tol_toboard","","","","tol_peg_1","612","612","0","[[2,1,0],[3,0],[0]]","4","[[3,2,0],[0,0],[1]]","20","0","","","","","","6","","","","","","","","",""
"","","","","","single-stim-button","300","829679","0.0-2.0-71.4-0.4","607b155c459cf45e913f93a6","F1","batch6","","519","tol_tohand","","","","tol_peg_2","519","519","0","[[2,1,0],[0,0],[0]]","5","[[3,2,0],[0,0],[1]]","20","0","","","","","","6","","","","","","","","",""
"","","","","","single-stim-button","301","830153","0.0-2.0-71.4-1.4","607b155c459cf45e913f93a6","F1","batch6","","474","tol_toboard","","","","tol_peg_3","474","474","0","[[2,1,0],[0,0],[3]]","5","[[3,2,0],[0,0],[1]]","20","0","","","","","","6","","","","","","","","",""
"","","","","","single-stim-button","302","838741","0.0-2.0-71.5-0.5","607b155c459cf45e913f93a6","F1","batch6","","8588","tol_tohand","","","","tol_peg_1","8588","8588","0","[[2,0,0],[0,0],[3]]","6","[[3,2,0],[0,0],[1]]","20","0","","","","","","6","","","","","","","","",""
"","","","","","single-stim-button","303","839166","0.0-2.0-71.5-1.5","607b155c459cf45e913f93a6","F1","batch6","","425","tol_toboard","","","","tol_peg_2","425","425","0","[[2,0,0],[1,0],[3]]","6","[[3,2,0],[0,0],[1]]","20","0","","","","","","6","","","","","","","","",""
"","","","","","single-stim-button","304","839678","0.0-2.0-71.6-0.6","607b155c459cf45e913f93a6","F1","batch6","","512","tol_tohand","","","","tol_peg_1","512","512","0","[[0,0,0],[1,0],[3]]","7","[[3,2,0],[0,0],[1]]","20","0","","","","","","6","","","","","","","","",""
"","","","","","single-stim-button","305","840118","0.0-2.0-71.6-1.6","607b155c459cf45e913f93a6","F1","batch6","","438","tol_toboard","","","","tol_peg_2","438","438","0","[[0,0,0],[1,2],[3]]","7","[[3,2,0],[0,0],[1]]","20","0","","","","","","6","","","","","","","","",""
"","","","","","single-stim-button","306","840597","0.0-2.0-71.7-0.7","607b155c459cf45e913f93a6","F1","batch6","","478","tol_tohand","","","","tol_peg_3","478","478","0","[[0,0,0],[1,2],[0]]","8","[[3,2,0],[0,0],[1]]","20","0","","","","","","6","","","","","","","","",""
"","","","","","single-stim-button","307","841162","0.0-2.0-71.7-1.7","607b155c459cf45e913f93a6","F1","batch6","","565","tol_toboard","","","","tol_peg_1","565","565","0","[[3,0,0],[1,2],[0]]","8","[[3,2,0],[0,0],[1]]","20","0","","","","","","6","","","","","","","","",""
"","","","","","single-stim-button","308","841598","0.0-2.0-71.8-0.8","607b155c459cf45e913f93a6","F1","batch6","","435","tol_tohand","","","","tol_peg_2","435","435","0","[[3,0,0],[1,0],[0]]","9","[[3,2,0],[0,0],[1]]","20","0","","","","","","6","","","","","","","","",""
"","","","","","single-stim-button","309","842010","0.0-2.0-71.8-1.8","607b155c459cf45e913f93a6","F1","batch6","","412","tol_toboard","","","","tol_peg_1","412","412","0","[[3,2,0],[1,0],[0]]","9","[[3,2,0],[0,0],[1]]","20","0","","","","","","6","","","","","","","","",""
"","","","","","single-stim-button","310","842511","0.0-2.0-71.9-0.9","607b155c459cf45e913f93a6","F1","batch6","","500","tol_tohand","","","","tol_peg_2","500","500","0","[[3,2,0],[0,0],[0]]","10","[[3,2,0],[0,0],[1]]","20","0","","","","","","6","","","","","","","","",""
"","","","","","single-stim-button","311","842916","0.0-2.0-71.9-1.9","607b155c459cf45e913f93a6","F1","batch6","","404","tol_toboard","","","","tol_peg_3","404","404","0","[[3,2,0],[0,0],[1]]","10","[[3,2,0],[0,0],[1]]","20","0","","","","","","6","","","","","","","","",""
"","","","","","poldrack-single-stim","312","843918","0.0-2.0-72.0","607b155c459cf45e913f93a6","F1","batch6","","-1","tol_feedback","","","true","","1000","1000","500","","","","","","-1","none","true","24288","41410","","","","","","","","","",""
"","","","","","html-button-response","313","844485","0.0-2.0-73.0","607b155c459cf45e913f93a6","F1","batch6","","567","tol_trial_num","<div class = centerbox><p class = center-block-text>problem <strong>22</strong> out of 25 problems</p></div>","0","","","","","","","","","","","","","","","","","","","","","","","","",""
"","","","","","single-stim-button","314","854160","0.0-2.0-74.0-0.0","607b155c459cf45e913f93a6","F1","batch6","","9673","tol_tohand","","","","tol_peg_2","9673","9673","0","[[1,0,0],[2,0],[0]]","1","[[0,0,0],[1,2],[3]]","21","0","","","","","","6","","","","","","","","",""
"","","","","","single-stim-button","315","854790","0.0-2.0-74.0-1.0","607b155c459cf45e913f93a6","F1","batch6","","630","tol_toboard","","","","tol_peg_1","630","630","0","[[1,3,0],[2,0],[0]]","1","[[0,0,0],[1,2],[3]]","21","0","","","","","","6","","","","","","","","",""
"","","","","","single-stim-button","316","855418","0.0-2.0-74.1-0.1","607b155c459cf45e913f93a6","F1","batch6","","627","tol_tohand","","","","tol_peg_2","627","627","0","[[1,3,0],[0,0],[0]]","2","[[0,0,0],[1,2],[3]]","21","0","","","","","","6","","","","","","","","",""
"","","","","","single-stim-button","317","855950","0.0-2.0-74.1-1.1","607b155c459cf45e913f93a6","F1","batch6","","532","tol_toboard","","","","tol_peg_3","532","532","0","[[1,3,0],[0,0],[2]]","2","[[0,0,0],[1,2],[3]]","21","0","","","","","","6","","","","","","","","",""
"","","","","","single-stim-button","318","859497","0.0-2.0-74.2-0.2","607b155c459cf45e913f93a6","F1","batch6","","3547","tol_tohand","","","","tol_peg_1","3547","3547","0","[[1,0,0],[0,0],[2]]","3","[[0,0,0],[1,2],[3]]","21","0","","","","","","6","","","","","","","","",""
"","","","","","single-stim-button","319","868112","0.0-2.0-74.2-1.2","607b155c459cf45e913f93a6","F1","batch6","","8615","tol_toboard","","","","tol_peg_1","8615","8615","0","[[1,3,0],[0,0],[2]]","3","[[0,0,0],[1,2],[3]]","21","0","","","","","","6","","","","","","","","",""
"","","","","","single-stim-button","320","998648","0.0-2.0-74.3-0.3","607b155c459cf45e913f93a6","F1","batch6","","130535","tol_tohand","","","","tol_peg_1","130535","130535","0","[[1,0,0],[0,0],[2]]","4","[[0,0,0],[1,2],[3]]","21","0","","","","","","6","","","","","","","","",""
"","","","","","single-stim-button","321","1002459","0.0-2.0-74.3-1.3","607b155c459cf45e913f93a6","F1","batch6","","3809","tol_toboard","","","","tol_peg_2","3809","3809","0","[[1,0,0],[3,0],[2]]","4","[[0,0,0],[1,2],[3]]","21","0","","","","","","6","","","","","","","","",""
"","","","","","single-stim-button","322","1020116","0.0-2.0-74.4-0.4","607b155c459cf45e913f93a6","F1","batch6","","17656","tol_tohand","","","","tol_peg_1","17656","17656","0","[[0,0,0],[3,0],[2]]","5","[[0,0,0],[1,2],[3]]","21","0","","","","","","6","","","","","","","","",""
"","","","","","single-stim-button","323","1020826","0.0-2.0-74.4-1.4","607b155c459cf45e913f93a6","F1","batch6","","710","tol_toboard","","","","tol_peg_2","710","710","0","[[0,0,0],[3,1],[2]]","5","[[0,0,0],[1,2],[3]]","21","0","","","","","","6","","","","","","","","",""
"","","","","","single-stim-button","324","1021342","0.0-2.0-74.5-0.5","607b155c459cf45e913f93a6","F1","batch6","","515","tol_tohand","","","","tol_peg_3","515","515","0","[[0,0,0],[3,1],[0]]","6","[[0,0,0],[1,2],[3]]","21","0","","","","","","6","","","","","","","","",""
"","","","","","single-stim-button","325","1023426","0.0-2.0-74.5-1.5","607b155c459cf45e913f93a6","F1","batch6","","2084","tol_toboard","","","","tol_peg_1","2084","2084","0","[[2,0,0],[3,1],[0]]","6","[[0,0,0],[1,2],[3]]","21","0","","","","","","6","","","","","","","","",""
"","","","","","single-stim-button","326","1024536","0.0-2.0-74.6-0.6","607b155c459cf45e913f93a6","F1","batch6","","1110","tol_tohand","","","","tol_peg_2","1110","1110","0","[[2,0,0],[3,0],[0]]","7","[[0,0,0],[1,2],[3]]","21","0","","","","","","6","","","","","","","","",""
"","","","","","single-stim-button","327","1025083","0.0-2.0-74.6-1.6","607b155c459cf45e913f93a6","F1","batch6","","547","tol_toboard","","","","tol_peg_1","547","547","0","[[2,1,0],[3,0],[0]]","7","[[0,0,0],[1,2],[3]]","21","0","","","","","","6","","","","","","","","",""
"","","","","","single-stim-button","328","1025472","0.0-2.0-74.7-0.7","607b155c459cf45e913f93a6","F1","batch6","","388","tol_tohand","","","","tol_peg_2","388","388","0","[[2,1,0],[0,0],[0]]","8","[[0,0,0],[1,2],[3]]","21","0","","","","","","6","","","","","","","","",""
"","","","","","single-stim-button","329","1025799","0.0-2.0-74.7-1.7","607b155c459cf45e913f93a6","F1","batch6","","327","tol_toboard","","","","tol_peg_3","327","327","0","[[2,1,0],[0,0],[3]]","8","[[0,0,0],[1,2],[3]]","21","0","","","","","","6","","","","","","","","",""
"","","","","","single-stim-button","330","1026153","0.0-2.0-74.8-0.8","607b155c459cf45e913f93a6","F1","batch6","","354","tol_tohand","","","","tol_peg_1","354","354","0","[[2,0,0],[0,0],[3]]","9","[[0,0,0],[1,2],[3]]","21","0","","","","","","6","","","","","","","","",""
"","","","","","single-stim-button","331","1026492","0.0-2.0-74.8-1.8","607b155c459cf45e913f93a6","F1","batch6","","338","tol_toboard","","","","tol_peg_2","338","338","0","[[2,0,0],[1,0],[3]]","9","[[0,0,0],[1,2],[3]]","21","0","","","","","","6","","","","","","","","",""
"","","","","","single-stim-button","332","1026827","0.0-2.0-74.9-0.9","607b155c459cf45e913f93a6","F1","batch6","","335","tol_tohand","","","","tol_peg_1","335","335","0","[[0,0,0],[1,0],[3]]","10","[[0,0,0],[1,2],[3]]","21","0","","","","","","6","","","","","","","","",""
"","","","","","single-stim-button","333","1027169","0.0-2.0-74.9-1.9","607b155c459cf45e913f93a6","F1","batch6","","342","tol_toboard","","","","tol_peg_2","342","342","0","[[0,0,0],[1,2],[3]]","10","[[0,0,0],[1,2],[3]]","21","0","","","","","","6","","","","","","","","",""
"","","","","","poldrack-single-stim","334","1028170","0.0-2.0-75.0","607b155c459cf45e913f93a6","F1","batch6","","-1","tol_feedback","","","true","","1000","1000","500","","","","","","-1","none","true","9673","164740","","","","","","","","","",""
"","","","","","html-button-response","335","1029065","0.0-2.0-76.0","607b155c459cf45e913f93a6","F1","batch6","","896","tol_trial_num","<div class = centerbox><p class = center-block-text>problem <strong>23</strong> out of 25 problems</p></div>","0","","","","","","","","","","","","","","","","","","","","","","","","",""
"","","","","","single-stim-button","336","1043162","0.0-2.0-77.0-0.0","607b155c459cf45e913f93a6","F1","batch6","","14096","tol_tohand","","","","tol_peg_1","14096","14096","0","[[1,0,0],[3,0],[0]]","1","[[1,3,2],[0,0],[0]]","22","0","","","","","","3","","","","","","","","",""
"","","","","","single-stim-button","337","1044477","0.0-2.0-77.0-1.0","607b155c459cf45e913f93a6","F1","batch6","","1315","tol_toboard","","","","tol_peg_3","1315","1315","0","[[1,0,0],[3,0],[2]]","1","[[1,3,2],[0,0],[0]]","22","0","","","","","","3","","","","","","","","",""
"","","","","","single-stim-button","338","1044930","0.0-2.0-77.1-0.1","607b155c459cf45e913f93a6","F1","batch6","","453","tol_tohand","","","","tol_peg_2","453","453","0","[[1,0,0],[0,0],[2]]","2","[[1,3,2],[0,0],[0]]","22","0","","","","","","3","","","","","","","","",""
"","","","","","single-stim-button","339","1045363","0.0-2.0-77.1-1.1","607b155c459cf45e913f93a6","F1","batch6","","433","tol_toboard","","","","tol_peg_1","433","433","0","[[1,3,0],[0,0],[2]]","2","[[1,3,2],[0,0],[0]]","22","0","","","","","","3","","","","","","","","",""
"","","","","","single-stim-button","340","1045898","0.0-2.0-77.2-0.2","607b155c459cf45e913f93a6","F1","batch6","","535","tol_tohand","","","","tol_peg_3","535","535","0","[[1,3,0],[0,0],[0]]","3","[[1,3,2],[0,0],[0]]","22","0","","","","","","3","","","","","","","","",""
"","","","","","single-stim-button","341","1046417","0.0-2.0-77.2-1.2","607b155c459cf45e913f93a6","F1","batch6","","518","tol_toboard","","","","tol_peg_1","518","518","0","[[1,3,2],[0,0],[0]]","3","[[1,3,2],[0,0],[0]]","22","0","","","","","","3","","","","","","","","",""
"","","","","","poldrack-single-stim","342","1047418","0.0-2.0-78.0","607b155c459cf45e913f93a6","F1","batch6","","-1","tol_feedback","","","true","","1000","1000","500","","","","","","-1","none","true","14096","15084","","","","","","","","","",""
"","","","","","html-button-response","343","1048314","0.0-2.0-79.0","607b155c459cf45e913f93a6","F1","batch6","","896","tol_trial_num","<div class = centerbox><p class = center-block-text>problem <strong>24</strong> out of 25 problems</p></div>","0","","","","","","","","","","","","","","","","","","","","","","","","",""
"","","","","","single-stim-button","344","1127388","0.0-2.0-80.0-0.0","607b155c459cf45e913f93a6","F1","batch6","","79073","tol_tohand","","","","tol_peg_3","79073","79073","0","[[0,0,0],[2,3],[0]]","1","[[2,0,0],[3,0],[1]]","23","0","","","","","","7","","","","","","","","",""
"","","","","","single-stim-button","345","1128054","0.0-2.0-80.0-1.0","607b155c459cf45e913f93a6","F1","batch6","","666","tol_toboard","","","","tol_peg_1","666","666","0","[[1,0,0],[2,3],[0]]","1","[[2,0,0],[3,0],[1]]","23","0","","","","","","7","","","","","","","","",""
"","","","","","single-stim-button","346","1163933","0.0-2.0-80.1-0.1","607b155c459cf45e913f93a6","F1","batch6","","35878","tol_tohand","","","","tol_peg_2","35878","35878","0","[[1,0,0],[2,0],[0]]","2","[[2,0,0],[3,0],[1]]","23","0","","","","","","7","","","","","","","","",""
"","","","","","single-stim-button","347","1164521","0.0-2.0-80.1-1.1","607b155c459cf45e913f93a6","F1","batch6","","588","tol_toboard","","","","tol_peg_3","588","588","0","[[1,0,0],[2,0],[3]]","2","[[2,0,0],[3,0],[1]]","23","0","","","","","","7","","","","","","","","",""
"","","","","","single-stim-button","348","1165913","0.0-2.0-80.2-0.2","607b155c459cf45e913f93a6","F1","batch6","","1391","tol_tohand","","","","tol_peg_2","1391","1391","0","[[1,0,0],[0,0],[3]]","3","[[2,0,0],[3,0],[1]]","23","0","","","","","","7","","","","","","","","",""
"","","","","","single-stim-button","349","1166367","0.0-2.0-80.2-1.2","607b155c459cf45e913f93a6","F1","batch6","","453","tol_toboard","","","","tol_peg_1","453","453","0","[[1,2,0],[0,0],[3]]","3","[[2,0,0],[3,0],[1]]","23","0","","","","","","7","","","","","","","","",""
"","","","","","single-stim-button","350","1167146","0.0-2.0-80.3-0.3","607b155c459cf45e913f93a6","F1","batch6","","779","tol_tohand","","","","tol_peg_3","779","779","0","[[1,2,0],[0,0],[0]]","4","[[2,0,0],[3,0],[1]]","23","0","","","","","","7","","","","","","","","",""
"","","","","","single-stim-button","351","1167689","0.0-2.0-80.3-1.3","607b155c459cf45e913f93a6","F1","batch6","","542","tol_toboard","","","","tol_peg_2","542","542","0","[[1,2,0],[3,0],[0]]","4","[[2,0,0],[3,0],[1]]","23","0","","","","","","7","","","","","","","","",""
"","","","","","single-stim-button","352","1170947","0.0-2.0-80.4-0.4","607b155c459cf45e913f93a6","F1","batch6","","3257","tol_tohand","","","","tol_peg_1","3257","3257","0","[[1,0,0],[3,0],[0]]","5","[[2,0,0],[3,0],[1]]","23","0","","","","","","7","","","","","","","","",""
"","","","","","single-stim-button","353","1172057","0.0-2.0-80.4-1.4","607b155c459cf45e913f93a6","F1","batch6","","1110","tol_toboard","","","","tol_peg_3","1110","1110","0","[[1,0,0],[3,0],[2]]","5","[[2,0,0],[3,0],[1]]","23","0","","","","","","7","","","","","","","","",""
"","","","","","single-stim-button","354","1172848","0.0-2.0-80.5-0.5","607b155c459cf45e913f93a6","F1","batch6","","790","tol_tohand","","","","tol_peg_1","790","790","0","[[0,0,0],[3,0],[2]]","6","[[2,0,0],[3,0],[1]]","23","0","","","","","","7","","","","","","","","",""
"","","","","","single-stim-button","355","1173481","0.0-2.0-80.5-1.5","607b155c459cf45e913f93a6","F1","batch6","","633","tol_toboard","","","","tol_peg_2","633","633","0","[[0,0,0],[3,1],[2]]","6","[[2,0,0],[3,0],[1]]","23","0","","","","","","7","","","","","","","","",""
