"success","timeout","failed_images","failed_audio","failed_video","trial_type","trial_index","time_elapsed","internal_node_id","subject_id","study_id","session_id","task","rt","stimulus","response","item","answer","correct","spm_correct","spm_rt","view_history","fiar_detect_rt","fiar_detect_correct","total_correct_fiar_detect","post_trial_gap","choices","mouse_click","stim_duration","block_duration","timing_post_trial","current_position","tol_num_moves_made","tol_target","tol_problem_id","tol_rt","key_press","possible_responses","tol_correct","preplanning","tol_rt_per_trial","tol_min_moves"
"true","false","[]","[]","[]","preload","0","1455","0.0-0.0","607ec28e6a0bde56a9d69ddc","D2","batch4","","","","","","","","","","","","","","","","","","","","","","","","","","","","","",""
"true","","","","","fullscreen","1","136964","0.0-1.0-0.0","607ec28e6a0bde56a9d69ddc","D2","batch4","","","","","","","","","","","","","","","","","","","","","","","","","","","","","",""
"true","","","","","fullscreen","2","158526","0.0-2.0-0.0","607ec28e6a0bde56a9d69ddc","D2","batch4","spm_fullscreen","","","","","","","","","","","","","","","","","","","","","","","","","","","","",""
"","","","","","html-button-response","3","201003","0.0-2.0-1.0","607ec28e6a0bde56a9d69ddc","D2","batch4","","42475.39999999106","<p class = block-text><b>Instructions</b> <br>This is a widely used intelligence test in research. <br>In this test, a figure with a missing piece will be presented.<br>Below the figure are alternative pieces to complete the figure, only one of which is correct.<br> Different figures might involve different principles for obtaining the missing piece<br>Your job is to select the most logical piece to complete the figure.</p>","0","","","","","","","","","","","","","","","","","","","","","","","","","",""
"","","","","","html-keyboard-response","4","201808","0.0-2.0-2.0-0.0","607ec28e6a0bde56a9d69ddc","D2","batch4","spm_show_trial_num","null","<p class=block-text>Trial 1 out of 60</p>","null","","","","","","","","","","","","","","","","","","","","","","","","","",""
"","","","","","image-button-response","5","219168","0.0-2.0-2.0-1.0","607ec28e6a0bde56a9d69ddc","D2","batch4","spm_respsonse","17337.20000000298","img/question_1_1.jpeg","3","mat_01","4","1","1","17337.20000000298","","","","","","","","","","","","","","","","","","","","",""
"","","","","","html-keyboard-response","6","220238","0.0-2.0-2.0-0.1","607ec28e6a0bde56a9d69ddc","D2","batch4","spm_show_trial_num","null","<p class=block-text>Trial 2 out of 60</p>","null","","","","","","","","","","","","","","","","","","","","","","","","","",""
"","","","","","image-button-response","7","227294","0.0-2.0-2.0-1.1","607ec28e6a0bde56a9d69ddc","D2","batch4","spm_respsonse","7053.199999988079","img/question_1_2.jpeg","4","mat_02","5","1","1","7053.199999988079","","","","","","","","","","","","","","","","","","","","",""
"","","","","","html-keyboard-response","8","228348","0.0-2.0-2.0-0.2","607ec28e6a0bde56a9d69ddc","D2","batch4","spm_show_trial_num","null","<p class=block-text>Trial 3 out of 60</p>","null","","","","","","","","","","","","","","","","","","","","","","","","","",""
"","","","","","image-button-response","9","234210","0.0-2.0-2.0-1.2","607ec28e6a0bde56a9d69ddc","D2","batch4","spm_respsonse","5858.899999991059","img/question_1_3.jpeg","0","mat_03","1","1","1","5858.899999991059","","","","","","","","","","","","","","","","","","","","",""
"","","","","","html-keyboard-response","10","235278","0.0-2.0-2.0-0.3","607ec28e6a0bde56a9d69ddc","D2","batch4","spm_show_trial_num","null","<p class=block-text>Trial 4 out of 60</p>","null","","","","","","","","","","","","","","","","","","","","","","","","","",""
"","","","","","image-button-response","11","241250","0.0-2.0-2.0-1.3","607ec28e6a0bde56a9d69ddc","D2","batch4","spm_respsonse","5969.20000000298","img/question_1_4.jpeg","1","mat_04","2","1","1","5969.20000000298","","","","","","","","","","","","","","","","","","","","",""
"","","","","","html-keyboard-response","12","242303","0.0-2.0-2.0-0.4","607ec28e6a0bde56a9d69ddc","D2","batch4","spm_show_trial_num","null","<p class=block-text>Trial 5 out of 60</p>","null","","","","","","","","","","","","","","","","","","","","","","","","","",""
"","","","","","image-button-response","13","252274","0.0-2.0-2.0-1.4","607ec28e6a0bde56a9d69ddc","D2","batch4","spm_respsonse","9967.90000000596","img/question_1_5.jpeg","5","mat_05","6","1","1","9967.90000000596","","","","","","","","","","","","","","","","","","","","",""
"","","","","","html-keyboard-response","14","253327","0.0-2.0-2.0-0.5","607ec28e6a0bde56a9d69ddc","D2","batch4","spm_show_trial_num","null","<p class=block-text>Trial 6 out of 60</p>","null","","","","","","","","","","","","","","","","","","","","","","","","","",""
"","","","","","image-button-response","15","261666","0.0-2.0-2.0-1.5","607ec28e6a0bde56a9d69ddc","D2","batch4","spm_respsonse","8335.60000000894","img/question_1_6.jpeg","2","mat_06","3","1","1","8335.60000000894","","","","","","","","","","","","","","","","","","","","",""
"","","","","","html-keyboard-response","16","262730","0.0-2.0-2.0-0.6","607ec28e6a0bde56a9d69ddc","D2","batch4","spm_show_trial_num","null","<p class=block-text>Trial 7 out of 60</p>","null","","","","","","","","","","","","","","","","","","","","","","","","","",""
"","","","","","image-button-response","17","271639","0.0-2.0-2.0-1.6","607ec28e6a0bde56a9d69ddc","D2","batch4","spm_respsonse","8905.90000000596","img/question_1_7.jpeg","5","mat_07","6","1","1","8905.90000000596","","","","","","","","","","","","","","","","","","","","",""
"","","","","","html-keyboard-response","18","272693","0.0-2.0-2.0-0.7","607ec28e6a0bde56a9d69ddc","D2","batch4","spm_show_trial_num","null","<p class=block-text>Trial 8 out of 60</p>","null","","","","","","","","","","","","","","","","","","","","","","","","","",""
"","","","","","image-button-response","19","279039","0.0-2.0-2.0-1.7","607ec28e6a0bde56a9d69ddc","D2","batch4","spm_respsonse","6343","img/question_1_8.jpeg","1","mat_08","2","1","1","6343","","","","","","","","","","","","","","","","","","","","",""
"","","","","","html-keyboard-response","20","280091","0.0-2.0-2.0-0.8","607ec28e6a0bde56a9d69ddc","D2","batch4","spm_show_trial_num","null","<p class=block-text>Trial 9 out of 60</p>","null","","","","","","","","","","","","","","","","","","","","","","","","","",""
"","","","","","image-button-response","21","285576","0.0-2.0-2.0-1.8","607ec28e6a0bde56a9d69ddc","D2","batch4","spm_respsonse","5481.4000000059605","img/question_1_9.jpeg","0","mat_09","1","1","1","5481.4000000059605","","","","","","","","","","","","","","","","","","","","",""
"","","","","","html-keyboard-response","22","286632","0.0-2.0-2.0-0.9","607ec28e6a0bde56a9d69ddc","D2","batch4","spm_show_trial_num","null","<p class=block-text>Trial 10 out of 60</p>","null","","","","","","","","","","","","","","","","","","","","","","","","","",""
"","","","","","image-button-response","23","299000","0.0-2.0-2.0-1.9","607ec28e6a0bde56a9d69ddc","D2","batch4","spm_respsonse","12365.10000000894","img/question_1_10.jpeg","2","mat_10","3","1","1","12365.10000000894","","","","","","","","","","","","","","","","","","","","",""
"","","","","","html-keyboard-response","24","300051","0.0-2.0-2.0-0.10","607ec28e6a0bde56a9d69ddc","D2","batch4","spm_show_trial_num","null","<p class=block-text>Trial 11 out of 60</p>","null","","","","","","","","","","","","","","","","","","","","","","","","","",""
"","","","","","image-button-response","25","310355","0.0-2.0-2.0-1.10","607ec28e6a0bde56a9d69ddc","D2","batch4","spm_respsonse","10300.89999999106","img/question_1_11.jpeg","3","mat_11","4","1","1","10300.89999999106","","","","","","","","","","","","","","","","","","","","",""
"","","","","","html-keyboard-response","26","311406","0.0-2.0-2.0-0.11","607ec28e6a0bde56a9d69ddc","D2","batch4","spm_show_trial_num","null","<p class=block-text>Trial 12 out of 60</p>","null","","","","","","","","","","","","","","","","","","","","","","","","","",""
"","","","","","image-button-response","27","323176","0.0-2.0-2.0-1.11","607ec28e6a0bde56a9d69ddc","D2","batch4","spm_respsonse","11766.90000000596","img/question_1_12.jpeg","4","mat_12","5","1","1","11766.90000000596","","","","","","","","","","","","","","","","","","","","",""
"","","","","","html-keyboard-response","28","324228","0.0-2.0-2.0-0.12","607ec28e6a0bde56a9d69ddc","D2","batch4","spm_show_trial_num","null","<p class=block-text>Trial 13 out of 60</p>","null","","","","","","","","","","","","","","","","","","","","","","","","","",""
"","","","","","image-button-response","29","327808","0.0-2.0-2.0-1.12","607ec28e6a0bde56a9d69ddc","D2","batch4","spm_respsonse","3576.2999999970198","img/question_2_1.jpeg","1","mat_13","2","1","1","3576.2999999970198","","","","","","","","","","","","","","","","","","","","",""
"","","","","","html-keyboard-response","30","328872","0.0-2.0-2.0-0.13","607ec28e6a0bde56a9d69ddc","D2","batch4","spm_show_trial_num","null","<p class=block-text>Trial 14 out of 60</p>","null","","","","","","","","","","","","","","","","","","","","","","","","","",""
"","","","","","image-button-response","31","334919","0.0-2.0-2.0-1.13","607ec28e6a0bde56a9d69ddc","D2","batch4","spm_respsonse","6044.9000000059605","img/question_2_2.jpeg","5","mat_14","6","1","1","6044.9000000059605","","","","","","","","","","","","","","","","","","","","",""
"","","","","","html-keyboard-response","32","335971","0.0-2.0-2.0-0.14","607ec28e6a0bde56a9d69ddc","D2","batch4","spm_show_trial_num","null","<p class=block-text>Trial 15 out of 60</p>","null","","","","","","","","","","","","","","","","","","","","","","","","","",""
"","","","","","image-button-response","33","339581","0.0-2.0-2.0-1.14","607ec28e6a0bde56a9d69ddc","D2","batch4","spm_respsonse","3606.699999988079","img/question_2_3.jpeg","0","mat_15","1","1","1","3606.699999988079","","","","","","","","","","","","","","","","","","","","",""
"","","","","","html-keyboard-response","34","340634","0.0-2.0-2.0-0.15","607ec28e6a0bde56a9d69ddc","D2","batch4","spm_show_trial_num","null","<p class=block-text>Trial 16 out of 60</p>","null","","","","","","","","","","","","","","","","","","","","","","","","","",""
"","","","","","image-button-response","35","345525","0.0-2.0-2.0-1.15","607ec28e6a0bde56a9d69ddc","D2","batch4","spm_respsonse","4888.699999988079","img/question_2_4.jpeg","1","mat_16","2","1","1","4888.699999988079","","","","","","","","","","","","","","","","","","","","",""
"","","","","","html-keyboard-response","36","346576","0.0-2.0-2.0-0.16","607ec28e6a0bde56a9d69ddc","D2","batch4","spm_show_trial_num","null","<p class=block-text>Trial 17 out of 60</p>","null","","","","","","","","","","","","","","","","","","","","","","","","","",""
"","","","","","image-button-response","37","353132","0.0-2.0-2.0-1.16","607ec28e6a0bde56a9d69ddc","D2","batch4","spm_respsonse","6553.20000000298","img/question_2_5.jpeg","0","mat_17","1","1","1","6553.20000000298","","","","","","","","","","","","","","","","","","","","",""
"","","","","","html-keyboard-response","38","354196","0.0-2.0-2.0-0.17","607ec28e6a0bde56a9d69ddc","D2","batch4","spm_show_trial_num","null","<p class=block-text>Trial 18 out of 60</p>","null","","","","","","","","","","","","","","","","","","","","","","","","","",""
"","","","","","image-button-response","39","361766","0.0-2.0-2.0-1.17","607ec28e6a0bde56a9d69ddc","D2","batch4","spm_respsonse","7566.5999999940395","img/question_2_6.jpeg","3","mat_18","3","0","0","7566.5999999940395","","","","","","","","","","","","","","","","","","","","",""
"","","","","","html-keyboard-response","40","362835","0.0-2.0-2.0-0.18","607ec28e6a0bde56a9d69ddc","D2","batch4","spm_show_trial_num","null","<p class=block-text>Trial 19 out of 60</p>","null","","","","","","","","","","","","","","","","","","","","","","","","","",""
"","","","","","image-button-response","41","370534","0.0-2.0-2.0-1.18","607ec28e6a0bde56a9d69ddc","D2","batch4","spm_respsonse","7696.29999999702","img/question_2_7.jpeg","4","mat_19","5","1","1","7696.29999999702","","","","","","","","","","","","","","","","","","","","",""
"","","","","","html-keyboard-response","42","371593","0.0-2.0-2.0-0.19","607ec28e6a0bde56a9d69ddc","D2","batch4","spm_show_trial_num","null","<p class=block-text>Trial 20 out of 60</p>","null","","","","","","","","","","","","","","","","","","","","","","","","","",""
"","","","","","image-button-response","43","379825","0.0-2.0-2.0-1.19","607ec28e6a0bde56a9d69ddc","D2","batch4","spm_respsonse","8229.09999999404","img/question_2_8.jpeg","5","mat_20","6","1","1","8229.09999999404","","","","","","","","","","","","","","","","","","","","",""
"","","","","","html-keyboard-response","44","380877","0.0-2.0-2.0-0.20","607ec28e6a0bde56a9d69ddc","D2","batch4","spm_show_trial_num","null","<p class=block-text>Trial 21 out of 60</p>","null","","","","","","","","","","","","","","","","","","","","","","","","","",""
"","","","","","image-button-response","45","386277","0.0-2.0-2.0-1.20","607ec28e6a0bde56a9d69ddc","D2","batch4","spm_respsonse","5397","img/question_2_9.jpeg","3","mat_21","4","1","1","5397","","","","","","","","","","","","","","","","","","","","",""
"","","","","","html-keyboard-response","46","387330","0.0-2.0-2.0-0.21","607ec28e6a0bde56a9d69ddc","D2","batch4","spm_show_trial_num","null","<p class=block-text>Trial 22 out of 60</p>","null","","","","","","","","","","","","","","","","","","","","","","","","","",""
"","","","","","image-button-response","47","394137","0.0-2.0-2.0-1.21","607ec28e6a0bde56a9d69ddc","D2","batch4","spm_respsonse","6804","img/question_2_10.jpeg","2","mat_22","3","1","1","6804","","","","","","","","","","","","","","","","","","","","",""
"","","","","","html-keyboard-response","48","395189","0.0-2.0-2.0-0.22","607ec28e6a0bde56a9d69ddc","D2","batch4","spm_show_trial_num","null","<p class=block-text>Trial 23 out of 60</p>","null","","","","","","","","","","","","","","","","","","","","","","","","","",""
"","","","","","image-button-response","49","401276","0.0-2.0-2.0-1.22","607ec28e6a0bde56a9d69ddc","D2","batch4","spm_respsonse","6084.29999999702","img/question_2_11.jpeg","3","mat_23","4","1","1","6084.29999999702","","","","","","","","","","","","","","","","","","","","",""
"","","","","","html-keyboard-response","50","402329","0.0-2.0-2.0-0.23","607ec28e6a0bde56a9d69ddc","D2","batch4","spm_show_trial_num","null","<p class=block-text>Trial 24 out of 60</p>","null","","","","","","","","","","","","","","","","","","","","","","","","","",""
"","","","","","image-button-response","51","428000","0.0-2.0-2.0-1.23","607ec28e6a0bde56a9d69ddc","D2","batch4","spm_respsonse","25668.30000001192","img/question_2_12.jpeg","1","mat_24","5","0","0","25668.30000001192","","","","","","","","","","","","","","","","","","","","",""
"","","","","","html-button-response","52","431972","0.0-2.0-3.0","607ec28e6a0bde56a9d69ddc","D2","batch4","attention_check","3719.7000000029802","<p class = block-text>Attention check: Please choose 1<br></p>","0","","","true","","","","","","","","","","","","","","","","","","","","","","",""
"","","","","","html-keyboard-response","53","432773","0.0-2.0-4.0-0.0","607ec28e6a0bde56a9d69ddc","D2","batch4","spm_show_trial_num","null","<p class=block-text>Trial 25 out of 60</p>","null","","","","","","","","","","","","","","","","","","","","","","","","","",""
"","","","","","image-button-response","54","439534","0.0-2.0-4.0-1.0","607ec28e6a0bde56a9d69ddc","D2","batch4","spm_respsonse","6757.9000000059605","img/question_3_1.jpeg","7","mat_25","8","1","1","6757.9000000059605","","","","","","","","","","","","","","","","","","","","",""
"","","","","","html-keyboard-response","55","440591","0.0-2.0-4.0-0.1","607ec28e6a0bde56a9d69ddc","D2","batch4","spm_show_trial_num","null","<p class=block-text>Trial 26 out of 60</p>","null","","","","","","","","","","","","","","","","","","","","","","","","","",""
"","","","","","image-button-response","56","446483","0.0-2.0-4.0-1.1","607ec28e6a0bde56a9d69ddc","D2","batch4","spm_respsonse","5888.899999991059","img/question_3_2.jpeg","1","mat_26","2","1","1","5888.899999991059","","","","","","","","","","","","","","","","","","","","",""
"","","","","","html-keyboard-response","57","447535","0.0-2.0-4.0-0.2","607ec28e6a0bde56a9d69ddc","D2","batch4","spm_show_trial_num","null","<p class=block-text>Trial 27 out of 60</p>","null","","","","","","","","","","","","","","","","","","","","","","","","","",""
"","","","","","image-button-response","58","465466","0.0-2.0-4.0-1.2","607ec28e6a0bde56a9d69ddc","D2","batch4","spm_respsonse","17927.90000000596","img/question_3_3.jpeg","2","mat_27","3","1","1","17927.90000000596","","","","","","","","","","","","","","","","","","","","",""
"","","","","","html-keyboard-response","59","466520","0.0-2.0-4.0-0.3","607ec28e6a0bde56a9d69ddc","D2","batch4","spm_show_trial_num","null","<p class=block-text>Trial 28 out of 60</p>","null","","","","","","","","","","","","","","","","","","","","","","","","","",""
"","","","","","image-button-response","60","541689","0.0-2.0-4.0-1.3","607ec28e6a0bde56a9d69ddc","D2","batch4","spm_respsonse","75165.89999999106","img/question_3_4.jpeg","7","mat_28","8","1","1","75165.89999999106","","","","","","","","","","","","","","","","","","","","",""
"","","","","","html-keyboard-response","61","542741","0.0-2.0-4.0-0.4","607ec28e6a0bde56a9d69ddc","D2","batch4","spm_show_trial_num","null","<p class=block-text>Trial 29 out of 60</p>","null","","","","","","","","","","","","","","","","","","","","","","","","","",""
"","","","","","image-button-response","62","571387","0.0-2.0-4.0-1.4","607ec28e6a0bde56a9d69ddc","D2","batch4","spm_respsonse","28643.09999999404","img/question_3_5.jpeg","6","mat_29","7","1","1","28643.09999999404","","","","","","","","","","","","","","","","","","","","",""
"","","","","","html-keyboard-response","63","572446","0.0-2.0-4.0-0.5","607ec28e6a0bde56a9d69ddc","D2","batch4","spm_show_trial_num","null","<p class=block-text>Trial 30 out of 60</p>","null","","","","","","","","","","","","","","","","","","","","","","","","","",""
"","","","","","image-button-response","64","586300","0.0-2.0-4.0-1.5","607ec28e6a0bde56a9d69ddc","D2","batch4","spm_respsonse","13850.5","img/question_3_6.jpeg","3","mat_30","4","1","1","13850.5","","","","","","","","","","","","","","","","","","","","",""
"","","","","","html-keyboard-response","65","587353","0.0-2.0-4.0-0.6","607ec28e6a0bde56a9d69ddc","D2","batch4","spm_show_trial_num","null","<p class=block-text>Trial 31 out of 60</p>","null","","","","","","","","","","","","","","","","","","","","","","","","","",""
"","","","","","image-button-response","66","604284","0.0-2.0-4.0-1.6","607ec28e6a0bde56a9d69ddc","D2","batch4","spm_respsonse","16929","img/question_3_7.jpeg","4","mat_31","5","1","1","16929","","","","","","","","","","","","","","","","","","","","",""
"","","","","","html-keyboard-response","67","605338","0.0-2.0-4.0-0.7","607ec28e6a0bde56a9d69ddc","D2","batch4","spm_show_trial_num","null","<p class=block-text>Trial 32 out of 60</p>","null","","","","","","","","","","","","","","","","","","","","","","","","","",""
"","","","","","image-button-response","68","658106","0.0-2.0-4.0-1.7","607ec28e6a0bde56a9d69ddc","D2","batch4","spm_respsonse","52764.59999999404","img/question_3_8.jpeg","6","mat_32","1","0","0","52764.59999999404","","","","","","","","","","","","","","","","","","","","",""
"","","","","","html-keyboard-response","69","659168","0.0-2.0-4.0-0.8","607ec28e6a0bde56a9d69ddc","D2","batch4","spm_show_trial_num","null","<p class=block-text>Trial 33 out of 60</p>","null","","","","","","","","","","","","","","","","","","","","","","","","","",""
"","","","","","image-button-response","70","679150","0.0-2.0-4.0-1.8","607ec28e6a0bde56a9d69ddc","D2","batch4","spm_respsonse","19977.70000000298","img/question_3_9.jpeg","6","mat_33","7","1","1","19977.70000000298","","","","","","","","","","","","","","","","","","","","",""
"","","","","","html-keyboard-response","71","680202","0.0-2.0-4.0-0.9","607ec28e6a0bde56a9d69ddc","D2","batch4","spm_show_trial_num","null","<p class=block-text>Trial 34 out of 60</p>","null","","","","","","","","","","","","","","","","","","","","","","","","","",""
"","","","","","image-button-response","72","718257","0.0-2.0-4.0-1.9","607ec28e6a0bde56a9d69ddc","D2","batch4","spm_respsonse","38052.5","img/question_3_10.jpeg","7","mat_34","6","0","0","38052.5","","","","","","","","","","","","","","","","","","","","",""
"","","","","","html-keyboard-response","73","719309","0.0-2.0-4.0-0.10","607ec28e6a0bde56a9d69ddc","D2","batch4","spm_show_trial_num","null","<p class=block-text>Trial 35 out of 60</p>","null","","","","","","","","","","","","","","","","","","","","","","","","","",""
"","","","","","image-button-response","74","791871","0.0-2.0-4.0-1.10","607ec28e6a0bde56a9d69ddc","D2","batch4","spm_respsonse","72560.39999999106","img/question_3_11.jpeg","6","mat_35","1","0","0","72560.39999999106","","","","","","","","","","","","","","","","","","","","",""
"","","","","","html-keyboard-response","75","792924","0.0-2.0-4.0-0.11","607ec28e6a0bde56a9d69ddc","D2","batch4","spm_show_trial_num","null","<p class=block-text>Trial 36 out of 60</p>","null","","","","","","","","","","","","","","","","","","","","","","","","","",""
"","","","","","image-button-response","76","830065","0.0-2.0-4.0-1.11","607ec28e6a0bde56a9d69ddc","D2","batch4","spm_respsonse","37138.20000000298","img/question_3_12.jpeg","1","mat_36","2","1","1","37138.20000000298","","","","","","","","","","","","","","","","","","","","",""
"","","","","","html-keyboard-response","77","831122","0.0-2.0-4.0-0.12","607ec28e6a0bde56a9d69ddc","D2","batch4","spm_show_trial_num","null","<p class=block-text>Trial 37 out of 60</p>","null","","","","","","","","","","","","","","","","","","","","","","","","","",""
"","","","","","image-button-response","78","838128","0.0-2.0-4.0-1.12","607ec28e6a0bde56a9d69ddc","D2","batch4","spm_respsonse","7003.5999999940395","img/question_4_1.jpeg","2","mat_37","3","1","1","7003.5999999940395","","","","","","","","","","","","","","","","","","","","",""
"","","","","","html-keyboard-response","79","839184","0.0-2.0-4.0-0.13","607ec28e6a0bde56a9d69ddc","D2","batch4","spm_show_trial_num","null","<p class=block-text>Trial 38 out of 60</p>","null","","","","","","","","","","","","","","","","","","","","","","","","","",""
"","","","","","image-button-response","80","850466","0.0-2.0-4.0-1.13","607ec28e6a0bde56a9d69ddc","D2","batch4","spm_respsonse","11279.09999999404","img/question_4_2.jpeg","3","mat_38","4","1","1","11279.09999999404","","","","","","","","","","","","","","","","","","","","",""
"","","","","","html-keyboard-response","81","851528","0.0-2.0-4.0-0.14","607ec28e6a0bde56a9d69ddc","D2","batch4","spm_show_trial_num","null","<p class=block-text>Trial 39 out of 60</p>","null","","","","","","","","","","","","","","","","","","","","","","","","","",""
"","","","","","image-button-response","82","863184","0.0-2.0-4.0-1.14","607ec28e6a0bde56a9d69ddc","D2","batch4","spm_respsonse","11653","img/question_4_3.jpeg","2","mat_39","3","1","1","11653","","","","","","","","","","","","","","","","","","","","",""
"","","","","","html-keyboard-response","83","864251","0.0-2.0-4.0-0.15","607ec28e6a0bde56a9d69ddc","D2","batch4","spm_show_trial_num","null","<p class=block-text>Trial 40 out of 60</p>","null","","","","","","","","","","","","","","","","","","","","","","","","","",""
"","","","","","image-button-response","84","873040","0.0-2.0-4.0-1.15","607ec28e6a0bde56a9d69ddc","D2","batch4","spm_respsonse","8786","img/question_4_4.jpeg","6","mat_40","7","1","1","8786","","","","","","","","","","","","","","","","","","","","",""
"","","","","","html-keyboard-response","85","874095","0.0-2.0-4.0-0.16","607ec28e6a0bde56a9d69ddc","D2","batch4","spm_show_trial_num","null","<p class=block-text>Trial 41 out of 60</p>","null","","","","","","","","","","","","","","","","","","","","","","","","","",""
"","","","","","image-button-response","86","891364","0.0-2.0-4.0-1.16","607ec28e6a0bde56a9d69ddc","D2","batch4","spm_respsonse","17266.20000000298","img/question_4_5.jpeg","7","mat_41","8","1","1","17266.20000000298","","","","","","","","","","","","","","","","","","","","",""
"","","","","","html-keyboard-response","87","892417","0.0-2.0-4.0-0.17","607ec28e6a0bde56a9d69ddc","D2","batch4","spm_show_trial_num","null","<p class=block-text>Trial 42 out of 60</p>","null","","","","","","","","","","","","","","","","","","","","","","","","","",""
"","","","","","image-button-response","88","913874","0.0-2.0-4.0-1.17","607ec28e6a0bde56a9d69ddc","D2","batch4","spm_respsonse","21454.20000000298","img/question_4_6.jpeg","5","mat_42","6","1","1","21454.20000000298","","","","","","","","","","","","","","","","","","","","",""
"","","","","","html-keyboard-response","89","914926","0.0-2.0-4.0-0.18","607ec28e6a0bde56a9d69ddc","D2","batch4","spm_show_trial_num","null","<p class=block-text>Trial 43 out of 60</p>","null","","","","","","","","","","","","","","","","","","","","","","","","","",""
"","","","","","image-button-response","90","930934","0.0-2.0-4.0-1.18","607ec28e6a0bde56a9d69ddc","D2","batch4","spm_respsonse","16004.79999999702","img/question_4_7.jpeg","4","mat_43","5","1","1","16004.79999999702","","","","","","","","","","","","","","","","","","","","",""
"","","","","","html-keyboard-response","91","932001","0.0-2.0-4.0-0.19","607ec28e6a0bde56a9d69ddc","D2","batch4","spm_show_trial_num","null","<p class=block-text>Trial 44 out of 60</p>","null","","","","","","","","","","","","","","","","","","","","","","","","","",""
"","","","","","image-button-response","92","956886","0.0-2.0-4.0-1.19","607ec28e6a0bde56a9d69ddc","D2","batch4","spm_respsonse","24881.90000000596","img/question_4_8.jpeg","3","mat_44","4","1","1","24881.90000000596","","","","","","","","","","","","","","","","","","","","",""
"","","","","","html-keyboard-response","93","957938","0.0-2.0-4.0-0.20","607ec28e6a0bde56a9d69ddc","D2","batch4","spm_show_trial_num","null","<p class=block-text>Trial 45 out of 60</p>","null","","","","","","","","","","","","","","","","","","","","","","","","","",""
"","","","","","image-button-response","94","984002","0.0-2.0-4.0-1.20","607ec28e6a0bde56a9d69ddc","D2","batch4","spm_respsonse","26061.39999999106","img/question_4_9.jpeg","3","mat_45","1","0","0","26061.39999999106","","","","","","","","","","","","","","","","","","","","",""
"","","","","","html-keyboard-response","95","985056","0.0-2.0-4.0-0.21","607ec28e6a0bde56a9d69ddc","D2","batch4","spm_show_trial_num","null","<p class=block-text>Trial 46 out of 60</p>","null","","","","","","","","","","","","","","","","","","","","","","","","","",""
"","","","","","image-button-response","96","1037411","0.0-2.0-4.0-1.21","607ec28e6a0bde56a9d69ddc","D2","batch4","spm_respsonse","52352.39999999106","img/question_4_10.jpeg","1","mat_46","2","1","1","52352.39999999106","","","","","","","","","","","","","","","","","","","","",""
"","","","","","html-keyboard-response","97","1038464","0.0-2.0-4.0-0.22","607ec28e6a0bde56a9d69ddc","D2","batch4","spm_show_trial_num","null","<p class=block-text>Trial 47 out of 60</p>","null","","","","","","","","","","","","","","","","","","","","","","","","","",""
"","","","","","image-button-response","98","1081604","0.0-2.0-4.0-1.22","607ec28e6a0bde56a9d69ddc","D2","batch4","spm_respsonse","43136.79999999702","img/question_4_11.jpeg","4","mat_47","5","1","1","43136.79999999702","","","","","","","","","","","","","","","","","","","","",""
"","","","","","html-keyboard-response","99","1082657","0.0-2.0-4.0-0.23","607ec28e6a0bde56a9d69ddc","D2","batch4","spm_show_trial_num","null","<p class=block-text>Trial 48 out of 60</p>","null","","","","","","","","","","","","","","","","","","","","","","","","","",""
"","","","","","image-button-response","100","1111735","0.0-2.0-4.0-1.23","607ec28e6a0bde56a9d69ddc","D2","batch4","spm_respsonse","29075.60000000894","img/question_4_12.jpeg","0","mat_48","6","0","0","29075.60000000894","","","","","","","","","","","","","","","","","","","","",""
"","","","","","html-keyboard-response","101","1112811","0.0-2.0-4.0-0.24","607ec28e6a0bde56a9d69ddc","D2","batch4","spm_show_trial_num","null","<p class=block-text>Trial 49 out of 60</p>","null","","","","","","","","","","","","","","","","","","","","","","","","","",""
"","","","","","image-button-response","102","1132740","0.0-2.0-4.0-1.24","607ec28e6a0bde56a9d69ddc","D2","batch4","spm_respsonse","19926.09999999404","img/question_5_1.jpeg","5","mat_49","7","0","0","19926.09999999404","","","","","","","","","","","","","","","","","","","","",""
"","","","","","html-keyboard-response","103","1133798","0.0-2.0-4.0-0.25","607ec28e6a0bde56a9d69ddc","D2","batch4","spm_show_trial_num","null","<p class=block-text>Trial 50 out of 60</p>","null","","","","","","","","","","","","","","","","","","","","","","","","","",""
"","","","","","image-button-response","104","1164753","0.0-2.0-4.0-1.25","607ec28e6a0bde56a9d69ddc","D2","batch4","spm_respsonse","30952.89999999106","img/question_5_2.jpeg","5","mat_50","6","1","1","30952.89999999106","","","","","","","","","","","","","","","","","","","","",""
"","","","","","html-keyboard-response","105","1165809","0.0-2.0-4.0-0.26","607ec28e6a0bde56a9d69ddc","D2","batch4","spm_show_trial_num","null","<p class=block-text>Trial 51 out of 60</p>","null","","","","","","","","","","","","","","","","","","","","","","","","","",""
"","","","","","image-button-response","106","1182337","0.0-2.0-4.0-1.26","607ec28e6a0bde56a9d69ddc","D2","batch4","spm_respsonse","16525.29999999702","img/question_5_3.jpeg","7","mat_51","8","1","1","16525.29999999702","","","","","","","","","","","","","","","","","","","","",""
"","","","","","html-keyboard-response","107","1183389","0.0-2.0-4.0-0.27","607ec28e6a0bde56a9d69ddc","D2","batch4","spm_show_trial_num","null","<p class=block-text>Trial 52 out of 60</p>","null","","","","","","","","","","","","","","","","","","","","","","","","","",""
"","","","","","image-button-response","108","1205003","0.0-2.0-4.0-1.27","607ec28e6a0bde56a9d69ddc","D2","batch4","spm_respsonse","21611.39999999106","img/question_5_4.jpeg","2","mat_52","2","0","0","21611.39999999106","","","","","","","","","","","","","","","","","","","","",""
"","","","","","html-keyboard-response","109","1206064","0.0-2.0-4.0-0.28","607ec28e6a0bde56a9d69ddc","D2","batch4","spm_show_trial_num","null","<p class=block-text>Trial 53 out of 60</p>","null","","","","","","","","","","","","","","","","","","","","","","","","","",""
"","","","","","image-button-response","110","1234757","0.0-2.0-4.0-1.28","607ec28e6a0bde56a9d69ddc","D2","batch4","spm_respsonse","28690.5","img/question_5_5.jpeg","0","mat_53","1","1","1","28690.5","","","","","","","","","","","","","","","","","","","","",""
"","","","","","html-keyboard-response","111","1235812","0.0-2.0-4.0-0.29","607ec28e6a0bde56a9d69ddc","D2","batch4","spm_show_trial_num","null","<p class=block-text>Trial 54 out of 60</p>","null","","","","","","","","","","","","","","","","","","","","","","","","","",""
"","","","","","image-button-response","112","1271647","0.0-2.0-4.0-1.29","607ec28e6a0bde56a9d69ddc","D2","batch4","spm_respsonse","35832.39999999106","img/question_5_6.jpeg","4","mat_54","5","1","1","35832.39999999106","","","","","","","","","","","","","","","","","","","","",""
"","","","","","html-keyboard-response","113","1272700","0.0-2.0-4.0-0.30","607ec28e6a0bde56a9d69ddc","D2","batch4","spm_show_trial_num","null","<p class=block-text>Trial 55 out of 60</p>","null","","","","","","","","","","","","","","","","","","","","","","","","","",""
"","","","","","image-button-response","114","1298621","0.0-2.0-4.0-1.30","607ec28e6a0bde56a9d69ddc","D2","batch4","spm_respsonse","25917.79999999702","img/question_5_7.jpeg","2","mat_55","1","0","0","25917.79999999702","","","","","","","","","","","","","","","","","","","","",""
"","","","","","html-keyboard-response","115","1299674","0.0-2.0-4.0-0.31","607ec28e6a0bde56a9d69ddc","D2","batch4","spm_show_trial_num","null","<p class=block-text>Trial 56 out of 60</p>","null","","","","","","","","","","","","","","","","","","","","","","","","","",""
"","","","","","image-button-response","116","1326548","0.0-2.0-4.0-1.31","607ec28e6a0bde56a9d69ddc","D2","batch4","spm_respsonse","26871.40000000596","img/question_5_8.jpeg","0","mat_56","6","0","0","26871.40000000596","","","","","","","","","","","","","","","","","","","","",""
"","","","","","html-keyboard-response","117","1327600","0.0-2.0-4.0-0.32","607ec28e6a0bde56a9d69ddc","D2","batch4","spm_show_trial_num","null","<p class=block-text>Trial 57 out of 60</p>","null","","","","","","","","","","","","","","","","","","","","","","","","","",""
"","","","","","image-button-response","118","1355860","0.0-2.0-4.0-1.32","607ec28e6a0bde56a9d69ddc","D2","batch4","spm_respsonse","28257","img/question_5_9.jpeg","0","mat_57","3","0","0","28257","","","","","","","","","","","","","","","","","","","","",""
"","","","","","html-keyboard-response","119","1356922","0.0-2.0-4.0-0.33","607ec28e6a0bde56a9d69ddc","D2","batch4","spm_show_trial_num","null","<p class=block-text>Trial 58 out of 60</p>","null","","","","","","","","","","","","","","","","","","","","","","","","","",""
"","","","","","image-button-response","120","1404720","0.0-2.0-4.0-1.33","607ec28e6a0bde56a9d69ddc","D2","batch4","spm_respsonse","47795.10000000894","img/question_5_10.jpeg","0","mat_58","2","0","0","47795.10000000894","","","","","","","","","","","","","","","","","","","","",""
"","","","","","html-keyboard-response","121","1405772","0.0-2.0-4.0-0.34","607ec28e6a0bde56a9d69ddc","D2","batch4","spm_show_trial_num","null","<p class=block-text>Trial 59 out of 60</p>","null","","","","","","","","","","","","","","","","","","","","","","","","","",""
"","","","","","image-button-response","122","1449019","0.0-2.0-4.0-1.34","607ec28e6a0bde56a9d69ddc","D2","batch4","spm_respsonse","43244.40000000596","img/question_5_11.jpeg","2","mat_59","4","0","0","43244.40000000596","","","","","","","","","","","","","","","","","","","","",""
"","","","","","html-keyboard-response","123","1450076","0.0-2.0-4.0-0.35","607ec28e6a0bde56a9d69ddc","D2","batch4","spm_show_trial_num","null","<p class=block-text>Trial 60 out of 60</p>","null","","","","","","","","","","","","","","","","","","","","","","","","","",""
"","","","","","image-button-response","124","1494205","0.0-2.0-4.0-1.35","607ec28e6a0bde56a9d69ddc","D2","batch4","spm_respsonse","44126.39999999106","img/question_5_12.jpeg","1","mat_60","5","0","0","44126.39999999106","","","","","","","","","","","","","","","","","","","","",""
"","","","","","html-button-response","125","1500257","0.0-2.0-5.0","607ec28e6a0bde56a9d69ddc","D2","batch4","spm_goodbye","5789.79999999702","<p class= block-text>This concludes the Standard Progressive Matrix game. Thank you for your responses!<br> When you are ready, click the button continue</p>","0","","","","","","","","","","","","","","","","","","","","","","","","","",""
"true","","","","","fullscreen","126","1507669","0.0-3.0-0.0","607ec28e6a0bde56a9d69ddc","D2","batch4","","","","","","","","","","","","","","","","","","","","","","","","","","","","","",""
"","","","","","instructions","127","1568852","0.0-3.0-1.0-0.0","607ec28e6a0bde56a9d69ddc","D2","batch4","","61181.80000001192","","","","","","","","[{""page_index"":0,""viewing_time"":30928},{""page_index"":1,""viewing_time"":30253.60000000894}]","","","","","","","","","","","","","","","","","","","",""
"","","","","","html-button-response","128","1571428","0.0-3.0-1.0-1.0-0.0","607ec28e6a0bde56a9d69ddc","D2","batch4","pattern_enter_quiz","2574.800000011921","<p class=block-text> Let's answer a few questions <br>","0","","","","","","","","","","","","","","","","","","","","","","","","","",""
"","","","","","html-button-response","129","1575523","0.0-3.0-1.0-1.0-1.0","607ec28e6a0bde56a9d69ddc","D2","batch4","pattern_quiz","4094.6000000089407","<p class = block-text>True or False: You will have as much time as you want to make each choice. <br></p>","1","","","true","","","","","","","","","","","","","","","","","","","","","","",""
"","","","","","html-button-response","130","1578729","0.0-3.0-1.0-1.0-2.0","607ec28e6a0bde56a9d69ddc","D2","batch4","pattern_quiz_feedback","3204.3999999910593","<p class = block-text>Correct! You should make your choice <strong> as fast as you can</strong>.</p>","0","","","","","","","","","","","","","","","","","","","","","","","","","",""
"","","","","","html-button-response","131","1608179","0.0-3.0-1.0-1.0-3.0","607ec28e6a0bde56a9d69ddc","D2","batch4","pattern_quiz","29448.89999999106","<p class = block-text>True or False: You will look for 4 pieces in black or white color connected in a row either horizontally, vertically or diagonally. <br></p>","0","","","true","","","","","","","","","","","","","","","","","","","","","","",""
"","","","","","html-button-response","132","1612041","0.0-3.0-1.0-1.0-4.0","607ec28e6a0bde56a9d69ddc","D2","batch4","pattern_quiz_feedback","3860.6000000089407","<p class = block-text>Correct! </p>","0","","","","","","","","","","","","","","","","","","","","","","","","","",""
"","","","","","html-button-response","133","1616775","0.0-3.0-2.0","607ec28e6a0bde56a9d69ddc","D2","batch4","pattern_enter_practice","4732.4000000059605","<p class=block-text> Now that you've understood the game, let's do a few practice trials before we start!<br> <br>","0","","","","","","","","","","","","","","","","","","","","","","","","","",""
"","","","","","image-keyboard-response","134","1618973","0.0-3.0-3.0-0.0","607ec28e6a0bde56a9d69ddc","D2","batch4","pattern_practice","2195.300000011921","stim/prac_yes_18_hor_w1.png","f","","f","true","","","","","","","","","","","","","","","","","","","","","","",""
"","","","","","html-keyboard-response","135","1619994","0.0-3.0-3.0-1.0","607ec28e6a0bde56a9d69ddc","D2","batch4","pattern_feedback","null","<p style=""font-size:30px;color:green;"">Correct!</p>","null","","","","","","","","","","","","","","","","","","","","","","","","","",""
"","","","","","image-keyboard-response","136","1621418","0.0-3.0-3.0-0.1","607ec28e6a0bde56a9d69ddc","D2","batch4","pattern_practice","1422.7000000029802","stim/prac_no_18_1.png","j","","j","true","","","","","","","","","","","","","","","","","","","","","","",""
"","","","","","html-keyboard-response","137","1622449","0.0-3.0-3.0-1.1","607ec28e6a0bde56a9d69ddc","D2","batch4","pattern_feedback","null","<p style=""font-size:30px;color:green;"">Correct!</p>","null","","","","","","","","","","","","","","","","","","","","","","","","","",""
"","","","","","image-keyboard-response","138","1623990","0.0-3.0-3.0-0.2","607ec28e6a0bde56a9d69ddc","D2","batch4","pattern_practice","1538.7000000029802","stim/prac_no_16_1.png","j","","j","true","","","","","","","","","","","","","","","","","","","","","","",""
"","","","","","html-keyboard-response","139","1625012","0.0-3.0-3.0-1.2","607ec28e6a0bde56a9d69ddc","D2","batch4","pattern_feedback","null","<p style=""font-size:30px;color:green;"">Correct!</p>","null","","","","","","","","","","","","","","","","","","","","","","","","","",""
"","","","","","image-keyboard-response","140","1626507","0.0-3.0-3.0-0.3","607ec28e6a0bde56a9d69ddc","D2","batch4","pattern_practice","1493.2000000029802","stim/prac_yes_20_dia_b1.png","f","","f","true","","","","","","","","","","","","","","","","","","","","","","",""
"","","","","","html-keyboard-response","141","1627528","0.0-3.0-3.0-1.3","607ec28e6a0bde56a9d69ddc","D2","batch4","pattern_feedback","null","<p style=""font-size:30px;color:green;"">Correct!</p>","null","","","","","","","","","","","","","","","","","","","","","","","","","",""
"","","","","","image-keyboard-response","142","1628660","0.0-3.0-3.0-0.4","607ec28e6a0bde56a9d69ddc","D2","batch4","pattern_practice","1130","stim/prac_yes_16_ver_w1.png","f","","f","true","","","","","","","","","","","","","","","","","","","","","","",""
"","","","","","html-keyboard-response","143","1629684","0.0-3.0-3.0-1.4","607ec28e6a0bde56a9d69ddc","D2","batch4","pattern_feedback","null","<p style=""font-size:30px;color:green;"">Correct!</p>","null","","","","","","","","","","","","","","","","","","","","","","","","","",""
"","","","","","html-button-response","144","1641388","0.0-3.0-4.0","607ec28e6a0bde56a9d69ddc","D2","batch4","pattern_enter_official_trials","11702.09999999404","<p class=block-text> Good job! You are done with practice trials!<br>
        You responded correctly on 100% of the trials.<br>
        Press the button below to start official trials. Now you won't see any feedback about your response</p>","0","","","","","","","","","","","","","","","","","","","","","","","","","",""
"","","","","","html-keyboard-response","145","1642189","0.0-3.0-5.0-0.0","607ec28e6a0bde56a9d69ddc","D2","batch4","pattern_show_trial_num","null","<p class=block-text>Trial 1 out of 78</p>","null","","","","","","","","","","","","","","","","","","","","","","","","","",""
"","","","","","image-keyboard-response","146","1646122","0.0-3.0-5.0-1.0","607ec28e6a0bde56a9d69ddc","D2","batch4","pattern_response","3934.0999999940395","stim/no_43_2_b.png","j","pattern_23","j","true","","","","3934.0999999940395","true","1","","","","","","","","","","","","","","","","",""
"","","","","","html-keyboard-response","147","1647446","0.0-3.0-5.0-0.1","607ec28e6a0bde56a9d69ddc","D2","batch4","pattern_show_trial_num","null","<p class=block-text>Trial 2 out of 78</p>","null","","","","","","","","","","","","","","","","","","","","","","","","","",""
"","","","","","image-keyboard-response","148","1650692","0.0-3.0-5.0-1.1","607ec28e6a0bde56a9d69ddc","D2","batch4","pattern_response","3243","stim/no_67_1.png","j","pattern_39","j","true","","","","3243","true","2","","","","","","","","","","","","","","","","",""
"","","","","","html-keyboard-response","149","1652008","0.0-3.0-5.0-0.2","607ec28e6a0bde56a9d69ddc","D2","batch4","pattern_show_trial_num","null","<p class=block-text>Trial 3 out of 78</p>","null","","","","","","","","","","","","","","","","","","","","","","","","","",""
"","","","","","image-keyboard-response","150","1654241","0.0-3.0-5.0-1.2","607ec28e6a0bde56a9d69ddc","D2","batch4","pattern_response","2230.3999999910593","stim/no_28_2.png","j","pattern_11","j","true","","","","2230.3999999910593","true","3","","","","","","","","","","","","","","","","",""
"","","","","","html-keyboard-response","151","1655555","0.0-3.0-5.0-0.3","607ec28e6a0bde56a9d69ddc","D2","batch4","pattern_show_trial_num","null","<p class=block-text>Trial 4 out of 78</p>","null","","","","","","","","","","","","","","","","","","","","","","","","","",""
"","","","","","image-keyboard-response","152","1656606","0.0-3.0-5.0-1.3","607ec28e6a0bde56a9d69ddc","D2","batch4","pattern_response","1048.6000000089407","stim/yes_17_ver_b1_b.png","f","pattern_46","f","true","","","","1048.6000000089407","true","4","","","","","","","","","","","","","","","","",""
"","","","","","html-keyboard-response","153","1657930","0.0-3.0-5.0-0.4","607ec28e6a0bde56a9d69ddc","D2","batch4","pattern_show_trial_num","null","<p class=block-text>Trial 5 out of 78</p>","null","","","","","","","","","","","","","","","","","","","","","","","","","",""
"","","","","","image-keyboard-response","154","1659430","0.0-3.0-5.0-1.4","607ec28e6a0bde56a9d69ddc","D2","batch4","pattern_response","1498.5","stim/yes_23_ver_b1.png","f","pattern_48","f","true","","","","1498.5","true","5","","","","","","","","","","","","","","","","",""
"","","","","","html-keyboard-response","155","1660758","0.0-3.0-5.0-0.5","607ec28e6a0bde56a9d69ddc","D2","batch4","pattern_show_trial_num","null","<p class=block-text>Trial 6 out of 78</p>","null","","","","","","","","","","","","","","","","","","","","","","","","","",""
"","","","","","image-keyboard-response","156","1663320","0.0-3.0-5.0-1.5","607ec28e6a0bde56a9d69ddc","D2","batch4","pattern_response","2559.9000000059605","stim/no_51_1.png","j","pattern_31","j","true","","","","2559.9000000059605","true","6","","","","","","","","","","","","","","","","",""
"","","","","","html-keyboard-response","157","1664633","0.0-3.0-5.0-0.6","607ec28e6a0bde56a9d69ddc","D2","batch4","pattern_show_trial_num","null","<p class=block-text>Trial 7 out of 78</p>","null","","","","","","","","","","","","","","","","","","","","","","","","","",""
"","","","","","image-keyboard-response","158","1667221","0.0-3.0-5.0-1.6","607ec28e6a0bde56a9d69ddc","D2","batch4","pattern_response","2584.7000000029802","stim/no_18_1_b.png","j","pattern_05","j","true","","","","2584.7000000029802","true","7","","","","","","","","","","","","","","","","",""
"","","","","","html-keyboard-response","159","1668539","0.0-3.0-5.0-0.7","607ec28e6a0bde56a9d69ddc","D2","batch4","pattern_show_trial_num","null","<p class=block-text>Trial 8 out of 78</p>","null","","","","","","","","","","","","","","","","","","","","","","","","","",""
"","","","","","image-keyboard-response","160","1671870","0.0-3.0-5.0-1.7","607ec28e6a0bde56a9d69ddc","D2","batch4","pattern_response","3328.4000000059605","stim/yes_33_dia_w1_w.png","j","pattern_56","f","false","","","","3328.4000000059605","false","7","","","","","","","","","","","","","","","","",""
"","","","","","html-keyboard-response","161","1673196","0.0-3.0-5.0-0.8","607ec28e6a0bde56a9d69ddc","D2","batch4","pattern_show_trial_num","null","<p class=block-text>Trial 9 out of 78</p>","null","","","","","","","","","","","","","","","","","","","","","","","","","",""
"","","","","","image-keyboard-response","162","1674712","0.0-3.0-5.0-1.8","607ec28e6a0bde56a9d69ddc","D2","batch4","pattern_response","1514.2999999970198","stim/no_12_1.png","j","pattern_01","j","true","","","","1514.2999999970198","true","8","","","","","","","","","","","","","","","","",""
"","","","","","html-keyboard-response","163","1676039","0.0-3.0-5.0-0.9","607ec28e6a0bde56a9d69ddc","D2","batch4","pattern_show_trial_num","null","<p class=block-text>Trial 10 out of 78</p>","null","","","","","","","","","","","","","","","","","","","","","","","","","",""
"","","","","","image-keyboard-response","164","1680771","0.0-3.0-5.0-1.9","607ec28e6a0bde56a9d69ddc","D2","batch4","pattern_response","4729.0999999940395","stim/no_45_1_w.png","j","pattern_25","j","true","","","","4729.0999999940395","true","9","","","","","","","","","","","","","","","","",""
"","","","","","html-keyboard-response","165","1682086","0.0-3.0-5.0-0.10","607ec28e6a0bde56a9d69ddc","D2","batch4","pattern_show_trial_num","null","<p class=block-text>Trial 11 out of 78</p>","null","","","","","","","","","","","","","","","","","","","","","","","","","",""
"","","","","","image-keyboard-response","166","1684258","0.0-3.0-5.0-1.10","607ec28e6a0bde56a9d69ddc","D2","batch4","pattern_response","2170.2999999970198","stim/no_25_1_b.png","j","pattern_09","j","true","","","","2170.2999999970198","true","10","","","","","","","","","","","","","","","","",""
"","","","","","html-keyboard-response","167","1685587","0.0-3.0-5.0-0.11","607ec28e6a0bde56a9d69ddc","D2","batch4","pattern_show_trial_num","null","<p class=block-text>Trial 12 out of 78</p>","null","","","","","","","","","","","","","","","","","","","","","","","","","",""
"","","","","","image-keyboard-response","168","1695191","0.0-3.0-5.0-1.11","607ec28e6a0bde56a9d69ddc","D2","batch4","pattern_response","9602.300000011921","stim/no_39_1_w.png","f","pattern_21","j","false","","","","9602.300000011921","false","10","","","","","","","","","","","","","","","","",""
"","","","","","html-keyboard-response","169","1696509","0.0-3.0-5.0-0.12","607ec28e6a0bde56a9d69ddc","D2","batch4","pattern_show_trial_num","null","<p class=block-text>Trial 13 out of 78</p>","null","","","","","","","","","","","","","","","","","","","","","","","","","",""
"","","","","","image-keyboard-response","170","1709769","0.0-3.0-5.0-1.12","607ec28e6a0bde56a9d69ddc","D2","batch4","pattern_response","13253.29999999702","stim/yes_15_dia_b1u_b.png","f","pattern_44","f","true","","","","13253.29999999702","true","11","","","","","","","","","","","","","","","","",""
"","","","","","html-keyboard-response","171","1711091","0.0-3.0-5.0-0.13","607ec28e6a0bde56a9d69ddc","D2","batch4","pattern_show_trial_num","null","<p class=block-text>Trial 14 out of 78</p>","null","","","","","","","","","","","","","","","","","","","","","","","","","",""
"","","","","","image-keyboard-response","172","1712834","0.0-3.0-5.0-1.13","607ec28e6a0bde56a9d69ddc","D2","batch4","pattern_response","1741","stim/yes_36_ver_w1_w.png","f","pattern_58","f","true","","","","1741","true","12","","","","","","","","","","","","","","","","",""
"","","","","","html-keyboard-response","173","1714153","0.0-3.0-5.0-0.14","607ec28e6a0bde56a9d69ddc","D2","batch4","pattern_show_trial_num","null","<p class=block-text>Trial 15 out of 78</p>","null","","","","","","","","","","","","","","","","","","","","","","","","","",""
"","","","","","image-keyboard-response","174","1717164","0.0-3.0-5.0-1.14","607ec28e6a0bde56a9d69ddc","D2","batch4","pattern_response","3009.5999999940395","stim/yes_42_dia_w1_w.png","f","pattern_64","f","true","","","","3009.5999999940395","true","13","","","","","","","","","","","","","","","","",""
"","","","","","html-keyboard-response","175","1718481","0.0-3.0-5.0-0.15","607ec28e6a0bde56a9d69ddc","D2","batch4","pattern_show_trial_num","null","<p class=block-text>Trial 16 out of 78</p>","null","","","","","","","","","","","","","","","","","","","","","","","","","",""
"","","","","","image-keyboard-response","176","1720361","0.0-3.0-5.0-1.15","607ec28e6a0bde56a9d69ddc","D2","batch4","pattern_response","1876.7000000029802","stim/yes_70_ver_b1.png","f","pattern_80","f","true","","","","1876.7000000029802","true","14","","","","","","","","","","","","","","","","",""
"","","","","","html-keyboard-response","177","1721685","0.0-3.0-5.0-0.16","607ec28e6a0bde56a9d69ddc","D2","batch4","pattern_show_trial_num","null","<p class=block-text>Trial 17 out of 78</p>","null","","","","","","","","","","","","","","","","","","","","","","","","","",""
"","","","","","image-keyboard-response","178","1723968","0.0-3.0-5.0-1.16","607ec28e6a0bde56a9d69ddc","D2","batch4","pattern_response","2281.7000000029802","stim/yes_51_dia_b1.png","f","pattern_72","f","true","","","","2281.7000000029802","true","15","","","","","","","","","","","","","","","","",""
"","","","","","html-keyboard-response","179","1725294","0.0-3.0-5.0-0.17","607ec28e6a0bde56a9d69ddc","D2","batch4","pattern_show_trial_num","null","<p class=block-text>Trial 18 out of 78</p>","null","","","","","","","","","","","","","","","","","","","","","","","","","",""
"","","","","","image-keyboard-response","180","1728918","0.0-3.0-5.0-1.17","607ec28e6a0bde56a9d69ddc","D2","batch4","pattern_response","3621.7999999970198","stim/no_53_1_b.png","j","pattern_33","j","true","","","","3621.7999999970198","true","16","","","","","","","","","","","","","","","","",""
"","","","","","html-keyboard-response","181","1730231","0.0-3.0-5.0-0.18","607ec28e6a0bde56a9d69ddc","D2","batch4","pattern_show_trial_num","null","<p class=block-text>Trial 19 out of 78</p>","null","","","","","","","","","","","","","","","","","","","","","","","","","",""
"","","","","","image-keyboard-response","182","1734098","0.0-3.0-5.0-1.18","607ec28e6a0bde56a9d69ddc","D2","batch4","pattern_response","3863.8999999910593","stim/no_58_1_w.png","j","pattern_35","j","true","","","","3863.8999999910593","true","17","","","","","","","","","","","","","","","","",""
"","","","","","html-keyboard-response","183","1735419","0.0-3.0-5.0-0.19","607ec28e6a0bde56a9d69ddc","D2","batch4","pattern_show_trial_num","null","<p class=block-text>Trial 20 out of 78</p>","null","","","","","","","","","","","","","","","","","","","","","","","","","",""
"","","","","","image-keyboard-response","184","1737561","0.0-3.0-5.0-1.19","607ec28e6a0bde56a9d69ddc","D2","batch4","pattern_response","2139.7999999970198","stim/yes_26_dia_w2_w.png","f","pattern_50","f","true","","","","2139.7999999970198","true","18","","","","","","","","","","","","","","","","",""
"","","","","","html-keyboard-response","185","1738887","0.0-3.0-5.0-0.20","607ec28e6a0bde56a9d69ddc","D2","batch4","pattern_show_trial_num","null","<p class=block-text>Trial 21 out of 78</p>","null","","","","","","","","","","","","","","","","","","","","","","","","","",""
"","","","","","image-keyboard-response","186","1741556","0.0-3.0-5.0-1.20","607ec28e6a0bde56a9d69ddc","D2","batch4","pattern_response","2666.199999988079","stim/no_30_1_b.png","j","pattern_13","j","true","","","","2666.199999988079","true","19","","","","","","","","","","","","","","","","",""
"","","","","","html-keyboard-response","187","1742875","0.0-3.0-5.0-0.21","607ec28e6a0bde56a9d69ddc","D2","batch4","pattern_show_trial_num","null","<p class=block-text>Trial 22 out of 78</p>","null","","","","","","","","","","","","","","","","","","","","","","","","","",""
"","","","","","image-keyboard-response","188","1746167","0.0-3.0-5.0-1.21","607ec28e6a0bde56a9d69ddc","D2","batch4","pattern_response","3289","stim/no_49_2_b.png","j","pattern_29","j","true","","","","3289","true","20","","","","","","","","","","","","","","","","",""
"","","","","","html-keyboard-response","189","1747482","0.0-3.0-5.0-0.22","607ec28e6a0bde56a9d69ddc","D2","batch4","pattern_show_trial_num","null","<p class=block-text>Trial 23 out of 78</p>","null","","","","","","","","","","","","","","","","","","","","","","","","","",""
"","","","","","image-keyboard-response","190","1748716","0.0-3.0-5.0-1.22","607ec28e6a0bde56a9d69ddc","D2","batch4","pattern_response","1232.2999999970198","stim/yes_30_ver_b1_b.png","f","pattern_54","f","true","","","","1232.2999999970198","true","21","","","","","","","","","","","","","","","","",""
"","","","","","html-keyboard-response","191","1750043","0.0-3.0-5.0-0.23","607ec28e6a0bde56a9d69ddc","D2","batch4","pattern_show_trial_num","null","<p class=block-text>Trial 24 out of 78</p>","null","","","","","","","","","","","","","","","","","","","","","","","","","",""
"","","","","","image-keyboard-response","192","1753567","0.0-3.0-5.0-1.23","607ec28e6a0bde56a9d69ddc","D2","batch4","pattern_response","3522.0999999940395","stim/yes_63_dia_b1.png","j","pattern_78","f","false","","","","3522.0999999940395","false","21","","","","","","","","","","","","","","","","",""
"","","","","","html-keyboard-response","193","1754888","0.0-3.0-5.0-0.24","607ec28e6a0bde56a9d69ddc","D2","batch4","pattern_show_trial_num","null","<p class=block-text>Trial 25 out of 78</p>","null","","","","","","","","","","","","","","","","","","","","","","","","","",""
"","","","","","image-keyboard-response","194","1756235","0.0-3.0-5.0-1.24","607ec28e6a0bde56a9d69ddc","D2","batch4","pattern_response","1345","stim/yes_12_hor_w1_w.png","f","pattern_42","f","true","","","","1345","true","22","","","","","","","","","","","","","","","","",""
"","","","","","html-keyboard-response","195","1757561","0.0-3.0-5.0-0.25","607ec28e6a0bde56a9d69ddc","D2","batch4","pattern_show_trial_num","null","<p class=block-text>Trial 26 out of 78</p>","null","","","","","","","","","","","","","","","","","","","","","","","","","",""
"","","","","","image-keyboard-response","196","1761156","0.0-3.0-5.0-1.25","607ec28e6a0bde56a9d69ddc","D2","batch4","pattern_response","3593.7999999970198","stim/yes_53_ver_b1_b.png","j","pattern_74","f","false","","","","3593.7999999970198","false","22","","","","","","","","","","","","","","","","",""
"","","","","","html-keyboard-response","197","1762481","0.0-3.0-5.0-0.26","607ec28e6a0bde56a9d69ddc","D2","batch4","pattern_show_trial_num","null","<p class=block-text>Trial 27 out of 78</p>","null","","","","","","","","","","","","","","","","","","","","","","","","","",""
"","","","","","image-keyboard-response","198","1764087","0.0-3.0-5.0-1.26","607ec28e6a0bde56a9d69ddc","D2","batch4","pattern_response","1603","stim/no_15_1_w.png","j","pattern_03","j","true","","","","1603","true","23","","","","","","","","","","","","","","","","",""
"","","","","","html-keyboard-response","199","1765403","0.0-3.0-5.0-0.27","607ec28e6a0bde56a9d69ddc","D2","batch4","pattern_show_trial_num","null","<p class=block-text>Trial 28 out of 78</p>","null","","","","","","","","","","","","","","","","","","","","","","","","","",""
"","","","","","image-keyboard-response","200","1766684","0.0-3.0-5.0-1.27","607ec28e6a0bde56a9d69ddc","D2","batch4","pattern_response","1291.5","stim/yes_39_hor_w1_w.png","f","pattern_62","f","true","","","","1291.5","true","24","","","","","","","","","","","","","","","","",""
"","","","","","html-keyboard-response","201","1768001","0.0-3.0-5.0-0.28","607ec28e6a0bde56a9d69ddc","D2","batch4","pattern_show_trial_num","null","<p class=block-text>Trial 29 out of 78</p>","null","","","","","","","","","","","","","","","","","","","","","","","","","",""
"","","","","","image-keyboard-response","202","1769928","0.0-3.0-5.0-1.28","607ec28e6a0bde56a9d69ddc","D2","batch4","pattern_response","1924.699999988079","stim/yes_46_ver_b1_b.png","f","pattern_68","f","true","","","","1924.699999988079","true","25","","","","","","","","","","","","","","","","",""
"","","","","","html-keyboard-response","203","1771250","0.0-3.0-5.0-0.29","607ec28e6a0bde56a9d69ddc","D2","batch4","pattern_show_trial_num","null","<p class=block-text>Trial 30 out of 78</p>","null","","","","","","","","","","","","","","","","","","","","","","","","","",""
"","","","","","image-keyboard-response","204","1773648","0.0-3.0-5.0-1.29","607ec28e6a0bde56a9d69ddc","D2","batch4","pattern_response","2395.4000000059605","stim/no_33_1_b.png","j","pattern_15","j","true","","","","2395.4000000059605","true","26","","","","","","","","","","","","","","","","",""
"","","","","","html-keyboard-response","205","1774970","0.0-3.0-5.0-0.30","607ec28e6a0bde56a9d69ddc","D2","batch4","pattern_show_trial_num","null","<p class=block-text>Trial 31 out of 78</p>","null","","","","","","","","","","","","","","","","","","","","","","","","","",""
"","","","","","image-keyboard-response","206","1777278","0.0-3.0-5.0-1.30","607ec28e6a0bde56a9d69ddc","D2","batch4","pattern_response","2305.4000000059605","stim/yes_37_hor_w1_w.png","f","pattern_60","f","true","","","","2305.4000000059605","true","27","","","","","","","","","","","","","","","","",""
"","","","","","html-keyboard-response","207","1778594","0.0-3.0-5.0-0.31","607ec28e6a0bde56a9d69ddc","D2","batch4","pattern_show_trial_num","null","<p class=block-text>Trial 32 out of 78</p>","null","","","","","","","","","","","","","","","","","","","","","","","","","",""
"","","","","","image-keyboard-response","208","1780088","0.0-3.0-5.0-1.31","607ec28e6a0bde56a9d69ddc","D2","batch4","pattern_response","1492.2999999970198","stim/yes_49_hor_w1_b.png","f","pattern_70","f","true","","","","1492.2999999970198","true","28","","","","","","","","","","","","","","","","",""
"","","","","","html-keyboard-response","209","1781406","0.0-3.0-5.0-0.32","607ec28e6a0bde56a9d69ddc","D2","batch4","pattern_show_trial_num","null","<p class=block-text>Trial 33 out of 78</p>","null","","","","","","","","","","","","","","","","","","","","","","","","","",""
"","","","","","image-keyboard-response","210","1783667","0.0-3.0-5.0-1.32","607ec28e6a0bde56a9d69ddc","D2","batch4","pattern_response","2259","stim/no_37_2_w.png","j","pattern_19","j","true","","","","2259","true","29","","","","","","","","","","","","","","","","",""
"","","","","","html-keyboard-response","211","1784985","0.0-3.0-5.0-0.33","607ec28e6a0bde56a9d69ddc","D2","batch4","pattern_show_trial_num","null","<p class=block-text>Trial 34 out of 78</p>","null","","","","","","","","","","","","","","","","","","","","","","","","","",""
"","","","","","image-keyboard-response","212","1788734","0.0-3.0-5.0-1.33","607ec28e6a0bde56a9d69ddc","D2","batch4","pattern_response","3746.7000000029802","stim/yes_58_dia_w1_w.png","j","pattern_76","f","false","","","","3746.7000000029802","false","29","","","","","","","","","","","","","","","","",""
"","","","","","html-keyboard-response","213","1790047","0.0-3.0-5.0-0.34","607ec28e6a0bde56a9d69ddc","D2","batch4","pattern_show_trial_num","null","<p class=block-text>Trial 35 out of 78</p>","null","","","","","","","","","","","","","","","","","","","","","","","","","",""
"","","","","","image-keyboard-response","214","1791935","0.0-3.0-5.0-1.34","607ec28e6a0bde56a9d69ddc","D2","batch4","pattern_response","1885.5","stim/no_22_1_b.png","j","pattern_07","j","true","","","","1885.5","true","30","","","","","","","","","","","","","","","","",""
"","","","","","html-keyboard-response","215","1793250","0.0-3.0-5.0-0.35","607ec28e6a0bde56a9d69ddc","D2","batch4","pattern_show_trial_num","null","<p class=block-text>Trial 36 out of 78</p>","null","","","","","","","","","","","","","","","","","","","","","","","","","",""
"","","","","","image-keyboard-response","216","1796548","0.0-3.0-5.0-1.35","607ec28e6a0bde56a9d69ddc","D2","batch4","pattern_response","3296","stim/no_47_1_b.png","j","pattern_27","j","true","","","","3296","true","31","","","","","","","","","","","","","","","","",""
"","","","","","html-keyboard-response","217","1797875","0.0-3.0-5.0-0.36","607ec28e6a0bde56a9d69ddc","D2","batch4","pattern_show_trial_num","null","<p class=block-text>Trial 37 out of 78</p>","null","","","","","","","","","","","","","","","","","","","","","","","","","",""
"","","","","","image-keyboard-response","218","1800865","0.0-3.0-5.0-1.36","607ec28e6a0bde56a9d69ddc","D2","batch4","pattern_response","2987.3999999910593","stim/yes_44_ver_w1_w.png","j","pattern_66","f","false","","","","2987.3999999910593","false","31","","","","","","","","","","","","","","","","",""
"","","","","","html-keyboard-response","219","1802188","0.0-3.0-5.0-0.37","607ec28e6a0bde56a9d69ddc","D2","batch4","pattern_show_trial_num","null","<p class=block-text>Trial 38 out of 78</p>","null","","","","","","","","","","","","","","","","","","","","","","","","","",""
"","","","","","image-keyboard-response","220","1806111","0.0-3.0-5.0-1.37","607ec28e6a0bde56a9d69ddc","D2","batch4","pattern_response","3920.7000000029802","stim/no_36_1_b.png","j","pattern_17","j","true","","","","3920.7000000029802","true","32","","","","","","","","","","","","","","","","",""
"","","","","","html-keyboard-response","221","1807437","0.0-3.0-5.0-0.38","607ec28e6a0bde56a9d69ddc","D2","batch4","pattern_show_trial_num","null","<p class=block-text>Trial 39 out of 78</p>","null","","","","","","","","","","","","","","","","","","","","","","","","","",""
"","","","","","image-keyboard-response","222","1808736","0.0-3.0-5.0-1.38","607ec28e6a0bde56a9d69ddc","D2","batch4","pattern_response","1296","stim/yes_29_hor_b1_b.png","f","pattern_52","f","true","","","","1296","true","33","","","","","","","","","","","","","","","","",""
"","","","","","image-keyboard-response","223","1814422","0.0-3.0-6.0","607ec28e6a0bde56a9d69ddc","D2","batch4","attention_check","5171.100000008941","stim/empty_board.png","j","","j","true","","","","","","","500","[""f"",""j""]","","","","","","","","","","","","","","",""
"","","","","","html-keyboard-response","224","1815235","0.0-3.0-7.0-0.0","607ec28e6a0bde56a9d69ddc","D2","batch4","pattern_show_trial_num","null","<p class=block-text>Trial 40 out of 78</p>","null","","","","","","","","","","","","","","","","","","","","","","","","","",""
"","","","","","image-keyboard-response","225","1818729","0.0-3.0-7.0-1.0","607ec28e6a0bde56a9d69ddc","D2","batch4","pattern_response","3492","stim/no_23_1.png","j","pattern_08","j","true","","","","3492","true","34","","","","","","","","","","","","","","","","",""
"","","","","","html-keyboard-response","226","1820047","0.0-3.0-7.0-0.1","607ec28e6a0bde56a9d69ddc","D2","batch4","pattern_show_trial_num","null","<p class=block-text>Trial 41 out of 78</p>","null","","","","","","","","","","","","","","","","","","","","","","","","","",""
"","","","","","image-keyboard-response","227","1821410","0.0-3.0-7.0-1.1","607ec28e6a0bde56a9d69ddc","D2","batch4","pattern_response","1360.0999999940395","stim/yes_43_ver_w1_w.png","f","pattern_65","f","true","","","","1360.0999999940395","true","35","","","","","","","","","","","","","","","","",""
"","","","","","html-keyboard-response","228","1822735","0.0-3.0-7.0-0.2","607ec28e6a0bde56a9d69ddc","D2","batch4","pattern_show_trial_num","null","<p class=block-text>Trial 42 out of 78</p>","null","","","","","","","","","","","","","","","","","","","","","","","","","",""
"","","","","","image-keyboard-response","229","1824125","0.0-3.0-7.0-1.2","607ec28e6a0bde56a9d69ddc","D2","batch4","pattern_response","1388","stim/yes_38_hor_b1_b.png","f","pattern_61","f","true","","","","1388","true","36","","","","","","","","","","","","","","","","",""
"","","","","","html-keyboard-response","230","1825453","0.0-3.0-7.0-0.3","607ec28e6a0bde56a9d69ddc","D2","batch4","pattern_show_trial_num","null","<p class=block-text>Trial 43 out of 78</p>","null","","","","","","","","","","","","","","","","","","","","","","","","","",""
"","","","","","image-keyboard-response","231","1828106","0.0-3.0-7.0-1.3","607ec28e6a0bde56a9d69ddc","D2","batch4","pattern_response","2638.7000000029802","stim/no_29_1_b.png","j","pattern_12","j","true","","","","2638.7000000029802","true","37","","","","","","","","","","","","","","","","",""
"","","","","","html-keyboard-response","232","1829435","0.0-3.0-7.0-0.4","607ec28e6a0bde56a9d69ddc","D2","batch4","pattern_show_trial_num","null","<p class=block-text>Trial 44 out of 78</p>","null","","","","","","","","","","","","","","","","","","","","","","","","","",""
"","","","","","image-keyboard-response","233","1832679","0.0-3.0-7.0-1.4","607ec28e6a0bde56a9d69ddc","D2","batch4","pattern_response","3242.4000000059605","stim/no_62_1_w.png","j","pattern_36","j","true","","","","3242.4000000059605","true","38","","","","","","","","","","","","","","","","",""
"","","","","","html-keyboard-response","234","1833997","0.0-3.0-7.0-0.5","607ec28e6a0bde56a9d69ddc","D2","batch4","pattern_show_trial_num","null","<p class=block-text>Trial 45 out of 78</p>","null","","","","","","","","","","","","","","","","","","","","","","","","","",""
"","","","","","image-keyboard-response","235","1836684","0.0-3.0-7.0-1.5","607ec28e6a0bde56a9d69ddc","D2","batch4","pattern_response","2684.3999999910593","stim/no_55_1_w.png","j","pattern_34","j","true","","","","2684.3999999910593","true","39","","","","","","","","","","","","","","","","",""
"","","","","","html-keyboard-response","236","1837996","0.0-3.0-7.0-0.6","607ec28e6a0bde56a9d69ddc","D2","batch4","pattern_show_trial_num","null","<p class=block-text>Trial 46 out of 78</p>","null","","","","","","","","","","","","","","","","","","","","","","","","","",""
"","","","","","image-keyboard-response","237","1839182","0.0-3.0-7.0-1.6","607ec28e6a0bde56a9d69ddc","D2","batch4","pattern_response","1183.5","stim/yes_22_ver_w1.png","f","pattern_47","f","true","","","","1183.5","true","40","","","","","","","","","","","","","","","","",""
"","","","","","html-keyboard-response","238","1840496","0.0-3.0-7.0-0.7","607ec28e6a0bde56a9d69ddc","D2","batch4","pattern_show_trial_num","null","<p class=block-text>Trial 47 out of 78</p>","null","","","","","","","","","","","","","","","","","","","","","","","","","",""
"","","","","","image-keyboard-response","239","1843265","0.0-3.0-7.0-1.7","607ec28e6a0bde56a9d69ddc","D2","batch4","pattern_response","2767.6000000089407","stim/no_44_1.png","j","pattern_24","j","true","","","","2767.6000000089407","true","41","","","","","","","","","","","","","","","","",""
"","","","","","html-keyboard-response","240","1844590","0.0-3.0-7.0-0.8","607ec28e6a0bde56a9d69ddc","D2","batch4","pattern_show_trial_num","null","<p class=block-text>Trial 48 out of 78</p>","null","","","","","","","","","","","","","","","","","","","","","","","","","",""
"","","","","","image-keyboard-response","241","1848915","0.0-3.0-7.0-1.8","607ec28e6a0bde56a9d69ddc","D2","batch4","pattern_response","4322.79999999702","stim/no_70_2.png","j","pattern_40","j","true","","","","4322.79999999702","true","42","","","","","","","","","","","","","","","","",""
"","","","","","html-keyboard-response","242","1850232","0.0-3.0-7.0-0.9","607ec28e6a0bde56a9d69ddc","D2","batch4","pattern_show_trial_num","null","<p class=block-text>Trial 49 out of 78</p>","null","","","","","","","","","","","","","","","","","","","","","","","","","",""
"","","","","","image-keyboard-response","243","1853558","0.0-3.0-7.0-1.9","607ec28e6a0bde56a9d69ddc","D2","batch4","pattern_response","3323.4000000059605","stim/yes_37_dia_w1.png","j","pattern_59","f","false","","","","3323.4000000059605","false","42","","","","","","","","","","","","","","","","",""
"","","","","","html-keyboard-response","244","1854872","0.0-3.0-7.0-0.10","607ec28e6a0bde56a9d69ddc","D2","batch4","pattern_show_trial_num","null","<p class=block-text>Trial 50 out of 78</p>","null","","","","","","","","","","","","","","","","","","","","","","","","","",""
"","","","","","image-keyboard-response","245","1858173","0.0-3.0-7.0-1.10","607ec28e6a0bde56a9d69ddc","D2","batch4","pattern_response","3299.2000000029802","stim/no_38_1_b.png","j","pattern_20","j","true","","","","3299.2000000029802","true","43","","","","","","","","","","","","","","","","",""
"","","","","","html-keyboard-response","246","1859498","0.0-3.0-7.0-0.11","607ec28e6a0bde56a9d69ddc","D2","batch4","pattern_show_trial_num","null","<p class=block-text>Trial 51 out of 78</p>","null","","","","","","","","","","","","","","","","","","","","","","","","","",""
"","","","","","image-keyboard-response","247","1860651","0.0-3.0-7.0-1.11","607ec28e6a0bde56a9d69ddc","D2","batch4","pattern_response","1151","stim/yes_29_ver_w1.png","f","pattern_53","f","true","","","","1151","true","44","","","","","","","","","","","","","","","","",""
"","","","","","html-keyboard-response","248","1861965","0.0-3.0-7.0-0.12","607ec28e6a0bde56a9d69ddc","D2","batch4","pattern_show_trial_num","null","<p class=block-text>Trial 52 out of 78</p>","null","","","","","","","","","","","","","","","","","","","","","","","","","",""
"","","","","","image-keyboard-response","249","1865106","0.0-3.0-7.0-1.12","607ec28e6a0bde56a9d69ddc","D2","batch4","pattern_response","3138.9000000059605","stim/yes_40_dia_b1_b.png","f","pattern_63","f","true","","","","3138.9000000059605","true","45","","","","","","","","","","","","","","","","",""
"","","","","","html-keyboard-response","250","1866435","0.0-3.0-7.0-0.13","607ec28e6a0bde56a9d69ddc","D2","batch4","pattern_show_trial_num","null","<p class=block-text>Trial 53 out of 78</p>","null","","","","","","","","","","","","","","","","","","","","","","","","","",""
"","","","","","image-keyboard-response","251","1869955","0.0-3.0-7.0-1.13","607ec28e6a0bde56a9d69ddc","D2","batch4","pattern_response","3517.5","stim/no_36_2_w.png","j","pattern_18","j","true","","","","3517.5","true","46","","","","","","","","","","","","","","","","",""
"","","","","","html-keyboard-response","252","1871278","0.0-3.0-7.0-0.14","607ec28e6a0bde56a9d69ddc","D2","batch4","pattern_show_trial_num","null","<p class=block-text>Trial 54 out of 78</p>","null","","","","","","","","","","","","","","","","","","","","","","","","","",""
"","","","","","image-keyboard-response","253","1872798","0.0-3.0-7.0-1.14","607ec28e6a0bde56a9d69ddc","D2","batch4","pattern_response","1517.2000000029802","stim/yes_55_hor_w1_w.png","f","pattern_75","f","true","","","","1517.2000000029802","true","47","","","","","","","","","","","","","","","","",""
"","","","","","html-keyboard-response","254","1874122","0.0-3.0-7.0-0.15","607ec28e6a0bde56a9d69ddc","D2","batch4","pattern_show_trial_num","null","<p class=block-text>Trial 55 out of 78</p>","null","","","","","","","","","","","","","","","","","","","","","","","","","",""
"","","","","","image-keyboard-response","255","1875392","0.0-3.0-7.0-1.15","607ec28e6a0bde56a9d69ddc","D2","batch4","pattern_response","1267.7999999970198","stim/no_20_1_w.png","j","pattern_06","j","true","","","","1267.7999999970198","true","48","","","","","","","","","","","","","","","","",""
"","","","","","html-keyboard-response","256","1876715","0.0-3.0-7.0-0.16","607ec28e6a0bde56a9d69ddc","D2","batch4","pattern_show_trial_num","null","<p class=block-text>Trial 56 out of 78</p>","null","","","","","","","","","","","","","","","","","","","","","","","","","",""
"","","","","","image-keyboard-response","257","1879100","0.0-3.0-7.0-1.16","607ec28e6a0bde56a9d69ddc","D2","batch4","pattern_response","2382.5","stim/no_32_1_w.png","j","pattern_14","j","true","","","","2382.5","true","49","","","","","","","","","","","","","","","","",""
"","","","","","html-keyboard-response","258","1880418","0.0-3.0-7.0-0.17","607ec28e6a0bde56a9d69ddc","D2","batch4","pattern_show_trial_num","null","<p class=block-text>Trial 57 out of 78</p>","null","","","","","","","","","","","","","","","","","","","","","","","","","",""
"","","","","","image-keyboard-response","259","1881997","0.0-3.0-7.0-1.17","607ec28e6a0bde56a9d69ddc","D2","batch4","pattern_response","1576.6000000089407","stim/yes_17_dia_w1.png","f","pattern_45","f","true","","","","1576.6000000089407","true","50","","","","","","","","","","","","","","","","",""
"","","","","","html-keyboard-response","260","1883325","0.0-3.0-7.0-0.18","607ec28e6a0bde56a9d69ddc","D2","batch4","pattern_show_trial_num","null","<p class=block-text>Trial 58 out of 78</p>","null","","","","","","","","","","","","","","","","","","","","","","","","","",""
"","","","","","image-keyboard-response","261","1886823","0.0-3.0-7.0-1.18","607ec28e6a0bde56a9d69ddc","D2","batch4","pattern_response","3495.3999999910593","stim/no_52_1.png","j","pattern_32","j","true","","","","3495.3999999910593","true","51","","","","","","","","","","","","","","","","",""
"","","","","","html-keyboard-response","262","1888139","0.0-3.0-7.0-0.19","607ec28e6a0bde56a9d69ddc","D2","batch4","pattern_show_trial_num","null","<p class=block-text>Trial 59 out of 78</p>","null","","","","","","","","","","","","","","","","","","","","","","","","","",""
"","","","","","image-keyboard-response","263","1890838","0.0-3.0-7.0-1.19","607ec28e6a0bde56a9d69ddc","D2","batch4","pattern_response","2697.1000000089407","stim/no_42_1_w.png","j","pattern_22","j","true","","","","2697.1000000089407","true","52","","","","","","","","","","","","","","","","",""
"","","","","","html-keyboard-response","264","1892153","0.0-3.0-7.0-0.20","607ec28e6a0bde56a9d69ddc","D2","batch4","pattern_show_trial_num","null","<p class=block-text>Trial 60 out of 78</p>","null","","","","","","","","","","","","","","","","","","","","","","","","","",""
"","","","","","image-keyboard-response","265","1893499","0.0-3.0-7.0-1.20","607ec28e6a0bde56a9d69ddc","D2","batch4","pattern_response","1343.8999999910593","stim/yes_45_hor_b2_b.png","f","pattern_67","f","true","","","","1343.8999999910593","true","53","","","","","","","","","","","","","","","","",""
"","","","","","html-keyboard-response","266","1894825","0.0-3.0-7.0-0.21","607ec28e6a0bde56a9d69ddc","D2","batch4","pattern_show_trial_num","null","<p class=block-text>Trial 61 out of 78</p>","null","","","","","","","","","","","","","","","","","","","","","","","","","",""
"","","","","","image-keyboard-response","267","1897931","0.0-3.0-7.0-1.21","607ec28e6a0bde56a9d69ddc","D2","batch4","pattern_response","3104.2999999970198","stim/yes_48_dia_w1_w.png","j","pattern_69","f","false","","","","3104.2999999970198","false","53","","","","","","","","","","","","","","","","",""
"","","","","","html-keyboard-response","268","1899247","0.0-3.0-7.0-0.22","607ec28e6a0bde56a9d69ddc","D2","batch4","pattern_show_trial_num","null","<p class=block-text>Trial 62 out of 78</p>","null","","","","","","","","","","","","","","","","","","","","","","","","","",""
"","","","","","image-keyboard-response","269","1902538","0.0-3.0-7.0-1.22","607ec28e6a0bde56a9d69ddc","D2","batch4","pattern_response","3288.0999999940395","stim/no_48_1_w.png","j","pattern_28","j","true","","","","3288.0999999940395","true","54","","","","","","","","","","","","","","","","",""
"","","","","","html-keyboard-response","270","1903857","0.0-3.0-7.0-0.23","607ec28e6a0bde56a9d69ddc","D2","batch4","pattern_show_trial_num","null","<p class=block-text>Trial 63 out of 78</p>","null","","","","","","","","","","","","","","","","","","","","","","","","","",""
"","","","","","image-keyboard-response","271","1907520","0.0-3.0-7.0-1.23","607ec28e6a0bde56a9d69ddc","D2","batch4","pattern_response","3660.7999999970198","stim/no_34_1_b.png","j","pattern_16","j","true","","","","3660.7999999970198","true","55","","","","","","","","","","","","","","","","",""
"","","","","","html-keyboard-response","272","1908841","0.0-3.0-7.0-0.24","607ec28e6a0bde56a9d69ddc","D2","batch4","pattern_show_trial_num","null","<p class=block-text>Trial 64 out of 78</p>","null","","","","","","","","","","","","","","","","","","","","","","","","","",""
"","","","","","image-keyboard-response","273","1912361","0.0-3.0-7.0-1.24","607ec28e6a0bde56a9d69ddc","D2","batch4","pattern_response","3517.2000000029802","stim/yes_50_dia_w1.png","j","pattern_71","f","false","","","","3517.2000000029802","false","55","","","","","","","","","","","","","","","","",""
"","","","","","html-keyboard-response","274","1913685","0.0-3.0-7.0-0.25","607ec28e6a0bde56a9d69ddc","D2","batch4","pattern_show_trial_num","null","<p class=block-text>Trial 65 out of 78</p>","null","","","","","","","","","","","","","","","","","","","","","","","","","",""
"","","","","","image-keyboard-response","275","1915322","0.0-3.0-7.0-1.25","607ec28e6a0bde56a9d69ddc","D2","batch4","pattern_response","1634.4000000059605","stim/yes_52_ver_w1.png","f","pattern_73","f","true","","","","1634.4000000059605","true","56","","","","","","","","","","","","","","","","",""
"","","","","","html-keyboard-response","276","1916638","0.0-3.0-7.0-0.26","607ec28e6a0bde56a9d69ddc","D2","batch4","pattern_show_trial_num","null","<p class=block-text>Trial 66 out of 78</p>","null","","","","","","","","","","","","","","","","","","","","","","","","","",""
"","","","","","image-keyboard-response","277","1917639","0.0-3.0-7.0-1.26","607ec28e6a0bde56a9d69ddc","D2","batch4","pattern_response","1000","stim/yes_14_hor_b1_w.png","f","pattern_43","f","true","","","","1000","true","57","","","","","","","","","","","","","","","","",""
"","","","","","html-keyboard-response","278","1918967","0.0-3.0-7.0-0.27","607ec28e6a0bde56a9d69ddc","D2","batch4","pattern_show_trial_num","null","<p class=block-text>Trial 67 out of 78</p>","null","","","","","","","","","","","","","","","","","","","","","","","","","",""
"","","","","","image-keyboard-response","279","1920087","0.0-3.0-7.0-1.27","607ec28e6a0bde56a9d69ddc","D2","batch4","pattern_response","1117.7000000029802","stim/yes_25_hor_b1_b.png","f","pattern_49","f","true","","","","1117.7000000029802","true","58","","","","","","","","","","","","","","","","",""
"","","","","","html-keyboard-response","280","1921403","0.0-3.0-7.0-0.28","607ec28e6a0bde56a9d69ddc","D2","batch4","pattern_show_trial_num","null","<p class=block-text>Trial 68 out of 78</p>","null","","","","","","","","","","","","","","","","","","","","","","","","","",""
"","","","","","image-keyboard-response","281","1922702","0.0-3.0-7.0-1.28","607ec28e6a0bde56a9d69ddc","D2","batch4","pattern_response","1297","stim/no_17_1_w.png","j","pattern_04","j","true","","","","1297","true","59","","","","","","","","","","","","","","","","",""
"","","","","","html-keyboard-response","282","1924028","0.0-3.0-7.0-0.29","607ec28e6a0bde56a9d69ddc","D2","batch4","pattern_show_trial_num","null","<p class=block-text>Trial 69 out of 78</p>","null","","","","","","","","","","","","","","","","","","","","","","","","","",""
"","","","","","image-keyboard-response","283","1927156","0.0-3.0-7.0-1.29","607ec28e6a0bde56a9d69ddc","D2","batch4","pattern_response","3125.1000000089407","stim/yes_60_ver_b1_b.png","f","pattern_77","f","true","","","","3125.1000000089407","true","60","","","","","","","","","","","","","","","","",""
"","","","","","html-keyboard-response","284","1928481","0.0-3.0-7.0-0.30","607ec28e6a0bde56a9d69ddc","D2","batch4","pattern_show_trial_num","null","<p class=block-text>Trial 70 out of 78</p>","null","","","","","","","","","","","","","","","","","","","","","","","","","",""
"","","","","","image-keyboard-response","285","1931981","0.0-3.0-7.0-1.30","607ec28e6a0bde56a9d69ddc","D2","batch4","pattern_response","3497","stim/no_50_1.png","j","pattern_30","j","true","","","","3497","true","61","","","","","","","","","","","","","","","","",""
"","","","","","html-keyboard-response","286","1933310","0.0-3.0-7.0-0.31","607ec28e6a0bde56a9d69ddc","D2","batch4","pattern_show_trial_num","null","<p class=block-text>Trial 71 out of 78</p>","null","","","","","","","","","","","","","","","","","","","","","","","","","",""
"","","","","","image-keyboard-response","287","1934798","0.0-3.0-7.0-1.31","607ec28e6a0bde56a9d69ddc","D2","batch4","pattern_response","1485.800000011921","stim/yes_28_ver_b1.png","f","pattern_51","f","true","","","","1485.800000011921","true","62","","","","","","","","","","","","","","","","",""
"","","","","","html-keyboard-response","288","1936123","0.0-3.0-7.0-0.32","607ec28e6a0bde56a9d69ddc","D2","batch4","pattern_show_trial_num","null","<p class=block-text>Trial 72 out of 78</p>","null","","","","","","","","","","","","","","","","","","","","","","","","","",""
"","","","","","image-keyboard-response","289","1939579","0.0-3.0-7.0-1.32","607ec28e6a0bde56a9d69ddc","D2","batch4","pattern_response","3454.1000000089407","stim/no_65_1_b.png","j","pattern_38","j","true","","","","3454.1000000089407","true","63","","","","","","","","","","","","","","","","",""
"","","","","","html-keyboard-response","290","1940903","0.0-3.0-7.0-0.33","607ec28e6a0bde56a9d69ddc","D2","batch4","pattern_show_trial_num","null","<p class=block-text>Trial 73 out of 78</p>","null","","","","","","","","","","","","","","","","","","","","","","","","","",""
"","","","","","image-keyboard-response","291","1943122","0.0-3.0-7.0-1.33","607ec28e6a0bde56a9d69ddc","D2","batch4","pattern_response","2215.7000000029802","stim/yes_35_dia_b1.png","f","pattern_57","f","true","","","","2215.7000000029802","true","64","","","","","","","","","","","","","","","","",""
"","","","","","html-keyboard-response","292","1944450","0.0-3.0-7.0-0.34","607ec28e6a0bde56a9d69ddc","D2","batch4","pattern_show_trial_num","null","<p class=block-text>Trial 74 out of 78</p>","null","","","","","","","","","","","","","","","","","","","","","","","","","",""
"","","","","","image-keyboard-response","293","1948168","0.0-3.0-7.0-1.34","607ec28e6a0bde56a9d69ddc","D2","batch4","pattern_response","3716.7000000029802","stim/yes_67_hor_b1.png","j","pattern_79","f","false","","","","3716.7000000029802","false","64","","","","","","","","","","","","","","","","",""
"","","","","","html-keyboard-response","294","1949496","0.0-3.0-7.0-0.35","607ec28e6a0bde56a9d69ddc","D2","batch4","pattern_show_trial_num","null","<p class=block-text>Trial 75 out of 78</p>","null","","","","","","","","","","","","","","","","","","","","","","","","","",""
"","","","","","image-keyboard-response","295","1951341","0.0-3.0-7.0-1.35","607ec28e6a0bde56a9d69ddc","D2","batch4","pattern_response","1842.5999999940395","stim/yes_31_hor_b1.png","f","pattern_55","f","true","","","","1842.5999999940395","true","65","","","","","","","","","","","","","","","","",""
"","","","","","html-keyboard-response","296","1952668","0.0-3.0-7.0-0.36","607ec28e6a0bde56a9d69ddc","D2","batch4","pattern_show_trial_num","null","<p class=block-text>Trial 76 out of 78</p>","null","","","","","","","","","","","","","","","","","","","","","","","","","",""
"","","","","","image-keyboard-response","297","1953957","0.0-3.0-7.0-1.36","607ec28e6a0bde56a9d69ddc","D2","batch4","pattern_response","1286.2000000029802","stim/no_13_2_b.png","j","pattern_02","j","true","","","","1286.2000000029802","true","66","","","","","","","","","","","","","","","","",""
"","","","","","html-keyboard-response","298","1955277","0.0-3.0-7.0-0.37","607ec28e6a0bde56a9d69ddc","D2","batch4","pattern_show_trial_num","null","<p class=block-text>Trial 77 out of 78</p>","null","","","","","","","","","","","","","","","","","","","","","","","","","",""
"","","","","","image-keyboard-response","299","1957288","0.0-3.0-7.0-1.37","607ec28e6a0bde56a9d69ddc","D2","batch4","pattern_response","2009.4000000059605","stim/no_26_1_w.png","j","pattern_10","j","true","","","","2009.4000000059605","true","67","","","","","","","","","","","","","","","","",""
"","","","","","html-keyboard-response","300","1958606","0.0-3.0-7.0-0.38","607ec28e6a0bde56a9d69ddc","D2","batch4","pattern_show_trial_num","null","<p class=block-text>Trial 78 out of 78</p>","null","","","","","","","","","","","","","","","","","","","","","","","","","",""
"","","","","","image-keyboard-response","301","1962794","0.0-3.0-7.0-1.38","607ec28e6a0bde56a9d69ddc","D2","batch4","pattern_response","4185.4000000059605","stim/no_46_1_b.png","j","pattern_26","j","true","","","","4185.4000000059605","true","68","","","","","","","","","","","","","","","","",""
"","","","","","html-button-response","302","1975998","0.0-3.0-8.0","607ec28e6a0bde56a9d69ddc","D2","batch4","","12686.29999999702","<p class = block-text>This concludes the 4-in-a-row detection game.Thank you for your responses!<br>
            You responded correctly on 87% of the trials.<br>
            When you are ready, press ""Continue"" button to continue </p>","0","","","","","","","","","","","","","","","","","","","","","","","","","",""
"true","","","","","fullscreen","303","1980824","0.0-4.0-0.0","607ec28e6a0bde56a9d69ddc","D2","batch4","","","","","","","","","","","","","","","","","","","","","","","","","","","","","",""
"","","","","","instructions","304","2232078","0.0-4.0-1.0-0.0-0.0","607ec28e6a0bde56a9d69ddc","D2","batch4","tol-instructions","251253.20000000298","","","","","","","","[{""page_index"":0,""viewing_time"":40233.29999999702},{""page_index"":1,""viewing_time"":11864.70000000298},{""page_index"":2,""viewing_time"":32958},{""page_index"":3,""viewing_time"":31360.20000000298},{""page_index"":4,""viewing_time"":37095.5},{""page_index"":5,""viewing_time"":34762},{""page_index"":4,""viewing_time"":4963.79999999702},{""page_index"":3,""viewing_time"":2702},{""page_index"":4,""viewing_time"":7311.9000000059605},{""page_index"":5,""viewing_time"":3595.8999999910593},{""page_index"":4,""viewing_time"":1508.2000000029802},{""page_index"":3,""viewing_time"":1525.2000000029802},{""page_index"":4,""viewing_time"":1022.5999999940395},{""page_index"":5,""viewing_time"":26859},{""page_index"":6,""viewing_time"":13490.800000011921}]","","","","","","","","","","","","","","","","","","","",""
"","","","","","html-button-response","305","2234575","0.0-4.0-1.0-1.0-0.0","607ec28e6a0bde56a9d69ddc","D2","batch4","tol_enter_quiz","2495.5","<p class=block-text> Let's answer a few questions <br>","0","","","","","","","","","","","","","","","","","","","","","","","","","",""
"","","","","","html-button-response","306","2242171","0.0-4.0-1.0-1.0-1.0","607ec28e6a0bde56a9d69ddc","D2","batch4","tol_quiz","7594.800000011921","<p class = block-text>True or False: You can only move the ball on top of a peg. <br></p>","0","","","true","","","","","","","","","","","","","","","","","","","","","","",""
"","","","","","html-button-response","307","2244439","0.0-4.0-1.0-1.0-2.0","607ec28e6a0bde56a9d69ddc","D2","batch4","tol_quiz_feedback","2267.3999999910593","<p class = block-text>Correct! You can only move the ball on top of a peg.</p>","0","","","","","","","","","","","","","","","","","","","","","","","","","",""
"","","","","","html-button-response","308","2252534","0.0-4.0-1.0-1.0-3.0","607ec28e6a0bde56a9d69ddc","D2","batch4","tol_quiz","8093.70000000298","<p class = block-text>True or False: You should try to match your board with the target board with fewest moves possible. <br></p>","0","","","true","","","","","","","","","","","","","","","","","","","","","","",""
"","","","","","html-button-response","309","2254154","0.0-4.0-1.0-1.0-4.0","607ec28e6a0bde56a9d69ddc","D2","batch4","tol_quiz_feedback","1627","<p class = block-text>Correct! </p>","0","","","","","","","","","","","","","","","","","","","","","","","","","",""
"","","","","","html-button-response","310","2260376","0.0-4.0-2.0","607ec28e6a0bde56a9d69ddc","D2","batch4","","6220.79999999702","<p class=block-text> Now that you've understood the game, let's practice a few easier examples before we start!<br> <br>","0","","","","","","","","","","","","","","","","","","","","","","","","","",""
"","","","","","single-stim-button","311","2269824","0.0-4.0-3.0-0.0","607ec28e6a0bde56a9d69ddc","D2","batch4","tol_practice","9446","","","","","","","","","","","","","","tol_peg_2","9446","9446","0","[[1,2,0],[0,0],[0]]","1","[[1,2,0],[0,0],[3]]","practice","9446","","","","","",""
"","","","","","single-stim-button","312","2272378","0.0-4.0-3.0-1.0","607ec28e6a0bde56a9d69ddc","D2","batch4","tol_practice","2552","","","","","","","","","","","","","","tol_peg_3","2552","2552","0","[[1,2,0],[0,0],[3]]","1","[[1,2,0],[0,0],[3]]","practice","2552","","","","","",""
"","","","","","poldrack-single-stim","313","2273380","0.0-4.0-4.0","607ec28e6a0bde56a9d69ddc","D2","batch4","tol_feedback","-1","","","","","true","","","","","","","","","","1000","1000","500","","","","","","-1","none","true","","0",""
"","","","","","single-stim-button","314","2280750","0.0-4.0-5.0-0.0","607ec28e6a0bde56a9d69ddc","D2","batch4","tol_practice","7369","","","","","","","","","","","","","","tol_peg_1","7369","7369","0","[[1,0,0],[3,0],[0]]","2","[[0,0,0],[3,1],[2]]","practice","7369","","","","","",""
"","","","","","single-stim-button","315","2281996","0.0-4.0-5.0-1.0","607ec28e6a0bde56a9d69ddc","D2","batch4","tol_practice","1246","","","","","","","","","","","","","","tol_peg_3","1246","1246","0","[[1,0,0],[3,0],[2]]","2","[[0,0,0],[3,1],[2]]","practice","1246","","","","","",""
"","","","","","single-stim-button","316","2282880","0.0-4.0-5.1-0.1","607ec28e6a0bde56a9d69ddc","D2","batch4","tol_practice","883","","","","","","","","","","","","","","tol_peg_1","883","883","0","[[0,0,0],[3,0],[2]]","3","[[0,0,0],[3,1],[2]]","practice","883","","","","","",""
"","","","","","single-stim-button","317","2283774","0.0-4.0-5.1-1.1","607ec28e6a0bde56a9d69ddc","D2","batch4","tol_practice","893","","","","","","","","","","","","","","tol_peg_2","893","893","0","[[0,0,0],[3,1],[2]]","3","[[0,0,0],[3,1],[2]]","practice","893","","","","","",""
"","","","","","poldrack-single-stim","318","2284775","0.0-4.0-6.0","607ec28e6a0bde56a9d69ddc","D2","batch4","tol_feedback","-1","","","","","true","","","","","","","","","","1000","1000","500","","","","","","-1","none","true","","0",""
"","","","","","single-stim-button","319","2293988","0.0-4.0-7.0-0.0","607ec28e6a0bde56a9d69ddc","D2","batch4","tol_practice","9212","","","","","","","","","","","","","","tol_peg_2","9212","9212","0","[[1,2,0],[0,0],[0]]","4","[[1,0,0],[2,0],[3]]","practice","9212","","","","","",""
"","","","","","single-stim-button","320","2294948","0.0-4.0-7.0-1.0","607ec28e6a0bde56a9d69ddc","D2","batch4","tol_practice","959","","","","","","","","","","","","","","tol_peg_3","959","959","0","[[1,2,0],[0,0],[3]]","4","[[1,0,0],[2,0],[3]]","practice","959","","","","","",""
"","","","","","single-stim-button","321","2297254","0.0-4.0-7.1-0.1","607ec28e6a0bde56a9d69ddc","D2","batch4","tol_practice","2305","","","","","","","","","","","","","","tol_peg_1","2305","2305","0","[[1,0,0],[0,0],[3]]","5","[[1,0,0],[2,0],[3]]","practice","2305","","","","","",""
"","","","","","single-stim-button","322","2298084","0.0-4.0-7.1-1.1","607ec28e6a0bde56a9d69ddc","D2","batch4","tol_practice","830","","","","","","","","","","","","","","tol_peg_2","830","830","0","[[1,0,0],[2,0],[3]]","5","[[1,0,0],[2,0],[3]]","practice","830","","","","","",""
"","","","","","poldrack-single-stim","323","2299086","0.0-4.0-8.0","607ec28e6a0bde56a9d69ddc","D2","batch4","tol_feedback","-1","","","","","true","","","","","","","","","","1000","1000","500","","","","","","-1","none","true","","0",""
"","","","","","html-button-response","324","2305886","0.0-4.0-9.0","607ec28e6a0bde56a9d69ddc","D2","batch4","tol_instruction","6799.100000008941","<div class = centerbox><p class = center-block-text>Great job! You are done with practice trials<br>You are about to start official trials.<br> <br> Problem <strong>1</strong> out of 25 problems</p></div>","0","","","","","","","","","","","","","","","","","","","","","","","","","",""
"","","","","","single-stim-button","325","2318410","0.0-4.0-10.0-0.0","607ec28e6a0bde56a9d69ddc","D2","batch4","tol_tohand","11515","","","","","","","","","","","","","","tol_peg_1","11515","11515","0","[[1,0,0],[3,0],[0]]","1","[[1,3,0],[2,0],[0]]","0","0","","","","","","3"
"","","","","","single-stim-button","326","2319418","0.0-4.0-10.0-1.0","607ec28e6a0bde56a9d69ddc","D2","batch4","tol_toboard","1007","","","","","","","","","","","","","","tol_peg_3","1007","1007","0","[[1,0,0],[3,0],[2]]","1","[[1,3,0],[2,0],[0]]","0","0","","","","","","3"
"","","","","","single-stim-button","327","2320295","0.0-4.0-10.1-0.1","607ec28e6a0bde56a9d69ddc","D2","batch4","tol_tohand","876","","","","","","","","","","","","","","tol_peg_2","876","876","0","[[1,0,0],[0,0],[2]]","2","[[1,3,0],[2,0],[0]]","0","0","","","","","","3"
"","","","","","single-stim-button","328","2321078","0.0-4.0-10.1-1.1","607ec28e6a0bde56a9d69ddc","D2","batch4","tol_toboard","781","","","","","","","","","","","","","","tol_peg_1","781","781","0","[[1,3,0],[0,0],[2]]","2","[[1,3,0],[2,0],[0]]","0","0","","","","","","3"
"","","","","","single-stim-button","329","2321852","0.0-4.0-10.2-0.2","607ec28e6a0bde56a9d69ddc","D2","batch4","tol_tohand","773","","","","","","","","","","","","","","tol_peg_3","773","773","0","[[1,3,0],[0,0],[0]]","3","[[1,3,0],[2,0],[0]]","0","0","","","","","","3"
"","","","","","single-stim-button","330","2322658","0.0-4.0-10.2-1.2","607ec28e6a0bde56a9d69ddc","D2","batch4","tol_toboard","806","","","","","","","","","","","","","","tol_peg_2","806","806","0","[[1,3,0],[2,0],[0]]","3","[[1,3,0],[2,0],[0]]","0","0","","","","","","3"
"","","","","","poldrack-single-stim","331","2323661","0.0-4.0-11.0","607ec28e6a0bde56a9d69ddc","D2","batch4","tol_feedback","-1","","","","","true","","","","","","","","","","1000","1000","500","","","","","","-1","none","true","11515","13164",""
"","","","","","html-button-response","332","2325433","0.0-4.0-12.0","607ec28e6a0bde56a9d69ddc","D2","batch4","tol_trial_num","1771","<div class = centerbox><p class = center-block-text>problem <strong>2</strong> out of 25 problems</p></div>","0","","","","","","","","","","","","","","","","","","","","","","","","","",""
"","","","","","single-stim-button","333","2354323","0.0-4.0-13.0-0.0","607ec28e6a0bde56a9d69ddc","D2","batch4","tol_tohand","28889","","","","","","","","","","","","","","tol_peg_1","28889","28889","0","[[1,0,0],[3,0],[0]]","1","[[2,1,3],[0,0],[0]]","1","0","","","","","","5"
"","","","","","single-stim-button","334","2355618","0.0-4.0-13.0-1.0","607ec28e6a0bde56a9d69ddc","D2","batch4","tol_toboard","1293","","","","","","","","","","","","","","tol_peg_2","1293","1293","0","[[1,0,0],[3,2],[0]]","1","[[2,1,3],[0,0],[0]]","1","0","","","","","","5"
"","","","","","single-stim-button","335","2356341","0.0-4.0-13.1-0.1","607ec28e6a0bde56a9d69ddc","D2","batch4","tol_tohand","723","","","","","","","","","","","","","","tol_peg_1","723","723","0","[[0,0,0],[3,2],[0]]","2","[[2,1,3],[0,0],[0]]","1","0","","","","","","5"
"","","","","","single-stim-button","336","2357551","0.0-4.0-13.1-1.1","607ec28e6a0bde56a9d69ddc","D2","batch4","tol_toboard","1209","","","","","","","","","","","","","","tol_peg_3","1209","1209","0","[[0,0,0],[3,2],[1]]","2","[[2,1,3],[0,0],[0]]","1","0","","","","","","5"
"","","","","","single-stim-button","337","2358451","0.0-4.0-13.2-0.2","607ec28e6a0bde56a9d69ddc","D2","batch4","tol_tohand","899","","","","","","","","","","","","","","tol_peg_2","899","899","0","[[0,0,0],[3,0],[1]]","3","[[2,1,3],[0,0],[0]]","1","0","","","","","","5"
"","","","","","single-stim-button","338","2359408","0.0-4.0-13.2-1.2","607ec28e6a0bde56a9d69ddc","D2","batch4","tol_toboard","956","","","","","","","","","","","","","","tol_peg_1","956","956","0","[[2,0,0],[3,0],[1]]","3","[[2,1,3],[0,0],[0]]","1","0","","","","","","5"
"","","","","","single-stim-button","339","2360286","0.0-4.0-13.3-0.3","607ec28e6a0bde56a9d69ddc","D2","batch4","tol_tohand","877","","","","","","","","","","","","","","tol_peg_3","877","877","0","[[2,0,0],[3,0],[0]]","4","[[2,1,3],[0,0],[0]]","1","0","","","","","","5"
"","","","","","single-stim-button","340","2361614","0.0-4.0-13.3-1.3","607ec28e6a0bde56a9d69ddc","D2","batch4","tol_toboard","1328","","","","","","","","","","","","","","tol_peg_1","1328","1328","0","[[2,1,0],[3,0],[0]]","4","[[2,1,3],[0,0],[0]]","1","0","","","","","","5"
"","","","","","single-stim-button","341","2362412","0.0-4.0-13.4-0.4","607ec28e6a0bde56a9d69ddc","D2","batch4","tol_tohand","798","","","","","","","","","","","","","","tol_peg_2","798","798","0","[[2,1,0],[0,0],[0]]","5","[[2,1,3],[0,0],[0]]","1","0","","","","","","5"
"","","","","","single-stim-button","342","2363088","0.0-4.0-13.4-1.4","607ec28e6a0bde56a9d69ddc","D2","batch4","tol_toboard","675","","","","","","","","","","","","","","tol_peg_1","675","675","0","[[2,1,3],[0,0],[0]]","5","[[2,1,3],[0,0],[0]]","1","0","","","","","","5"
"","","","","","poldrack-single-stim","343","2364089","0.0-4.0-14.0","607ec28e6a0bde56a9d69ddc","D2","batch4","tol_feedback","-1","","","","","true","","","","","","","","","","1000","1000","500","","","","","","-1","none","true","28889","32186",""
"","","","","","html-button-response","344","2365906","0.0-4.0-15.0","607ec28e6a0bde56a9d69ddc","D2","batch4","tol_trial_num","1815.199999988079","<div class = centerbox><p class = center-block-text>problem <strong>3</strong> out of 25 problems</p></div>","0","","","","","","","","","","","","","","","","","","","","","","","","","",""
"","","","","","single-stim-button","345","2411446","0.0-4.0-16.0-0.0","607ec28e6a0bde56a9d69ddc","D2","batch4","tol_tohand","45540","","","","","","","","","","","","","","tol_peg_1","45540","45540","0","[[2,0,0],[0,0],[1]]","1","[[1,2,0],[3,0],[0]]","2","0","","","","","","4"
