"success","timeout","failed_images","failed_audio","failed_video","trial_type","trial_index","time_elapsed","internal_node_id","subject_id","study_id","session_id","view_history","rt","stimulus","response","task","correct","answer","item","fiar_detect_rt","fiar_detect_correct","total_correct_fiar_detect","post_trial_gap","choices","mouse_click","stim_duration","block_duration","timing_post_trial","current_position","tol_num_moves_made","tol_target","tol_problem_id","tol_rt","key_press","possible_responses","tol_correct","preplanning","tol_rt_per_trial","tol_min_moves","spm_correct","spm_rt"
"true","false","[]","[]","[]","preload","0","852","0.0-0.0","60872c9dcfad84bf2f332a4c","F1","batch6","","","","","","","","","","","","","","","","","","","","","","","","","","","","","",""
"true","","","","","fullscreen","1","10409","0.0-1.0-0.0","60872c9dcfad84bf2f332a4c","F1","batch6","","","","","","","","","","","","","","","","","","","","","","","","","","","","","",""
"true","","","","","fullscreen","2","17440","0.0-2.0-0.0","60872c9dcfad84bf2f332a4c","F1","batch6","","","","","","","","","","","","","","","","","","","","","","","","","","","","","",""
"","","","","","instructions","3","41809","0.0-2.0-1.0-0.0","60872c9dcfad84bf2f332a4c","F1","batch6","[{""page_index"":0,""viewing_time"":14364.999999999996},{""page_index"":1,""viewing_time"":9999}]","24365.999999999996","","","","","","","","","","","","","","","","","","","","","","","","","","","",""
"","","","","","html-button-response","4","43416","0.0-2.0-1.0-1.0-0.0","60872c9dcfad84bf2f332a4c","F1","batch6","","1605","<p class=block-text> Let's answer a few questions <br>","0","pattern_enter_quiz","","","","","","","","","","","","","","","","","","","","","","","","",""
"","","","","","html-button-response","5","49720","0.0-2.0-1.0-1.0-1.0","60872c9dcfad84bf2f332a4c","F1","batch6","","6302","<p class = block-text>True or False: You will have as much time as you want to make each choice. <br></p>","0","pattern_quiz","false","","","","","","","","","","","","","","","","","","","","","","","",""
"","","","","","html-button-response","6","52092","0.0-2.0-1.0-1.0-2.0","60872c9dcfad84bf2f332a4c","F1","batch6","","2370","<p class = block-text>Incorrect. Remember, You should make your choice as fast as you can.</p>","0","pattern_quiz_feedback","","","","","","","","","","","","","","","","","","","","","","","","",""
"","","","","","html-button-response","7","58925","0.0-2.0-1.0-1.0-3.0","60872c9dcfad84bf2f332a4c","F1","batch6","","6831.999999999993","<p class = block-text>True or False: You will look for 4 pieces in black or white color connected in a row either horizontally, vertically or diagonally. <br></p>","0","pattern_quiz","true","","","","","","","","","","","","","","","","","","","","","","","",""
"","","","","","html-button-response","8","59666","0.0-2.0-1.0-1.0-4.0","60872c9dcfad84bf2f332a4c","F1","batch6","","740.0000000000073","<p class = block-text>Correct! </p>","0","pattern_quiz_feedback","","","","","","","","","","","","","","","","","","","","","","","","",""
"","","","","","html-button-response","9","62172","0.0-2.0-1.0-2.0-0.0","60872c9dcfad84bf2f332a4c","F1","batch6","","2504.0000000000073","<p class = block-text>You made too many incorrect choices.</p><p class = block-text>You will now repeat the instruction and quiz</p>","0","","","","","","","","","","","","","","","","","","","","","","","","","",""
"","","","","","instructions","10","64245","0.0-2.0-1.1-0.1","60872c9dcfad84bf2f332a4c","F1","batch6","[{""page_index"":0,""viewing_time"":1241.9999999999927},{""page_index"":1,""viewing_time"":828}]","2069.9999999999927","","","","","","","","","","","","","","","","","","","","","","","","","","","",""
"","","","","","html-button-response","11","65004","0.0-2.0-1.1-1.1-0.1","60872c9dcfad84bf2f332a4c","F1","batch6","","758","<p class=block-text> Let's answer a few questions <br>","0","pattern_enter_quiz","","","","","","","","","","","","","","","","","","","","","","","","",""
"","","","","","html-button-response","12","66431","0.0-2.0-1.1-1.1-1.1","60872c9dcfad84bf2f332a4c","F1","batch6","","1424.9999999999854","<p class = block-text>True or False: You will have as much time as you want to make each choice. <br></p>","1","pattern_quiz","true","","","","","","","","","","","","","","","","","","","","","","","",""
"","","","","","html-button-response","13","67209","0.0-2.0-1.1-1.1-2.1","60872c9dcfad84bf2f332a4c","F1","batch6","","777","<p class = block-text>Correct! You should make your choice <strong> as fast as you can</strong>.</p>","0","pattern_quiz_feedback","","","","","","","","","","","","","","","","","","","","","","","","",""
"","","","","","html-button-response","14","68192","0.0-2.0-1.1-1.1-3.1","60872c9dcfad84bf2f332a4c","F1","batch6","","982","<p class = block-text>True or False: You will look for 4 pieces in black or white color connected in a row either horizontally, vertically or diagonally. <br></p>","0","pattern_quiz","true","","","","","","","","","","","","","","","","","","","","","","","",""
"","","","","","html-button-response","15","68816","0.0-2.0-1.1-1.1-4.1","60872c9dcfad84bf2f332a4c","F1","batch6","","622","<p class = block-text>Correct! </p>","0","pattern_quiz_feedback","","","","","","","","","","","","","","","","","","","","","","","","",""
"","","","","","html-button-response","16","71271","0.0-2.0-2.0","60872c9dcfad84bf2f332a4c","F1","batch6","","2453.0000000000146","<p class=block-text> Now that you've understood the game, let's do a few practice trials before we start!<br> <br>","0","pattern_enter_practice","","","","","","","","","","","","","","","","","","","","","","","","",""
"","","","","","image-keyboard-response","17","72702","0.0-2.0-3.0-0.0","60872c9dcfad84bf2f332a4c","F1","batch6","","1413","stim/prac_yes_16_ver_w1.png","f","pattern_practice","true","f","","","","","","","","","","","","","","","","","","","","","","",""
"","","","","","html-keyboard-response","18","73708","0.0-2.0-3.0-1.0","60872c9dcfad84bf2f332a4c","F1","batch6","","null","<p style=""font-size:30px;color:green;"">Correct!</p>","null","pattern_feedback","","","","","","","","","","","","","","","","","","","","","","","","",""
"","","","","","image-keyboard-response","19","75424","0.0-2.0-3.0-0.1","60872c9dcfad84bf2f332a4c","F1","batch6","","1697","stim/prac_no_16_1.png","j","pattern_practice","true","j","","","","","","","","","","","","","","","","","","","","","","",""
"","","","","","html-keyboard-response","20","76428","0.0-2.0-3.0-1.1","60872c9dcfad84bf2f332a4c","F1","batch6","","null","<p style=""font-size:30px;color:green;"">Correct!</p>","null","pattern_feedback","","","","","","","","","","","","","","","","","","","","","","","","",""
"","","","","","image-keyboard-response","21","77257","0.0-2.0-3.0-0.2","60872c9dcfad84bf2f332a4c","F1","batch6","","809","stim/prac_yes_20_dia_b1.png","f","pattern_practice","true","f","","","","","","","","","","","","","","","","","","","","","","",""
"","","","","","html-keyboard-response","22","78261","0.0-2.0-3.0-1.2","60872c9dcfad84bf2f332a4c","F1","batch6","","null","<p style=""font-size:30px;color:green;"">Correct!</p>","null","pattern_feedback","","","","","","","","","","","","","","","","","","","","","","","","",""
"","","","","","image-keyboard-response","23","79214","0.0-2.0-3.0-0.3","60872c9dcfad84bf2f332a4c","F1","batch6","","935","stim/prac_yes_18_hor_w1.png","f","pattern_practice","true","f","","","","","","","","","","","","","","","","","","","","","","",""
"","","","","","html-keyboard-response","24","80219","0.0-2.0-3.0-1.3","60872c9dcfad84bf2f332a4c","F1","batch6","","null","<p style=""font-size:30px;color:green;"">Correct!</p>","null","pattern_feedback","","","","","","","","","","","","","","","","","","","","","","","","",""
"","","","","","image-keyboard-response","25","81127","0.0-2.0-3.0-0.4","60872c9dcfad84bf2f332a4c","F1","batch6","","892","stim/prac_no_18_1.png","j","pattern_practice","true","j","","","","","","","","","","","","","","","","","","","","","","",""
"","","","","","html-keyboard-response","26","82130","0.0-2.0-3.0-1.4","60872c9dcfad84bf2f332a4c","F1","batch6","","null","<p style=""font-size:30px;color:green;"">Correct!</p>","null","pattern_feedback","","","","","","","","","","","","","","","","","","","","","","","","",""
"","","","","","html-button-response","27","88476","0.0-2.0-4.0","60872c9dcfad84bf2f332a4c","F1","batch6","","6341.999999999985","<p class=block-text> Good job! You are done with practice trials!<br>
        You responded correctly on 100% of the trials.<br>
        Press the button below to start official trials. Now you won't see any feedback about your response</p>","0","pattern_enter_official_trials","","","","","","","","","","","","","","","","","","","","","","","","",""
"","","","","","html-keyboard-response","28","89278","0.0-2.0-5.0-0.0","60872c9dcfad84bf2f332a4c","F1","batch6","","null","<p class=block-text>Trial 1 out of 78</p>","null","pattern_show_trial_num","","","","","","","","","","","","","","","","","","","","","","","","",""
"","","","","","image-keyboard-response","29","91978","0.0-2.0-5.0-1.0","60872c9dcfad84bf2f332a4c","F1","batch6","","2680","stim/yes_44_ver_w1_w.png","j","pattern_response","false","f","pattern_66","2680","false","0","","","","","","","","","","","","","","","","","","",""
"","","","","","html-keyboard-response","30","93282","0.0-2.0-5.0-0.1","60872c9dcfad84bf2f332a4c","F1","batch6","","null","<p class=block-text>Trial 2 out of 78</p>","null","pattern_show_trial_num","","","","","","","","","","","","","","","","","","","","","","","","",""
"","","","","","image-keyboard-response","31","96214","0.0-2.0-5.0-1.1","60872c9dcfad84bf2f332a4c","F1","batch6","","2910","stim/no_33_1_b.png","j","pattern_response","true","j","pattern_15","2910","true","1","","","","","","","","","","","","","","","","","","",""
"","","","","","html-keyboard-response","32","97518","0.0-2.0-5.0-0.2","60872c9dcfad84bf2f332a4c","F1","batch6","","null","<p class=block-text>Trial 3 out of 78</p>","null","pattern_show_trial_num","","","","","","","","","","","","","","","","","","","","","","","","",""
"","","","","","image-keyboard-response","33","99991","0.0-2.0-5.0-1.2","60872c9dcfad84bf2f332a4c","F1","batch6","","2453.0000000000146","stim/no_25_1_b.png","j","pattern_response","true","j","pattern_09","2453.0000000000146","true","2","","","","","","","","","","","","","","","","","","",""
"","","","","","html-keyboard-response","34","101294","0.0-2.0-5.0-0.3","60872c9dcfad84bf2f332a4c","F1","batch6","","null","<p class=block-text>Trial 4 out of 78</p>","null","pattern_show_trial_num","","","","","","","","","","","","","","","","","","","","","","","","",""
"","","","","","image-keyboard-response","35","102125","0.0-2.0-5.0-1.3","60872c9dcfad84bf2f332a4c","F1","batch6","","811.0000000000146","stim/yes_17_ver_b1_b.png","f","pattern_response","true","f","pattern_46","811.0000000000146","true","3","","","","","","","","","","","","","","","","","","",""
"","","","","","html-keyboard-response","36","103428","0.0-2.0-5.0-0.4","60872c9dcfad84bf2f332a4c","F1","batch6","","null","<p class=block-text>Trial 5 out of 78</p>","null","pattern_show_trial_num","","","","","","","","","","","","","","","","","","","","","","","","",""
"","","","","","image-keyboard-response","37","105499","0.0-2.0-5.0-1.4","60872c9dcfad84bf2f332a4c","F1","batch6","","2051","stim/no_22_1_b.png","j","pattern_response","true","j","pattern_07","2051","true","4","","","","","","","","","","","","","","","","","","",""
"","","","","","html-keyboard-response","38","106802","0.0-2.0-5.0-0.5","60872c9dcfad84bf2f332a4c","F1","batch6","","null","<p class=block-text>Trial 6 out of 78</p>","null","pattern_show_trial_num","","","","","","","","","","","","","","","","","","","","","","","","",""
"","","","","","image-keyboard-response","39","108767","0.0-2.0-5.0-1.5","60872c9dcfad84bf2f332a4c","F1","batch6","","1946","stim/no_30_1_b.png","j","pattern_response","true","j","pattern_13","1946","true","5","","","","","","","","","","","","","","","","","","",""
"","","","","","html-keyboard-response","40","110069","0.0-2.0-5.0-0.6","60872c9dcfad84bf2f332a4c","F1","batch6","","null","<p class=block-text>Trial 7 out of 78</p>","null","pattern_show_trial_num","","","","","","","","","","","","","","","","","","","","","","","","",""
"","","","","","image-keyboard-response","41","112658","0.0-2.0-5.0-1.6","60872c9dcfad84bf2f332a4c","F1","batch6","","2572.0000000000146","stim/no_28_2.png","j","pattern_response","true","j","pattern_11","2572.0000000000146","true","6","","","","","","","","","","","","","","","","","","",""
"","","","","","html-keyboard-response","42","113961","0.0-2.0-5.0-0.7","60872c9dcfad84bf2f332a4c","F1","batch6","","null","<p class=block-text>Trial 8 out of 78</p>","null","pattern_show_trial_num","","","","","","","","","","","","","","","","","","","","","","","","",""
"","","","","","image-keyboard-response","43","117686","0.0-2.0-5.0-1.7","60872c9dcfad84bf2f332a4c","F1","batch6","","3707","stim/no_51_1.png","j","pattern_response","true","j","pattern_31","3707","true","7","","","","","","","","","","","","","","","","","","",""
"","","","","","html-keyboard-response","44","118989","0.0-2.0-5.0-0.8","60872c9dcfad84bf2f332a4c","F1","batch6","","null","<p class=block-text>Trial 9 out of 78</p>","null","pattern_show_trial_num","","","","","","","","","","","","","","","","","","","","","","","","",""
"","","","","","image-keyboard-response","45","121030","0.0-2.0-5.0-1.8","60872c9dcfad84bf2f332a4c","F1","batch6","","2028.0000000000146","stim/no_36_1_b.png","j","pattern_response","true","j","pattern_17","2028.0000000000146","true","8","","","","","","","","","","","","","","","","","","",""
"","","","","","html-keyboard-response","46","122333","0.0-2.0-5.0-0.9","60872c9dcfad84bf2f332a4c","F1","batch6","","null","<p class=block-text>Trial 10 out of 78</p>","null","pattern_show_trial_num","","","","","","","","","","","","","","","","","","","","","","","","",""
"","","","","","image-keyboard-response","47","127157","0.0-2.0-5.0-1.9","60872c9dcfad84bf2f332a4c","F1","batch6","","4804.000000000015","stim/no_53_1_b.png","j","pattern_response","true","j","pattern_33","4804.000000000015","true","9","","","","","","","","","","","","","","","","","","",""
"","","","","","html-keyboard-response","48","128460","0.0-2.0-5.0-0.10","60872c9dcfad84bf2f332a4c","F1","batch6","","null","<p class=block-text>Trial 11 out of 78</p>","null","pattern_show_trial_num","","","","","","","","","","","","","","","","","","","","","","","","",""
"","","","","","image-keyboard-response","49","131643","0.0-2.0-5.0-1.10","60872c9dcfad84bf2f332a4c","F1","batch6","","3164","stim/no_43_2_b.png","j","pattern_response","true","j","pattern_23","3164","true","10","","","","","","","","","","","","","","","","","","",""
"","","","","","html-keyboard-response","50","132947","0.0-2.0-5.0-0.11","60872c9dcfad84bf2f332a4c","F1","batch6","","null","<p class=block-text>Trial 12 out of 78</p>","null","pattern_show_trial_num","","","","","","","","","","","","","","","","","","","","","","","","",""
"","","","","","image-keyboard-response","51","138541","0.0-2.0-5.0-1.11","60872c9dcfad84bf2f332a4c","F1","batch6","","5574","stim/no_58_1_w.png","j","pattern_response","true","j","pattern_35","5574","true","11","","","","","","","","","","","","","","","","","","",""
"","","","","","html-keyboard-response","52","139844","0.0-2.0-5.0-0.12","60872c9dcfad84bf2f332a4c","F1","batch6","","null","<p class=block-text>Trial 13 out of 78</p>","null","pattern_show_trial_num","","","","","","","","","","","","","","","","","","","","","","","","",""
"","","","","","image-keyboard-response","53","140851","0.0-2.0-5.0-1.12","60872c9dcfad84bf2f332a4c","F1","batch6","","988","stim/yes_70_ver_b1.png","f","pattern_response","true","f","pattern_80","988","true","12","","","","","","","","","","","","","","","","","","",""
"","","","","","html-keyboard-response","54","142154","0.0-2.0-5.0-0.13","60872c9dcfad84bf2f332a4c","F1","batch6","","null","<p class=block-text>Trial 14 out of 78</p>","null","pattern_show_trial_num","","","","","","","","","","","","","","","","","","","","","","","","",""
"","","","","","image-keyboard-response","55","146661","0.0-2.0-5.0-1.13","60872c9dcfad84bf2f332a4c","F1","batch6","","4489","stim/yes_58_dia_w1_w.png","j","pattern_response","false","f","pattern_76","4489","false","12","","","","","","","","","","","","","","","","","","",""
"","","","","","html-keyboard-response","56","147964","0.0-2.0-5.0-0.14","60872c9dcfad84bf2f332a4c","F1","batch6","","null","<p class=block-text>Trial 15 out of 78</p>","null","pattern_show_trial_num","","","","","","","","","","","","","","","","","","","","","","","","",""
"","","","","","image-keyboard-response","57","151210","0.0-2.0-5.0-1.14","60872c9dcfad84bf2f332a4c","F1","batch6","","3224.999999999971","stim/no_45_1_w.png","j","pattern_response","true","j","pattern_25","3224.999999999971","true","13","","","","","","","","","","","","","","","","","","",""
"","","","","","html-keyboard-response","58","152513","0.0-2.0-5.0-0.15","60872c9dcfad84bf2f332a4c","F1","batch6","","null","<p class=block-text>Trial 16 out of 78</p>","null","pattern_show_trial_num","","","","","","","","","","","","","","","","","","","","","","","","",""
"","","","","","image-keyboard-response","59","154134","0.0-2.0-5.0-1.15","60872c9dcfad84bf2f332a4c","F1","batch6","","1601","stim/no_18_1_b.png","j","pattern_response","true","j","pattern_05","1601","true","14","","","","","","","","","","","","","","","","","","",""
"","","","","","html-keyboard-response","60","155438","0.0-2.0-5.0-0.16","60872c9dcfad84bf2f332a4c","F1","batch6","","null","<p class=block-text>Trial 17 out of 78</p>","null","pattern_show_trial_num","","","","","","","","","","","","","","","","","","","","","","","","",""
"","","","","","image-keyboard-response","61","156604","0.0-2.0-5.0-1.16","60872c9dcfad84bf2f332a4c","F1","batch6","","1143.999999999971","stim/no_15_1_w.png","j","pattern_response","true","j","pattern_03","1143.999999999971","true","15","","","","","","","","","","","","","","","","","","",""
"","","","","","html-keyboard-response","62","157909","0.0-2.0-5.0-0.17","60872c9dcfad84bf2f332a4c","F1","batch6","","null","<p class=block-text>Trial 18 out of 78</p>","null","pattern_show_trial_num","","","","","","","","","","","","","","","","","","","","","","","","",""
"","","","","","image-keyboard-response","63","158553","0.0-2.0-5.0-1.17","60872c9dcfad84bf2f332a4c","F1","batch6","","625","stim/yes_36_ver_w1_w.png","f","pattern_response","true","f","pattern_58","625","true","16","","","","","","","","","","","","","","","","","","",""
"","","","","","html-keyboard-response","64","159857","0.0-2.0-5.0-0.18","60872c9dcfad84bf2f332a4c","F1","batch6","","null","<p class=block-text>Trial 19 out of 78</p>","null","pattern_show_trial_num","","","","","","","","","","","","","","","","","","","","","","","","",""
"","","","","","image-keyboard-response","65","160784","0.0-2.0-5.0-1.18","60872c9dcfad84bf2f332a4c","F1","batch6","","911","stim/yes_33_dia_w1_w.png","f","pattern_response","true","f","pattern_56","911","true","17","","","","","","","","","","","","","","","","","","",""
"","","","","","html-keyboard-response","66","162088","0.0-2.0-5.0-0.19","60872c9dcfad84bf2f332a4c","F1","batch6","","null","<p class=block-text>Trial 20 out of 78</p>","null","pattern_show_trial_num","","","","","","","","","","","","","","","","","","","","","","","","",""
"","","","","","image-keyboard-response","67","163918","0.0-2.0-5.0-1.19","60872c9dcfad84bf2f332a4c","F1","batch6","","1813","stim/no_47_1_b.png","j","pattern_response","true","j","pattern_27","1813","true","18","","","","","","","","","","","","","","","","","","",""
"","","","","","html-keyboard-response","68","165222","0.0-2.0-5.0-0.20","60872c9dcfad84bf2f332a4c","F1","batch6","","null","<p class=block-text>Trial 21 out of 78</p>","null","pattern_show_trial_num","","","","","","","","","","","","","","","","","","","","","","","","",""
"","","","","","image-keyboard-response","69","165815","0.0-2.0-5.0-1.20","60872c9dcfad84bf2f332a4c","F1","batch6","","576","stim/yes_12_hor_w1_w.png","f","pattern_response","true","f","pattern_42","576","true","19","","","","","","","","","","","","","","","","","","",""
"","","","","","html-keyboard-response","70","167118","0.0-2.0-5.0-0.21","60872c9dcfad84bf2f332a4c","F1","batch6","","null","<p class=block-text>Trial 22 out of 78</p>","null","pattern_show_trial_num","","","","","","","","","","","","","","","","","","","","","","","","",""
"","","","","","image-keyboard-response","71","168384","0.0-2.0-5.0-1.21","60872c9dcfad84bf2f332a4c","F1","batch6","","1246","stim/yes_30_ver_b1_b.png","f","pattern_response","true","f","pattern_54","1246","true","20","","","","","","","","","","","","","","","","","","",""
"","","","","","html-keyboard-response","72","169687","0.0-2.0-5.0-0.22","60872c9dcfad84bf2f332a4c","F1","batch6","","null","<p class=block-text>Trial 23 out of 78</p>","null","pattern_show_trial_num","","","","","","","","","","","","","","","","","","","","","","","","",""
"","","","","","image-keyboard-response","73","170407","0.0-2.0-5.0-1.22","60872c9dcfad84bf2f332a4c","F1","batch6","","701","stim/no_12_1.png","j","pattern_response","true","j","pattern_01","701","true","21","","","","","","","","","","","","","","","","","","",""
"","","","","","html-keyboard-response","74","171710","0.0-2.0-5.0-0.23","60872c9dcfad84bf2f332a4c","F1","batch6","","null","<p class=block-text>Trial 24 out of 78</p>","null","pattern_show_trial_num","","","","","","","","","","","","","","","","","","","","","","","","",""
"","","","","","image-keyboard-response","75","177079","0.0-2.0-5.0-1.23","60872c9dcfad84bf2f332a4c","F1","batch6","","5349","stim/no_67_1.png","j","pattern_response","true","j","pattern_39","5349","true","22","","","","","","","","","","","","","","","","","","",""
"","","","","","html-keyboard-response","76","178381","0.0-2.0-5.0-0.24","60872c9dcfad84bf2f332a4c","F1","batch6","","null","<p class=block-text>Trial 25 out of 78</p>","null","pattern_show_trial_num","","","","","","","","","","","","","","","","","","","","","","","","",""
"","","","","","image-keyboard-response","77","179331","0.0-2.0-5.0-1.24","60872c9dcfad84bf2f332a4c","F1","batch6","","930","stim/yes_26_dia_w2_w.png","f","pattern_response","true","f","pattern_50","930","true","23","","","","","","","","","","","","","","","","","","",""
"","","","","","html-keyboard-response","78","180634","0.0-2.0-5.0-0.25","60872c9dcfad84bf2f332a4c","F1","batch6","","null","<p class=block-text>Trial 26 out of 78</p>","null","pattern_show_trial_num","","","","","","","","","","","","","","","","","","","","","","","","",""
"","","","","","image-keyboard-response","79","181765","0.0-2.0-5.0-1.25","60872c9dcfad84bf2f332a4c","F1","batch6","","1112","stim/yes_37_hor_w1_w.png","f","pattern_response","true","f","pattern_60","1112","true","24","","","","","","","","","","","","","","","","","","",""
"","","","","","html-keyboard-response","80","183066","0.0-2.0-5.0-0.26","60872c9dcfad84bf2f332a4c","F1","batch6","","null","<p class=block-text>Trial 27 out of 78</p>","null","pattern_show_trial_num","","","","","","","","","","","","","","","","","","","","","","","","",""
"","","","","","image-keyboard-response","81","185687","0.0-2.0-5.0-1.26","60872c9dcfad84bf2f332a4c","F1","batch6","","2612","stim/no_49_2_b.png","j","pattern_response","true","j","pattern_29","2612","true","25","","","","","","","","","","","","","","","","","","",""
"","","","","","html-keyboard-response","82","186990","0.0-2.0-5.0-0.27","60872c9dcfad84bf2f332a4c","F1","batch6","","null","<p class=block-text>Trial 28 out of 78</p>","null","pattern_show_trial_num","","","","","","","","","","","","","","","","","","","","","","","","",""
"","","","","","image-keyboard-response","83","188417","0.0-2.0-5.0-1.27","60872c9dcfad84bf2f332a4c","F1","batch6","","1407","stim/yes_49_hor_w1_b.png","f","pattern_response","true","f","pattern_70","1407","true","26","","","","","","","","","","","","","","","","","","",""
"","","","","","html-keyboard-response","84","189721","0.0-2.0-5.0-0.28","60872c9dcfad84bf2f332a4c","F1","batch6","","null","<p class=block-text>Trial 29 out of 78</p>","null","pattern_show_trial_num","","","","","","","","","","","","","","","","","","","","","","","","",""
"","","","","","image-keyboard-response","85","191575","0.0-2.0-5.0-1.28","60872c9dcfad84bf2f332a4c","F1","batch6","","1834","stim/yes_53_ver_b1_b.png","f","pattern_response","true","f","pattern_74","1834","true","27","","","","","","","","","","","","","","","","","","",""
"","","","","","html-keyboard-response","86","192877","0.0-2.0-5.0-0.29","60872c9dcfad84bf2f332a4c","F1","batch6","","null","<p class=block-text>Trial 30 out of 78</p>","null","pattern_show_trial_num","","","","","","","","","","","","","","","","","","","","","","","","",""
"","","","","","image-keyboard-response","87","198092","0.0-2.0-5.0-1.29","60872c9dcfad84bf2f332a4c","F1","batch6","","5196","stim/yes_63_dia_b1.png","j","pattern_response","false","f","pattern_78","5196","false","27","","","","","","","","","","","","","","","","","","",""
"","","","","","html-keyboard-response","88","199396","0.0-2.0-5.0-0.30","60872c9dcfad84bf2f332a4c","F1","batch6","","null","<p class=block-text>Trial 31 out of 78</p>","null","pattern_show_trial_num","","","","","","","","","","","","","","","","","","","","","","","","",""
"","","","","","image-keyboard-response","89","200382","0.0-2.0-5.0-1.30","60872c9dcfad84bf2f332a4c","F1","batch6","","967","stim/no_37_2_w.png","f","pattern_response","false","j","pattern_19","967","false","27","","","","","","","","","","","","","","","","","","",""
"","","","","","html-keyboard-response","90","201685","0.0-2.0-5.0-0.31","60872c9dcfad84bf2f332a4c","F1","batch6","","null","<p class=block-text>Trial 32 out of 78</p>","null","pattern_show_trial_num","","","","","","","","","","","","","","","","","","","","","","","","",""
"","","","","","image-keyboard-response","91","202967","0.0-2.0-5.0-1.31","60872c9dcfad84bf2f332a4c","F1","batch6","","1263.999999999971","stim/yes_23_ver_b1.png","j","pattern_response","false","f","pattern_48","1263.999999999971","false","27","","","","","","","","","","","","","","","","","","",""
"","","","","","html-keyboard-response","92","204270","0.0-2.0-5.0-0.32","60872c9dcfad84bf2f332a4c","F1","batch6","","null","<p class=block-text>Trial 33 out of 78</p>","null","pattern_show_trial_num","","","","","","","","","","","","","","","","","","","","","","","","",""
"","","","","","image-keyboard-response","93","205726","0.0-2.0-5.0-1.32","60872c9dcfad84bf2f332a4c","F1","batch6","","1436","stim/yes_46_ver_b1_b.png","f","pattern_response","true","f","pattern_68","1436","true","28","","","","","","","","","","","","","","","","","","",""
"","","","","","html-keyboard-response","94","207030","0.0-2.0-5.0-0.33","60872c9dcfad84bf2f332a4c","F1","batch6","","null","<p class=block-text>Trial 34 out of 78</p>","null","pattern_show_trial_num","","","","","","","","","","","","","","","","","","","","","","","","",""
"","","","","","image-keyboard-response","95","207900","0.0-2.0-5.0-1.33","60872c9dcfad84bf2f332a4c","F1","batch6","","850","stim/yes_15_dia_b1u_b.png","f","pattern_response","true","f","pattern_44","850","true","29","","","","","","","","","","","","","","","","","","",""
"","","","","","html-keyboard-response","96","209204","0.0-2.0-5.0-0.34","60872c9dcfad84bf2f332a4c","F1","batch6","","null","<p class=block-text>Trial 35 out of 78</p>","null","pattern_show_trial_num","","","","","","","","","","","","","","","","","","","","","","","","",""
"","","","","","image-keyboard-response","97","212479","0.0-2.0-5.0-1.34","60872c9dcfad84bf2f332a4c","F1","batch6","","3256","stim/yes_42_dia_w1_w.png","j","pattern_response","false","f","pattern_64","3256","false","29","","","","","","","","","","","","","","","","","","",""
"","","","","","html-keyboard-response","98","213783","0.0-2.0-5.0-0.35","60872c9dcfad84bf2f332a4c","F1","batch6","","null","<p class=block-text>Trial 36 out of 78</p>","null","pattern_show_trial_num","","","","","","","","","","","","","","","","","","","","","","","","",""
"","","","","","image-keyboard-response","99","214707","0.0-2.0-5.0-1.35","60872c9dcfad84bf2f332a4c","F1","batch6","","904","stim/yes_29_hor_b1_b.png","f","pattern_response","true","f","pattern_52","904","true","30","","","","","","","","","","","","","","","","","","",""
"","","","","","html-keyboard-response","100","216010","0.0-2.0-5.0-0.36","60872c9dcfad84bf2f332a4c","F1","batch6","","null","<p class=block-text>Trial 37 out of 78</p>","null","pattern_show_trial_num","","","","","","","","","","","","","","","","","","","","","","","","",""
"","","","","","image-keyboard-response","101","218171","0.0-2.0-5.0-1.36","60872c9dcfad84bf2f332a4c","F1","batch6","","2142","stim/no_39_1_w.png","j","pattern_response","true","j","pattern_21","2142","true","31","","","","","","","","","","","","","","","","","","",""
"","","","","","html-keyboard-response","102","219472","0.0-2.0-5.0-0.37","60872c9dcfad84bf2f332a4c","F1","batch6","","null","<p class=block-text>Trial 38 out of 78</p>","null","pattern_show_trial_num","","","","","","","","","","","","","","","","","","","","","","","","",""
"","","","","","image-keyboard-response","103","220883","0.0-2.0-5.0-1.37","60872c9dcfad84bf2f332a4c","F1","batch6","","1392.000000000029","stim/yes_51_dia_b1.png","f","pattern_response","true","f","pattern_72","1392.000000000029","true","32","","","","","","","","","","","","","","","","","","",""
"","","","","","html-keyboard-response","104","222186","0.0-2.0-5.0-0.38","60872c9dcfad84bf2f332a4c","F1","batch6","","null","<p class=block-text>Trial 39 out of 78</p>","null","pattern_show_trial_num","","","","","","","","","","","","","","","","","","","","","","","","",""
"","","","","","image-keyboard-response","105","223169","0.0-2.0-5.0-1.38","60872c9dcfad84bf2f332a4c","F1","batch6","","963.0000000000291","stim/yes_39_hor_w1_w.png","f","pattern_response","true","f","pattern_62","963.0000000000291","true","33","","","","","","","","","","","","","","","","","","",""
"","","","","","image-keyboard-response","106","224845","0.0-2.0-6.0","60872c9dcfad84bf2f332a4c","F1","batch6","","1156","stim/empty_board.png","j","attention_check","true","j","","","","","500","[""f"",""j""]","","","","","","","","","","","","","","","","",""
"","","","","","html-keyboard-response","107","225648","0.0-2.0-7.0-0.0","60872c9dcfad84bf2f332a4c","F1","batch6","","null","<p class=block-text>Trial 40 out of 78</p>","null","pattern_show_trial_num","","","","","","","","","","","","","","","","","","","","","","","","",""
"","","","","","image-keyboard-response","108","226967","0.0-2.0-7.0-1.0","60872c9dcfad84bf2f332a4c","F1","batch6","","1297.999999999971","stim/no_26_1_w.png","j","pattern_response","true","j","pattern_10","1297.999999999971","true","34","","","","","","","","","","","","","","","","","","",""
"","","","","","html-keyboard-response","109","228270","0.0-2.0-7.0-0.1","60872c9dcfad84bf2f332a4c","F1","batch6","","null","<p class=block-text>Trial 41 out of 78</p>","null","pattern_show_trial_num","","","","","","","","","","","","","","","","","","","","","","","","",""
"","","","","","image-keyboard-response","110","230712","0.0-2.0-7.0-1.1","60872c9dcfad84bf2f332a4c","F1","batch6","","2422","stim/no_52_1.png","j","pattern_response","true","j","pattern_32","2422","true","35","","","","","","","","","","","","","","","","","","",""
"","","","","","html-keyboard-response","111","232016","0.0-2.0-7.0-0.2","60872c9dcfad84bf2f332a4c","F1","batch6","","null","<p class=block-text>Trial 42 out of 78</p>","null","pattern_show_trial_num","","","","","","","","","","","","","","","","","","","","","","","","",""
"","","","","","image-keyboard-response","112","233014","0.0-2.0-7.0-1.2","60872c9dcfad84bf2f332a4c","F1","batch6","","978.0000000000291","stim/yes_55_hor_w1_w.png","f","pattern_response","true","f","pattern_75","978.0000000000291","true","36","","","","","","","","","","","","","","","","","","",""
"","","","","","html-keyboard-response","113","234318","0.0-2.0-7.0-0.3","60872c9dcfad84bf2f332a4c","F1","batch6","","null","<p class=block-text>Trial 43 out of 78</p>","null","pattern_show_trial_num","","","","","","","","","","","","","","","","","","","","","","","","",""
"","","","","","image-keyboard-response","114","236950","0.0-2.0-7.0-1.3","60872c9dcfad84bf2f332a4c","F1","batch6","","2607.999999999971","stim/no_55_1_w.png","j","pattern_response","true","j","pattern_34","2607.999999999971","true","37","","","","","","","","","","","","","","","","","","",""
"","","","","","html-keyboard-response","115","238254","0.0-2.0-7.0-0.4","60872c9dcfad84bf2f332a4c","F1","batch6","","null","<p class=block-text>Trial 44 out of 78</p>","null","pattern_show_trial_num","","","","","","","","","","","","","","","","","","","","","","","","",""
"","","","","","image-keyboard-response","116","239640","0.0-2.0-7.0-1.4","60872c9dcfad84bf2f332a4c","F1","batch6","","1366","stim/yes_43_ver_w1_w.png","f","pattern_response","true","f","pattern_65","1366","true","38","","","","","","","","","","","","","","","","","","",""
"","","","","","html-keyboard-response","117","240943","0.0-2.0-7.0-0.5","60872c9dcfad84bf2f332a4c","F1","batch6","","null","<p class=block-text>Trial 45 out of 78</p>","null","pattern_show_trial_num","","","","","","","","","","","","","","","","","","","","","","","","",""
"","","","","","image-keyboard-response","118","244424","0.0-2.0-7.0-1.5","60872c9dcfad84bf2f332a4c","F1","batch6","","3463.000000000029","stim/no_70_2.png","j","pattern_response","true","j","pattern_40","3463.000000000029","true","39","","","","","","","","","","","","","","","","","","",""
"","","","","","html-keyboard-response","119","245727","0.0-2.0-7.0-0.6","60872c9dcfad84bf2f332a4c","F1","batch6","","null","<p class=block-text>Trial 46 out of 78</p>","null","pattern_show_trial_num","","","","","","","","","","","","","","","","","","","","","","","","",""
"","","","","","image-keyboard-response","120","247445","0.0-2.0-7.0-1.6","60872c9dcfad84bf2f332a4c","F1","batch6","","1698.999999999971","stim/yes_40_dia_b1_b.png","j","pattern_response","false","f","pattern_63","1698.999999999971","false","39","","","","","","","","","","","","","","","","","","",""
"","","","","","html-keyboard-response","121","248748","0.0-2.0-7.0-0.7","60872c9dcfad84bf2f332a4c","F1","batch6","","null","<p class=block-text>Trial 47 out of 78</p>","null","pattern_show_trial_num","","","","","","","","","","","","","","","","","","","","","","","","",""
"","","","","","image-keyboard-response","122","249713","0.0-2.0-7.0-1.7","60872c9dcfad84bf2f332a4c","F1","batch6","","944","stim/no_20_1_w.png","j","pattern_response","true","j","pattern_06","944","true","40","","","","","","","","","","","","","","","","","","",""
"","","","","","html-keyboard-response","123","251016","0.0-2.0-7.0-0.8","60872c9dcfad84bf2f332a4c","F1","batch6","","null","<p class=block-text>Trial 48 out of 78</p>","null","pattern_show_trial_num","","","","","","","","","","","","","","","","","","","","","","","","",""
"","","","","","image-keyboard-response","124","253145","0.0-2.0-7.0-1.8","60872c9dcfad84bf2f332a4c","F1","batch6","","2110.000000000029","stim/no_50_1.png","j","pattern_response","true","j","pattern_30","2110.000000000029","true","41","","","","","","","","","","","","","","","","","","",""
"","","","","","html-keyboard-response","125","254448","0.0-2.0-7.0-0.9","60872c9dcfad84bf2f332a4c","F1","batch6","","null","<p class=block-text>Trial 49 out of 78</p>","null","pattern_show_trial_num","","","","","","","","","","","","","","","","","","","","","","","","",""
"","","","","","image-keyboard-response","126","255062","0.0-2.0-7.0-1.9","60872c9dcfad84bf2f332a4c","F1","batch6","","594","stim/no_13_2_b.png","j","pattern_response","true","j","pattern_02","594","true","42","","","","","","","","","","","","","","","","","","",""
"","","","","","html-keyboard-response","127","256365","0.0-2.0-7.0-0.10","60872c9dcfad84bf2f332a4c","F1","batch6","","null","<p class=block-text>Trial 50 out of 78</p>","null","pattern_show_trial_num","","","","","","","","","","","","","","","","","","","","","","","","",""
"","","","","","image-keyboard-response","128","258949","0.0-2.0-7.0-1.10","60872c9dcfad84bf2f332a4c","F1","batch6","","2565","stim/yes_50_dia_w1.png","j","pattern_response","false","f","pattern_71","2565","false","42","","","","","","","","","","","","","","","","","","",""
"","","","","","html-keyboard-response","129","260251","0.0-2.0-7.0-0.11","60872c9dcfad84bf2f332a4c","F1","batch6","","null","<p class=block-text>Trial 51 out of 78</p>","null","pattern_show_trial_num","","","","","","","","","","","","","","","","","","","","","","","","",""
"","","","","","image-keyboard-response","130","260936","0.0-2.0-7.0-1.11","60872c9dcfad84bf2f332a4c","F1","batch6","","667","stim/yes_22_ver_w1.png","f","pattern_response","true","f","pattern_47","667","true","43","","","","","","","","","","","","","","","","","","",""
"","","","","","html-keyboard-response","131","262238","0.0-2.0-7.0-0.12","60872c9dcfad84bf2f332a4c","F1","batch6","","null","<p class=block-text>Trial 52 out of 78</p>","null","pattern_show_trial_num","","","","","","","","","","","","","","","","","","","","","","","","",""
"","","","","","image-keyboard-response","132","264228","0.0-2.0-7.0-1.12","60872c9dcfad84bf2f332a4c","F1","batch6","","1973","stim/no_36_2_w.png","j","pattern_response","true","j","pattern_18","1973","true","44","","","","","","","","","","","","","","","","","","",""
"","","","","","html-keyboard-response","133","265532","0.0-2.0-7.0-0.13","60872c9dcfad84bf2f332a4c","F1","batch6","","null","<p class=block-text>Trial 53 out of 78</p>","null","pattern_show_trial_num","","","","","","","","","","","","","","","","","","","","","","","","",""
"","","","","","image-keyboard-response","134","266520","0.0-2.0-7.0-1.13","60872c9dcfad84bf2f332a4c","F1","batch6","","968","stim/yes_25_hor_b1_b.png","f","pattern_response","true","f","pattern_49","968","true","45","","","","","","","","","","","","","","","","","","",""
"","","","","","html-keyboard-response","135","267821","0.0-2.0-7.0-0.14","60872c9dcfad84bf2f332a4c","F1","batch6","","null","<p class=block-text>Trial 54 out of 78</p>","null","pattern_show_trial_num","","","","","","","","","","","","","","","","","","","","","","","","",""
"","","","","","image-keyboard-response","136","268750","0.0-2.0-7.0-1.14","60872c9dcfad84bf2f332a4c","F1","batch6","","912","stim/no_23_1.png","j","pattern_response","true","j","pattern_08","912","true","46","","","","","","","","","","","","","","","","","","",""
"","","","","","html-keyboard-response","137","270053","0.0-2.0-7.0-0.15","60872c9dcfad84bf2f332a4c","F1","batch6","","null","<p class=block-text>Trial 55 out of 78</p>","null","pattern_show_trial_num","","","","","","","","","","","","","","","","","","","","","","","","",""
"","","","","","image-keyboard-response","138","271894","0.0-2.0-7.0-1.15","60872c9dcfad84bf2f332a4c","F1","batch6","","1823","stim/yes_31_hor_b1.png","f","pattern_response","true","f","pattern_55","1823","true","47","","","","","","","","","","","","","","","","","","",""
"","","","","","html-keyboard-response","139","273196","0.0-2.0-7.0-0.16","60872c9dcfad84bf2f332a4c","F1","batch6","","null","<p class=block-text>Trial 56 out of 78</p>","null","pattern_show_trial_num","","","","","","","","","","","","","","","","","","","","","","","","",""
"","","","","","image-keyboard-response","140","274452","0.0-2.0-7.0-1.16","60872c9dcfad84bf2f332a4c","F1","batch6","","1241","stim/yes_38_hor_b1_b.png","f","pattern_response","true","f","pattern_61","1241","true","48","","","","","","","","","","","","","","","","","","",""
"","","","","","html-keyboard-response","141","275755","0.0-2.0-7.0-0.17","60872c9dcfad84bf2f332a4c","F1","batch6","","null","<p class=block-text>Trial 57 out of 78</p>","null","pattern_show_trial_num","","","","","","","","","","","","","","","","","","","","","","","","",""
"","","","","","image-keyboard-response","142","277089","0.0-2.0-7.0-1.17","60872c9dcfad84bf2f332a4c","F1","batch6","","1314","stim/no_34_1_b.png","j","pattern_response","true","j","pattern_16","1314","true","49","","","","","","","","","","","","","","","","","","",""
"","","","","","html-keyboard-response","143","278395","0.0-2.0-7.0-0.18","60872c9dcfad84bf2f332a4c","F1","batch6","","null","<p class=block-text>Trial 58 out of 78</p>","null","pattern_show_trial_num","","","","","","","","","","","","","","","","","","","","","","","","",""
"","","","","","image-keyboard-response","144","279321","0.0-2.0-7.0-1.18","60872c9dcfad84bf2f332a4c","F1","batch6","","907.0000000000582","stim/yes_28_ver_b1.png","f","pattern_response","true","f","pattern_51","907.0000000000582","true","50","","","","","","","","","","","","","","","","","","",""
"","","","","","html-keyboard-response","145","280625","0.0-2.0-7.0-0.19","60872c9dcfad84bf2f332a4c","F1","batch6","","null","<p class=block-text>Trial 59 out of 78</p>","null","pattern_show_trial_num","","","","","","","","","","","","","","","","","","","","","","","","",""
"","","","","","image-keyboard-response","146","283271","0.0-2.0-7.0-1.19","60872c9dcfad84bf2f332a4c","F1","batch6","","2627","stim/no_62_1_w.png","j","pattern_response","true","j","pattern_36","2627","true","51","","","","","","","","","","","","","","","","","","",""
"","","","","","html-keyboard-response","147","284574","0.0-2.0-7.0-0.20","60872c9dcfad84bf2f332a4c","F1","batch6","","null","<p class=block-text>Trial 60 out of 78</p>","null","pattern_show_trial_num","","","","","","","","","","","","","","","","","","","","","","","","",""
"","","","","","image-keyboard-response","148","285243","0.0-2.0-7.0-1.20","60872c9dcfad84bf2f332a4c","F1","batch6","","651","stim/yes_17_dia_w1.png","f","pattern_response","true","f","pattern_45","651","true","52","","","","","","","","","","","","","","","","","","",""
"","","","","","html-keyboard-response","149","286547","0.0-2.0-7.0-0.21","60872c9dcfad84bf2f332a4c","F1","batch6","","null","<p class=block-text>Trial 61 out of 78</p>","null","pattern_show_trial_num","","","","","","","","","","","","","","","","","","","","","","","","",""
"","","","","","image-keyboard-response","150","289040","0.0-2.0-7.0-1.21","60872c9dcfad84bf2f332a4c","F1","batch6","","2474","stim/no_44_1.png","j","pattern_response","true","j","pattern_24","2474","true","53","","","","","","","","","","","","","","","","","","",""
"","","","","","html-keyboard-response","151","290343","0.0-2.0-7.0-0.22","60872c9dcfad84bf2f332a4c","F1","batch6","","null","<p class=block-text>Trial 62 out of 78</p>","null","pattern_show_trial_num","","","","","","","","","","","","","","","","","","","","","","","","",""
"","","","","","image-keyboard-response","152","291674","0.0-2.0-7.0-1.22","60872c9dcfad84bf2f332a4c","F1","batch6","","1312.9999999999418","stim/no_32_1_w.png","j","pattern_response","true","j","pattern_14","1312.9999999999418","true","54","","","","","","","","","","","","","","","","","","",""
"","","","","","html-keyboard-response","153","292977","0.0-2.0-7.0-0.23","60872c9dcfad84bf2f332a4c","F1","batch6","","null","<p class=block-text>Trial 63 out of 78</p>","null","pattern_show_trial_num","","","","","","","","","","","","","","","","","","","","","","","","",""
"","","","","","image-keyboard-response","154","294844","0.0-2.0-7.0-1.23","60872c9dcfad84bf2f332a4c","F1","batch6","","1848","stim/yes_37_dia_w1.png","j","pattern_response","false","f","pattern_59","1848","false","54","","","","","","","","","","","","","","","","","","",""
"","","","","","html-keyboard-response","155","296148","0.0-2.0-7.0-0.24","60872c9dcfad84bf2f332a4c","F1","batch6","","null","<p class=block-text>Trial 64 out of 78</p>","null","pattern_show_trial_num","","","","","","","","","","","","","","","","","","","","","","","","",""
"","","","","","image-keyboard-response","156","300541","0.0-2.0-7.0-1.24","60872c9dcfad84bf2f332a4c","F1","batch6","","4375","stim/no_65_1_b.png","j","pattern_response","true","j","pattern_38","4375","true","55","","","","","","","","","","","","","","","","","","",""
"","","","","","html-keyboard-response","157","301845","0.0-2.0-7.0-0.25","60872c9dcfad84bf2f332a4c","F1","batch6","","null","<p class=block-text>Trial 65 out of 78</p>","null","pattern_show_trial_num","","","","","","","","","","","","","","","","","","","","","","","","",""
"","","","","","image-keyboard-response","158","303352","0.0-2.0-7.0-1.25","60872c9dcfad84bf2f332a4c","F1","batch6","","1489","stim/no_42_1_w.png","j","pattern_response","true","j","pattern_22","1489","true","56","","","","","","","","","","","","","","","","","","",""
"","","","","","html-keyboard-response","159","304655","0.0-2.0-7.0-0.26","60872c9dcfad84bf2f332a4c","F1","batch6","","null","<p class=block-text>Trial 66 out of 78</p>","null","pattern_show_trial_num","","","","","","","","","","","","","","","","","","","","","","","","",""
"","","","","","image-keyboard-response","160","307746","0.0-2.0-7.0-1.26","60872c9dcfad84bf2f332a4c","F1","batch6","","3073","stim/yes_48_dia_w1_w.png","j","pattern_response","false","f","pattern_69","3073","false","56","","","","","","","","","","","","","","","","","","",""
"","","","","","html-keyboard-response","161","309050","0.0-2.0-7.0-0.27","60872c9dcfad84bf2f332a4c","F1","batch6","","null","<p class=block-text>Trial 67 out of 78</p>","null","pattern_show_trial_num","","","","","","","","","","","","","","","","","","","","","","","","",""
"","","","","","image-keyboard-response","162","310033","0.0-2.0-7.0-1.27","60872c9dcfad84bf2f332a4c","F1","batch6","","963","stim/no_17_1_w.png","j","pattern_response","true","j","pattern_04","963","true","57","","","","","","","","","","","","","","","","","","",""
"","","","","","html-keyboard-response","163","311335","0.0-2.0-7.0-0.28","60872c9dcfad84bf2f332a4c","F1","batch6","","null","<p class=block-text>Trial 68 out of 78</p>","null","pattern_show_trial_num","","","","","","","","","","","","","","","","","","","","","","","","",""
"","","","","","image-keyboard-response","164","311954","0.0-2.0-7.0-1.28","60872c9dcfad84bf2f332a4c","F1","batch6","","601","stim/yes_14_hor_b1_w.png","f","pattern_response","true","f","pattern_43","601","true","58","","","","","","","","","","","","","","","","","","",""
"","","","","","html-keyboard-response","165","313256","0.0-2.0-7.0-0.29","60872c9dcfad84bf2f332a4c","F1","batch6","","null","<p class=block-text>Trial 69 out of 78</p>","null","pattern_show_trial_num","","","","","","","","","","","","","","","","","","","","","","","","",""
"","","","","","image-keyboard-response","166","315636","0.0-2.0-7.0-1.29","60872c9dcfad84bf2f332a4c","F1","batch6","","2361","stim/no_46_1_b.png","j","pattern_response","true","j","pattern_26","2361","true","59","","","","","","","","","","","","","","","","","","",""
"","","","","","html-keyboard-response","167","316940","0.0-2.0-7.0-0.30","60872c9dcfad84bf2f332a4c","F1","batch6","","null","<p class=block-text>Trial 70 out of 78</p>","null","pattern_show_trial_num","","","","","","","","","","","","","","","","","","","","","","","","",""
"","","","","","image-keyboard-response","168","318195","0.0-2.0-7.0-1.30","60872c9dcfad84bf2f332a4c","F1","batch6","","1236","stim/yes_45_hor_b2_b.png","f","pattern_response","true","f","pattern_67","1236","true","60","","","","","","","","","","","","","","","","","","",""
"","","","","","html-keyboard-response","169","319497","0.0-2.0-7.0-0.31","60872c9dcfad84bf2f332a4c","F1","batch6","","null","<p class=block-text>Trial 71 out of 78</p>","null","pattern_show_trial_num","","","","","","","","","","","","","","","","","","","","","","","","",""
"","","","","","image-keyboard-response","170","320792","0.0-2.0-7.0-1.31","60872c9dcfad84bf2f332a4c","F1","batch6","","1274","stim/no_29_1_b.png","j","pattern_response","true","j","pattern_12","1274","true","61","","","","","","","","","","","","","","","","","","",""
"","","","","","html-keyboard-response","171","322094","0.0-2.0-7.0-0.32","60872c9dcfad84bf2f332a4c","F1","batch6","","null","<p class=block-text>Trial 72 out of 78</p>","null","pattern_show_trial_num","","","","","","","","","","","","","","","","","","","","","","","","",""
"","","","","","image-keyboard-response","172","324197","0.0-2.0-7.0-1.32","60872c9dcfad84bf2f332a4c","F1","batch6","","2083","stim/yes_52_ver_w1.png","j","pattern_response","false","f","pattern_73","2083","false","61","","","","","","","","","","","","","","","","","","",""
"","","","","","html-keyboard-response","173","325499","0.0-2.0-7.0-0.33","60872c9dcfad84bf2f332a4c","F1","batch6","","null","<p class=block-text>Trial 73 out of 78</p>","null","pattern_show_trial_num","","","","","","","","","","","","","","","","","","","","","","","","",""
"","","","","","image-keyboard-response","174","327772","0.0-2.0-7.0-1.33","60872c9dcfad84bf2f332a4c","F1","batch6","","2257.000000000058","stim/yes_67_hor_b1.png","j","pattern_response","false","f","pattern_79","2257.000000000058","false","61","","","","","","","","","","","","","","","","","","",""
"","","","","","html-keyboard-response","175","329075","0.0-2.0-7.0-0.34","60872c9dcfad84bf2f332a4c","F1","batch6","","null","<p class=block-text>Trial 74 out of 78</p>","null","pattern_show_trial_num","","","","","","","","","","","","","","","","","","","","","","","","",""
"","","","","","image-keyboard-response","176","330222","0.0-2.0-7.0-1.34","60872c9dcfad84bf2f332a4c","F1","batch6","","1127.9999999999418","stim/yes_29_ver_w1.png","j","pattern_response","false","f","pattern_53","1127.9999999999418","false","61","","","","","","","","","","","","","","","","","","",""
"","","","","","html-keyboard-response","177","331525","0.0-2.0-7.0-0.35","60872c9dcfad84bf2f332a4c","F1","batch6","","null","<p class=block-text>Trial 75 out of 78</p>","null","pattern_show_trial_num","","","","","","","","","","","","","","","","","","","","","","","","",""
"","","","","","image-keyboard-response","178","333897","0.0-2.0-7.0-1.35","60872c9dcfad84bf2f332a4c","F1","batch6","","2353.000000000058","stim/no_48_1_w.png","j","pattern_response","true","j","pattern_28","2353.000000000058","true","62","","","","","","","","","","","","","","","","","","",""
"","","","","","html-keyboard-response","179","335200","0.0-2.0-7.0-0.36","60872c9dcfad84bf2f332a4c","F1","batch6","","null","<p class=block-text>Trial 76 out of 78</p>","null","pattern_show_trial_num","","","","","","","","","","","","","","","","","","","","","","","","",""
"","","","","","image-keyboard-response","180","336478","0.0-2.0-7.0-1.36","60872c9dcfad84bf2f332a4c","F1","batch6","","1258.9999999999418","stim/yes_35_dia_b1.png","j","pattern_response","false","f","pattern_57","1258.9999999999418","false","62","","","","","","","","","","","","","","","","","","",""
"","","","","","html-keyboard-response","181","337782","0.0-2.0-7.0-0.37","60872c9dcfad84bf2f332a4c","F1","batch6","","null","<p class=block-text>Trial 77 out of 78</p>","null","pattern_show_trial_num","","","","","","","","","","","","","","","","","","","","","","","","",""
"","","","","","image-keyboard-response","182","338995","0.0-2.0-7.0-1.37","60872c9dcfad84bf2f332a4c","F1","batch6","","1194","stim/yes_60_ver_b1_b.png","f","pattern_response","true","f","pattern_77","1194","true","63","","","","","","","","","","","","","","","","","","",""
"","","","","","html-keyboard-response","183","340298","0.0-2.0-7.0-0.38","60872c9dcfad84bf2f332a4c","F1","batch6","","null","<p class=block-text>Trial 78 out of 78</p>","null","pattern_show_trial_num","","","","","","","","","","","","","","","","","","","","","","","","",""
"","","","","","image-keyboard-response","184","342090","0.0-2.0-7.0-1.38","60872c9dcfad84bf2f332a4c","F1","batch6","","1772","stim/no_38_1_b.png","j","pattern_response","true","j","pattern_20","1772","true","64","","","","","","","","","","","","","","","","","","",""
"","","","","","html-button-response","185","359317","0.0-2.0-8.0","60872c9dcfad84bf2f332a4c","F1","batch6","","16722.99999999994","<p class = block-text>This concludes the 4-in-a-row detection game.Thank you for your responses!<br>
            You responded correctly on 82% of the trials.<br>
            When you are ready, press ""Continue"" button to continue </p>","0","","","","","","","","","","","","","","","","","","","","","","","","","",""
"true","","","","","fullscreen","186","390311","0.0-3.0-0.0","60872c9dcfad84bf2f332a4c","F1","batch6","","","","","","","","","","","","","","","","","","","","","","","","","","","","","",""
"","","","","","instructions","187","441060","0.0-3.0-1.0-0.0-0.0","60872c9dcfad84bf2f332a4c","F1","batch6","[{""page_index"":0,""viewing_time"":10822},{""page_index"":1,""viewing_time"":4650.000000000058},{""page_index"":2,""viewing_time"":3150.999999999942},{""page_index"":3,""viewing_time"":8182},{""page_index"":4,""viewing_time"":5781},{""page_index"":5,""viewing_time"":15031},{""page_index"":6,""viewing_time"":3131}]","50748","","","tol-instructions","","","","","","","","","","","","","","","","","","","","","","","","",""
"","","","","","html-button-response","188","442810","0.0-3.0-1.0-1.0-0.0","60872c9dcfad84bf2f332a4c","F1","batch6","","1749","<p class=block-text> Let's answer a few questions <br>","0","tol_enter_quiz","","","","","","","","","","","","","","","","","","","","","","","","",""
"","","","","","html-button-response","189","447726","0.0-3.0-1.0-1.0-1.0","60872c9dcfad84bf2f332a4c","F1","batch6","","4915","<p class = block-text>True or False: You can only move the ball on top of a peg. <br></p>","0","tol_quiz","true","","","","","","","","","","","","","","","","","","","","","","","",""
"","","","","","html-button-response","190","448943","0.0-3.0-1.0-1.0-2.0","60872c9dcfad84bf2f332a4c","F1","batch6","","1216","<p class = block-text>Correct! You can only move the ball on top of a peg.</p>","0","tol_quiz_feedback","","","","","","","","","","","","","","","","","","","","","","","","",""
"","","","","","html-button-response","191","451069","0.0-3.0-1.0-1.0-3.0","60872c9dcfad84bf2f332a4c","F1","batch6","","2126","<p class = block-text>True or False: You should try to match your board with the target board with fewest moves possible. <br></p>","0","tol_quiz","true","","","","","","","","","","","","","","","","","","","","","","","",""
"","","","","","html-button-response","192","451774","0.0-3.0-1.0-1.0-4.0","60872c9dcfad84bf2f332a4c","F1","batch6","","703.9999999999418","<p class = block-text>Correct! </p>","0","tol_quiz_feedback","","","","","","","","","","","","","","","","","","","","","","","","",""
"","","","","","html-button-response","193","454121","0.0-3.0-2.0","60872c9dcfad84bf2f332a4c","F1","batch6","","2345","<p class=block-text> Now that you've understood the game, let's practice a few easier examples before we start!<br> <br>","0","","","","","","","","","","","","","","","","","","","","","","","","","",""
"","","","","","single-stim-button","194","458623","0.0-3.0-3.0-0.0","60872c9dcfad84bf2f332a4c","F1","batch6","","4498","","","tol_practice","","","","","","","","","tol_peg_2","4498","4498","0","[[1,2,0],[0,0],[0]]","1","[[1,2,0],[0,0],[3]]","practice","4498","","","","","","","",""
"","","","","","single-stim-button","195","459228","0.0-3.0-3.0-1.0","60872c9dcfad84bf2f332a4c","F1","batch6","","603","","","tol_practice","","","","","","","","","tol_peg_3","603","603","0","[[1,2,0],[0,0],[3]]","1","[[1,2,0],[0,0],[3]]","practice","603","","","","","","","",""
"","","","","","poldrack-single-stim","196","460232","0.0-3.0-4.0","60872c9dcfad84bf2f332a4c","F1","batch6","","-1","","","tol_feedback","true","","","","","","","","","1000","1000","500","","","","","","-1","none","true","","0","","",""
"","","","","","single-stim-button","197","464766","0.0-3.0-5.0-0.0","60872c9dcfad84bf2f332a4c","F1","batch6","","4531","","","tol_practice","","","","","","","","","tol_peg_1","4531","4531","0","[[1,0,0],[3,0],[0]]","2","[[0,0,0],[3,1],[2]]","practice","4531","","","","","","","",""
"","","","","","single-stim-button","198","465403","0.0-3.0-5.0-1.0","60872c9dcfad84bf2f332a4c","F1","batch6","","635","","","tol_practice","","","","","","","","","tol_peg_3","635","635","0","[[1,0,0],[3,0],[2]]","2","[[0,0,0],[3,1],[2]]","practice","635","","","","","","","",""
"","","","","","single-stim-button","199","466063","0.0-3.0-5.1-0.1","60872c9dcfad84bf2f332a4c","F1","batch6","","657","","","tol_practice","","","","","","","","","tol_peg_1","657","657","0","[[0,0,0],[3,0],[2]]","3","[[0,0,0],[3,1],[2]]","practice","657","","","","","","","",""
"","","","","","single-stim-button","200","466761","0.0-3.0-5.1-1.1","60872c9dcfad84bf2f332a4c","F1","batch6","","695","","","tol_practice","","","","","","","","","tol_peg_2","695","695","0","[[0,0,0],[3,1],[2]]","3","[[0,0,0],[3,1],[2]]","practice","695","","","","","","","",""
"","","","","","poldrack-single-stim","201","467766","0.0-3.0-6.0","60872c9dcfad84bf2f332a4c","F1","batch6","","-1","","","tol_feedback","true","","","","","","","","","1000","1000","500","","","","","","-1","none","true","","0","","",""
"","","","","","single-stim-button","202","470407","0.0-3.0-7.0-0.0","60872c9dcfad84bf2f332a4c","F1","batch6","","2639","","","tol_practice","","","","","","","","","tol_peg_2","2639","2639","0","[[1,2,0],[0,0],[0]]","4","[[1,0,0],[2,0],[3]]","practice","2639","","","","","","","",""
"","","","","","single-stim-button","203","471125","0.0-3.0-7.0-1.0","60872c9dcfad84bf2f332a4c","F1","batch6","","716","","","tol_practice","","","","","","","","","tol_peg_3","716","716","0","[[1,2,0],[0,0],[3]]","4","[[1,0,0],[2,0],[3]]","practice","716","","","","","","","",""
"","","","","","single-stim-button","204","471723","0.0-3.0-7.1-0.1","60872c9dcfad84bf2f332a4c","F1","batch6","","597","","","tol_practice","","","","","","","","","tol_peg_1","597","597","0","[[1,0,0],[0,0],[3]]","5","[[1,0,0],[2,0],[3]]","practice","597","","","","","","","",""
"","","","","","single-stim-button","205","472366","0.0-3.0-7.1-1.1","60872c9dcfad84bf2f332a4c","F1","batch6","","639","","","tol_practice","","","","","","","","","tol_peg_2","639","639","0","[[1,0,0],[2,0],[3]]","5","[[1,0,0],[2,0],[3]]","practice","639","","","","","","","",""
"","","","","","poldrack-single-stim","206","473369","0.0-3.0-8.0","60872c9dcfad84bf2f332a4c","F1","batch6","","-1","","","tol_feedback","true","","","","","","","","","1000","1000","500","","","","","","-1","none","true","","0","","",""
"","","","","","html-button-response","207","476760","0.0-3.0-9.0","60872c9dcfad84bf2f332a4c","F1","batch6","","3389.000000000058","<div class = centerbox><p class = center-block-text>Great job! You are done with practice trials<br>You are about to start official trials.<br> <br> Problem <strong>1</strong> out of 25 problems</p></div>","0","tol_instruction","","","","","","","","","","","","","","","","","","","","","","","","",""
"","","","","","single-stim-button","208","482225","0.0-3.0-10.0-0.0","60872c9dcfad84bf2f332a4c","F1","batch6","","4462","","","tol_tohand","","","","","","","","","tol_peg_1","4462","4462","0","[[1,0,0],[3,0],[0]]","1","[[1,3,0],[2,0],[0]]","0","0","","","","","","3","",""
"","","","","","single-stim-button","209","483439","0.0-3.0-10.0-1.0","60872c9dcfad84bf2f332a4c","F1","batch6","","1212","","","tol_toboard","","","","","","","","","tol_peg_3","1212","1212","0","[[1,0,0],[3,0],[2]]","1","[[1,3,0],[2,0],[0]]","0","0","","","","","","3","",""
"","","","","","single-stim-button","210","484111","0.0-3.0-10.1-0.1","60872c9dcfad84bf2f332a4c","F1","batch6","","670","","","tol_tohand","","","","","","","","","tol_peg_2","670","670","0","[[1,0,0],[0,0],[2]]","2","[[1,3,0],[2,0],[0]]","0","0","","","","","","3","",""
"","","","","","single-stim-button","211","484636","0.0-3.0-10.1-1.1","60872c9dcfad84bf2f332a4c","F1","batch6","","523","","","tol_toboard","","","","","","","","","tol_peg_1","523","523","0","[[1,3,0],[0,0],[2]]","2","[[1,3,0],[2,0],[0]]","0","0","","","","","","3","",""
"","","","","","single-stim-button","212","485642","0.0-3.0-10.2-0.2","60872c9dcfad84bf2f332a4c","F1","batch6","","1003","","","tol_tohand","","","","","","","","","tol_peg_3","1003","1003","0","[[1,3,0],[0,0],[0]]","3","[[1,3,0],[2,0],[0]]","0","0","","","","","","3","",""
"","","","","","single-stim-button","213","486245","0.0-3.0-10.2-1.2","60872c9dcfad84bf2f332a4c","F1","batch6","","602","","","tol_toboard","","","","","","","","","tol_peg_2","602","602","0","[[1,3,0],[2,0],[0]]","3","[[1,3,0],[2,0],[0]]","0","0","","","","","","3","",""
"","","","","","poldrack-single-stim","214","487250","0.0-3.0-11.0","60872c9dcfad84bf2f332a4c","F1","batch6","","-1","","","tol_feedback","true","","","","","","","","","1000","1000","500","","","","","","-1","none","true","4462","6135","","",""
"","","","","","html-button-response","215","488304","0.0-3.0-12.0","60872c9dcfad84bf2f332a4c","F1","batch6","","1052","<div class = centerbox><p class = center-block-text>problem <strong>2</strong> out of 25 problems</p></div>","0","tol_trial_num","","","","","","","","","","","","","","","","","","","","","","","","",""
"","","","","","single-stim-button","216","494352","0.0-3.0-13.0-0.0","60872c9dcfad84bf2f332a4c","F1","batch6","","6046","","","tol_tohand","","","","","","","","","tol_peg_1","6046","6046","0","[[1,0,0],[3,0],[0]]","1","[[2,1,3],[0,0],[0]]","1","0","","","","","","5","",""
"","","","","","single-stim-button","217","495002","0.0-3.0-13.0-1.0","60872c9dcfad84bf2f332a4c","F1","batch6","","649","","","tol_toboard","","","","","","","","","tol_peg_2","649","649","0","[[1,0,0],[3,2],[0]]","1","[[2,1,3],[0,0],[0]]","1","0","","","","","","5","",""
"","","","","","single-stim-button","218","496065","0.0-3.0-13.1-0.1","60872c9dcfad84bf2f332a4c","F1","batch6","","1060","","","tol_tohand","","","","","","","","","tol_peg_1","1060","1060","0","[[0,0,0],[3,2],[0]]","2","[[2,1,3],[0,0],[0]]","1","0","","","","","","5","",""
"","","","","","single-stim-button","219","498043","0.0-3.0-13.1-1.1","60872c9dcfad84bf2f332a4c","F1","batch6","","1976","","","tol_toboard","","","","","","","","","tol_peg_3","1976","1976","0","[[0,0,0],[3,2],[1]]","2","[[2,1,3],[0,0],[0]]","1","0","","","","","","5","",""
"","","","","","single-stim-button","220","499101","0.0-3.0-13.2-0.2","60872c9dcfad84bf2f332a4c","F1","batch6","","1056","","","tol_tohand","","","","","","","","","tol_peg_2","1056","1056","0","[[0,0,0],[3,0],[1]]","3","[[2,1,3],[0,0],[0]]","1","0","","","","","","5","",""
"","","","","","single-stim-button","221","501359","0.0-3.0-13.2-1.2","60872c9dcfad84bf2f332a4c","F1","batch6","","2256","","","tol_toboard","","","","","","","","","tol_peg_1","2256","2256","0","[[2,0,0],[3,0],[1]]","3","[[2,1,3],[0,0],[0]]","1","0","","","","","","5","",""
"","","","","","single-stim-button","222","502891","0.0-3.0-13.3-0.3","60872c9dcfad84bf2f332a4c","F1","batch6","","1531","","","tol_tohand","","","","","","","","","tol_peg_3","1531","1531","0","[[2,0,0],[3,0],[0]]","4","[[2,1,3],[0,0],[0]]","1","0","","","","","","5","",""
"","","","","","single-stim-button","223","503555","0.0-3.0-13.3-1.3","60872c9dcfad84bf2f332a4c","F1","batch6","","662","","","tol_toboard","","","","","","","","","tol_peg_1","662","662","0","[[2,1,0],[3,0],[0]]","4","[[2,1,3],[0,0],[0]]","1","0","","","","","","5","",""
"","","","","","single-stim-button","224","504128","0.0-3.0-13.4-0.4","60872c9dcfad84bf2f332a4c","F1","batch6","","570","","","tol_tohand","","","","","","","","","tol_peg_2","570","570","0","[[2,1,0],[0,0],[0]]","5","[[2,1,3],[0,0],[0]]","1","0","","","","","","5","",""
"","","","","","single-stim-button","225","504693","0.0-3.0-13.4-1.4","60872c9dcfad84bf2f332a4c","F1","batch6","","563","","","tol_toboard","","","","","","","","","tol_peg_1","563","563","0","[[2,1,3],[0,0],[0]]","5","[[2,1,3],[0,0],[0]]","1","0","","","","","","5","",""
"","","","","","poldrack-single-stim","226","505696","0.0-3.0-14.0","60872c9dcfad84bf2f332a4c","F1","batch6","","-1","","","tol_feedback","true","","","","","","","","","1000","1000","500","","","","","","-1","none","true","6046","10263","","",""
"","","","","","html-button-response","227","507069","0.0-3.0-15.0","60872c9dcfad84bf2f332a4c","F1","batch6","","1371","<div class = centerbox><p class = center-block-text>problem <strong>3</strong> out of 25 problems</p></div>","0","tol_trial_num","","","","","","","","","","","","","","","","","","","","","","","","",""
"","","","","","single-stim-button","228","508848","0.0-3.0-16.0-0.0","60872c9dcfad84bf2f332a4c","F1","batch6","","1777","","","tol_tohand","","","","","","","","","tol_peg_1","1777","1777","0","[[2,0,0],[0,0],[1]]","1","[[1,2,0],[3,0],[0]]","2","0","","","","","","4","",""
"","","","","","single-stim-button","229","509840","0.0-3.0-16.0-1.0","60872c9dcfad84bf2f332a4c","F1","batch6","","992","","","tol_toboard","","","","","","","","","tol_peg_2","992","992","0","[[2,0,0],[3,0],[1]]","1","[[1,2,0],[3,0],[0]]","2","0","","","","","","4","",""
"","","","","","single-stim-button","230","511621","0.0-3.0-16.1-0.1","60872c9dcfad84bf2f332a4c","F1","batch6","","1779","","","tol_tohand","","","","","","","","","tol_peg_1","1779","1779","0","[[0,0,0],[3,0],[1]]","2","[[1,2,0],[3,0],[0]]","2","0","","","","","","4","",""
"","","","","","single-stim-button","231","512232","0.0-3.0-16.1-1.1","60872c9dcfad84bf2f332a4c","F1","batch6","","607","","","tol_toboard","","","","","","","","","tol_peg_2","607","607","0","[[0,0,0],[3,2],[1]]","2","[[1,2,0],[3,0],[0]]","2","0","","","","","","4","",""
"","","","","","single-stim-button","232","512720","0.0-3.0-16.2-0.2","60872c9dcfad84bf2f332a4c","F1","batch6","","486","","","tol_tohand","","","","","","","","","tol_peg_3","486","486","0","[[0,0,0],[3,2],[0]]","3","[[1,2,0],[3,0],[0]]","2","0","","","","","","4","",""
"","","","","","single-stim-button","233","513623","0.0-3.0-16.2-1.2","60872c9dcfad84bf2f332a4c","F1","batch6","","901","","","tol_toboard","","","","","","","","","tol_peg_1","901","901","0","[[1,0,0],[3,2],[0]]","3","[[1,2,0],[3,0],[0]]","2","0","","","","","","4","",""
"","","","","","single-stim-button","234","514306","0.0-3.0-16.3-0.3","60872c9dcfad84bf2f332a4c","F1","batch6","","680","","","tol_tohand","","","","","","","","","tol_peg_2","680","680","0","[[1,0,0],[3,0],[0]]","4","[[1,2,0],[3,0],[0]]","2","0","","","","","","4","",""
"","","","","","single-stim-button","235","514876","0.0-3.0-16.3-1.3","60872c9dcfad84bf2f332a4c","F1","batch6","","567","","","tol_toboard","","","","","","","","","tol_peg_1","567","567","0","[[1,2,0],[3,0],[0]]","4","[[1,2,0],[3,0],[0]]","2","0","","","","","","4","",""
"","","","","","poldrack-single-stim","236","515878","0.0-3.0-17.0","60872c9dcfad84bf2f332a4c","F1","batch6","","-1","","","tol_feedback","true","","","","","","","","","1000","1000","500","","","","","","-1","none","true","1777","4722","","",""
"","","","","","html-button-response","237","516900","0.0-3.0-18.0","60872c9dcfad84bf2f332a4c","F1","batch6","","1020.9999999999418","<div class = centerbox><p class = center-block-text>problem <strong>4</strong> out of 25 problems</p></div>","0","tol_trial_num","","","","","","","","","","","","","","","","","","","","","","","","",""
"","","","","","single-stim-button","238","520929","0.0-3.0-19.0-0.0","60872c9dcfad84bf2f332a4c","F1","batch6","","4027","","","tol_tohand","","","","","","","","","tol_peg_2","4027","4027","0","[[3,0,0],[2,0],[0]]","1","[[3,0,0],[1,0],[2]]","3","0","","","","","","3","",""
"","","","","","single-stim-button","239","521703","0.0-3.0-19.0-1.0","60872c9dcfad84bf2f332a4c","F1","batch6","","771","","","tol_toboard","","","","","","","","","tol_peg_1","771","771","0","[[3,1,0],[2,0],[0]]","1","[[3,0,0],[1,0],[2]]","3","0","","","","","","3","",""
"","","","","","single-stim-button","240","522226","0.0-3.0-19.1-0.1","60872c9dcfad84bf2f332a4c","F1","batch6","","521","","","tol_tohand","","","","","","","","","tol_peg_2","521","521","0","[[3,1,0],[0,0],[0]]","2","[[3,0,0],[1,0],[2]]","3","0","","","","","","3","",""
"","","","","","single-stim-button","241","522939","0.0-3.0-19.1-1.1","60872c9dcfad84bf2f332a4c","F1","batch6","","711","","","tol_toboard","","","","","","","","","tol_peg_3","711","711","0","[[3,1,0],[0,0],[2]]","2","[[3,0,0],[1,0],[2]]","3","0","","","","","","3","",""
"","","","","","single-stim-button","242","523591","0.0-3.0-19.2-0.2","60872c9dcfad84bf2f332a4c","F1","batch6","","650","","","tol_tohand","","","","","","","","","tol_peg_1","650","650","0","[[3,0,0],[0,0],[2]]","3","[[3,0,0],[1,0],[2]]","3","0","","","","","","3","",""
"","","","","","single-stim-button","243","524252","0.0-3.0-19.2-1.2","60872c9dcfad84bf2f332a4c","F1","batch6","","658","","","tol_toboard","","","","","","","","","tol_peg_2","658","658","0","[[3,0,0],[1,0],[2]]","3","[[3,0,0],[1,0],[2]]","3","0","","","","","","3","",""
"","","","","","poldrack-single-stim","244","525256","0.0-3.0-20.0","60872c9dcfad84bf2f332a4c","F1","batch6","","-1","","","tol_feedback","true","","","","","","","","","1000","1000","500","","","","","","-1","none","true","4027","5198","","",""
"","","","","","html-button-response","245","525768","0.0-3.0-21.0","60872c9dcfad84bf2f332a4c","F1","batch6","","510","<div class = centerbox><p class = center-block-text>problem <strong>5</strong> out of 25 problems</p></div>","0","tol_trial_num","","","","","","","","","","","","","","","","","","","","","","","","",""
"","","","","","single-stim-button","246","542069","0.0-3.0-22.0-0.0","60872c9dcfad84bf2f332a4c","F1","batch6","","16300","","","tol_tohand","","","","","","","","","tol_peg_1","16300","16300","0","[[0,0,0],[2,0],[3]]","1","[[0,0,0],[1,2],[3]]","4","0","","","","","","7","",""
"","","","","","single-stim-button","247","542782","0.0-3.0-22.0-1.0","60872c9dcfad84bf2f332a4c","F1","batch6","","710","","","tol_toboard","","","","","","","","","tol_peg_2","710","710","0","[[0,0,0],[2,1],[3]]","1","[[0,0,0],[1,2],[3]]","4","0","","","","","","7","",""
"","","","","","single-stim-button","248","543543","0.0-3.0-22.1-0.1","60872c9dcfad84bf2f332a4c","F1","batch6","","759","","","tol_tohand","","","","","","","","","tol_peg_3","759","759","0","[[0,0,0],[2,1],[0]]","2","[[0,0,0],[1,2],[3]]","4","0","","","","","","7","",""
"","","","","","single-stim-button","249","547369","0.0-3.0-22.1-1.1","60872c9dcfad84bf2f332a4c","F1","batch6","","3824","","","tol_toboard","","","","","","","","","tol_peg_1","3824","3824","0","[[3,0,0],[2,1],[0]]","2","[[0,0,0],[1,2],[3]]","4","0","","","","","","7","",""
"","","","","","single-stim-button","250","547848","0.0-3.0-22.2-0.2","60872c9dcfad84bf2f332a4c","F1","batch6","","476","","","tol_tohand","","","","","","","","","tol_peg_2","476","476","0","[[3,0,0],[2,0],[0]]","3","[[0,0,0],[1,2],[3]]","4","0","","","","","","7","",""
"","","","","","single-stim-button","251","548311","0.0-3.0-22.2-1.2","60872c9dcfad84bf2f332a4c","F1","batch6","","461","","","tol_toboard","","","","","","","","","tol_peg_1","461","461","0","[[3,1,0],[2,0],[0]]","3","[[0,0,0],[1,2],[3]]","4","0","","","","","","7","",""
"","","","","","single-stim-button","252","548823","0.0-3.0-22.3-0.3","60872c9dcfad84bf2f332a4c","F1","batch6","","509","","","tol_tohand","","","","","","","","","tol_peg_2","509","509","0","[[3,1,0],[0,0],[0]]","4","[[0,0,0],[1,2],[3]]","4","0","","","","","","7","",""
"","","","","","single-stim-button","253","550585","0.0-3.0-22.3-1.3","60872c9dcfad84bf2f332a4c","F1","batch6","","1760","","","tol_toboard","","","","","","","","","tol_peg_3","1760","1760","0","[[3,1,0],[0,0],[2]]","4","[[0,0,0],[1,2],[3]]","4","0","","","","","","7","",""
"","","","","","single-stim-button","254","551168","0.0-3.0-22.4-0.4","60872c9dcfad84bf2f332a4c","F1","batch6","","580","","","tol_tohand","","","","","","","","","tol_peg_1","580","580","0","[[3,0,0],[0,0],[2]]","5","[[0,0,0],[1,2],[3]]","4","0","","","","","","7","",""
"","","","","","single-stim-button","255","552001","0.0-3.0-22.4-1.4","60872c9dcfad84bf2f332a4c","F1","batch6","","831","","","tol_toboard","","","","","","","","","tol_peg_2","831","831","0","[[3,0,0],[1,0],[2]]","5","[[0,0,0],[1,2],[3]]","4","0","","","","","","7","",""
"","","","","","single-stim-button","256","554525","0.0-3.0-22.5-0.5","60872c9dcfad84bf2f332a4c","F1","batch6","","2521","","","tol_tohand","","","","","","","","","tol_peg_3","2521","2521","0","[[3,0,0],[1,0],[0]]","6","[[0,0,0],[1,2],[3]]","4","0","","","","","","7","",""
"","","","","","single-stim-button","257","554950","0.0-3.0-22.5-1.5","60872c9dcfad84bf2f332a4c","F1","batch6","","424","","","tol_toboard","","","","","","","","","tol_peg_2","424","424","0","[[3,0,0],[1,2],[0]]","6","[[0,0,0],[1,2],[3]]","4","0","","","","","","7","",""
"","","","","","single-stim-button","258","555373","0.0-3.0-22.6-0.6","60872c9dcfad84bf2f332a4c","F1","batch6","","419","","","tol_tohand","","","","","","","","","tol_peg_1","419","419","0","[[0,0,0],[1,2],[0]]","7","[[0,0,0],[1,2],[3]]","4","0","","","","","","7","",""
"","","","","","single-stim-button","259","556773","0.0-3.0-22.6-1.6","60872c9dcfad84bf2f332a4c","F1","batch6","","1397","","","tol_toboard","","","","","","","","","tol_peg_3","1397","1397","0","[[0,0,0],[1,2],[3]]","7","[[0,0,0],[1,2],[3]]","4","0","","","","","","7","",""
"","","","","","poldrack-single-stim","260","557777","0.0-3.0-23.0","60872c9dcfad84bf2f332a4c","F1","batch6","","-1","","","tol_feedback","true","","","","","","","","","1000","1000","500","","","","","","-1","none","true","16300","21564","","",""
"","","","","","html-button-response","261","558864","0.0-3.0-24.0","60872c9dcfad84bf2f332a4c","F1","batch6","","1085","<div class = centerbox><p class = center-block-text>problem <strong>6</strong> out of 25 problems</p></div>","0","tol_trial_num","","","","","","","","","","","","","","","","","","","","","","","","",""
"","","","","","single-stim-button","262","565218","0.0-3.0-25.0-0.0","60872c9dcfad84bf2f332a4c","F1","batch6","","6353","","","tol_tohand","","","","","","","","","tol_peg_3","6353","6353","0","[[0,0,0],[1,2],[0]]","1","[[1,0,0],[2,3],[0]]","5","0","","","","","","6","",""
"","","","","","single-stim-button","263","566147","0.0-3.0-25.0-1.0","60872c9dcfad84bf2f332a4c","F1","batch6","","927","","","tol_toboard","","","","","","","","","tol_peg_1","927","927","0","[[3,0,0],[1,2],[0]]","1","[[1,0,0],[2,3],[0]]","5","0","","","","","","6","",""
"","","","","","single-stim-button","264","567026","0.0-3.0-25.1-0.1","60872c9dcfad84bf2f332a4c","F1","batch6","","878","","","tol_tohand","","","","","","","","","tol_peg_2","878","878","0","[[3,0,0],[1,0],[0]]","2","[[1,0,0],[2,3],[0]]","5","0","","","","","","6","",""
"","","","","","single-stim-button","265","567531","0.0-3.0-25.1-1.1","60872c9dcfad84bf2f332a4c","F1","batch6","","503","","","tol_toboard","","","","","","","","","tol_peg_1","503","503","0","[[3,2,0],[1,0],[0]]","2","[[1,0,0],[2,3],[0]]","5","0","","","","","","6","",""
"","","","","","single-stim-button","266","567995","0.0-3.0-25.2-0.2","60872c9dcfad84bf2f332a4c","F1","batch6","","462","","","tol_tohand","","","","","","","","","tol_peg_2","462","462","0","[[3,2,0],[0,0],[0]]","3","[[1,0,0],[2,3],[0]]","5","0","","","","","","6","",""
"","","","","","single-stim-button","267","568873","0.0-3.0-25.2-1.2","60872c9dcfad84bf2f332a4c","F1","batch6","","875","","","tol_toboard","","","","","","","","","tol_peg_3","875","875","0","[[3,2,0],[0,0],[1]]","3","[[1,0,0],[2,3],[0]]","5","0","","","","","","6","",""
"","","","","","single-stim-button","268","569423","0.0-3.0-25.3-0.3","60872c9dcfad84bf2f332a4c","F1","batch6","","547","","","tol_tohand","","","","","","","","","tol_peg_1","547","547","0","[[3,0,0],[0,0],[1]]","4","[[1,0,0],[2,3],[0]]","5","0","","","","","","6","",""
"","","","","","single-stim-button","269","570293","0.0-3.0-25.3-1.3","60872c9dcfad84bf2f332a4c","F1","batch6","","868","","","tol_toboard","","","","","","","","","tol_peg_2","868","868","0","[[3,0,0],[2,0],[1]]","4","[[1,0,0],[2,3],[0]]","5","0","","","","","","6","",""
"","","","","","single-stim-button","270","570700","0.0-3.0-25.4-0.4","60872c9dcfad84bf2f332a4c","F1","batch6","","404","","","tol_tohand","","","","","","","","","tol_peg_1","404","404","0","[[0,0,0],[2,0],[1]]","5","[[1,0,0],[2,3],[0]]","5","0","","","","","","6","",""
"","","","","","single-stim-button","271","571206","0.0-3.0-25.4-1.4","60872c9dcfad84bf2f332a4c","F1","batch6","","504","","","tol_toboard","","","","","","","","","tol_peg_2","504","504","0","[[0,0,0],[2,3],[1]]","5","[[1,0,0],[2,3],[0]]","5","0","","","","","","6","",""
"","","","","","single-stim-button","272","571886","0.0-3.0-25.5-0.5","60872c9dcfad84bf2f332a4c","F1","batch6","","679","","","tol_tohand","","","","","","","","","tol_peg_3","679","679","0","[[0,0,0],[2,3],[0]]","6","[[1,0,0],[2,3],[0]]","5","0","","","","","","6","",""
"","","","","","single-stim-button","273","572594","0.0-3.0-25.5-1.5","60872c9dcfad84bf2f332a4c","F1","batch6","","705","","","tol_toboard","","","","","","","","","tol_peg_1","705","705","0","[[1,0,0],[2,3],[0]]","6","[[1,0,0],[2,3],[0]]","5","0","","","","","","6","",""
"","","","","","poldrack-single-stim","274","573599","0.0-3.0-26.0","60872c9dcfad84bf2f332a4c","F1","batch6","","-1","","","tol_feedback","true","","","","","","","","","1000","1000","500","","","","","","-1","none","true","6353","9323","","",""
"","","","","","html-button-response","275","574480","0.0-3.0-27.0","60872c9dcfad84bf2f332a4c","F1","batch6","","879.0000000001164","<div class = centerbox><p class = center-block-text>problem <strong>7</strong> out of 25 problems</p></div>","0","tol_trial_num","","","","","","","","","","","","","","","","","","","","","","","","",""
"","","","","","single-stim-button","276","582941","0.0-3.0-28.0-0.0","60872c9dcfad84bf2f332a4c","F1","batch6","","8460","","","tol_tohand","","","","","","","","","tol_peg_3","8460","8460","0","[[2,1,0],[0,0],[0]]","1","[[1,2,0],[3,0],[0]]","6","0","","","","","","5","",""
"","","","","","single-stim-button","277","584831","0.0-3.0-28.0-1.0","60872c9dcfad84bf2f332a4c","F1","batch6","","1886","","","tol_toboard","","","","","","","","","tol_peg_2","1886","1886","0","[[2,1,0],[3,0],[0]]","1","[[1,2,0],[3,0],[0]]","6","0","","","","","","5","",""
"","","","","","single-stim-button","278","585589","0.0-3.0-28.1-0.1","60872c9dcfad84bf2f332a4c","F1","batch6","","754","","","tol_tohand","","","","","","","","","tol_peg_1","754","754","0","[[2,0,0],[3,0],[0]]","2","[[1,2,0],[3,0],[0]]","6","0","","","","","","5","",""
"","","","","","single-stim-button","279","586139","0.0-3.0-28.1-1.1","60872c9dcfad84bf2f332a4c","F1","batch6","","547","","","tol_toboard","","","","","","","","","tol_peg_2","547","547","0","[[2,0,0],[3,1],[0]]","2","[[1,2,0],[3,0],[0]]","6","0","","","","","","5","",""
"","","","","","single-stim-button","280","586793","0.0-3.0-28.2-0.2","60872c9dcfad84bf2f332a4c","F1","batch6","","652","","","tol_tohand","","","","","","","","","tol_peg_1","652","652","0","[[0,0,0],[3,1],[0]]","3","[[1,2,0],[3,0],[0]]","6","0","","","","","","5","",""
"","","","","","single-stim-button","281","587391","0.0-3.0-28.2-1.2","60872c9dcfad84bf2f332a4c","F1","batch6","","596","","","tol_toboard","","","","","","","","","tol_peg_3","596","596","0","[[0,0,0],[3,1],[2]]","3","[[1,2,0],[3,0],[0]]","6","0","","","","","","5","",""
"","","","","","single-stim-button","282","587888","0.0-3.0-28.3-0.3","60872c9dcfad84bf2f332a4c","F1","batch6","","495","","","tol_tohand","","","","","","","","","tol_peg_2","495","495","0","[[0,0,0],[3,0],[2]]","4","[[1,2,0],[3,0],[0]]","6","0","","","","","","5","",""
"","","","","","single-stim-button","283","588506","0.0-3.0-28.3-1.3","60872c9dcfad84bf2f332a4c","F1","batch6","","615","","","tol_toboard","","","","","","","","","tol_peg_1","615","615","0","[[1,0,0],[3,0],[2]]","4","[[1,2,0],[3,0],[0]]","6","0","","","","","","5","",""
"","","","","","single-stim-button","284","589102","0.0-3.0-28.4-0.4","60872c9dcfad84bf2f332a4c","F1","batch6","","593","","","tol_tohand","","","","","","","","","tol_peg_3","593","593","0","[[1,0,0],[3,0],[0]]","5","[[1,2,0],[3,0],[0]]","6","0","","","","","","5","",""
"","","","","","single-stim-button","285","589829","0.0-3.0-28.4-1.4","60872c9dcfad84bf2f332a4c","F1","batch6","","726","","","tol_toboard","","","","","","","","","tol_peg_1","726","726","0","[[1,2,0],[3,0],[0]]","5","[[1,2,0],[3,0],[0]]","6","0","","","","","","5","",""
"","","","","","poldrack-single-stim","286","590832","0.0-3.0-29.0","60872c9dcfad84bf2f332a4c","F1","batch6","","-1","","","tol_feedback","true","","","","","","","","","1000","1000","500","","","","","","-1","none","true","8460","10954","","",""
"","","","","","html-button-response","287","591511","0.0-3.0-30.0","60872c9dcfad84bf2f332a4c","F1","batch6","","676","<div class = centerbox><p class = center-block-text>problem <strong>8</strong> out of 25 problems</p></div>","0","tol_trial_num","","","","","","","","","","","","","","","","","","","","","","","","",""
"","","","","","single-stim-button","288","595930","0.0-3.0-31.0-0.0","60872c9dcfad84bf2f332a4c","F1","batch6","","4417","","","tol_tohand","","","","","","","","","tol_peg_3","4417","4417","0","[[0,0,0],[2,3],[0]]","1","[[1,2,0],[3,0],[0]]","7","0","","","","","","4","",""
"","","","","","single-stim-button","289","596606","0.0-3.0-31.0-1.0","60872c9dcfad84bf2f332a4c","F1","batch6","","675","","","tol_toboard","","","","","","","","","tol_peg_1","675","675","0","[[1,0,0],[2,3],[0]]","1","[[1,2,0],[3,0],[0]]","7","0","","","","","","4","",""
"","","","","","single-stim-button","290","598088","0.0-3.0-31.1-0.1","60872c9dcfad84bf2f332a4c","F1","batch6","","1478","","","tol_tohand","","","","","","","","","tol_peg_2","1478","1478","0","[[1,0,0],[2,0],[0]]","2","[[1,2,0],[3,0],[0]]","7","0","","","","","","4","",""
"","","","","","single-stim-button","291","598622","0.0-3.0-31.1-1.1","60872c9dcfad84bf2f332a4c","F1","batch6","","533","","","tol_toboard","","","","","","","","","tol_peg_3","533","533","0","[[1,0,0],[2,0],[3]]","2","[[1,2,0],[3,0],[0]]","7","0","","","","","","4","",""
"","","","","","single-stim-button","292","599097","0.0-3.0-31.2-0.2","60872c9dcfad84bf2f332a4c","F1","batch6","","473","","","tol_tohand","","","","","","","","","tol_peg_2","473","473","0","[[1,0,0],[0,0],[3]]","3","[[1,2,0],[3,0],[0]]","7","0","","","","","","4","",""
"","","","","","single-stim-button","293","599576","0.0-3.0-31.2-1.2","60872c9dcfad84bf2f332a4c","F1","batch6","","477","","","tol_toboard","","","","","","","","","tol_peg_1","477","477","0","[[1,2,0],[0,0],[3]]","3","[[1,2,0],[3,0],[0]]","7","0","","","","","","4","",""
"","","","","","single-stim-button","294","600273","0.0-3.0-31.3-0.3","60872c9dcfad84bf2f332a4c","F1","batch6","","695","","","tol_tohand","","","","","","","","","tol_peg_3","695","695","0","[[1,2,0],[0,0],[0]]","4","[[1,2,0],[3,0],[0]]","7","0","","","","","","4","",""
"","","","","","single-stim-button","295","600910","0.0-3.0-31.3-1.3","60872c9dcfad84bf2f332a4c","F1","batch6","","634","","","tol_toboard","","","","","","","","","tol_peg_2","634","634","0","[[1,2,0],[3,0],[0]]","4","[[1,2,0],[3,0],[0]]","7","0","","","","","","4","",""
"","","","","","poldrack-single-stim","296","601913","0.0-3.0-32.0","60872c9dcfad84bf2f332a4c","F1","batch6","","-1","","","tol_feedback","true","","","","","","","","","1000","1000","500","","","","","","-1","none","true","4417","7063","","",""
"","","","","","html-button-response","297","602858","0.0-3.0-33.0","60872c9dcfad84bf2f332a4c","F1","batch6","","944","<div class = centerbox><p class = center-block-text>problem <strong>9</strong> out of 25 problems</p></div>","0","tol_trial_num","","","","","","","","","","","","","","","","","","","","","","","","",""
"","","","","","single-stim-button","298","609969","0.0-3.0-34.0-0.0","60872c9dcfad84bf2f332a4c","F1","batch6","","7109","","","tol_tohand","","","","","","","","","tol_peg_3","7109","7109","0","[[3,2,0],[0,0],[0]]","1","[[2,1,0],[3,0],[0]]","8","0","","","","","","6","",""
"","","","","","single-stim-button","299","610508","0.0-3.0-34.0-1.0","60872c9dcfad84bf2f332a4c","F1","batch6","","537","","","tol_toboard","","","","","","","","","tol_peg_2","537","537","0","[[3,2,0],[1,0],[0]]","1","[[2,1,0],[3,0],[0]]","8","0","","","","","","6","",""
"","","","","","single-stim-button","300","611099","0.0-3.0-34.1-0.1","60872c9dcfad84bf2f332a4c","F1","batch6","","590","","","tol_tohand","","","","","","","","","tol_peg_1","590","590","0","[[3,0,0],[1,0],[0]]","2","[[2,1,0],[3,0],[0]]","8","0","","","","","","6","",""
"","","","","","single-stim-button","301","613660","0.0-3.0-34.1-1.1","60872c9dcfad84bf2f332a4c","F1","batch6","","2559","","","tol_toboard","","","","","","","","","tol_peg_2","2559","2559","0","[[3,0,0],[1,2],[0]]","2","[[2,1,0],[3,0],[0]]","8","0","","","","","","6","",""
"","","","","","single-stim-button","302","614154","0.0-3.0-34.2-0.2","60872c9dcfad84bf2f332a4c","F1","batch6","","491","","","tol_tohand","","","","","","","","","tol_peg_1","491","491","0","[[0,0,0],[1,2],[0]]","3","[[2,1,0],[3,0],[0]]","8","0","","","","","","6","",""
"","","","","","single-stim-button","303","614887","0.0-3.0-34.2-1.2","60872c9dcfad84bf2f332a4c","F1","batch6","","731","","","tol_toboard","","","","","","","","","tol_peg_3","731","731","0","[[0,0,0],[1,2],[3]]","3","[[2,1,0],[3,0],[0]]","8","0","","","","","","6","",""
"","","","","","single-stim-button","304","615384","0.0-3.0-34.3-0.3","60872c9dcfad84bf2f332a4c","F1","batch6","","495","","","tol_tohand","","","","","","","","","tol_peg_2","495","495","0","[[0,0,0],[1,0],[3]]","4","[[2,1,0],[3,0],[0]]","8","0","","","","","","6","",""
"","","","","","single-stim-button","305","616056","0.0-3.0-34.3-1.3","60872c9dcfad84bf2f332a4c","F1","batch6","","668","","","tol_toboard","","","","","","","","","tol_peg_1","668","668","0","[[2,0,0],[1,0],[3]]","4","[[2,1,0],[3,0],[0]]","8","0","","","","","","6","",""
"","","","","","single-stim-button","306","616989","0.0-3.0-34.4-0.4","60872c9dcfad84bf2f332a4c","F1","batch6","","931","","","tol_tohand","","","","","","","","","tol_peg_2","931","931","0","[[2,0,0],[0,0],[3]]","5","[[2,1,0],[3,0],[0]]","8","0","","","","","","6","",""
"","","","","","single-stim-button","307","617493","0.0-3.0-34.4-1.4","60872c9dcfad84bf2f332a4c","F1","batch6","","503","","","tol_toboard","","","","","","","","","tol_peg_1","503","503","0","[[2,1,0],[0,0],[3]]","5","[[2,1,0],[3,0],[0]]","8","0","","","","","","6","",""
"","","","","","single-stim-button","308","618024","0.0-3.0-34.5-0.5","60872c9dcfad84bf2f332a4c","F1","batch6","","529","","","tol_tohand","","","","","","","","","tol_peg_3","529","529","0","[[2,1,0],[0,0],[0]]","6","[[2,1,0],[3,0],[0]]","8","0","","","","","","6","",""
"","","","","","single-stim-button","309","618631","0.0-3.0-34.5-1.5","60872c9dcfad84bf2f332a4c","F1","batch6","","605","","","tol_toboard","","","","","","","","","tol_peg_2","605","605","0","[[2,1,0],[3,0],[0]]","6","[[2,1,0],[3,0],[0]]","8","0","","","","","","6","",""
"","","","","","poldrack-single-stim","310","619636","0.0-3.0-35.0","60872c9dcfad84bf2f332a4c","F1","batch6","","-1","","","tol_feedback","true","","","","","","","","","1000","1000","500","","","","","","-1","none","true","7109","10145","","",""
"","","","","","html-button-response","311","620226","0.0-3.0-36.0","60872c9dcfad84bf2f332a4c","F1","batch6","","589","<div class = centerbox><p class = center-block-text>problem <strong>10</strong> out of 25 problems</p></div>","0","tol_trial_num","","","","","","","","","","","","","","","","","","","","","","","","",""
"","","","","","single-stim-button","312","625012","0.0-3.0-37.0-0.0","60872c9dcfad84bf2f332a4c","F1","batch6","","4784","","","tol_tohand","","","","","","","","","tol_peg_2","4784","4784","0","[[3,0,0],[0,0],[2]]","1","[[3,0,0],[2,1],[0]]","9","0","","","","","","3","",""
"","","","","","single-stim-button","313","625779","0.0-3.0-37.0-1.0","60872c9dcfad84bf2f332a4c","F1","batch6","","764","","","tol_toboard","","","","","","","","","tol_peg_1","764","764","0","[[3,1,0],[0,0],[2]]","1","[[3,0,0],[2,1],[0]]","9","0","","","","","","3","",""
"","","","","","single-stim-button","314","626293","0.0-3.0-37.1-0.1","60872c9dcfad84bf2f332a4c","F1","batch6","","512","","","tol_tohand","","","","","","","","","tol_peg_3","512","512","0","[[3,1,0],[0,0],[0]]","2","[[3,0,0],[2,1],[0]]","9","0","","","","","","3","",""
"","","","","","single-stim-button","315","626983","0.0-3.0-37.1-1.1","60872c9dcfad84bf2f332a4c","F1","batch6","","687","","","tol_toboard","","","","","","","","","tol_peg_2","687","687","0","[[3,1,0],[2,0],[0]]","2","[[3,0,0],[2,1],[0]]","9","0","","","","","","3","",""
"","","","","","single-stim-button","316","627496","0.0-3.0-37.2-0.2","60872c9dcfad84bf2f332a4c","F1","batch6","","512","","","tol_tohand","","","","","","","","","tol_peg_1","512","512","0","[[3,0,0],[2,0],[0]]","3","[[3,0,0],[2,1],[0]]","9","0","","","","","","3","",""
"","","","","","single-stim-button","317","628070","0.0-3.0-37.2-1.2","60872c9dcfad84bf2f332a4c","F1","batch6","","572","","","tol_toboard","","","","","","","","","tol_peg_2","572","572","0","[[3,0,0],[2,1],[0]]","3","[[3,0,0],[2,1],[0]]","9","0","","","","","","3","",""
"","","","","","poldrack-single-stim","318","629073","0.0-3.0-38.0","60872c9dcfad84bf2f332a4c","F1","batch6","","-1","","","tol_feedback","true","","","","","","","","","1000","1000","500","","","","","","-1","none","true","4784","5808","","",""
"","","","","","html-button-response","319","629960","0.0-3.0-39.0","60872c9dcfad84bf2f332a4c","F1","batch6","","885","<div class = centerbox><p class = center-block-text>problem <strong>11</strong> out of 25 problems</p></div>","0","tol_trial_num","","","","","","","","","","","","","","","","","","","","","","","","",""
"","","","","","single-stim-button","320","634246","0.0-3.0-40.0-0.0","60872c9dcfad84bf2f332a4c","F1","batch6","","4285","","","tol_tohand","","","","","","","","","tol_peg_2","4285","4285","0","[[1,2,0],[0,0],[0]]","1","[[2,0,0],[1,3],[0]]","10","0","","","","","","6","",""
"","","","","","single-stim-button","321","634890","0.0-3.0-40.0-1.0","60872c9dcfad84bf2f332a4c","F1","batch6","","643","","","tol_toboard","","","","","","","","","tol_peg_3","643","643","0","[[1,2,0],[0,0],[3]]","1","[[2,0,0],[1,3],[0]]","10","0","","","","","","6","",""
"","","","","","single-stim-button","322","640492","0.0-3.0-40.1-0.1","60872c9dcfad84bf2f332a4c","F1","batch6","","5600","","","tol_tohand","","","","","","","","","tol_peg_3","5600","5600","0","[[1,2,0],[0,0],[0]]","2","[[2,0,0],[1,3],[0]]","10","0","","","","","","6","",""
"","","","","","single-stim-button","323","641093","0.0-3.0-40.1-1.1","60872c9dcfad84bf2f332a4c","F1","batch6","","598","","","tol_toboard","","","","","","","","","tol_peg_2","598","598","0","[[1,2,0],[3,0],[0]]","2","[[2,0,0],[1,3],[0]]","10","0","","","","","","6","",""
"","","","","","single-stim-button","324","641579","0.0-3.0-40.2-0.2","60872c9dcfad84bf2f332a4c","F1","batch6","","484","","","tol_tohand","","","","","","","","","tol_peg_1","484","484","0","[[1,0,0],[3,0],[0]]","3","[[2,0,0],[1,3],[0]]","10","0","","","","","","6","",""
"","","","","","single-stim-button","325","642071","0.0-3.0-40.2-1.2","60872c9dcfad84bf2f332a4c","F1","batch6","","491","","","tol_toboard","","","","","","","","","tol_peg_2","491","491","0","[[1,0,0],[3,2],[0]]","3","[[2,0,0],[1,3],[0]]","10","0","","","","","","6","",""
"","","","","","single-stim-button","326","642522","0.0-3.0-40.3-0.3","60872c9dcfad84bf2f332a4c","F1","batch6","","448","","","tol_tohand","","","","","","","","","tol_peg_1","448","448","0","[[0,0,0],[3,2],[0]]","4","[[2,0,0],[1,3],[0]]","10","0","","","","","","6","",""
"","","","","","single-stim-button","327","643193","0.0-3.0-40.3-1.3","60872c9dcfad84bf2f332a4c","F1","batch6","","658","","","tol_toboard","","","","","","","","","tol_peg_3","658","658","0","[[0,0,0],[3,2],[1]]","4","[[2,0,0],[1,3],[0]]","10","0","","","","","","6","",""
"","","","","","single-stim-button","328","643864","0.0-3.0-40.4-0.4","60872c9dcfad84bf2f332a4c","F1","batch6","","667","","","tol_tohand","","","","","","","","","tol_peg_2","667","667","0","[[0,0,0],[3,0],[1]]","5","[[2,0,0],[1,3],[0]]","10","0","","","","","","6","",""
"","","","","","single-stim-button","329","644374","0.0-3.0-40.4-1.4","60872c9dcfad84bf2f332a4c","F1","batch6","","508","","","tol_toboard","","","","","","","","","tol_peg_1","508","508","0","[[2,0,0],[3,0],[1]]","5","[[2,0,0],[1,3],[0]]","10","0","","","","","","6","",""
"","","","","","single-stim-button","330","645709","0.0-3.0-40.5-0.5","60872c9dcfad84bf2f332a4c","F1","batch6","","1333","","","tol_tohand","","","","","","","","","tol_peg_2","1333","1333","0","[[2,0,0],[0,0],[1]]","6","[[2,0,0],[1,3],[0]]","10","0","","","","","","6","",""
"","","","","","single-stim-button","331","646669","0.0-3.0-40.5-1.5","60872c9dcfad84bf2f332a4c","F1","batch6","","958","","","tol_toboard","","","","","","","","","tol_peg_1","958","958","0","[[2,3,0],[0,0],[1]]","6","[[2,0,0],[1,3],[0]]","10","0","","","","","","6","",""
"","","","","","single-stim-button","332","647228","0.0-3.0-40.6-0.6","60872c9dcfad84bf2f332a4c","F1","batch6","","557","","","tol_tohand","","","","","","","","","tol_peg_3","557","557","0","[[2,3,0],[0,0],[0]]","7","[[2,0,0],[1,3],[0]]","10","0","","","","","","6","",""
"","","","","","single-stim-button","333","647713","0.0-3.0-40.6-1.6","60872c9dcfad84bf2f332a4c","F1","batch6","","483","","","tol_toboard","","","","","","","","","tol_peg_2","483","483","0","[[2,3,0],[1,0],[0]]","7","[[2,0,0],[1,3],[0]]","10","0","","","","","","6","",""
"","","","","","single-stim-button","334","648249","0.0-3.0-40.7-0.7","60872c9dcfad84bf2f332a4c","F1","batch6","","534","","","tol_tohand","","","","","","","","","tol_peg_1","534","534","0","[[2,0,0],[1,0],[0]]","8","[[2,0,0],[1,3],[0]]","10","0","","","","","","6","",""
"","","","","","single-stim-button","335","648746","0.0-3.0-40.7-1.7","60872c9dcfad84bf2f332a4c","F1","batch6","","493","","","tol_toboard","","","","","","","","","tol_peg_2","493","493","0","[[2,0,0],[1,3],[0]]","8","[[2,0,0],[1,3],[0]]","10","0","","","","","","6","",""
"","","","","","poldrack-single-stim","336","649750","0.0-3.0-41.0","60872c9dcfad84bf2f332a4c","F1","batch6","","-1","","","tol_feedback","true","","","","","","","","","1000","1000","500","","","","","","-1","none","true","4285","13908","","",""
"","","","","","html-button-response","337","650654","0.0-3.0-42.0","60872c9dcfad84bf2f332a4c","F1","batch6","","902","<div class = centerbox><p class = center-block-text>problem <strong>12</strong> out of 25 problems</p></div>","0","tol_trial_num","","","","","","","","","","","","","","","","","","","","","","","","",""
"","","","","","single-stim-button","338","652455","0.0-3.0-43.0-0.0","60872c9dcfad84bf2f332a4c","F1","batch6","","1798","","","tol_tohand","","","","","","","","","tol_peg_1","1798","1798","0","[[1,0,0],[3,0],[0]]","1","[[2,3,0],[0,0],[1]]","11","0","","","","","","4","",""
"","","","","","single-stim-button","339","653028","0.0-3.0-43.0-1.0","60872c9dcfad84bf2f332a4c","F1","batch6","","571","","","tol_toboard","","","","","","","","","tol_peg_2","571","571","0","[[1,0,0],[3,2],[0]]","1","[[2,3,0],[0,0],[1]]","11","0","","","","","","4","",""
"","","","","","single-stim-button","340","653477","0.0-3.0-43.1-0.1","60872c9dcfad84bf2f332a4c","F1","batch6","","448","","","tol_tohand","","","","","","","","","tol_peg_1","448","448","0","[[0,0,0],[3,2],[0]]","2","[[2,3,0],[0,0],[1]]","11","0","","","","","","4","",""
"","","","","","single-stim-button","341","654138","0.0-3.0-43.1-1.1","60872c9dcfad84bf2f332a4c","F1","batch6","","659","","","tol_toboard","","","","","","","","","tol_peg_3","659","659","0","[[0,0,0],[3,2],[1]]","2","[[2,3,0],[0,0],[1]]","11","0","","","","","","4","",""
"","","","","","single-stim-button","342","655931","0.0-3.0-43.2-0.2","60872c9dcfad84bf2f332a4c","F1","batch6","","1789","","","tol_tohand","","","","","","","","","tol_peg_2","1789","1789","0","[[0,0,0],[3,0],[1]]","3","[[2,3,0],[0,0],[1]]","11","0","","","","","","4","",""
"","","","","","single-stim-button","343","656497","0.0-3.0-43.2-1.2","60872c9dcfad84bf2f332a4c","F1","batch6","","565","","","tol_toboard","","","","","","","","","tol_peg_1","565","565","0","[[2,0,0],[3,0],[1]]","3","[[2,3,0],[0,0],[1]]","11","0","","","","","","4","",""
"","","","","","single-stim-button","344","657010","0.0-3.0-43.3-0.3","60872c9dcfad84bf2f332a4c","F1","batch6","","512","","","tol_tohand","","","","","","","","","tol_peg_2","512","512","0","[[2,0,0],[0,0],[1]]","4","[[2,3,0],[0,0],[1]]","11","0","","","","","","4","",""
"","","","","","single-stim-button","345","657465","0.0-3.0-43.3-1.3","60872c9dcfad84bf2f332a4c","F1","batch6","","453","","","tol_toboard","","","","","","","","","tol_peg_1","453","453","0","[[2,3,0],[0,0],[1]]","4","[[2,3,0],[0,0],[1]]","11","0","","","","","","4","",""
"","","","","","poldrack-single-stim","346","658469","0.0-3.0-44.0","60872c9dcfad84bf2f332a4c","F1","batch6","","-1","","","tol_feedback","true","","","","","","","","","1000","1000","500","","","","","","-1","none","true","1798","4547","","",""
"","","","","","html-button-response","347","659237","0.0-3.0-45.0","60872c9dcfad84bf2f332a4c","F1","batch6","","766","<div class = centerbox><p class = center-block-text>problem <strong>13</strong> out of 25 problems</p></div>","0","tol_trial_num","","","","","","","","","","","","","","","","","","","","","","","","",""
"","","","","","single-stim-button","348","665244","0.0-3.0-46.0-0.0","60872c9dcfad84bf2f332a4c","F1","batch6","","6006","","","tol_tohand","","","","","","","","","tol_peg_2","6006","6006","0","[[1,2,0],[0,0],[0]]","1","[[0,0,0],[2,3],[1]]","12","0","","","","","","4","",""
"","","","","","single-stim-button","349","665763","0.0-3.0-46.0-1.0","60872c9dcfad84bf2f332a4c","F1","batch6","","516","","","tol_toboard","","","","","","","","","tol_peg_3","516","516","0","[[1,2,0],[0,0],[3]]","1","[[0,0,0],[2,3],[1]]","12","0","","","","","","4","",""
"","","","","","single-stim-button","350","666742","0.0-3.0-46.1-0.1","60872c9dcfad84bf2f332a4c","F1","batch6","","978","","","tol_tohand","","","","","","","","","tol_peg_1","978","978","0","[[1,0,0],[0,0],[3]]","2","[[0,0,0],[2,3],[1]]","12","0","","","","","","4","",""
"","","","","","single-stim-button","351","667401","0.0-3.0-46.1-1.1","60872c9dcfad84bf2f332a4c","F1","batch6","","658","","","tol_toboard","","","","","","","","","tol_peg_2","658","658","0","[[1,0,0],[2,0],[3]]","2","[[0,0,0],[2,3],[1]]","12","0","","","","","","4","",""
"","","","","","single-stim-button","352","667887","0.0-3.0-46.2-0.2","60872c9dcfad84bf2f332a4c","F1","batch6","","483","","","tol_tohand","","","","","","","","","tol_peg_1","483","483","0","[[0,0,0],[2,0],[3]]","3","[[0,0,0],[2,3],[1]]","12","0","","","","","","4","",""
"","","","","","single-stim-button","353","668438","0.0-3.0-46.2-1.2","60872c9dcfad84bf2f332a4c","F1","batch6","","541","","","tol_toboard","","","","","","","","","tol_peg_2","541","541","0","[[0,0,0],[2,1],[3]]","3","[[0,0,0],[2,3],[1]]","12","0","","","","","","4","",""
