"success","timeout","failed_images","failed_audio","failed_video","trial_type","trial_index","time_elapsed","internal_node_id","subject_id","study_id","session_id","view_history","rt","stimulus","response","task","correct","answer","item","fiar_detect_rt","fiar_detect_correct","total_correct_fiar_detect","post_trial_gap","choices","spm_correct","spm_rt","mouse_click","stim_duration","block_duration","timing_post_trial","current_position","tol_num_moves_made","tol_target","tol_problem_id","tol_rt","key_press","possible_responses","tol_correct","preplanning","tol_rt_per_trial","tol_min_moves"
"true","false","[]","[]","[]","preload","0","1806","0.0-0.0","608d935efcfcd5d73e157adf","A3","batch1","","","","","","","","","","","","","","","","","","","","","","","","","","","","","",""
"true","","","","","fullscreen","1","8406","0.0-1.0-0.0","608d935efcfcd5d73e157adf","A3","batch1","","","","","","","","","","","","","","","","","","","","","","","","","","","","","",""
"true","","","","","fullscreen","2","11296","0.0-2.0-0.0","608d935efcfcd5d73e157adf","A3","batch1","","","","","","","","","","","","","","","","","","","","","","","","","","","","","",""
"","","","","","instructions","3","52855","0.0-2.0-1.0-0.0","608d935efcfcd5d73e157adf","A3","batch1","[{""page_index"":0,""viewing_time"":36756.80000001192},{""page_index"":1,""viewing_time"":4800}]","41557.40000003576","","","","","","","","","","","","","","","","","","","","","","","","","","","",""
"","","","","","html-button-response","4","53951","0.0-2.0-1.0-1.0-0.0","608d935efcfcd5d73e157adf","A3","batch1","","1094.4000000357628","<p class=block-text> Let's answer a few questions <br>","0","pattern_enter_quiz","","","","","","","","","","","","","","","","","","","","","","","","",""
"","","","","","html-button-response","5","55887","0.0-2.0-1.0-1.0-1.0","608d935efcfcd5d73e157adf","A3","batch1","","1934","<p class = block-text>True or False: You will have as much time as you want to make each choice. <br></p>","1","pattern_quiz","true","","","","","","","","","","","","","","","","","","","","","","","",""
"","","","","","html-button-response","6","56878","0.0-2.0-1.0-1.0-2.0","608d935efcfcd5d73e157adf","A3","batch1","","989.9000000357628","<p class = block-text>Correct! You should make your choice <strong> as fast as you can</strong>.</p>","0","pattern_quiz_feedback","","","","","","","","","","","","","","","","","","","","","","","","",""
"","","","","","html-button-response","7","59615","0.0-2.0-1.0-1.0-3.0","608d935efcfcd5d73e157adf","A3","batch1","","2735","<p class = block-text>True or False: You will look for 4 pieces in black or white color connected in a row either horizontally, vertically or diagonally. <br></p>","0","pattern_quiz","true","","","","","","","","","","","","","","","","","","","","","","","",""
"","","","","","html-button-response","8","60456","0.0-2.0-1.0-1.0-4.0","608d935efcfcd5d73e157adf","A3","batch1","","838.6000000238419","<p class = block-text>Correct! </p>","0","pattern_quiz_feedback","","","","","","","","","","","","","","","","","","","","","","","","",""
"","","","","","html-button-response","9","61855","0.0-2.0-2.0","608d935efcfcd5d73e157adf","A3","batch1","","1397.0999999642372","<p class=block-text> Now that you've understood the game, let's do a few practice trials before we start!<br> <br>","0","pattern_enter_practice","","","","","","","","","","","","","","","","","","","","","","","","",""
"","","","","","image-keyboard-response","10","63847","0.0-2.0-3.0-0.0","608d935efcfcd5d73e157adf","A3","batch1","","1971.300000011921","stim/prac_no_18_1.png","j","pattern_practice","true","j","","","","","","","","","","","","","","","","","","","","","","",""
"","","","","","html-keyboard-response","11","64865","0.0-2.0-3.0-1.0","608d935efcfcd5d73e157adf","A3","batch1","","null","<p style=""font-size:30px;color:green;"">Correct!</p>","null","pattern_feedback","","","","","","","","","","","","","","","","","","","","","","","","",""
"","","","","","image-keyboard-response","12","66287","0.0-2.0-3.0-0.1","608d935efcfcd5d73e157adf","A3","batch1","","1420.1000000238419","stim/prac_yes_20_dia_b1.png","f","pattern_practice","true","f","","","","","","","","","","","","","","","","","","","","","","",""
"","","","","","html-keyboard-response","13","67304","0.0-2.0-3.0-1.1","608d935efcfcd5d73e157adf","A3","batch1","","null","<p style=""font-size:30px;color:green;"">Correct!</p>","null","pattern_feedback","","","","","","","","","","","","","","","","","","","","","","","","",""
"","","","","","image-keyboard-response","14","68415","0.0-2.0-3.0-0.2","608d935efcfcd5d73e157adf","A3","batch1","","1108.1000000238419","stim/prac_no_16_1.png","j","pattern_practice","true","j","","","","","","","","","","","","","","","","","","","","","","",""
"","","","","","html-keyboard-response","15","69433","0.0-2.0-3.0-1.2","608d935efcfcd5d73e157adf","A3","batch1","","null","<p style=""font-size:30px;color:green;"">Correct!</p>","null","pattern_feedback","","","","","","","","","","","","","","","","","","","","","","","","",""
"","","","","","image-keyboard-response","16","70136","0.0-2.0-3.0-0.3","608d935efcfcd5d73e157adf","A3","batch1","","701.5999999642372","stim/prac_yes_16_ver_w1.png","f","pattern_practice","true","f","","","","","","","","","","","","","","","","","","","","","","",""
"","","","","","html-keyboard-response","17","71151","0.0-2.0-3.0-1.3","608d935efcfcd5d73e157adf","A3","batch1","","null","<p style=""font-size:30px;color:green;"">Correct!</p>","null","pattern_feedback","","","","","","","","","","","","","","","","","","","","","","","","",""
"","","","","","image-keyboard-response","18","72759","0.0-2.0-3.0-0.4","608d935efcfcd5d73e157adf","A3","batch1","","1606.1000000238419","stim/prac_yes_18_hor_w1.png","f","pattern_practice","true","f","","","","","","","","","","","","","","","","","","","","","","",""
"","","","","","html-keyboard-response","19","73784","0.0-2.0-3.0-1.4","608d935efcfcd5d73e157adf","A3","batch1","","null","<p style=""font-size:30px;color:green;"">Correct!</p>","null","pattern_feedback","","","","","","","","","","","","","","","","","","","","","","","","",""
"","","","","","html-button-response","20","76649","0.0-2.0-4.0","608d935efcfcd5d73e157adf","A3","batch1","","2861.900000035763","<p class=block-text> Good job! You are done with practice trials!<br>
        You responded correctly on 100% of the trials.<br>
        Press the button below to start official trials. Now you won't see any feedback about your response</p>","0","pattern_enter_official_trials","","","","","","","","","","","","","","","","","","","","","","","","",""
"","","","","","html-keyboard-response","21","77452","0.0-2.0-5.0-0.0","608d935efcfcd5d73e157adf","A3","batch1","","null","<p class=block-text>Trial 1 out of 78</p>","null","pattern_show_trial_num","","","","","","","","","","","","","","","","","","","","","","","","",""
"","","","","","image-keyboard-response","22","81936","0.0-2.0-5.0-1.0","608d935efcfcd5d73e157adf","A3","batch1","","4481.699999988079","stim/no_58_1_w.png","j","pattern_response","true","j","pattern_35","4481.699999988079","true","1","","","","","","","","","","","","","","","","","","",""
"","","","","","html-keyboard-response","23","83243","0.0-2.0-5.0-0.1","608d935efcfcd5d73e157adf","A3","batch1","","null","<p class=block-text>Trial 2 out of 78</p>","null","pattern_show_trial_num","","","","","","","","","","","","","","","","","","","","","","","","",""
"","","","","","image-keyboard-response","24","87207","0.0-2.0-5.0-1.1","608d935efcfcd5d73e157adf","A3","batch1","","3961.800000011921","stim/no_53_1_b.png","j","pattern_response","true","j","pattern_33","3961.800000011921","true","2","","","","","","","","","","","","","","","","","","",""
"","","","","","html-keyboard-response","25","88512","0.0-2.0-5.0-0.2","608d935efcfcd5d73e157adf","A3","batch1","","null","<p class=block-text>Trial 3 out of 78</p>","null","pattern_show_trial_num","","","","","","","","","","","","","","","","","","","","","","","","",""
"","","","","","image-keyboard-response","26","89272","0.0-2.0-5.0-1.2","608d935efcfcd5d73e157adf","A3","batch1","","756.1000000238419","stim/yes_70_ver_b1.png","f","pattern_response","true","f","pattern_80","756.1000000238419","true","3","","","","","","","","","","","","","","","","","","",""
"","","","","","html-keyboard-response","27","90579","0.0-2.0-5.0-0.3","608d935efcfcd5d73e157adf","A3","batch1","","null","<p class=block-text>Trial 4 out of 78</p>","null","pattern_show_trial_num","","","","","","","","","","","","","","","","","","","","","","","","",""
"","","","","","image-keyboard-response","28","91783","0.0-2.0-5.0-1.3","608d935efcfcd5d73e157adf","A3","batch1","","1201.800000011921","stim/yes_53_ver_b1_b.png","f","pattern_response","true","f","pattern_74","1201.800000011921","true","4","","","","","","","","","","","","","","","","","","",""
"","","","","","html-keyboard-response","29","93157","0.0-2.0-5.0-0.4","608d935efcfcd5d73e157adf","A3","batch1","","null","<p class=block-text>Trial 5 out of 78</p>","null","pattern_show_trial_num","","","","","","","","","","","","","","","","","","","","","","","","",""
"","","","","","image-keyboard-response","30","94929","0.0-2.0-5.0-1.4","608d935efcfcd5d73e157adf","A3","batch1","","1769.3999999761581","stim/no_33_1_b.png","j","pattern_response","true","j","pattern_15","1769.3999999761581","true","5","","","","","","","","","","","","","","","","","","",""
"","","","","","html-keyboard-response","31","96250","0.0-2.0-5.0-0.5","608d935efcfcd5d73e157adf","A3","batch1","","null","<p class=block-text>Trial 6 out of 78</p>","null","pattern_show_trial_num","","","","","","","","","","","","","","","","","","","","","","","","",""
"","","","","","image-keyboard-response","32","97512","0.0-2.0-5.0-1.5","608d935efcfcd5d73e157adf","A3","batch1","","1259.5","stim/no_30_1_b.png","j","pattern_response","true","j","pattern_13","1259.5","true","6","","","","","","","","","","","","","","","","","","",""
"","","","","","html-keyboard-response","33","98830","0.0-2.0-5.0-0.6","608d935efcfcd5d73e157adf","A3","batch1","","null","<p class=block-text>Trial 7 out of 78</p>","null","pattern_show_trial_num","","","","","","","","","","","","","","","","","","","","","","","","",""
"","","","","","image-keyboard-response","34","99808","0.0-2.0-5.0-1.6","608d935efcfcd5d73e157adf","A3","batch1","","974.8999999761581","stim/no_36_1_b.png","f","pattern_response","false","j","pattern_17","974.8999999761581","false","6","","","","","","","","","","","","","","","","","","",""
"","","","","","html-keyboard-response","35","101141","0.0-2.0-5.0-0.7","608d935efcfcd5d73e157adf","A3","batch1","","null","<p class=block-text>Trial 8 out of 78</p>","null","pattern_show_trial_num","","","","","","","","","","","","","","","","","","","","","","","","",""
"","","","","","image-keyboard-response","36","102512","0.0-2.0-5.0-1.7","608d935efcfcd5d73e157adf","A3","batch1","","1368.5","stim/yes_23_ver_b1.png","f","pattern_response","true","f","pattern_48","1368.5","true","7","","","","","","","","","","","","","","","","","","",""
"","","","","","html-keyboard-response","37","103823","0.0-2.0-5.0-0.8","608d935efcfcd5d73e157adf","A3","batch1","","null","<p class=block-text>Trial 9 out of 78</p>","null","pattern_show_trial_num","","","","","","","","","","","","","","","","","","","","","","","","",""
"","","","","","image-keyboard-response","38","104576","0.0-2.0-5.0-1.8","608d935efcfcd5d73e157adf","A3","batch1","","750.5","stim/yes_29_hor_b1_b.png","f","pattern_response","true","f","pattern_52","750.5","true","8","","","","","","","","","","","","","","","","","","",""
"","","","","","html-keyboard-response","39","105895","0.0-2.0-5.0-0.9","608d935efcfcd5d73e157adf","A3","batch1","","null","<p class=block-text>Trial 10 out of 78</p>","null","pattern_show_trial_num","","","","","","","","","","","","","","","","","","","","","","","","",""
"","","","","","image-keyboard-response","40","107649","0.0-2.0-5.0-1.9","608d935efcfcd5d73e157adf","A3","batch1","","1752.5","stim/yes_51_dia_b1.png","f","pattern_response","true","f","pattern_72","1752.5","true","9","","","","","","","","","","","","","","","","","","",""
"","","","","","html-keyboard-response","41","108959","0.0-2.0-5.0-0.10","608d935efcfcd5d73e157adf","A3","batch1","","null","<p class=block-text>Trial 11 out of 78</p>","null","pattern_show_trial_num","","","","","","","","","","","","","","","","","","","","","","","","",""
"","","","","","image-keyboard-response","42","110256","0.0-2.0-5.0-1.10","608d935efcfcd5d73e157adf","A3","batch1","","1295.3999999761581","stim/no_28_2.png","j","pattern_response","true","j","pattern_11","1295.3999999761581","true","10","","","","","","","","","","","","","","","","","","",""
"","","","","","html-keyboard-response","43","111572","0.0-2.0-5.0-0.11","608d935efcfcd5d73e157adf","A3","batch1","","null","<p class=block-text>Trial 12 out of 78</p>","null","pattern_show_trial_num","","","","","","","","","","","","","","","","","","","","","","","","",""
"","","","","","image-keyboard-response","44","112544","0.0-2.0-5.0-1.11","608d935efcfcd5d73e157adf","A3","batch1","","969.7000000476837","stim/yes_39_hor_w1_w.png","f","pattern_response","true","f","pattern_62","969.7000000476837","true","11","","","","","","","","","","","","","","","","","","",""
"","","","","","html-keyboard-response","45","113870","0.0-2.0-5.0-0.12","608d935efcfcd5d73e157adf","A3","batch1","","null","<p class=block-text>Trial 13 out of 78</p>","null","pattern_show_trial_num","","","","","","","","","","","","","","","","","","","","","","","","",""
"","","","","","image-keyboard-response","46","115400","0.0-2.0-5.0-1.12","608d935efcfcd5d73e157adf","A3","batch1","","1527.0999999642372","stim/yes_49_hor_w1_b.png","f","pattern_response","true","f","pattern_70","1527.0999999642372","true","12","","","","","","","","","","","","","","","","","","",""
"","","","","","html-keyboard-response","47","116718","0.0-2.0-5.0-0.13","608d935efcfcd5d73e157adf","A3","batch1","","null","<p class=block-text>Trial 14 out of 78</p>","null","pattern_show_trial_num","","","","","","","","","","","","","","","","","","","","","","","","",""
"","","","","","image-keyboard-response","48","117424","0.0-2.0-5.0-1.13","608d935efcfcd5d73e157adf","A3","batch1","","704.5","stim/yes_17_ver_b1_b.png","j","pattern_response","false","f","pattern_46","704.5","false","12","","","","","","","","","","","","","","","","","","",""
"","","","","","html-keyboard-response","49","118741","0.0-2.0-5.0-0.14","608d935efcfcd5d73e157adf","A3","batch1","","null","<p class=block-text>Trial 15 out of 78</p>","null","pattern_show_trial_num","","","","","","","","","","","","","","","","","","","","","","","","",""
"","","","","","image-keyboard-response","50","120323","0.0-2.0-5.0-1.14","608d935efcfcd5d73e157adf","A3","batch1","","1585.8999999761581","stim/no_67_1.png","j","pattern_response","true","j","pattern_39","1585.8999999761581","true","13","","","","","","","","","","","","","","","","","","",""
"","","","","","html-keyboard-response","51","121634","0.0-2.0-5.0-0.15","608d935efcfcd5d73e157adf","A3","batch1","","null","<p class=block-text>Trial 16 out of 78</p>","null","pattern_show_trial_num","","","","","","","","","","","","","","","","","","","","","","","","",""
"","","","","","image-keyboard-response","52","123714","0.0-2.0-5.0-1.15","608d935efcfcd5d73e157adf","A3","batch1","","2077.899999976158","stim/yes_42_dia_w1_w.png","j","pattern_response","false","f","pattern_64","2077.899999976158","false","13","","","","","","","","","","","","","","","","","","",""
"","","","","","html-keyboard-response","53","125037","0.0-2.0-5.0-0.16","608d935efcfcd5d73e157adf","A3","batch1","","null","<p class=block-text>Trial 17 out of 78</p>","null","pattern_show_trial_num","","","","","","","","","","","","","","","","","","","","","","","","",""
"","","","","","image-keyboard-response","54","126210","0.0-2.0-5.0-1.16","608d935efcfcd5d73e157adf","A3","batch1","","1170.800000011921","stim/yes_37_hor_w1_w.png","f","pattern_response","true","f","pattern_60","1170.800000011921","true","14","","","","","","","","","","","","","","","","","","",""
"","","","","","html-keyboard-response","55","127535","0.0-2.0-5.0-0.17","608d935efcfcd5d73e157adf","A3","batch1","","null","<p class=block-text>Trial 18 out of 78</p>","null","pattern_show_trial_num","","","","","","","","","","","","","","","","","","","","","","","","",""
"","","","","","image-keyboard-response","56","129426","0.0-2.0-5.0-1.17","608d935efcfcd5d73e157adf","A3","batch1","","1889.3999999761581","stim/yes_58_dia_w1_w.png","j","pattern_response","false","f","pattern_76","1889.3999999761581","false","14","","","","","","","","","","","","","","","","","","",""
"","","","","","html-keyboard-response","57","130730","0.0-2.0-5.0-0.18","608d935efcfcd5d73e157adf","A3","batch1","","null","<p class=block-text>Trial 19 out of 78</p>","null","pattern_show_trial_num","","","","","","","","","","","","","","","","","","","","","","","","",""
"","","","","","image-keyboard-response","58","132116","0.0-2.0-5.0-1.18","608d935efcfcd5d73e157adf","A3","batch1","","1383.6000000238419","stim/no_49_2_b.png","j","pattern_response","true","j","pattern_29","1383.6000000238419","true","15","","","","","","","","","","","","","","","","","","",""
"","","","","","html-keyboard-response","59","133428","0.0-2.0-5.0-0.19","608d935efcfcd5d73e157adf","A3","batch1","","null","<p class=block-text>Trial 20 out of 78</p>","null","pattern_show_trial_num","","","","","","","","","","","","","","","","","","","","","","","","",""
"","","","","","image-keyboard-response","60","134403","0.0-2.0-5.0-1.19","608d935efcfcd5d73e157adf","A3","batch1","","972.5","stim/yes_15_dia_b1u_b.png","f","pattern_response","true","f","pattern_44","972.5","true","16","","","","","","","","","","","","","","","","","","",""
"","","","","","html-keyboard-response","61","135725","0.0-2.0-5.0-0.20","608d935efcfcd5d73e157adf","A3","batch1","","null","<p class=block-text>Trial 21 out of 78</p>","null","pattern_show_trial_num","","","","","","","","","","","","","","","","","","","","","","","","",""
"","","","","","image-keyboard-response","62","137219","0.0-2.0-5.0-1.20","608d935efcfcd5d73e157adf","A3","batch1","","1491.699999988079","stim/yes_30_ver_b1_b.png","f","pattern_response","true","f","pattern_54","1491.699999988079","true","17","","","","","","","","","","","","","","","","","","",""
"","","","","","html-keyboard-response","63","138543","0.0-2.0-5.0-0.21","608d935efcfcd5d73e157adf","A3","batch1","","null","<p class=block-text>Trial 22 out of 78</p>","null","pattern_show_trial_num","","","","","","","","","","","","","","","","","","","","","","","","",""
"","","","","","image-keyboard-response","64","139707","0.0-2.0-5.0-1.21","608d935efcfcd5d73e157adf","A3","batch1","","1161.5999999642372","stim/no_18_1_b.png","j","pattern_response","true","j","pattern_05","1161.5999999642372","true","18","","","","","","","","","","","","","","","","","","",""
"","","","","","html-keyboard-response","65","141023","0.0-2.0-5.0-0.22","608d935efcfcd5d73e157adf","A3","batch1","","null","<p class=block-text>Trial 23 out of 78</p>","null","pattern_show_trial_num","","","","","","","","","","","","","","","","","","","","","","","","",""
"","","","","","image-keyboard-response","66","142107","0.0-2.0-5.0-1.22","608d935efcfcd5d73e157adf","A3","batch1","","1082.5","stim/no_51_1.png","j","pattern_response","true","j","pattern_31","1082.5","true","19","","","","","","","","","","","","","","","","","","",""
"","","","","","html-keyboard-response","67","143436","0.0-2.0-5.0-0.23","608d935efcfcd5d73e157adf","A3","batch1","","null","<p class=block-text>Trial 24 out of 78</p>","null","pattern_show_trial_num","","","","","","","","","","","","","","","","","","","","","","","","",""
"","","","","","image-keyboard-response","68","144852","0.0-2.0-5.0-1.23","608d935efcfcd5d73e157adf","A3","batch1","","1414.199999988079","stim/no_47_1_b.png","j","pattern_response","true","j","pattern_27","1414.199999988079","true","20","","","","","","","","","","","","","","","","","","",""
"","","","","","html-keyboard-response","69","146167","0.0-2.0-5.0-0.24","608d935efcfcd5d73e157adf","A3","batch1","","null","<p class=block-text>Trial 25 out of 78</p>","null","pattern_show_trial_num","","","","","","","","","","","","","","","","","","","","","","","","",""
"","","","","","image-keyboard-response","70","146875","0.0-2.0-5.0-1.24","608d935efcfcd5d73e157adf","A3","batch1","","705.2000000476837","stim/yes_36_ver_w1_w.png","f","pattern_response","true","f","pattern_58","705.2000000476837","true","21","","","","","","","","","","","","","","","","","","",""
"","","","","","html-keyboard-response","71","148200","0.0-2.0-5.0-0.25","608d935efcfcd5d73e157adf","A3","batch1","","null","<p class=block-text>Trial 26 out of 78</p>","null","pattern_show_trial_num","","","","","","","","","","","","","","","","","","","","","","","","",""
"","","","","","image-keyboard-response","72","149091","0.0-2.0-5.0-1.25","608d935efcfcd5d73e157adf","A3","batch1","","888.8000000119209","stim/no_37_2_w.png","j","pattern_response","true","j","pattern_19","888.8000000119209","true","22","","","","","","","","","","","","","","","","","","",""
"","","","","","html-keyboard-response","73","150425","0.0-2.0-5.0-0.26","608d935efcfcd5d73e157adf","A3","batch1","","null","<p class=block-text>Trial 27 out of 78</p>","null","pattern_show_trial_num","","","","","","","","","","","","","","","","","","","","","","","","",""
"","","","","","image-keyboard-response","74","151523","0.0-2.0-5.0-1.26","608d935efcfcd5d73e157adf","A3","batch1","","1096","stim/no_39_1_w.png","j","pattern_response","true","j","pattern_21","1096","true","23","","","","","","","","","","","","","","","","","","",""
"","","","","","html-keyboard-response","75","152849","0.0-2.0-5.0-0.27","608d935efcfcd5d73e157adf","A3","batch1","","null","<p class=block-text>Trial 28 out of 78</p>","null","pattern_show_trial_num","","","","","","","","","","","","","","","","","","","","","","","","",""
"","","","","","image-keyboard-response","76","154084","0.0-2.0-5.0-1.27","608d935efcfcd5d73e157adf","A3","batch1","","1232.4000000357628","stim/no_25_1_b.png","j","pattern_response","true","j","pattern_09","1232.4000000357628","true","24","","","","","","","","","","","","","","","","","","",""
"","","","","","html-keyboard-response","77","155403","0.0-2.0-5.0-0.28","608d935efcfcd5d73e157adf","A3","batch1","","null","<p class=block-text>Trial 29 out of 78</p>","null","pattern_show_trial_num","","","","","","","","","","","","","","","","","","","","","","","","",""
"","","","","","image-keyboard-response","78","156876","0.0-2.0-5.0-1.28","608d935efcfcd5d73e157adf","A3","batch1","","1471.3999999761581","stim/no_45_1_w.png","j","pattern_response","true","j","pattern_25","1471.3999999761581","true","25","","","","","","","","","","","","","","","","","","",""
"","","","","","html-keyboard-response","79","158187","0.0-2.0-5.0-0.29","608d935efcfcd5d73e157adf","A3","batch1","","null","<p class=block-text>Trial 30 out of 78</p>","null","pattern_show_trial_num","","","","","","","","","","","","","","","","","","","","","","","","",""
"","","","","","image-keyboard-response","80","159019","0.0-2.0-5.0-1.29","608d935efcfcd5d73e157adf","A3","batch1","","830.3999999761581","stim/no_15_1_w.png","j","pattern_response","true","j","pattern_03","830.3999999761581","true","26","","","","","","","","","","","","","","","","","","",""
"","","","","","html-keyboard-response","81","160344","0.0-2.0-5.0-0.30","608d935efcfcd5d73e157adf","A3","batch1","","null","<p class=block-text>Trial 31 out of 78</p>","null","pattern_show_trial_num","","","","","","","","","","","","","","","","","","","","","","","","",""
"","","","","","image-keyboard-response","82","161716","0.0-2.0-5.0-1.30","608d935efcfcd5d73e157adf","A3","batch1","","1369.6000000238419","stim/no_43_2_b.png","j","pattern_response","true","j","pattern_23","1369.6000000238419","true","27","","","","","","","","","","","","","","","","","","",""
"","","","","","html-keyboard-response","83","163073","0.0-2.0-5.0-0.31","608d935efcfcd5d73e157adf","A3","batch1","","null","<p class=block-text>Trial 32 out of 78</p>","null","pattern_show_trial_num","","","","","","","","","","","","","","","","","","","","","","","","",""
"","","","","","image-keyboard-response","84","164323","0.0-2.0-5.0-1.31","608d935efcfcd5d73e157adf","A3","batch1","","1248.3999999761581","stim/no_22_1_b.png","j","pattern_response","true","j","pattern_07","1248.3999999761581","true","28","","","","","","","","","","","","","","","","","","",""
"","","","","","html-keyboard-response","85","165639","0.0-2.0-5.0-0.32","608d935efcfcd5d73e157adf","A3","batch1","","null","<p class=block-text>Trial 33 out of 78</p>","null","pattern_show_trial_num","","","","","","","","","","","","","","","","","","","","","","","","",""
"","","","","","image-keyboard-response","86","166957","0.0-2.0-5.0-1.32","608d935efcfcd5d73e157adf","A3","batch1","","1316.300000011921","stim/yes_26_dia_w2_w.png","f","pattern_response","true","f","pattern_50","1316.300000011921","true","29","","","","","","","","","","","","","","","","","","",""
"","","","","","html-keyboard-response","87","168280","0.0-2.0-5.0-0.33","608d935efcfcd5d73e157adf","A3","batch1","","null","<p class=block-text>Trial 34 out of 78</p>","null","pattern_show_trial_num","","","","","","","","","","","","","","","","","","","","","","","","",""
"","","","","","image-keyboard-response","88","169155","0.0-2.0-5.0-1.33","608d935efcfcd5d73e157adf","A3","batch1","","872.8999999761581","stim/yes_46_ver_b1_b.png","f","pattern_response","true","f","pattern_68","872.8999999761581","true","30","","","","","","","","","","","","","","","","","","",""
"","","","","","html-keyboard-response","89","170487","0.0-2.0-5.0-0.34","608d935efcfcd5d73e157adf","A3","batch1","","null","<p class=block-text>Trial 35 out of 78</p>","null","pattern_show_trial_num","","","","","","","","","","","","","","","","","","","","","","","","",""
"","","","","","image-keyboard-response","90","171380","0.0-2.0-5.0-1.34","608d935efcfcd5d73e157adf","A3","batch1","","890.8000000119209","stim/no_12_1.png","j","pattern_response","true","j","pattern_01","890.8000000119209","true","31","","","","","","","","","","","","","","","","","","",""
"","","","","","html-keyboard-response","91","172707","0.0-2.0-5.0-0.35","608d935efcfcd5d73e157adf","A3","batch1","","null","<p class=block-text>Trial 36 out of 78</p>","null","pattern_show_trial_num","","","","","","","","","","","","","","","","","","","","","","","","",""
"","","","","","image-keyboard-response","92","173524","0.0-2.0-5.0-1.35","608d935efcfcd5d73e157adf","A3","batch1","","815","stim/yes_12_hor_w1_w.png","f","pattern_response","true","f","pattern_42","815","true","32","","","","","","","","","","","","","","","","","","",""
"","","","","","html-keyboard-response","93","174851","0.0-2.0-5.0-0.36","608d935efcfcd5d73e157adf","A3","batch1","","null","<p class=block-text>Trial 37 out of 78</p>","null","pattern_show_trial_num","","","","","","","","","","","","","","","","","","","","","","","","",""
"","","","","","image-keyboard-response","94","176356","0.0-2.0-5.0-1.36","608d935efcfcd5d73e157adf","A3","batch1","","1503","stim/yes_44_ver_w1_w.png","j","pattern_response","false","f","pattern_66","1503","false","32","","","","","","","","","","","","","","","","","","",""
"","","","","","html-keyboard-response","95","177671","0.0-2.0-5.0-0.37","608d935efcfcd5d73e157adf","A3","batch1","","null","<p class=block-text>Trial 38 out of 78</p>","null","pattern_show_trial_num","","","","","","","","","","","","","","","","","","","","","","","","",""
"","","","","","image-keyboard-response","96","178773","0.0-2.0-5.0-1.37","608d935efcfcd5d73e157adf","A3","batch1","","1100.4000000357628","stim/yes_63_dia_b1.png","f","pattern_response","true","f","pattern_78","1100.4000000357628","true","33","","","","","","","","","","","","","","","","","","",""
"","","","","","html-keyboard-response","97","180097","0.0-2.0-5.0-0.38","608d935efcfcd5d73e157adf","A3","batch1","","null","<p class=block-text>Trial 39 out of 78</p>","null","pattern_show_trial_num","","","","","","","","","","","","","","","","","","","","","","","","",""
"","","","","","image-keyboard-response","98","181259","0.0-2.0-5.0-1.38","608d935efcfcd5d73e157adf","A3","batch1","","1160.9000000357628","stim/yes_33_dia_w1_w.png","f","pattern_response","true","f","pattern_56","1160.9000000357628","true","34","","","","","","","","","","","","","","","","","","",""
"","","","","","image-keyboard-response","99","183955","0.0-2.0-6.0","608d935efcfcd5d73e157adf","A3","batch1","","2154.699999988079","stim/empty_board.png","j","attention_check","true","j","","","","","500","[""f"",""j""]","","","","","","","","","","","","","","","","",""
"","","","","","html-keyboard-response","100","184772","0.0-2.0-7.0-0.0","608d935efcfcd5d73e157adf","A3","batch1","","null","<p class=block-text>Trial 40 out of 78</p>","null","pattern_show_trial_num","","","","","","","","","","","","","","","","","","","","","","","","",""
"","","","","","image-keyboard-response","101","186139","0.0-2.0-7.0-1.0","608d935efcfcd5d73e157adf","A3","batch1","","1364.800000011921","stim/yes_22_ver_w1.png","f","pattern_response","true","f","pattern_47","1364.800000011921","true","35","","","","","","","","","","","","","","","","","","",""
"","","","","","html-keyboard-response","102","187447","0.0-2.0-7.0-0.1","608d935efcfcd5d73e157adf","A3","batch1","","null","<p class=block-text>Trial 41 out of 78</p>","null","pattern_show_trial_num","","","","","","","","","","","","","","","","","","","","","","","","",""
"","","","","","image-keyboard-response","103","189340","0.0-2.0-7.0-1.1","608d935efcfcd5d73e157adf","A3","batch1","","1890.800000011921","stim/no_50_1.png","j","pattern_response","true","j","pattern_30","1890.800000011921","true","36","","","","","","","","","","","","","","","","","","",""
"","","","","","html-keyboard-response","104","190659","0.0-2.0-7.0-0.2","608d935efcfcd5d73e157adf","A3","batch1","","null","<p class=block-text>Trial 42 out of 78</p>","null","pattern_show_trial_num","","","","","","","","","","","","","","","","","","","","","","","","",""
"","","","","","image-keyboard-response","105","191915","0.0-2.0-7.0-1.2","608d935efcfcd5d73e157adf","A3","batch1","","1254.300000011921","stim/yes_25_hor_b1_b.png","f","pattern_response","true","f","pattern_49","1254.300000011921","true","37","","","","","","","","","","","","","","","","","","",""
"","","","","","html-keyboard-response","106","193226","0.0-2.0-7.0-0.3","608d935efcfcd5d73e157adf","A3","batch1","","null","<p class=block-text>Trial 43 out of 78</p>","null","pattern_show_trial_num","","","","","","","","","","","","","","","","","","","","","","","","",""
"","","","","","image-keyboard-response","107","194188","0.0-2.0-7.0-1.3","608d935efcfcd5d73e157adf","A3","batch1","","960","stim/yes_67_hor_b1.png","f","pattern_response","true","f","pattern_79","960","true","38","","","","","","","","","","","","","","","","","","",""
"","","","","","html-keyboard-response","108","195503","0.0-2.0-7.0-0.4","608d935efcfcd5d73e157adf","A3","batch1","","null","<p class=block-text>Trial 44 out of 78</p>","null","pattern_show_trial_num","","","","","","","","","","","","","","","","","","","","","","","","",""
"","","","","","image-keyboard-response","109","197300","0.0-2.0-7.0-1.4","608d935efcfcd5d73e157adf","A3","batch1","","1795.5","stim/no_62_1_w.png","f","pattern_response","false","j","pattern_36","1795.5","false","38","","","","","","","","","","","","","","","","","","",""
"","","","","","html-keyboard-response","110","198616","0.0-2.0-7.0-0.5","608d935efcfcd5d73e157adf","A3","batch1","","null","<p class=block-text>Trial 45 out of 78</p>","null","pattern_show_trial_num","","","","","","","","","","","","","","","","","","","","","","","","",""
"","","","","","image-keyboard-response","111","200173","0.0-2.0-7.0-1.5","608d935efcfcd5d73e157adf","A3","batch1","","1554.8999999761581","stim/no_48_1_w.png","j","pattern_response","true","j","pattern_28","1554.8999999761581","true","39","","","","","","","","","","","","","","","","","","",""
"","","","","","html-keyboard-response","112","201494","0.0-2.0-7.0-0.6","608d935efcfcd5d73e157adf","A3","batch1","","null","<p class=block-text>Trial 46 out of 78</p>","null","pattern_show_trial_num","","","","","","","","","","","","","","","","","","","","","","","","",""
"","","","","","image-keyboard-response","113","204380","0.0-2.0-7.0-1.6","608d935efcfcd5d73e157adf","A3","batch1","","2884.399999976158","stim/no_65_1_b.png","j","pattern_response","true","j","pattern_38","2884.399999976158","true","40","","","","","","","","","","","","","","","","","","",""
"","","","","","html-keyboard-response","114","205696","0.0-2.0-7.0-0.7","608d935efcfcd5d73e157adf","A3","batch1","","null","<p class=block-text>Trial 47 out of 78</p>","null","pattern_show_trial_num","","","","","","","","","","","","","","","","","","","","","","","","",""
"","","","","","image-keyboard-response","115","207444","0.0-2.0-7.0-1.7","608d935efcfcd5d73e157adf","A3","batch1","","1745.8999999761581","stim/no_29_1_b.png","j","pattern_response","true","j","pattern_12","1745.8999999761581","true","41","","","","","","","","","","","","","","","","","","",""
"","","","","","html-keyboard-response","116","208756","0.0-2.0-7.0-0.8","608d935efcfcd5d73e157adf","A3","batch1","","null","<p class=block-text>Trial 48 out of 78</p>","null","pattern_show_trial_num","","","","","","","","","","","","","","","","","","","","","","","","",""
"","","","","","image-keyboard-response","117","210478","0.0-2.0-7.0-1.8","608d935efcfcd5d73e157adf","A3","batch1","","1719.300000011921","stim/no_46_1_b.png","j","pattern_response","true","j","pattern_26","1719.300000011921","true","42","","","","","","","","","","","","","","","","","","",""
"","","","","","html-keyboard-response","118","211797","0.0-2.0-7.0-0.9","608d935efcfcd5d73e157adf","A3","batch1","","null","<p class=block-text>Trial 49 out of 78</p>","null","pattern_show_trial_num","","","","","","","","","","","","","","","","","","","","","","","","",""
"","","","","","image-keyboard-response","119","212756","0.0-2.0-7.0-1.9","608d935efcfcd5d73e157adf","A3","batch1","","956.6999999880791","stim/yes_14_hor_b1_w.png","f","pattern_response","true","f","pattern_43","956.6999999880791","true","43","","","","","","","","","","","","","","","","","","",""
"","","","","","html-keyboard-response","120","214081","0.0-2.0-7.0-0.10","608d935efcfcd5d73e157adf","A3","batch1","","null","<p class=block-text>Trial 50 out of 78</p>","null","pattern_show_trial_num","","","","","","","","","","","","","","","","","","","","","","","","",""
"","","","","","image-keyboard-response","121","215125","0.0-2.0-7.0-1.10","608d935efcfcd5d73e157adf","A3","batch1","","1041.5","stim/no_23_1.png","j","pattern_response","true","j","pattern_08","1041.5","true","44","","","","","","","","","","","","","","","","","","",""
"","","","","","html-keyboard-response","122","216480","0.0-2.0-7.0-0.11","608d935efcfcd5d73e157adf","A3","batch1","","null","<p class=block-text>Trial 51 out of 78</p>","null","pattern_show_trial_num","","","","","","","","","","","","","","","","","","","","","","","","",""
"","","","","","image-keyboard-response","123","217725","0.0-2.0-7.0-1.11","608d935efcfcd5d73e157adf","A3","batch1","","1242.7000000476837","stim/yes_35_dia_b1.png","f","pattern_response","true","f","pattern_57","1242.7000000476837","true","45","","","","","","","","","","","","","","","","","","",""
"","","","","","html-keyboard-response","124","219041","0.0-2.0-7.0-0.12","608d935efcfcd5d73e157adf","A3","batch1","","null","<p class=block-text>Trial 52 out of 78</p>","null","pattern_show_trial_num","","","","","","","","","","","","","","","","","","","","","","","","",""
"","","","","","image-keyboard-response","125","220854","0.0-2.0-7.0-1.12","608d935efcfcd5d73e157adf","A3","batch1","","1810.699999988079","stim/yes_43_ver_w1_w.png","j","pattern_response","false","f","pattern_65","1810.699999988079","false","45","","","","","","","","","","","","","","","","","","",""
"","","","","","html-keyboard-response","126","222172","0.0-2.0-7.0-0.13","608d935efcfcd5d73e157adf","A3","batch1","","null","<p class=block-text>Trial 53 out of 78</p>","null","pattern_show_trial_num","","","","","","","","","","","","","","","","","","","","","","","","",""
"","","","","","image-keyboard-response","127","223613","0.0-2.0-7.0-1.13","608d935efcfcd5d73e157adf","A3","batch1","","1438.699999988079","stim/yes_52_ver_w1.png","j","pattern_response","false","f","pattern_73","1438.699999988079","false","45","","","","","","","","","","","","","","","","","","",""
"","","","","","html-keyboard-response","128","224923","0.0-2.0-7.0-0.14","608d935efcfcd5d73e157adf","A3","batch1","","null","<p class=block-text>Trial 54 out of 78</p>","null","pattern_show_trial_num","","","","","","","","","","","","","","","","","","","","","","","","",""
"","","","","","image-keyboard-response","129","226093","0.0-2.0-7.0-1.14","608d935efcfcd5d73e157adf","A3","batch1","","1167.699999988079","stim/no_17_1_w.png","j","pattern_response","true","j","pattern_04","1167.699999988079","true","46","","","","","","","","","","","","","","","","","","",""
"","","","","","html-keyboard-response","130","227411","0.0-2.0-7.0-0.15","608d935efcfcd5d73e157adf","A3","batch1","","null","<p class=block-text>Trial 55 out of 78</p>","null","pattern_show_trial_num","","","","","","","","","","","","","","","","","","","","","","","","",""
"","","","","","image-keyboard-response","131","229013","0.0-2.0-7.0-1.15","608d935efcfcd5d73e157adf","A3","batch1","","1600","stim/no_42_1_w.png","j","pattern_response","true","j","pattern_22","1600","true","47","","","","","","","","","","","","","","","","","","",""
"","","","","","html-keyboard-response","132","230336","0.0-2.0-7.0-0.16","608d935efcfcd5d73e157adf","A3","batch1","","null","<p class=block-text>Trial 56 out of 78</p>","null","pattern_show_trial_num","","","","","","","","","","","","","","","","","","","","","","","","",""
"","","","","","image-keyboard-response","133","231358","0.0-2.0-7.0-1.16","608d935efcfcd5d73e157adf","A3","batch1","","1020","stim/yes_55_hor_w1_w.png","f","pattern_response","true","f","pattern_75","1020","true","48","","","","","","","","","","","","","","","","","","",""
"","","","","","html-keyboard-response","134","232681","0.0-2.0-7.0-0.17","608d935efcfcd5d73e157adf","A3","batch1","","null","<p class=block-text>Trial 57 out of 78</p>","null","pattern_show_trial_num","","","","","","","","","","","","","","","","","","","","","","","","",""
"","","","","","image-keyboard-response","135","233861","0.0-2.0-7.0-1.17","608d935efcfcd5d73e157adf","A3","batch1","","1178.5","stim/no_26_1_w.png","j","pattern_response","true","j","pattern_10","1178.5","true","49","","","","","","","","","","","","","","","","","","",""
"","","","","","html-keyboard-response","136","235197","0.0-2.0-7.0-0.18","608d935efcfcd5d73e157adf","A3","batch1","","null","<p class=block-text>Trial 58 out of 78</p>","null","pattern_show_trial_num","","","","","","","","","","","","","","","","","","","","","","","","",""
"","","","","","image-keyboard-response","137","236157","0.0-2.0-7.0-1.18","608d935efcfcd5d73e157adf","A3","batch1","","957.5","stim/no_13_2_b.png","j","pattern_response","true","j","pattern_02","957.5","true","50","","","","","","","","","","","","","","","","","","",""
"","","","","","html-keyboard-response","138","237467","0.0-2.0-7.0-0.19","608d935efcfcd5d73e157adf","A3","batch1","","null","<p class=block-text>Trial 59 out of 78</p>","null","pattern_show_trial_num","","","","","","","","","","","","","","","","","","","","","","","","",""
"","","","","","image-keyboard-response","139","239501","0.0-2.0-7.0-1.19","608d935efcfcd5d73e157adf","A3","batch1","","2032.199999988079","stim/no_55_1_w.png","j","pattern_response","true","j","pattern_34","2032.199999988079","true","51","","","","","","","","","","","","","","","","","","",""
"","","","","","html-keyboard-response","140","240824","0.0-2.0-7.0-0.20","608d935efcfcd5d73e157adf","A3","batch1","","null","<p class=block-text>Trial 60 out of 78</p>","null","pattern_show_trial_num","","","","","","","","","","","","","","","","","","","","","","","","",""
"","","","","","image-keyboard-response","141","241973","0.0-2.0-7.0-1.20","608d935efcfcd5d73e157adf","A3","batch1","","1146.7000000476837","stim/yes_17_dia_w1.png","f","pattern_response","true","f","pattern_45","1146.7000000476837","true","52","","","","","","","","","","","","","","","","","","",""
"","","","","","html-keyboard-response","142","243293","0.0-2.0-7.0-0.21","608d935efcfcd5d73e157adf","A3","batch1","","null","<p class=block-text>Trial 61 out of 78</p>","null","pattern_show_trial_num","","","","","","","","","","","","","","","","","","","","","","","","",""
"","","","","","image-keyboard-response","143","244764","0.0-2.0-7.0-1.21","608d935efcfcd5d73e157adf","A3","batch1","","1468.8999999761581","stim/no_34_1_b.png","j","pattern_response","true","j","pattern_16","1468.8999999761581","true","53","","","","","","","","","","","","","","","","","","",""
"","","","","","html-keyboard-response","144","246090","0.0-2.0-7.0-0.22","608d935efcfcd5d73e157adf","A3","batch1","","null","<p class=block-text>Trial 62 out of 78</p>","null","pattern_show_trial_num","","","","","","","","","","","","","","","","","","","","","","","","",""
"","","","","","image-keyboard-response","145","247348","0.0-2.0-7.0-1.22","608d935efcfcd5d73e157adf","A3","batch1","","1256.3999999761581","stim/yes_29_ver_w1.png","j","pattern_response","false","f","pattern_53","1256.3999999761581","false","53","","","","","","","","","","","","","","","","","","",""
"","","","","","html-keyboard-response","146","248669","0.0-2.0-7.0-0.23","608d935efcfcd5d73e157adf","A3","batch1","","null","<p class=block-text>Trial 63 out of 78</p>","null","pattern_show_trial_num","","","","","","","","","","","","","","","","","","","","","","","","",""
"","","","","","image-keyboard-response","147","250100","0.0-2.0-7.0-1.23","608d935efcfcd5d73e157adf","A3","batch1","","1428.5","stim/yes_37_dia_w1.png","j","pattern_response","false","f","pattern_59","1428.5","false","53","","","","","","","","","","","","","","","","","","",""
"","","","","","html-keyboard-response","148","251411","0.0-2.0-7.0-0.24","608d935efcfcd5d73e157adf","A3","batch1","","null","<p class=block-text>Trial 64 out of 78</p>","null","pattern_show_trial_num","","","","","","","","","","","","","","","","","","","","","","","","",""
"","","","","","image-keyboard-response","149","252861","0.0-2.0-7.0-1.24","608d935efcfcd5d73e157adf","A3","batch1","","1448.300000011921","stim/no_70_2.png","j","pattern_response","true","j","pattern_40","1448.300000011921","true","54","","","","","","","","","","","","","","","","","","",""
"","","","","","html-keyboard-response","150","254183","0.0-2.0-7.0-0.25","608d935efcfcd5d73e157adf","A3","batch1","","null","<p class=block-text>Trial 65 out of 78</p>","null","pattern_show_trial_num","","","","","","","","","","","","","","","","","","","","","","","","",""
"","","","","","image-keyboard-response","151","256196","0.0-2.0-7.0-1.25","608d935efcfcd5d73e157adf","A3","batch1","","2011","stim/yes_60_ver_b1_b.png","f","pattern_response","true","f","pattern_77","2011","true","55","","","","","","","","","","","","","","","","","","",""
"","","","","","html-keyboard-response","152","257504","0.0-2.0-7.0-0.26","608d935efcfcd5d73e157adf","A3","batch1","","null","<p class=block-text>Trial 66 out of 78</p>","null","pattern_show_trial_num","","","","","","","","","","","","","","","","","","","","","","","","",""
"","","","","","image-keyboard-response","153","259509","0.0-2.0-7.0-1.26","608d935efcfcd5d73e157adf","A3","batch1","","2002.699999988079","stim/yes_40_dia_b1_b.png","j","pattern_response","false","f","pattern_63","2002.699999988079","false","55","","","","","","","","","","","","","","","","","","",""
"","","","","","html-keyboard-response","154","260819","0.0-2.0-7.0-0.27","608d935efcfcd5d73e157adf","A3","batch1","","null","<p class=block-text>Trial 67 out of 78</p>","null","pattern_show_trial_num","","","","","","","","","","","","","","","","","","","","","","","","",""
"","","","","","image-keyboard-response","155","262621","0.0-2.0-7.0-1.27","608d935efcfcd5d73e157adf","A3","batch1","","1799.4000000357628","stim/yes_50_dia_w1.png","j","pattern_response","false","f","pattern_71","1799.4000000357628","false","55","","","","","","","","","","","","","","","","","","",""
"","","","","","html-keyboard-response","156","263934","0.0-2.0-7.0-0.28","608d935efcfcd5d73e157adf","A3","batch1","","null","<p class=block-text>Trial 68 out of 78</p>","null","pattern_show_trial_num","","","","","","","","","","","","","","","","","","","","","","","","",""
"","","","","","image-keyboard-response","157","265142","0.0-2.0-7.0-1.28","608d935efcfcd5d73e157adf","A3","batch1","","1205.9000000357628","stim/yes_28_ver_b1.png","f","pattern_response","true","f","pattern_51","1205.9000000357628","true","56","","","","","","","","","","","","","","","","","","",""
"","","","","","html-keyboard-response","158","266457","0.0-2.0-7.0-0.29","608d935efcfcd5d73e157adf","A3","batch1","","null","<p class=block-text>Trial 69 out of 78</p>","null","pattern_show_trial_num","","","","","","","","","","","","","","","","","","","","","","","","",""
"","","","","","image-keyboard-response","159","268285","0.0-2.0-7.0-1.29","608d935efcfcd5d73e157adf","A3","batch1","","1825.5","stim/no_52_1.png","j","pattern_response","true","j","pattern_32","1825.5","true","57","","","","","","","","","","","","","","","","","","",""
"","","","","","html-keyboard-response","160","269601","0.0-2.0-7.0-0.30","608d935efcfcd5d73e157adf","A3","batch1","","null","<p class=block-text>Trial 70 out of 78</p>","null","pattern_show_trial_num","","","","","","","","","","","","","","","","","","","","","","","","",""
"","","","","","image-keyboard-response","161","271493","0.0-2.0-7.0-1.30","608d935efcfcd5d73e157adf","A3","batch1","","1889.9000000357628","stim/no_44_1.png","j","pattern_response","true","j","pattern_24","1889.9000000357628","true","58","","","","","","","","","","","","","","","","","","",""
"","","","","","html-keyboard-response","162","272821","0.0-2.0-7.0-0.31","608d935efcfcd5d73e157adf","A3","batch1","","null","<p class=block-text>Trial 71 out of 78</p>","null","pattern_show_trial_num","","","","","","","","","","","","","","","","","","","","","","","","",""
"","","","","","image-keyboard-response","163","273757","0.0-2.0-7.0-1.31","608d935efcfcd5d73e157adf","A3","batch1","","934.1000000238419","stim/yes_45_hor_b2_b.png","f","pattern_response","true","f","pattern_67","934.1000000238419","true","59","","","","","","","","","","","","","","","","","","",""
"","","","","","html-keyboard-response","164","275072","0.0-2.0-7.0-0.32","608d935efcfcd5d73e157adf","A3","batch1","","null","<p class=block-text>Trial 72 out of 78</p>","null","pattern_show_trial_num","","","","","","","","","","","","","","","","","","","","","","","","",""
"","","","","","image-keyboard-response","165","276150","0.0-2.0-7.0-1.32","608d935efcfcd5d73e157adf","A3","batch1","","1076.800000011921","stim/no_20_1_w.png","j","pattern_response","true","j","pattern_06","1076.800000011921","true","60","","","","","","","","","","","","","","","","","","",""
"","","","","","html-keyboard-response","166","277493","0.0-2.0-7.0-0.33","608d935efcfcd5d73e157adf","A3","batch1","","null","<p class=block-text>Trial 73 out of 78</p>","null","pattern_show_trial_num","","","","","","","","","","","","","","","","","","","","","","","","",""
"","","","","","image-keyboard-response","167","278989","0.0-2.0-7.0-1.33","608d935efcfcd5d73e157adf","A3","batch1","","1494.6000000238419","stim/no_38_1_b.png","j","pattern_response","true","j","pattern_20","1494.6000000238419","true","61","","","","","","","","","","","","","","","","","","",""
"","","","","","html-keyboard-response","168","280300","0.0-2.0-7.0-0.34","608d935efcfcd5d73e157adf","A3","batch1","","null","<p class=block-text>Trial 74 out of 78</p>","null","pattern_show_trial_num","","","","","","","","","","","","","","","","","","","","","","","","",""
"","","","","","image-keyboard-response","169","281806","0.0-2.0-7.0-1.34","608d935efcfcd5d73e157adf","A3","batch1","","1502.800000011921","stim/yes_31_hor_b1.png","j","pattern_response","false","f","pattern_55","1502.800000011921","false","61","","","","","","","","","","","","","","","","","","",""
"","","","","","html-keyboard-response","170","283125","0.0-2.0-7.0-0.35","608d935efcfcd5d73e157adf","A3","batch1","","null","<p class=block-text>Trial 75 out of 78</p>","null","pattern_show_trial_num","","","","","","","","","","","","","","","","","","","","","","","","",""
"","","","","","image-keyboard-response","171","284278","0.0-2.0-7.0-1.35","608d935efcfcd5d73e157adf","A3","batch1","","1150.8999999761581","stim/no_36_2_w.png","f","pattern_response","false","j","pattern_18","1150.8999999761581","false","61","","","","","","","","","","","","","","","","","","",""
"","","","","","html-keyboard-response","172","285594","0.0-2.0-7.0-0.36","608d935efcfcd5d73e157adf","A3","batch1","","null","<p class=block-text>Trial 76 out of 78</p>","null","pattern_show_trial_num","","","","","","","","","","","","","","","","","","","","","","","","",""
"","","","","","image-keyboard-response","173","286927","0.0-2.0-7.0-1.36","608d935efcfcd5d73e157adf","A3","batch1","","1331.6000000238419","stim/no_32_1_w.png","j","pattern_response","true","j","pattern_14","1331.6000000238419","true","62","","","","","","","","","","","","","","","","","","",""
"","","","","","html-keyboard-response","174","288237","0.0-2.0-7.0-0.37","608d935efcfcd5d73e157adf","A3","batch1","","null","<p class=block-text>Trial 77 out of 78</p>","null","pattern_show_trial_num","","","","","","","","","","","","","","","","","","","","","","","","",""
"","","","","","image-keyboard-response","175","289830","0.0-2.0-7.0-1.37","608d935efcfcd5d73e157adf","A3","batch1","","1590.8999999761581","stim/yes_48_dia_w1_w.png","j","pattern_response","false","f","pattern_69","1590.8999999761581","false","62","","","","","","","","","","","","","","","","","","",""
"","","","","","html-keyboard-response","176","291147","0.0-2.0-7.0-0.38","608d935efcfcd5d73e157adf","A3","batch1","","null","<p class=block-text>Trial 78 out of 78</p>","null","pattern_show_trial_num","","","","","","","","","","","","","","","","","","","","","","","","",""
"","","","","","image-keyboard-response","177","291870","0.0-2.0-7.0-1.38","608d935efcfcd5d73e157adf","A3","batch1","","720.6999999880791","stim/yes_38_hor_b1_b.png","f","pattern_response","true","f","pattern_61","720.6999999880791","true","63","","","","","","","","","","","","","","","","","","",""
"","","","","","html-button-response","178","294367","0.0-2.0-8.0","608d935efcfcd5d73e157adf","A3","batch1","","1992.699999988079","<p class = block-text>This concludes the 4-in-a-row detection game.Thank you for your responses!<br>
            You responded correctly on 81% of the trials.<br>
            When you are ready, press ""Continue"" button to continue </p>","0","","","","","","","","","","","","","","","","","","","","","","","","","",""
"true","","","","","fullscreen","179","297856","0.0-3.0-0.0","608d935efcfcd5d73e157adf","A3","batch1","","","","","spm_fullscreen","","","","","","","","","","","","","","","","","","","","","","","","",""
"","","","","","html-button-response","180","305060","0.0-3.0-1.0","608d935efcfcd5d73e157adf","A3","batch1","","7198.300000011921","<p class = block-text><b>Instructions</b> <br>This is a widely used intelligence test in research. <br>In this test, a figure with a missing piece will be presented.<br>Below the figure are alternative pieces to complete the figure, only one of which is correct.<br> Different figures might involve different principles for obtaining the missing piece<br>Your job is to select the most logical piece to complete the figure.</p>","0","","","","","","","","","","","","","","","","","","","","","","","","","",""
"","","","","","html-keyboard-response","181","305866","0.0-3.0-2.0-0.0","608d935efcfcd5d73e157adf","A3","batch1","","null","<p class=block-text>Trial 1 out of 60</p>","null","spm_show_trial_num","","","","","","","","","","","","","","","","","","","","","","","","",""
"","","","","","image-button-response","182","314388","0.0-3.0-2.0-1.0","608d935efcfcd5d73e157adf","A3","batch1","","8518.399999976158","img/question_1_1.jpeg","3","spm_respsonse","1","4","mat_01","","","","","","1","8518.399999976158","","","","","","","","","","","","","","",""
"","","","","","html-keyboard-response","183","315468","0.0-3.0-2.0-0.1","608d935efcfcd5d73e157adf","A3","batch1","","null","<p class=block-text>Trial 2 out of 60</p>","null","spm_show_trial_num","","","","","","","","","","","","","","","","","","","","","","","","",""
"","","","","","image-button-response","184","317756","0.0-3.0-2.0-1.1","608d935efcfcd5d73e157adf","A3","batch1","","2284.300000011921","img/question_1_2.jpeg","4","spm_respsonse","1","5","mat_02","","","","","","1","2284.300000011921","","","","","","","","","","","","","","",""
"","","","","","html-keyboard-response","185","318823","0.0-3.0-2.0-0.2","608d935efcfcd5d73e157adf","A3","batch1","","null","<p class=block-text>Trial 3 out of 60</p>","null","spm_show_trial_num","","","","","","","","","","","","","","","","","","","","","","","","",""
"","","","","","image-button-response","186","321540","0.0-3.0-2.0-1.2","608d935efcfcd5d73e157adf","A3","batch1","","2714.199999988079","img/question_1_3.jpeg","0","spm_respsonse","1","1","mat_03","","","","","","1","2714.199999988079","","","","","","","","","","","","","","",""
"","","","","","html-keyboard-response","187","322595","0.0-3.0-2.0-0.3","608d935efcfcd5d73e157adf","A3","batch1","","null","<p class=block-text>Trial 4 out of 60</p>","null","spm_show_trial_num","","","","","","","","","","","","","","","","","","","","","","","","",""
"","","","","","image-button-response","188","325380","0.0-3.0-2.0-1.3","608d935efcfcd5d73e157adf","A3","batch1","","2782.2999999523163","img/question_1_4.jpeg","1","spm_respsonse","1","2","mat_04","","","","","","1","2782.2999999523163","","","","","","","","","","","","","","",""
"","","","","","html-keyboard-response","189","326443","0.0-3.0-2.0-0.4","608d935efcfcd5d73e157adf","A3","batch1","","null","<p class=block-text>Trial 5 out of 60</p>","null","spm_show_trial_num","","","","","","","","","","","","","","","","","","","","","","","","",""
"","","","","","image-button-response","190","328780","0.0-3.0-2.0-1.4","608d935efcfcd5d73e157adf","A3","batch1","","2334.5","img/question_1_5.jpeg","5","spm_respsonse","1","6","mat_05","","","","","","1","2334.5","","","","","","","","","","","","","","",""
"","","","","","html-keyboard-response","191","329853","0.0-3.0-2.0-0.5","608d935efcfcd5d73e157adf","A3","batch1","","null","<p class=block-text>Trial 6 out of 60</p>","null","spm_show_trial_num","","","","","","","","","","","","","","","","","","","","","","","","",""
"","","","","","image-button-response","192","333780","0.0-3.0-2.0-1.5","608d935efcfcd5d73e157adf","A3","batch1","","3925.100000023842","img/question_1_6.jpeg","2","spm_respsonse","1","3","mat_06","","","","","","1","3925.100000023842","","","","","","","","","","","","","","",""
"","","","","","html-keyboard-response","193","334837","0.0-3.0-2.0-0.6","608d935efcfcd5d73e157adf","A3","batch1","","null","<p class=block-text>Trial 7 out of 60</p>","null","spm_show_trial_num","","","","","","","","","","","","","","","","","","","","","","","","",""
"","","","","","image-button-response","194","338485","0.0-3.0-2.0-1.6","608d935efcfcd5d73e157adf","A3","batch1","","3645.199999988079","img/question_1_7.jpeg","5","spm_respsonse","1","6","mat_07","","","","","","1","3645.199999988079","","","","","","","","","","","","","","",""
"","","","","","html-keyboard-response","195","339571","0.0-3.0-2.0-0.7","608d935efcfcd5d73e157adf","A3","batch1","","null","<p class=block-text>Trial 8 out of 60</p>","null","spm_show_trial_num","","","","","","","","","","","","","","","","","","","","","","","","",""
"","","","","","image-button-response","196","343260","0.0-3.0-2.0-1.7","608d935efcfcd5d73e157adf","A3","batch1","","3685.399999976158","img/question_1_8.jpeg","1","spm_respsonse","1","2","mat_08","","","","","","1","3685.399999976158","","","","","","","","","","","","","","",""
"","","","","","html-keyboard-response","197","344325","0.0-3.0-2.0-0.8","608d935efcfcd5d73e157adf","A3","batch1","","null","<p class=block-text>Trial 9 out of 60</p>","null","spm_show_trial_num","","","","","","","","","","","","","","","","","","","","","","","","",""
"","","","","","image-button-response","198","347333","0.0-3.0-2.0-1.8","608d935efcfcd5d73e157adf","A3","batch1","","3005.400000035763","img/question_1_9.jpeg","0","spm_respsonse","1","1","mat_09","","","","","","1","3005.400000035763","","","","","","","","","","","","","","",""
"","","","","","html-keyboard-response","199","348414","0.0-3.0-2.0-0.9","608d935efcfcd5d73e157adf","A3","batch1","","null","<p class=block-text>Trial 10 out of 60</p>","null","spm_show_trial_num","","","","","","","","","","","","","","","","","","","","","","","","",""
"","","","","","image-button-response","200","351821","0.0-3.0-2.0-1.9","608d935efcfcd5d73e157adf","A3","batch1","","3404.199999988079","img/question_1_10.jpeg","2","spm_respsonse","1","3","mat_10","","","","","","1","3404.199999988079","","","","","","","","","","","","","","",""
"","","","","","html-keyboard-response","201","352897","0.0-3.0-2.0-0.10","608d935efcfcd5d73e157adf","A3","batch1","","null","<p class=block-text>Trial 11 out of 60</p>","null","spm_show_trial_num","","","","","","","","","","","","","","","","","","","","","","","","",""
"","","","","","image-button-response","202","358077","0.0-3.0-2.0-1.10","608d935efcfcd5d73e157adf","A3","batch1","","5177.100000023842","img/question_1_11.jpeg","3","spm_respsonse","1","4","mat_11","","","","","","1","5177.100000023842","","","","","","","","","","","","","","",""
"","","","","","html-keyboard-response","203","359133","0.0-3.0-2.0-0.11","608d935efcfcd5d73e157adf","A3","batch1","","null","<p class=block-text>Trial 12 out of 60</p>","null","spm_show_trial_num","","","","","","","","","","","","","","","","","","","","","","","","",""
"","","","","","image-button-response","204","366784","0.0-3.0-2.0-1.11","608d935efcfcd5d73e157adf","A3","batch1","","7644.900000035763","img/question_1_12.jpeg","1","spm_respsonse","0","5","mat_12","","","","","","0","7644.900000035763","","","","","","","","","","","","","","",""
"","","","","","html-keyboard-response","205","367860","0.0-3.0-2.0-0.12","608d935efcfcd5d73e157adf","A3","batch1","","null","<p class=block-text>Trial 13 out of 60</p>","null","spm_show_trial_num","","","","","","","","","","","","","","","","","","","","","","","","",""
"","","","","","image-button-response","206","369841","0.0-3.0-2.0-1.12","608d935efcfcd5d73e157adf","A3","batch1","","1977.5","img/question_2_1.jpeg","1","spm_respsonse","1","2","mat_13","","","","","","1","1977.5","","","","","","","","","","","","","","",""
"","","","","","html-keyboard-response","207","370911","0.0-3.0-2.0-0.13","608d935efcfcd5d73e157adf","A3","batch1","","null","<p class=block-text>Trial 14 out of 60</p>","null","spm_show_trial_num","","","","","","","","","","","","","","","","","","","","","","","","",""
"","","","","","image-button-response","208","373842","0.0-3.0-2.0-1.13","608d935efcfcd5d73e157adf","A3","batch1","","2928.800000011921","img/question_2_2.jpeg","5","spm_respsonse","1","6","mat_14","","","","","","1","2928.800000011921","","","","","","","","","","","","","","",""
"","","","","","html-keyboard-response","209","374909","0.0-3.0-2.0-0.14","608d935efcfcd5d73e157adf","A3","batch1","","null","<p class=block-text>Trial 15 out of 60</p>","null","spm_show_trial_num","","","","","","","","","","","","","","","","","","","","","","","","",""
"","","","","","image-button-response","210","377513","0.0-3.0-2.0-1.14","608d935efcfcd5d73e157adf","A3","batch1","","2600.599999964237","img/question_2_3.jpeg","0","spm_respsonse","1","1","mat_15","","","","","","1","2600.599999964237","","","","","","","","","","","","","","",""
"","","","","","html-keyboard-response","211","378577","0.0-3.0-2.0-0.15","608d935efcfcd5d73e157adf","A3","batch1","","null","<p class=block-text>Trial 16 out of 60</p>","null","spm_show_trial_num","","","","","","","","","","","","","","","","","","","","","","","","",""
"","","","","","image-button-response","212","381065","0.0-3.0-2.0-1.15","608d935efcfcd5d73e157adf","A3","batch1","","2485.2000000476837","img/question_2_4.jpeg","1","spm_respsonse","1","2","mat_16","","","","","","1","2485.2000000476837","","","","","","","","","","","","","","",""
"","","","","","html-keyboard-response","213","382130","0.0-3.0-2.0-0.16","608d935efcfcd5d73e157adf","A3","batch1","","null","<p class=block-text>Trial 17 out of 60</p>","null","spm_show_trial_num","","","","","","","","","","","","","","","","","","","","","","","","",""
"","","","","","image-button-response","214","389434","0.0-3.0-2.0-1.16","608d935efcfcd5d73e157adf","A3","batch1","","7300.600000023842","img/question_2_5.jpeg","0","spm_respsonse","1","1","mat_17","","","","","","1","7300.600000023842","","","","","","","","","","","","","","",""
"","","","","","html-keyboard-response","215","390493","0.0-3.0-2.0-0.17","608d935efcfcd5d73e157adf","A3","batch1","","null","<p class=block-text>Trial 18 out of 60</p>","null","spm_show_trial_num","","","","","","","","","","","","","","","","","","","","","","","","",""
"","","","","","image-button-response","216","394041","0.0-3.0-2.0-1.17","608d935efcfcd5d73e157adf","A3","batch1","","3545","img/question_2_6.jpeg","2","spm_respsonse","1","3","mat_18","","","","","","1","3545","","","","","","","","","","","","","","",""
"","","","","","html-keyboard-response","217","395103","0.0-3.0-2.0-0.18","608d935efcfcd5d73e157adf","A3","batch1","","null","<p class=block-text>Trial 19 out of 60</p>","null","spm_show_trial_num","","","","","","","","","","","","","","","","","","","","","","","","",""
"","","","","","image-button-response","218","398665","0.0-3.0-2.0-1.18","608d935efcfcd5d73e157adf","A3","batch1","","3559.199999988079","img/question_2_7.jpeg","4","spm_respsonse","1","5","mat_19","","","","","","1","3559.199999988079","","","","","","","","","","","","","","",""
"","","","","","html-keyboard-response","219","399730","0.0-3.0-2.0-0.19","608d935efcfcd5d73e157adf","A3","batch1","","null","<p class=block-text>Trial 20 out of 60</p>","null","spm_show_trial_num","","","","","","","","","","","","","","","","","","","","","","","","",""
"","","","","","image-button-response","220","411475","0.0-3.0-2.0-1.19","608d935efcfcd5d73e157adf","A3","batch1","","11741.399999976158","img/question_2_8.jpeg","2","spm_respsonse","0","6","mat_20","","","","","","0","11741.399999976158","","","","","","","","","","","","","","",""
"","","","","","html-keyboard-response","221","412537","0.0-3.0-2.0-0.20","608d935efcfcd5d73e157adf","A3","batch1","","null","<p class=block-text>Trial 21 out of 60</p>","null","spm_show_trial_num","","","","","","","","","","","","","","","","","","","","","","","","",""
"","","","","","image-button-response","222","416659","0.0-3.0-2.0-1.20","608d935efcfcd5d73e157adf","A3","batch1","","4117.899999976158","img/question_2_9.jpeg","3","spm_respsonse","1","4","mat_21","","","","","","1","4117.899999976158","","","","","","","","","","","","","","",""
"","","","","","html-keyboard-response","223","417715","0.0-3.0-2.0-0.21","608d935efcfcd5d73e157adf","A3","batch1","","null","<p class=block-text>Trial 22 out of 60</p>","null","spm_show_trial_num","","","","","","","","","","","","","","","","","","","","","","","","",""
"","","","","","image-button-response","224","422307","0.0-3.0-2.0-1.21","608d935efcfcd5d73e157adf","A3","batch1","","4588.5","img/question_2_10.jpeg","2","spm_respsonse","1","3","mat_22","","","","","","1","4588.5","","","","","","","","","","","","","","",""
"","","","","","html-keyboard-response","225","423357","0.0-3.0-2.0-0.22","608d935efcfcd5d73e157adf","A3","batch1","","null","<p class=block-text>Trial 23 out of 60</p>","null","spm_show_trial_num","","","","","","","","","","","","","","","","","","","","","","","","",""
"","","","","","image-button-response","226","427055","0.0-3.0-2.0-1.22","608d935efcfcd5d73e157adf","A3","batch1","","3694.5","img/question_2_11.jpeg","3","spm_respsonse","1","4","mat_23","","","","","","1","3694.5","","","","","","","","","","","","","","",""
"","","","","","html-keyboard-response","227","428130","0.0-3.0-2.0-0.23","608d935efcfcd5d73e157adf","A3","batch1","","null","<p class=block-text>Trial 24 out of 60</p>","null","spm_show_trial_num","","","","","","","","","","","","","","","","","","","","","","","","",""
"","","","","","image-button-response","228","439703","0.0-3.0-2.0-1.23","608d935efcfcd5d73e157adf","A3","batch1","","11569.899999976158","img/question_2_12.jpeg","5","spm_respsonse","0","5","mat_24","","","","","","0","11569.899999976158","","","","","","","","","","","","","","",""
"","","","","","html-button-response","229","441639","0.0-3.0-3.0","608d935efcfcd5d73e157adf","A3","batch1","","1679.4000000357628","<p class = block-text>Attention check: Please choose 1<br></p>","0","attention_check","true","","","","","","","","","","","","","","","","","","","","","","","",""
"","","","","","html-keyboard-response","230","442442","0.0-3.0-4.0-0.0","608d935efcfcd5d73e157adf","A3","batch1","","null","<p class=block-text>Trial 25 out of 60</p>","null","spm_show_trial_num","","","","","","","","","","","","","","","","","","","","","","","","",""
"","","","","","image-button-response","231","444640","0.0-3.0-4.0-1.0","608d935efcfcd5d73e157adf","A3","batch1","","2193.300000011921","img/question_3_1.jpeg","7","spm_respsonse","1","8","mat_25","","","","","","1","2193.300000011921","","","","","","","","","","","","","","",""
"","","","","","html-keyboard-response","232","445708","0.0-3.0-4.0-0.1","608d935efcfcd5d73e157adf","A3","batch1","","null","<p class=block-text>Trial 26 out of 60</p>","null","spm_show_trial_num","","","","","","","","","","","","","","","","","","","","","","","","",""
"","","","","","image-button-response","233","448271","0.0-3.0-4.0-1.1","608d935efcfcd5d73e157adf","A3","batch1","","2560.199999988079","img/question_3_2.jpeg","1","spm_respsonse","1","2","mat_26","","","","","","1","2560.199999988079","","","","","","","","","","","","","","",""
"","","","","","html-keyboard-response","234","449335","0.0-3.0-4.0-0.2","608d935efcfcd5d73e157adf","A3","batch1","","null","<p class=block-text>Trial 27 out of 60</p>","null","spm_show_trial_num","","","","","","","","","","","","","","","","","","","","","","","","",""
"","","","","","image-button-response","235","461168","0.0-3.0-4.0-1.2","608d935efcfcd5d73e157adf","A3","batch1","","11829.399999976158","img/question_3_3.jpeg","0","spm_respsonse","0","3","mat_27","","","","","","0","11829.399999976158","","","","","","","","","","","","","","",""
"","","","","","html-keyboard-response","236","462228","0.0-3.0-4.0-0.3","608d935efcfcd5d73e157adf","A3","batch1","","null","<p class=block-text>Trial 28 out of 60</p>","null","spm_show_trial_num","","","","","","","","","","","","","","","","","","","","","","","","",""
"","","","","","image-button-response","237","468944","0.0-3.0-4.0-1.3","608d935efcfcd5d73e157adf","A3","batch1","","6712.5","img/question_3_4.jpeg","7","spm_respsonse","1","8","mat_28","","","","","","1","6712.5","","","","","","","","","","","","","","",""
"","","","","","html-keyboard-response","238","470004","0.0-3.0-4.0-0.4","608d935efcfcd5d73e157adf","A3","batch1","","null","<p class=block-text>Trial 29 out of 60</p>","null","spm_show_trial_num","","","","","","","","","","","","","","","","","","","","","","","","",""
"","","","","","image-button-response","239","482928","0.0-3.0-4.0-1.4","608d935efcfcd5d73e157adf","A3","batch1","","12921.400000035763","img/question_3_5.jpeg","6","spm_respsonse","1","7","mat_29","","","","","","1","12921.400000035763","","","","","","","","","","","","","","",""
"","","","","","html-keyboard-response","240","483991","0.0-3.0-4.0-0.5","608d935efcfcd5d73e157adf","A3","batch1","","null","<p class=block-text>Trial 30 out of 60</p>","null","spm_show_trial_num","","","","","","","","","","","","","","","","","","","","","","","","",""
"","","","","","image-button-response","241","488521","0.0-3.0-4.0-1.5","608d935efcfcd5d73e157adf","A3","batch1","","4526.199999988079","img/question_3_6.jpeg","3","spm_respsonse","1","4","mat_30","","","","","","1","4526.199999988079","","","","","","","","","","","","","","",""
"","","","","","html-keyboard-response","242","489586","0.0-3.0-4.0-0.6","608d935efcfcd5d73e157adf","A3","batch1","","null","<p class=block-text>Trial 31 out of 60</p>","null","spm_show_trial_num","","","","","","","","","","","","","","","","","","","","","","","","",""
"","","","","","image-button-response","243","496553","0.0-3.0-4.0-1.6","608d935efcfcd5d73e157adf","A3","batch1","","6964.200000047684","img/question_3_7.jpeg","4","spm_respsonse","1","5","mat_31","","","","","","1","6964.200000047684","","","","","","","","","","","","","","",""
"","","","","","html-keyboard-response","244","497617","0.0-3.0-4.0-0.7","608d935efcfcd5d73e157adf","A3","batch1","","null","<p class=block-text>Trial 32 out of 60</p>","null","spm_show_trial_num","","","","","","","","","","","","","","","","","","","","","","","","",""
"","","","","","image-button-response","245","505393","0.0-3.0-4.0-1.7","608d935efcfcd5d73e157adf","A3","batch1","","7773","img/question_3_8.jpeg","3","spm_respsonse","0","1","mat_32","","","","","","0","7773","","","","","","","","","","","","","","",""
"","","","","","html-keyboard-response","246","506449","0.0-3.0-4.0-0.8","608d935efcfcd5d73e157adf","A3","batch1","","null","<p class=block-text>Trial 33 out of 60</p>","null","spm_show_trial_num","","","","","","","","","","","","","","","","","","","","","","","","",""
"","","","","","image-button-response","247","512601","0.0-3.0-4.0-1.8","608d935efcfcd5d73e157adf","A3","batch1","","6149.099999964237","img/question_3_9.jpeg","6","spm_respsonse","1","7","mat_33","","","","","","1","6149.099999964237","","","","","","","","","","","","","","",""
"","","","","","html-keyboard-response","248","513665","0.0-3.0-4.0-0.9","608d935efcfcd5d73e157adf","A3","batch1","","null","<p class=block-text>Trial 34 out of 60</p>","null","spm_show_trial_num","","","","","","","","","","","","","","","","","","","","","","","","",""
"","","","","","image-button-response","249","528794","0.0-3.0-4.0-1.9","608d935efcfcd5d73e157adf","A3","batch1","","15126","img/question_3_10.jpeg","7","spm_respsonse","0","6","mat_34","","","","","","0","15126","","","","","","","","","","","","","","",""
"","","","","","html-keyboard-response","250","529857","0.0-3.0-4.0-0.10","608d935efcfcd5d73e157adf","A3","batch1","","null","<p class=block-text>Trial 35 out of 60</p>","null","spm_show_trial_num","","","","","","","","","","","","","","","","","","","","","","","","",""
"","","","","","image-button-response","251","544101","0.0-3.0-4.0-1.10","608d935efcfcd5d73e157adf","A3","batch1","","14238","img/question_3_11.jpeg","2","spm_respsonse","0","1","mat_35","","","","","","0","14238","","","","","","","","","","","","","","",""
"","","","","","html-keyboard-response","252","545157","0.0-3.0-4.0-0.11","608d935efcfcd5d73e157adf","A3","batch1","","null","<p class=block-text>Trial 36 out of 60</p>","null","spm_show_trial_num","","","","","","","","","","","","","","","","","","","","","","","","",""
"","","","","","image-button-response","253","554645","0.0-3.0-4.0-1.11","608d935efcfcd5d73e157adf","A3","batch1","","9485.600000023842","img/question_3_12.jpeg","1","spm_respsonse","1","2","mat_36","","","","","","1","9485.600000023842","","","","","","","","","","","","","","",""
"","","","","","html-keyboard-response","254","555713","0.0-3.0-4.0-0.12","608d935efcfcd5d73e157adf","A3","batch1","","null","<p class=block-text>Trial 37 out of 60</p>","null","spm_show_trial_num","","","","","","","","","","","","","","","","","","","","","","","","",""
"","","","","","image-button-response","255","557741","0.0-3.0-4.0-1.12","608d935efcfcd5d73e157adf","A3","batch1","","2025.300000011921","img/question_4_1.jpeg","2","spm_respsonse","1","3","mat_37","","","","","","1","2025.300000011921","","","","","","","","","","","","","","",""
"","","","","","html-keyboard-response","256","558808","0.0-3.0-4.0-0.13","608d935efcfcd5d73e157adf","A3","batch1","","null","<p class=block-text>Trial 38 out of 60</p>","null","spm_show_trial_num","","","","","","","","","","","","","","","","","","","","","","","","",""
"","","","","","image-button-response","257","563541","0.0-3.0-4.0-1.13","608d935efcfcd5d73e157adf","A3","batch1","","4730.400000035763","img/question_4_2.jpeg","3","spm_respsonse","1","4","mat_38","","","","","","1","4730.400000035763","","","","","","","","","","","","","","",""
"","","","","","html-keyboard-response","258","564605","0.0-3.0-4.0-0.14","608d935efcfcd5d73e157adf","A3","batch1","","null","<p class=block-text>Trial 39 out of 60</p>","null","spm_show_trial_num","","","","","","","","","","","","","","","","","","","","","","","","",""
"","","","","","image-button-response","259","571678","0.0-3.0-4.0-1.14","608d935efcfcd5d73e157adf","A3","batch1","","7069.699999988079","img/question_4_3.jpeg","2","spm_respsonse","1","3","mat_39","","","","","","1","7069.699999988079","","","","","","","","","","","","","","",""
"","","","","","html-keyboard-response","260","572733","0.0-3.0-4.0-0.15","608d935efcfcd5d73e157adf","A3","batch1","","null","<p class=block-text>Trial 40 out of 60</p>","null","spm_show_trial_num","","","","","","","","","","","","","","","","","","","","","","","","",""
"","","","","","image-button-response","261","578462","0.0-3.0-4.0-1.15","608d935efcfcd5d73e157adf","A3","batch1","","5726.100000023842","img/question_4_4.jpeg","6","spm_respsonse","1","7","mat_40","","","","","","1","5726.100000023842","","","","","","","","","","","","","","",""
"","","","","","html-keyboard-response","262","579517","0.0-3.0-4.0-0.16","608d935efcfcd5d73e157adf","A3","batch1","","null","<p class=block-text>Trial 41 out of 60</p>","null","spm_show_trial_num","","","","","","","","","","","","","","","","","","","","","","","","",""
"","","","","","image-button-response","263","586686","0.0-3.0-4.0-1.16","608d935efcfcd5d73e157adf","A3","batch1","","7166.199999988079","img/question_4_5.jpeg","7","spm_respsonse","1","8","mat_41","","","","","","1","7166.199999988079","","","","","","","","","","","","","","",""
"","","","","","html-keyboard-response","264","587756","0.0-3.0-4.0-0.17","608d935efcfcd5d73e157adf","A3","batch1","","null","<p class=block-text>Trial 42 out of 60</p>","null","spm_show_trial_num","","","","","","","","","","","","","","","","","","","","","","","","",""
"","","","","","image-button-response","265","594078","0.0-3.0-4.0-1.17","608d935efcfcd5d73e157adf","A3","batch1","","6319.300000011921","img/question_4_6.jpeg","2","spm_respsonse","0","6","mat_42","","","","","","0","6319.300000011921","","","","","","","","","","","","","","",""
"","","","","","html-keyboard-response","266","595140","0.0-3.0-4.0-0.18","608d935efcfcd5d73e157adf","A3","batch1","","null","<p class=block-text>Trial 43 out of 60</p>","null","spm_show_trial_num","","","","","","","","","","","","","","","","","","","","","","","","",""
"","","","","","image-button-response","267","610470","0.0-3.0-4.0-1.18","608d935efcfcd5d73e157adf","A3","batch1","","15327.600000023842","img/question_4_7.jpeg","4","spm_respsonse","1","5","mat_43","","","","","","1","15327.600000023842","","","","","","","","","","","","","","",""
"","","","","","html-keyboard-response","268","611533","0.0-3.0-4.0-0.19","608d935efcfcd5d73e157adf","A3","batch1","","null","<p class=block-text>Trial 44 out of 60</p>","null","spm_show_trial_num","","","","","","","","","","","","","","","","","","","","","","","","",""
"","","","","","image-button-response","269","627007","0.0-3.0-4.0-1.19","608d935efcfcd5d73e157adf","A3","batch1","","15470.399999976158","img/question_4_8.jpeg","3","spm_respsonse","1","4","mat_44","","","","","","1","15470.399999976158","","","","","","","","","","","","","","",""
"","","","","","html-keyboard-response","270","628072","0.0-3.0-4.0-0.20","608d935efcfcd5d73e157adf","A3","batch1","","null","<p class=block-text>Trial 45 out of 60</p>","null","spm_show_trial_num","","","","","","","","","","","","","","","","","","","","","","","","",""
"","","","","","image-button-response","271","640183","0.0-3.0-4.0-1.20","608d935efcfcd5d73e157adf","A3","batch1","","12108.100000023842","img/question_4_9.jpeg","0","spm_respsonse","1","1","mat_45","","","","","","1","12108.100000023842","","","","","","","","","","","","","","",""
"","","","","","html-keyboard-response","272","641252","0.0-3.0-4.0-0.21","608d935efcfcd5d73e157adf","A3","batch1","","null","<p class=block-text>Trial 46 out of 60</p>","null","spm_show_trial_num","","","","","","","","","","","","","","","","","","","","","","","","",""
"","","","","","image-button-response","273","651815","0.0-3.0-4.0-1.21","608d935efcfcd5d73e157adf","A3","batch1","","10560.200000047684","img/question_4_10.jpeg","1","spm_respsonse","1","2","mat_46","","","","","","1","10560.200000047684","","","","","","","","","","","","","","",""
"","","","","","html-keyboard-response","274","652888","0.0-3.0-4.0-0.22","608d935efcfcd5d73e157adf","A3","batch1","","null","<p class=block-text>Trial 47 out of 60</p>","null","spm_show_trial_num","","","","","","","","","","","","","","","","","","","","","","","","",""
"","","","","","image-button-response","275","665898","0.0-3.0-4.0-1.22","608d935efcfcd5d73e157adf","A3","batch1","","13004.899999976158","img/question_4_11.jpeg","6","spm_respsonse","0","5","mat_47","","","","","","0","13004.899999976158","","","","","","","","","","","","","","",""
"","","","","","html-keyboard-response","276","666967","0.0-3.0-4.0-0.23","608d935efcfcd5d73e157adf","A3","batch1","","null","<p class=block-text>Trial 48 out of 60</p>","null","spm_show_trial_num","","","","","","","","","","","","","","","","","","","","","","","","",""
"","","","","","image-button-response","277","673626","0.0-3.0-4.0-1.23","608d935efcfcd5d73e157adf","A3","batch1","","6655.600000023842","img/question_4_12.jpeg","0","spm_respsonse","0","6","mat_48","","","","","","0","6655.600000023842","","","","","","","","","","","","","","",""
"","","","","","html-keyboard-response","278","674690","0.0-3.0-4.0-0.24","608d935efcfcd5d73e157adf","A3","batch1","","null","<p class=block-text>Trial 49 out of 60</p>","null","spm_show_trial_num","","","","","","","","","","","","","","","","","","","","","","","","",""
"","","","","","image-button-response","279","678675","0.0-3.0-4.0-1.24","608d935efcfcd5d73e157adf","A3","batch1","","3981.399999976158","img/question_5_1.jpeg","0","spm_respsonse","0","7","mat_49","","","","","","0","3981.399999976158","","","","","","","","","","","","","","",""
"","","","","","html-keyboard-response","280","679741","0.0-3.0-4.0-0.25","608d935efcfcd5d73e157adf","A3","batch1","","null","<p class=block-text>Trial 50 out of 60</p>","null","spm_show_trial_num","","","","","","","","","","","","","","","","","","","","","","","","",""
"","","","","","image-button-response","281","684323","0.0-3.0-4.0-1.25","608d935efcfcd5d73e157adf","A3","batch1","","4578.700000047684","img/question_5_2.jpeg","6","spm_respsonse","0","6","mat_50","","","","","","0","4578.700000047684","","","","","","","","","","","","","","",""
"","","","","","html-keyboard-response","282","685380","0.0-3.0-4.0-0.26","608d935efcfcd5d73e157adf","A3","batch1","","null","<p class=block-text>Trial 51 out of 60</p>","null","spm_show_trial_num","","","","","","","","","","","","","","","","","","","","","","","","",""
"","","","","","image-button-response","283","692604","0.0-3.0-4.0-1.26","608d935efcfcd5d73e157adf","A3","batch1","","7221.700000047684","img/question_5_3.jpeg","4","spm_respsonse","0","8","mat_51","","","","","","0","7221.700000047684","","","","","","","","","","","","","","",""
"","","","","","html-keyboard-response","284","693667","0.0-3.0-4.0-0.27","608d935efcfcd5d73e157adf","A3","batch1","","null","<p class=block-text>Trial 52 out of 60</p>","null","spm_show_trial_num","","","","","","","","","","","","","","","","","","","","","","","","",""
"","","","","","image-button-response","285","698516","0.0-3.0-4.0-1.27","608d935efcfcd5d73e157adf","A3","batch1","","4844.899999976158","img/question_5_4.jpeg","2","spm_respsonse","0","2","mat_52","","","","","","0","4844.899999976158","","","","","","","","","","","","","","",""
"","","","","","html-keyboard-response","286","699577","0.0-3.0-4.0-0.28","608d935efcfcd5d73e157adf","A3","batch1","","null","<p class=block-text>Trial 53 out of 60</p>","null","spm_show_trial_num","","","","","","","","","","","","","","","","","","","","","","","","",""
"","","","","","image-button-response","287","708363","0.0-3.0-4.0-1.28","608d935efcfcd5d73e157adf","A3","batch1","","8782.300000011921","img/question_5_5.jpeg","1","spm_respsonse","0","1","mat_53","","","","","","0","8782.300000011921","","","","","","","","","","","","","","",""
"","","","","","html-keyboard-response","288","709422","0.0-3.0-4.0-0.29","608d935efcfcd5d73e157adf","A3","batch1","","null","<p class=block-text>Trial 54 out of 60</p>","null","spm_show_trial_num","","","","","","","","","","","","","","","","","","","","","","","","",""
"","","","","","image-button-response","289","714012","0.0-3.0-4.0-1.29","608d935efcfcd5d73e157adf","A3","batch1","","4586.5","img/question_5_6.jpeg","6","spm_respsonse","0","5","mat_54","","","","","","0","4586.5","","","","","","","","","","","","","","",""
"","","","","","html-keyboard-response","290","715074","0.0-3.0-4.0-0.30","608d935efcfcd5d73e157adf","A3","batch1","","null","<p class=block-text>Trial 55 out of 60</p>","null","spm_show_trial_num","","","","","","","","","","","","","","","","","","","","","","","","",""
"","","","","","image-button-response","291","722892","0.0-3.0-4.0-1.30","608d935efcfcd5d73e157adf","A3","batch1","","7814.899999976158","img/question_5_7.jpeg","3","spm_respsonse","0","1","mat_55","","","","","","0","7814.899999976158","","","","","","","","","","","","","","",""
"","","","","","html-keyboard-response","292","723956","0.0-3.0-4.0-0.31","608d935efcfcd5d73e157adf","A3","batch1","","null","<p class=block-text>Trial 56 out of 60</p>","null","spm_show_trial_num","","","","","","","","","","","","","","","","","","","","","","","","",""
"","","","","","image-button-response","293","729445","0.0-3.0-4.0-1.31","608d935efcfcd5d73e157adf","A3","batch1","","5485.399999976158","img/question_5_8.jpeg","7","spm_respsonse","0","6","mat_56","","","","","","0","5485.399999976158","","","","","","","","","","","","","","",""
"","","","","","html-keyboard-response","294","730513","0.0-3.0-4.0-0.32","608d935efcfcd5d73e157adf","A3","batch1","","null","<p class=block-text>Trial 57 out of 60</p>","null","spm_show_trial_num","","","","","","","","","","","","","","","","","","","","","","","","",""
"","","","","","image-button-response","295","736037","0.0-3.0-4.0-1.32","608d935efcfcd5d73e157adf","A3","batch1","","5521.399999976158","img/question_5_9.jpeg","4","spm_respsonse","0","3","mat_57","","","","","","0","5521.399999976158","","","","","","","","","","","","","","",""
"","","","","","html-keyboard-response","296","737098","0.0-3.0-4.0-0.33","608d935efcfcd5d73e157adf","A3","batch1","","null","<p class=block-text>Trial 58 out of 60</p>","null","spm_show_trial_num","","","","","","","","","","","","","","","","","","","","","","","","",""
"","","","","","image-button-response","297","742789","0.0-3.0-4.0-1.33","608d935efcfcd5d73e157adf","A3","batch1","","5687.700000047684","img/question_5_10.jpeg","5","spm_respsonse","0","2","mat_58","","","","","","0","5687.700000047684","","","","","","","","","","","","","","",""
"","","","","","html-keyboard-response","298","743853","0.0-3.0-4.0-0.34","608d935efcfcd5d73e157adf","A3","batch1","","null","<p class=block-text>Trial 59 out of 60</p>","null","spm_show_trial_num","","","","","","","","","","","","","","","","","","","","","","","","",""
"","","","","","image-button-response","299","748030","0.0-3.0-4.0-1.34","608d935efcfcd5d73e157adf","A3","batch1","","4173.600000023842","img/question_5_11.jpeg","2","spm_respsonse","0","4","mat_59","","","","","","0","4173.600000023842","","","","","","","","","","","","","","",""
"","","","","","html-keyboard-response","300","749095","0.0-3.0-4.0-0.35","608d935efcfcd5d73e157adf","A3","batch1","","null","<p class=block-text>Trial 60 out of 60</p>","null","spm_show_trial_num","","","","","","","","","","","","","","","","","","","","","","","","",""
"","","","","","image-button-response","301","756046","0.0-3.0-4.0-1.35","608d935efcfcd5d73e157adf","A3","batch1","","6948.899999976158","img/question_5_12.jpeg","2","spm_respsonse","0","5","mat_60","","","","","","0","6948.899999976158","","","","","","","","","","","","","","",""
"","","","","","html-button-response","302","757782","0.0-3.0-5.0","608d935efcfcd5d73e157adf","A3","batch1","","1474.300000011921","<p class= block-text>This concludes the Standard Progressive Matrix game. Thank you for your responses!<br> When you are ready, click the button continue</p>","0","spm_goodbye","","","","","","","","","","","","","","","","","","","","","","","","",""
"true","","","","","fullscreen","303","760477","0.0-4.0-0.0","608d935efcfcd5d73e157adf","A3","batch1","","","","","","","","","","","","","","","","","","","","","","","","","","","","","",""
"","","","","","instructions","304","830560","0.0-4.0-1.0-0.0-0.0","608d935efcfcd5d73e157adf","A3","batch1","[{""page_index"":0,""viewing_time"":21024.099999964237},{""page_index"":1,""viewing_time"":5159.699999988079},{""page_index"":2,""viewing_time"":3344.300000011921},{""page_index"":3,""viewing_time"":20752.80000001192},{""page_index"":4,""viewing_time"":5064.100000023842},{""page_index"":5,""viewing_time"":12960.399999976158},{""page_index"":6,""viewing_time"":1784.1000000238419}]","70090.09999996424","","","tol-instructions","","","","","","","","","","","","","","","","","","","","","","","","",""
"","","","","","html-button-response","305","831536","0.0-4.0-1.0-1.0-0.0","608d935efcfcd5d73e157adf","A3","batch1","","974","<p class=block-text> Let's answer a few questions <br>","0","tol_enter_quiz","","","","","","","","","","","","","","","","","","","","","","","","",""
"","","","","","html-button-response","306","834848","0.0-4.0-1.0-1.0-1.0","608d935efcfcd5d73e157adf","A3","batch1","","3310.399999976158","<p class = block-text>True or False: You can only move the ball on top of a peg. <br></p>","0","tol_quiz","true","","","","","","","","","","","","","","","","","","","","","","","",""
"","","","","","html-button-response","307","838776","0.0-4.0-1.0-1.0-2.0","608d935efcfcd5d73e157adf","A3","batch1","","3926.099999964237","<p class = block-text>Correct! You can only move the ball on top of a peg.</p>","0","tol_quiz_feedback","","","","","","","","","","","","","","","","","","","","","","","","",""
"","","","","","html-button-response","308","840913","0.0-4.0-1.0-1.0-3.0","608d935efcfcd5d73e157adf","A3","batch1","","2134.699999988079","<p class = block-text>True or False: You should try to match your board with the target board with fewest moves possible. <br></p>","0","tol_quiz","true","","","","","","","","","","","","","","","","","","","","","","","",""
"","","","","","html-button-response","309","841672","0.0-4.0-1.0-1.0-4.0","608d935efcfcd5d73e157adf","A3","batch1","","758.1999999880791","<p class = block-text>Correct! </p>","0","tol_quiz_feedback","","","","","","","","","","","","","","","","","","","","","","","","",""
"","","","","","html-button-response","310","842952","0.0-4.0-2.0","608d935efcfcd5d73e157adf","A3","batch1","","1277.199999988079","<p class=block-text> Now that you've understood the game, let's practice a few easier examples before we start!<br> <br>","0","","","","","","","","","","","","","","","","","","","","","","","","","",""
"","","","","","single-stim-button","311","845427","0.0-4.0-3.0-0.0","608d935efcfcd5d73e157adf","A3","batch1","","2472","","","tol_practice","","","","","","","","","","","tol_peg_2","2472","2472","0","[[1,2,0],[0,0],[0]]","1","[[1,2,0],[0,0],[3]]","practice","2472","","","","","",""
"","","","","","single-stim-button","312","846930","0.0-4.0-3.0-1.0","608d935efcfcd5d73e157adf","A3","batch1","","1503","","","tol_practice","","","","","","","","","","","tol_peg_3","1503","1503","0","[[1,2,0],[0,0],[3]]","1","[[1,2,0],[0,0],[3]]","practice","1503","","","","","",""
"","","","","","poldrack-single-stim","313","847941","0.0-4.0-4.0","608d935efcfcd5d73e157adf","A3","batch1","","-1","","","tol_feedback","true","","","","","","","","","","","1000","1000","500","","","","","","-1","none","true","","0",""
"","","","","","single-stim-button","314","852474","0.0-4.0-5.0-0.0","608d935efcfcd5d73e157adf","A3","batch1","","4533","","","tol_practice","","","","","","","","","","","tol_peg_1","4533","4533","0","[[1,0,0],[3,0],[0]]","2","[[0,0,0],[3,1],[2]]","practice","4533","","","","","",""
"","","","","","single-stim-button","315","853506","0.0-4.0-5.0-1.0","608d935efcfcd5d73e157adf","A3","batch1","","1030","","","tol_practice","","","","","","","","","","","tol_peg_3","1030","1030","0","[[1,0,0],[3,0],[2]]","2","[[0,0,0],[3,1],[2]]","practice","1030","","","","","",""
"","","","","","single-stim-button","316","854196","0.0-4.0-5.1-0.1","608d935efcfcd5d73e157adf","A3","batch1","","688","","","tol_practice","","","","","","","","","","","tol_peg_1","688","688","0","[[0,0,0],[3,0],[2]]","3","[[0,0,0],[3,1],[2]]","practice","688","","","","","",""
"","","","","","single-stim-button","317","854970","0.0-4.0-5.1-1.1","608d935efcfcd5d73e157adf","A3","batch1","","773","","","tol_practice","","","","","","","","","","","tol_peg_2","773","773","0","[[0,0,0],[3,1],[2]]","3","[[0,0,0],[3,1],[2]]","practice","773","","","","","",""
"","","","","","poldrack-single-stim","318","855979","0.0-4.0-6.0","608d935efcfcd5d73e157adf","A3","batch1","","-1","","","tol_feedback","true","","","","","","","","","","","1000","1000","500","","","","","","-1","none","true","","0",""
"","","","","","single-stim-button","319","859364","0.0-4.0-7.0-0.0","608d935efcfcd5d73e157adf","A3","batch1","","3383","","","tol_practice","","","","","","","","","","","tol_peg_2","3383","3383","0","[[1,2,0],[0,0],[0]]","4","[[1,0,0],[2,0],[3]]","practice","3383","","","","","",""
"","","","","","single-stim-button","320","860042","0.0-4.0-7.0-1.0","608d935efcfcd5d73e157adf","A3","batch1","","678","","","tol_practice","","","","","","","","","","","tol_peg_3","678","678","0","[[1,2,0],[0,0],[3]]","4","[[1,0,0],[2,0],[3]]","practice","678","","","","","",""
"","","","","","single-stim-button","321","860794","0.0-4.0-7.1-0.1","608d935efcfcd5d73e157adf","A3","batch1","","751","","","tol_practice","","","","","","","","","","","tol_peg_1","751","751","0","[[1,0,0],[0,0],[3]]","5","[[1,0,0],[2,0],[3]]","practice","751","","","","","",""
"","","","","","single-stim-button","322","861355","0.0-4.0-7.1-1.1","608d935efcfcd5d73e157adf","A3","batch1","","559","","","tol_practice","","","","","","","","","","","tol_peg_2","559","559","0","[[1,0,0],[2,0],[3]]","5","[[1,0,0],[2,0],[3]]","practice","559","","","","","",""
"","","","","","poldrack-single-stim","323","862361","0.0-4.0-8.0","608d935efcfcd5d73e157adf","A3","batch1","","-1","","","tol_feedback","true","","","","","","","","","","","1000","1000","500","","","","","","-1","none","true","","0",""
"","","","","","html-button-response","324","864075","0.0-4.0-9.0","608d935efcfcd5d73e157adf","A3","batch1","","1712.199999988079","<div class = centerbox><p class = center-block-text>Great job! You are done with practice trials<br>You are about to start official trials.<br> <br> Problem <strong>1</strong> out of 25 problems</p></div>","0","tol_instruction","","","","","","","","","","","","","","","","","","","","","","","","",""
"","","","","","single-stim-button","325","868259","0.0-4.0-10.0-0.0","608d935efcfcd5d73e157adf","A3","batch1","","3181","","","tol_tohand","","","","","","","","","","","tol_peg_1","3181","3181","0","[[1,0,0],[3,0],[0]]","1","[[1,3,0],[2,0],[0]]","0","0","","","","","","3"
"","","","","","single-stim-button","326","869611","0.0-4.0-10.0-1.0","608d935efcfcd5d73e157adf","A3","batch1","","1350","","","tol_toboard","","","","","","","","","","","tol_peg_3","1350","1350","0","[[1,0,0],[3,0],[2]]","1","[[1,3,0],[2,0],[0]]","0","0","","","","","","3"
"","","","","","single-stim-button","327","870666","0.0-4.0-10.1-0.1","608d935efcfcd5d73e157adf","A3","batch1","","1055","","","tol_tohand","","","","","","","","","","","tol_peg_2","1055","1055","0","[[1,0,0],[0,0],[2]]","2","[[1,3,0],[2,0],[0]]","0","0","","","","","","3"
"","","","","","single-stim-button","328","871267","0.0-4.0-10.1-1.1","608d935efcfcd5d73e157adf","A3","batch1","","599","","","tol_toboard","","","","","","","","","","","tol_peg_1","599","599","0","[[1,3,0],[0,0],[2]]","2","[[1,3,0],[2,0],[0]]","0","0","","","","","","3"
"","","","","","single-stim-button","329","872732","0.0-4.0-10.2-0.2","608d935efcfcd5d73e157adf","A3","batch1","","1465","","","tol_tohand","","","","","","","","","","","tol_peg_3","1465","1465","0","[[1,3,0],[0,0],[0]]","3","[[1,3,0],[2,0],[0]]","0","0","","","","","","3"
"","","","","","single-stim-button","330","873747","0.0-4.0-10.2-1.2","608d935efcfcd5d73e157adf","A3","batch1","","1013","","","tol_toboard","","","","","","","","","","","tol_peg_2","1013","1013","0","[[1,3,0],[2,0],[0]]","3","[[1,3,0],[2,0],[0]]","0","0","","","","","","3"
"","","","","","poldrack-single-stim","331","874757","0.0-4.0-11.0","608d935efcfcd5d73e157adf","A3","batch1","","-1","","","tol_feedback","true","","","","","","","","","","","1000","1000","500","","","","","","-1","none","true","3181","5701",""
"","","","","","html-button-response","332","875771","0.0-4.0-12.0","608d935efcfcd5d73e157adf","A3","batch1","","1012.3999999761581","<div class = centerbox><p class = center-block-text>problem <strong>2</strong> out of 25 problems</p></div>","0","tol_trial_num","","","","","","","","","","","","","","","","","","","","","","","","",""
"","","","","","single-stim-button","333","879387","0.0-4.0-13.0-0.0","608d935efcfcd5d73e157adf","A3","batch1","","3615","","","tol_tohand","","","","","","","","","","","tol_peg_1","3615","3615","0","[[1,0,0],[3,0],[0]]","1","[[2,1,3],[0,0],[0]]","1","0","","","","","","5"
"","","","","","single-stim-button","334","880188","0.0-4.0-13.0-1.0","608d935efcfcd5d73e157adf","A3","batch1","","799","","","tol_toboard","","","","","","","","","","","tol_peg_3","799","799","0","[[1,0,0],[3,0],[2]]","1","[[2,1,3],[0,0],[0]]","1","0","","","","","","5"
"","","","","","single-stim-button","335","885147","0.0-4.0-13.1-0.1","608d935efcfcd5d73e157adf","A3","batch1","","4958","","","tol_tohand","","","","","","","","","","","tol_peg_1","4958","4958","0","[[0,0,0],[3,0],[2]]","2","[[2,1,3],[0,0],[0]]","1","0","","","","","","5"
"","","","","","single-stim-button","336","886131","0.0-4.0-13.1-1.1","608d935efcfcd5d73e157adf","A3","batch1","","983","","","tol_toboard","","","","","","","","","","","tol_peg_2","983","983","0","[[0,0,0],[3,1],[2]]","2","[[2,1,3],[0,0],[0]]","1","0","","","","","","5"
"","","","","","single-stim-button","337","886989","0.0-4.0-13.2-0.2","608d935efcfcd5d73e157adf","A3","batch1","","856","","","tol_tohand","","","","","","","","","","","tol_peg_3","856","856","0","[[0,0,0],[3,1],[0]]","3","[[2,1,3],[0,0],[0]]","1","0","","","","","","5"
"","","","","","single-stim-button","338","888179","0.0-4.0-13.2-1.2","608d935efcfcd5d73e157adf","A3","batch1","","1190","","","tol_toboard","","","","","","","","","","","tol_peg_1","1190","1190","0","[[2,0,0],[3,1],[0]]","3","[[2,1,3],[0,0],[0]]","1","0","","","","","","5"
"","","","","","single-stim-button","339","889275","0.0-4.0-13.3-0.3","608d935efcfcd5d73e157adf","A3","batch1","","1095","","","tol_tohand","","","","","","","","","","","tol_peg_2","1095","1095","0","[[2,0,0],[3,0],[0]]","4","[[2,1,3],[0,0],[0]]","1","0","","","","","","5"
"","","","","","single-stim-button","340","890100","0.0-4.0-13.3-1.3","608d935efcfcd5d73e157adf","A3","batch1","","823","","","tol_toboard","","","","","","","","","","","tol_peg_1","823","823","0","[[2,1,0],[3,0],[0]]","4","[[2,1,3],[0,0],[0]]","1","0","","","","","","5"
"","","","","","single-stim-button","341","890877","0.0-4.0-13.4-0.4","608d935efcfcd5d73e157adf","A3","batch1","","776","","","tol_tohand","","","","","","","","","","","tol_peg_2","776","776","0","[[2,1,0],[0,0],[0]]","5","[[2,1,3],[0,0],[0]]","1","0","","","","","","5"
"","","","","","single-stim-button","342","891675","0.0-4.0-13.4-1.4","608d935efcfcd5d73e157adf","A3","batch1","","798","","","tol_toboard","","","","","","","","","","","tol_peg_1","798","798","0","[[2,1,3],[0,0],[0]]","5","[[2,1,3],[0,0],[0]]","1","0","","","","","","5"
"","","","","","poldrack-single-stim","343","892681","0.0-4.0-14.0","608d935efcfcd5d73e157adf","A3","batch1","","-1","","","tol_feedback","true","","","","","","","","","","","1000","1000","500","","","","","","-1","none","true","3615","11300",""
"","","","","","html-button-response","344","893531","0.0-4.0-15.0","608d935efcfcd5d73e157adf","A3","batch1","","848.5","<div class = centerbox><p class = center-block-text>problem <strong>3</strong> out of 25 problems</p></div>","0","tol_trial_num","","","","","","","","","","","","","","","","","","","","","","","","",""
"","","","","","single-stim-button","345","898308","0.0-4.0-16.0-0.0","608d935efcfcd5d73e157adf","A3","batch1","","4775","","","tol_tohand","","","","","","","","","","","tol_peg_1","4775","4775","0","[[2,0,0],[0,0],[1]]","1","[[1,2,0],[3,0],[0]]","2","0","","","","","","4"
"","","","","","single-stim-button","346","899100","0.0-4.0-16.0-1.0","608d935efcfcd5d73e157adf","A3","batch1","","791","","","tol_toboard","","","","","","","","","","","tol_peg_2","791","791","0","[[2,0,0],[3,0],[1]]","1","[[1,2,0],[3,0],[0]]","2","0","","","","","","4"
"","","","","","single-stim-button","347","901116","0.0-4.0-16.1-0.1","608d935efcfcd5d73e157adf","A3","batch1","","2015","","","tol_tohand","","","","","","","","","","","tol_peg_1","2015","2015","0","[[0,0,0],[3,0],[1]]","2","[[1,2,0],[3,0],[0]]","2","0","","","","","","4"
"","","","","","single-stim-button","348","901916","0.0-4.0-16.1-1.1","608d935efcfcd5d73e157adf","A3","batch1","","799","","","tol_toboard","","","","","","","","","","","tol_peg_2","799","799","0","[[0,0,0],[3,2],[1]]","2","[[1,2,0],[3,0],[0]]","2","0","","","","","","4"
