"success","timeout","failed_images","failed_audio","failed_video","trial_type","trial_index","time_elapsed","internal_node_id","subject_id","study_id","session_id","view_history","rt","task","stimulus","response","correct","mouse_click","stim_duration","block_duration","timing_post_trial","current_position","tol_num_moves_made","tol_target","tol_problem_id","tol_rt","key_press","possible_responses","tol_correct","preplanning","tol_rt_per_trial","tol_min_moves","item","answer","spm_correct","spm_rt","fiar_detect_rt","fiar_detect_correct","total_correct_fiar_detect","post_trial_gap","choices"
"true","false","[]","[]","[]","preload","0","1895","0.0-0.0","6092dea4efd6d61350f0fdbf","D2","batch4","","","","","","","","","","","","","","","","","","","","","","","","","","","","","",""
"true","","","","","fullscreen","1","9247","0.0-1.0-0.0","6092dea4efd6d61350f0fdbf","D2","batch4","","","","","","","","","","","","","","","","","","","","","","","","","","","","","",""
"true","","","","","fullscreen","2","11060","0.0-2.0-0.0","6092dea4efd6d61350f0fdbf","D2","batch4","","","","","","","","","","","","","","","","","","","","","","","","","","","","","",""
"","","","","","instructions","3","51091","0.0-2.0-1.0-0.0-0.0","6092dea4efd6d61350f0fdbf","D2","batch4","[{""page_index"":0,""viewing_time"":8811},{""page_index"":1,""viewing_time"":4903},{""page_index"":2,""viewing_time"":3499},{""page_index"":3,""viewing_time"":8314},{""page_index"":4,""viewing_time"":4731},{""page_index"":5,""viewing_time"":6808},{""page_index"":6,""viewing_time"":2962}]","40028","tol-instructions","","","","","","","","","","","","","","","","","","","","","","","","","","",""
"","","","","","html-button-response","4","51914","0.0-2.0-1.0-1.0-0.0","6092dea4efd6d61350f0fdbf","D2","batch4","","822","tol_enter_quiz","<p class=block-text> Let's answer a few questions <br>","0","","","","","","","","","","","","","","","","","","","","","","","","",""
"","","","","","html-button-response","5","54136","0.0-2.0-1.0-1.0-1.0","6092dea4efd6d61350f0fdbf","D2","batch4","","2220","tol_quiz","<p class = block-text>True or False: You can only move the ball on top of a peg. <br></p>","1","false","","","","","","","","","","","","","","","","","","","","","","","",""
"","","","","","html-button-response","6","54994","0.0-2.0-1.0-1.0-2.0","6092dea4efd6d61350f0fdbf","D2","batch4","","858","tol_quiz_feedback","<p class = block-text>Incorrect. Remember, you can only move the ball on top of a peg.</p>","0","","","","","","","","","","","","","","","","","","","","","","","","",""
"","","","","","html-button-response","7","57320","0.0-2.0-1.0-1.0-3.0","6092dea4efd6d61350f0fdbf","D2","batch4","","2326","tol_quiz","<p class = block-text>True or False: You should try to match your board with the target board with fewest moves possible. <br></p>","0","true","","","","","","","","","","","","","","","","","","","","","","","",""
"","","","","","html-button-response","8","57915","0.0-2.0-1.0-1.0-4.0","6092dea4efd6d61350f0fdbf","D2","batch4","","595","tol_quiz_feedback","<p class = block-text>Correct! </p>","0","","","","","","","","","","","","","","","","","","","","","","","","",""
"","","","","","html-button-response","9","58643","0.0-2.0-1.0-2.0-0.0","6092dea4efd6d61350f0fdbf","D2","batch4","","726","","<p class = block-text>You made too many incorrect choices.</p><p class = block-text>You will now repeat the instructions and quiz</p>","0","","","","","","","","","","","","","","","","","","","","","","","","",""
"","","","","","instructions","10","62692","0.0-2.0-1.1-0.1-0.1","6092dea4efd6d61350f0fdbf","D2","batch4","[{""page_index"":0,""viewing_time"":1087},{""page_index"":1,""viewing_time"":420},{""page_index"":2,""viewing_time"":360},{""page_index"":3,""viewing_time"":386},{""page_index"":4,""viewing_time"":499},{""page_index"":5,""viewing_time"":398},{""page_index"":6,""viewing_time"":899}]","4049","tol-instructions","","","","","","","","","","","","","","","","","","","","","","","","","","",""
"","","","","","html-button-response","11","63273","0.0-2.0-1.1-1.1-0.1","6092dea4efd6d61350f0fdbf","D2","batch4","","579","tol_enter_quiz","<p class=block-text> Let's answer a few questions <br>","0","","","","","","","","","","","","","","","","","","","","","","","","",""
"","","","","","html-button-response","12","63522","0.0-2.0-1.1-1.1-1.1","6092dea4efd6d61350f0fdbf","D2","batch4","","248","tol_quiz","<p class = block-text>True or False: You can only move the ball on top of a peg. <br></p>","0","true","","","","","","","","","","","","","","","","","","","","","","","",""
"","","","","","html-button-response","13","64429","0.0-2.0-1.1-1.1-2.1","6092dea4efd6d61350f0fdbf","D2","batch4","","906","tol_quiz_feedback","<p class = block-text>Correct! You can only move the ball on top of a peg.</p>","0","","","","","","","","","","","","","","","","","","","","","","","","",""
"","","","","","html-button-response","14","64893","0.0-2.0-1.1-1.1-3.1","6092dea4efd6d61350f0fdbf","D2","batch4","","463","tol_quiz","<p class = block-text>True or False: You should try to match your board with the target board with fewest moves possible. <br></p>","0","true","","","","","","","","","","","","","","","","","","","","","","","",""
"","","","","","html-button-response","15","65705","0.0-2.0-1.1-1.1-4.1","6092dea4efd6d61350f0fdbf","D2","batch4","","810","tol_quiz_feedback","<p class = block-text>Correct! </p>","0","","","","","","","","","","","","","","","","","","","","","","","","",""
"","","","","","html-button-response","16","69008","0.0-2.0-2.0","6092dea4efd6d61350f0fdbf","D2","batch4","","3304","","<p class=block-text> Now that you've understood the game, let's practice a few easier examples before we start!<br> <br>","0","","","","","","","","","","","","","","","","","","","","","","","","",""
"","","","","","single-stim-button","17","73331","0.0-2.0-3.0-0.0","6092dea4efd6d61350f0fdbf","D2","batch4","","4321","tol_practice","","","","tol_peg_2","4321","4321","0","[[1,2,0],[0,0],[0]]","1","[[1,2,0],[0,0],[3]]","practice","4321","","","","","","","","","","","","","","",""
"","","","","","single-stim-button","18","74537","0.0-2.0-3.0-1.0","6092dea4efd6d61350f0fdbf","D2","batch4","","1205","tol_practice","","","","tol_peg_3","1205","1205","0","[[1,2,0],[0,0],[3]]","1","[[1,2,0],[0,0],[3]]","practice","1205","","","","","","","","","","","","","","",""
"","","","","","poldrack-single-stim","19","75543","0.0-2.0-4.0","6092dea4efd6d61350f0fdbf","D2","batch4","","-1","tol_feedback","","","true","","1000","1000","500","","","","","","-1","none","true","","0","","","","","","","","","",""
"","","","","","single-stim-button","20","79742","0.0-2.0-5.0-0.0","6092dea4efd6d61350f0fdbf","D2","batch4","","4197","tol_practice","","","","tol_peg_1","4197","4197","0","[[1,0,0],[3,0],[0]]","2","[[0,0,0],[3,1],[2]]","practice","4197","","","","","","","","","","","","","","",""
"","","","","","single-stim-button","21","82616","0.0-2.0-5.0-1.0","6092dea4efd6d61350f0fdbf","D2","batch4","","2873","tol_practice","","","","tol_peg_3","2873","2873","0","[[1,0,0],[3,0],[2]]","2","[[0,0,0],[3,1],[2]]","practice","2873","","","","","","","","","","","","","","",""
"","","","","","single-stim-button","22","83394","0.0-2.0-5.1-0.1","6092dea4efd6d61350f0fdbf","D2","batch4","","776","tol_practice","","","","tol_peg_1","776","776","0","[[0,0,0],[3,0],[2]]","3","[[0,0,0],[3,1],[2]]","practice","776","","","","","","","","","","","","","","",""
"","","","","","single-stim-button","23","84000","0.0-2.0-5.1-1.1","6092dea4efd6d61350f0fdbf","D2","batch4","","606","tol_practice","","","","tol_peg_2","606","606","0","[[0,0,0],[3,1],[2]]","3","[[0,0,0],[3,1],[2]]","practice","606","","","","","","","","","","","","","","",""
"","","","","","poldrack-single-stim","24","85013","0.0-2.0-6.0","6092dea4efd6d61350f0fdbf","D2","batch4","","-1","tol_feedback","","","true","","1000","1000","500","","","","","","-1","none","true","","0","","","","","","","","","",""
"","","","","","single-stim-button","25","88349","0.0-2.0-7.0-0.0","6092dea4efd6d61350f0fdbf","D2","batch4","","3335","tol_practice","","","","tol_peg_1","3335","3335","0","[[1,0,0],[3,0],[0]]","4","[[1,0,0],[2,0],[3]]","practice","3335","","","","","","","","","","","","","","",""
"","","","","","single-stim-button","26","90243","0.0-2.0-7.0-1.0","6092dea4efd6d61350f0fdbf","D2","batch4","","1893","tol_practice","","","","tol_peg_3","1893","1893","0","[[1,0,0],[3,0],[2]]","4","[[1,0,0],[2,0],[3]]","practice","1893","","","","","","","","","","","","","","",""
"","","","","","single-stim-button","27","91608","0.0-2.0-7.1-0.1","6092dea4efd6d61350f0fdbf","D2","batch4","","1365","tol_practice","","","","tol_peg_3","1365","1365","0","[[1,0,0],[3,0],[0]]","5","[[1,0,0],[2,0],[3]]","practice","1365","","","","","","","","","","","","","","",""
"","","","","","single-stim-button","28","92308","0.0-2.0-7.1-1.1","6092dea4efd6d61350f0fdbf","D2","batch4","","700","tol_practice","","","","tol_peg_2","700","700","0","[[1,0,0],[3,2],[0]]","5","[[1,0,0],[2,0],[3]]","practice","700","","","","","","","","","","","","","","",""
"","","","","","single-stim-button","29","93489","0.0-2.0-7.2-0.2","6092dea4efd6d61350f0fdbf","D2","batch4","","1179","tol_practice","","","","tol_peg_2","1179","1179","0","[[1,0,0],[3,0],[0]]","6","[[1,0,0],[2,0],[3]]","practice","1179","","","","","","","","","","","","","","",""
"","","","","","single-stim-button","30","95373","0.0-2.0-7.2-1.2","6092dea4efd6d61350f0fdbf","D2","batch4","","1883","tol_practice","","","","tol_peg_2","1883","1883","0","[[1,0,0],[3,2],[0]]","6","[[1,0,0],[2,0],[3]]","practice","1883","","","","","","","","","","","","","","",""
"","","","","","single-stim-button","31","103265","0.0-2.0-7.3-0.3","6092dea4efd6d61350f0fdbf","D2","batch4","","7891","tol_practice","","","","tol_peg_2","7891","7891","0","[[1,0,0],[3,0],[0]]","7","[[1,0,0],[2,0],[3]]","practice","7891","","","","","","","","","","","","","","",""
"","","","","","single-stim-button","32","105010","0.0-2.0-7.3-1.3","6092dea4efd6d61350f0fdbf","D2","batch4","","1743","tol_practice","","","","tol_peg_1","1743","1743","0","[[1,2,0],[3,0],[0]]","7","[[1,0,0],[2,0],[3]]","practice","1743","","","","","","","","","","","","","","",""
"","","","","","single-stim-button","33","105514","0.0-2.0-7.4-0.4","6092dea4efd6d61350f0fdbf","D2","batch4","","504","tol_practice","","","","tol_peg_2","504","504","0","[[1,2,0],[0,0],[0]]","8","[[1,0,0],[2,0],[3]]","practice","504","","","","","","","","","","","","","","",""
"","","","","","single-stim-button","34","106502","0.0-2.0-7.4-1.4","6092dea4efd6d61350f0fdbf","D2","batch4","","987","tol_practice","","","","tol_peg_3","987","987","0","[[1,2,0],[0,0],[3]]","8","[[1,0,0],[2,0],[3]]","practice","987","","","","","","","","","","","","","","",""
"","","","","","single-stim-button","35","107483","0.0-2.0-7.5-0.5","6092dea4efd6d61350f0fdbf","D2","batch4","","981","tol_practice","","","","tol_peg_1","981","981","0","[[1,0,0],[0,0],[3]]","9","[[1,0,0],[2,0],[3]]","practice","981","","","","","","","","","","","","","","",""
"","","","","","single-stim-button","36","107936","0.0-2.0-7.5-1.5","6092dea4efd6d61350f0fdbf","D2","batch4","","452","tol_practice","","","","tol_peg_2","452","452","0","[[1,0,0],[2,0],[3]]","9","[[1,0,0],[2,0],[3]]","practice","452","","","","","","","","","","","","","","",""
"","","","","","poldrack-single-stim","37","108946","0.0-2.0-8.0","6092dea4efd6d61350f0fdbf","D2","batch4","","-1","tol_feedback","","","true","","1000","1000","500","","","","","","-1","none","true","","0","","","","","","","","","",""
"","","","","","html-button-response","38","109994","0.0-2.0-9.0","6092dea4efd6d61350f0fdbf","D2","batch4","","1046","tol_instruction","<div class = centerbox><p class = center-block-text>Great job! You are done with practice trials<br>You are about to start official trials.<br> <br> Problem <strong>1</strong> out of 25 problems</p></div>","0","","","","","","","","","","","","","","","","","","","","","","","","",""
"","","","","","single-stim-button","39","113433","0.0-2.0-10.0-0.0","6092dea4efd6d61350f0fdbf","D2","batch4","","2437","tol_tohand","","","","tol_peg_1","2437","2437","0","[[1,0,0],[3,0],[0]]","1","[[1,3,0],[2,0],[0]]","0","0","","","","","","3","","","","","","","","",""
"","","","","","single-stim-button","40","116377","0.0-2.0-10.0-1.0","6092dea4efd6d61350f0fdbf","D2","batch4","","2943","tol_toboard","","","","tol_peg_3","2943","2943","0","[[1,0,0],[3,0],[2]]","1","[[1,3,0],[2,0],[0]]","0","0","","","","","","3","","","","","","","","",""
"","","","","","single-stim-button","41","117525","0.0-2.0-10.1-0.1","6092dea4efd6d61350f0fdbf","D2","batch4","","1148","tol_tohand","","","","tol_peg_2","1148","1148","0","[[1,0,0],[0,0],[2]]","2","[[1,3,0],[2,0],[0]]","0","0","","","","","","3","","","","","","","","",""
"","","","","","single-stim-button","42","118007","0.0-2.0-10.1-1.1","6092dea4efd6d61350f0fdbf","D2","batch4","","482","tol_toboard","","","","tol_peg_1","482","482","0","[[1,3,0],[0,0],[2]]","2","[[1,3,0],[2,0],[0]]","0","0","","","","","","3","","","","","","","","",""
"","","","","","single-stim-button","43","118922","0.0-2.0-10.2-0.2","6092dea4efd6d61350f0fdbf","D2","batch4","","915","tol_tohand","","","","tol_peg_3","915","915","0","[[1,3,0],[0,0],[0]]","3","[[1,3,0],[2,0],[0]]","0","0","","","","","","3","","","","","","","","",""
"","","","","","single-stim-button","44","119528","0.0-2.0-10.2-1.2","6092dea4efd6d61350f0fdbf","D2","batch4","","606","tol_toboard","","","","tol_peg_2","606","606","0","[[1,3,0],[2,0],[0]]","3","[[1,3,0],[2,0],[0]]","0","0","","","","","","3","","","","","","","","",""
"","","","","","poldrack-single-stim","45","120540","0.0-2.0-11.0","6092dea4efd6d61350f0fdbf","D2","batch4","","-1","tol_feedback","","","true","","1000","1000","500","","","","","","-1","none","true","2437","4500","","","","","","","","","",""
"","","","","","html-button-response","46","121166","0.0-2.0-12.0","6092dea4efd6d61350f0fdbf","D2","batch4","","625","tol_trial_num","<div class = centerbox><p class = center-block-text>problem <strong>2</strong> out of 25 problems</p></div>","0","","","","","","","","","","","","","","","","","","","","","","","","",""
"","","","","","single-stim-button","47","123619","0.0-2.0-13.0-0.0","6092dea4efd6d61350f0fdbf","D2","batch4","","2450","tol_tohand","","","","tol_peg_1","2450","2450","0","[[1,0,0],[3,0],[0]]","1","[[2,1,3],[0,0],[0]]","1","0","","","","","","5","","","","","","","","",""
"","","","","","single-stim-button","48","124935","0.0-2.0-13.0-1.0","6092dea4efd6d61350f0fdbf","D2","batch4","","1316","tol_toboard","","","","tol_peg_3","1316","1316","0","[[1,0,0],[3,0],[2]]","1","[[2,1,3],[0,0],[0]]","1","0","","","","","","5","","","","","","","","",""
"","","","","","single-stim-button","49","128270","0.0-2.0-13.1-0.1","6092dea4efd6d61350f0fdbf","D2","batch4","","3334","tol_tohand","","","","tol_peg_1","3334","3334","0","[[0,0,0],[3,0],[2]]","2","[[2,1,3],[0,0],[0]]","1","0","","","","","","5","","","","","","","","",""
"","","","","","single-stim-button","50","129203","0.0-2.0-13.1-1.1","6092dea4efd6d61350f0fdbf","D2","batch4","","933","tol_toboard","","","","tol_peg_2","933","933","0","[[0,0,0],[3,1],[2]]","2","[[2,1,3],[0,0],[0]]","1","0","","","","","","5","","","","","","","","",""
"","","","","","single-stim-button","51","129752","0.0-2.0-13.2-0.2","6092dea4efd6d61350f0fdbf","D2","batch4","","549","tol_tohand","","","","tol_peg_3","549","549","0","[[0,0,0],[3,1],[0]]","3","[[2,1,3],[0,0],[0]]","1","0","","","","","","5","","","","","","","","",""
"","","","","","single-stim-button","52","130759","0.0-2.0-13.2-1.2","6092dea4efd6d61350f0fdbf","D2","batch4","","1006","tol_toboard","","","","tol_peg_1","1006","1006","0","[[2,0,0],[3,1],[0]]","3","[[2,1,3],[0,0],[0]]","1","0","","","","","","5","","","","","","","","",""
"","","","","","single-stim-button","53","131355","0.0-2.0-13.3-0.3","6092dea4efd6d61350f0fdbf","D2","batch4","","596","tol_tohand","","","","tol_peg_2","596","596","0","[[2,0,0],[3,0],[0]]","4","[[2,1,3],[0,0],[0]]","1","0","","","","","","5","","","","","","","","",""
"","","","","","single-stim-button","54","131821","0.0-2.0-13.3-1.3","6092dea4efd6d61350f0fdbf","D2","batch4","","466","tol_toboard","","","","tol_peg_2","466","466","0","[[2,0,0],[3,1],[0]]","4","[[2,1,3],[0,0],[0]]","1","0","","","","","","5","","","","","","","","",""
"","","","","","single-stim-button","55","132385","0.0-2.0-13.4-0.4","6092dea4efd6d61350f0fdbf","D2","batch4","","564","tol_tohand","","","","tol_peg_2","564","564","0","[[2,0,0],[3,0],[0]]","5","[[2,1,3],[0,0],[0]]","1","0","","","","","","5","","","","","","","","",""
"","","","","","single-stim-button","56","133561","0.0-2.0-13.4-1.4","6092dea4efd6d61350f0fdbf","D2","batch4","","1175","tol_toboard","","","","tol_peg_1","1175","1175","0","[[2,1,0],[3,0],[0]]","5","[[2,1,3],[0,0],[0]]","1","0","","","","","","5","","","","","","","","",""
"","","","","","single-stim-button","57","134111","0.0-2.0-13.5-0.5","6092dea4efd6d61350f0fdbf","D2","batch4","","549","tol_tohand","","","","tol_peg_2","549","549","0","[[2,1,0],[0,0],[0]]","6","[[2,1,3],[0,0],[0]]","1","0","","","","","","5","","","","","","","","",""
"","","","","","single-stim-button","58","134707","0.0-2.0-13.5-1.5","6092dea4efd6d61350f0fdbf","D2","batch4","","596","tol_toboard","","","","tol_peg_1","596","596","0","[[2,1,3],[0,0],[0]]","6","[[2,1,3],[0,0],[0]]","1","0","","","","","","5","","","","","","","","",""
"","","","","","poldrack-single-stim","59","135720","0.0-2.0-14.0","6092dea4efd6d61350f0fdbf","D2","batch4","","-1","tol_feedback","","","true","","1000","1000","500","","","","","","-1","none","true","2450","8042","","","","","","","","","",""
"","","","","","html-button-response","60","136322","0.0-2.0-15.0","6092dea4efd6d61350f0fdbf","D2","batch4","","601","tol_trial_num","<div class = centerbox><p class = center-block-text>problem <strong>3</strong> out of 25 problems</p></div>","0","","","","","","","","","","","","","","","","","","","","","","","","",""
"","","","","","single-stim-button","61","138046","0.0-2.0-16.0-0.0","6092dea4efd6d61350f0fdbf","D2","batch4","","1724","tol_tohand","","","","tol_peg_1","1724","1724","0","[[2,0,0],[0,0],[1]]","1","[[1,2,0],[3,0],[0]]","2","0","","","","","","4","","","","","","","","",""
"","","","","","single-stim-button","62","138598","0.0-2.0-16.0-1.0","6092dea4efd6d61350f0fdbf","D2","batch4","","551","tol_toboard","","","","tol_peg_2","551","551","0","[[2,0,0],[3,0],[1]]","1","[[1,2,0],[3,0],[0]]","2","0","","","","","","4","","","","","","","","",""
"","","","","","single-stim-button","63","140064","0.0-2.0-16.1-0.1","6092dea4efd6d61350f0fdbf","D2","batch4","","1465","tol_tohand","","","","tol_peg_1","1465","1465","0","[[0,0,0],[3,0],[1]]","2","[[1,2,0],[3,0],[0]]","2","0","","","","","","4","","","","","","","","",""
"","","","","","single-stim-button","64","143526","0.0-2.0-16.1-1.1","6092dea4efd6d61350f0fdbf","D2","batch4","","3461","tol_toboard","","","","tol_peg_2","3461","3461","0","[[0,0,0],[3,2],[1]]","2","[[1,2,0],[3,0],[0]]","2","0","","","","","","4","","","","","","","","",""
"","","","","","single-stim-button","65","144004","0.0-2.0-16.2-0.2","6092dea4efd6d61350f0fdbf","D2","batch4","","478","tol_tohand","","","","tol_peg_3","478","478","0","[[0,0,0],[3,2],[0]]","3","[[1,2,0],[3,0],[0]]","2","0","","","","","","4","","","","","","","","",""
"","","","","","single-stim-button","66","145018","0.0-2.0-16.2-1.2","6092dea4efd6d61350f0fdbf","D2","batch4","","1013","tol_toboard","","","","tol_peg_1","1013","1013","0","[[1,0,0],[3,2],[0]]","3","[[1,2,0],[3,0],[0]]","2","0","","","","","","4","","","","","","","","",""
"","","","","","single-stim-button","67","145760","0.0-2.0-16.3-0.3","6092dea4efd6d61350f0fdbf","D2","batch4","","741","tol_tohand","","","","tol_peg_2","741","741","0","[[1,0,0],[3,0],[0]]","4","[[1,2,0],[3,0],[0]]","2","0","","","","","","4","","","","","","","","",""
"","","","","","single-stim-button","68","146592","0.0-2.0-16.3-1.3","6092dea4efd6d61350f0fdbf","D2","batch4","","832","tol_toboard","","","","tol_peg_1","832","832","0","[[1,2,0],[3,0],[0]]","4","[[1,2,0],[3,0],[0]]","2","0","","","","","","4","","","","","","","","",""
"","","","","","poldrack-single-stim","69","147594","0.0-2.0-17.0","6092dea4efd6d61350f0fdbf","D2","batch4","","-1","tol_feedback","","","true","","1000","1000","500","","","","","","-1","none","true","1724","4408","","","","","","","","","",""
"","","","","","html-button-response","70","148234","0.0-2.0-18.0","6092dea4efd6d61350f0fdbf","D2","batch4","","639","tol_trial_num","<div class = centerbox><p class = center-block-text>problem <strong>4</strong> out of 25 problems</p></div>","0","","","","","","","","","","","","","","","","","","","","","","","","",""
"","","","","","single-stim-button","71","150347","0.0-2.0-19.0-0.0","6092dea4efd6d61350f0fdbf","D2","batch4","","2112","tol_tohand","","","","tol_peg_2","2112","2112","0","[[3,0,0],[2,0],[0]]","1","[[3,0,0],[1,0],[2]]","3","0","","","","","","3","","","","","","","","",""
"","","","","","single-stim-button","72","151448","0.0-2.0-19.0-1.0","6092dea4efd6d61350f0fdbf","D2","batch4","","1101","tol_toboard","","","","tol_peg_2","1101","1101","0","[[3,0,0],[2,1],[0]]","1","[[3,0,0],[1,0],[2]]","3","0","","","","","","3","","","","","","","","",""
"","","","","","single-stim-button","73","152142","0.0-2.0-19.1-0.1","6092dea4efd6d61350f0fdbf","D2","batch4","","694","tol_tohand","","","","tol_peg_2","694","694","0","[[3,0,0],[2,0],[0]]","2","[[3,0,0],[1,0],[2]]","3","0","","","","","","3","","","","","","","","",""
"","","","","","single-stim-button","74","152593","0.0-2.0-19.1-1.1","6092dea4efd6d61350f0fdbf","D2","batch4","","451","tol_toboard","","","","tol_peg_3","451","451","0","[[3,0,0],[2,0],[1]]","2","[[3,0,0],[1,0],[2]]","3","0","","","","","","3","","","","","","","","",""
"","","","","","single-stim-button","75","153278","0.0-2.0-19.2-0.2","6092dea4efd6d61350f0fdbf","D2","batch4","","683","tol_tohand","","","","tol_peg_2","683","683","0","[[3,0,0],[0,0],[1]]","3","[[3,0,0],[1,0],[2]]","3","0","","","","","","3","","","","","","","","",""
"","","","","","single-stim-button","76","154944","0.0-2.0-19.2-1.2","6092dea4efd6d61350f0fdbf","D2","batch4","","1665","tol_toboard","","","","tol_peg_1","1665","1665","0","[[3,2,0],[0,0],[1]]","3","[[3,0,0],[1,0],[2]]","3","0","","","","","","3","","","","","","","","",""
"","","","","","single-stim-button","77","156201","0.0-2.0-19.3-0.3","6092dea4efd6d61350f0fdbf","D2","batch4","","1257","tol_tohand","","","","tol_peg_3","1257","1257","0","[[3,2,0],[0,0],[0]]","4","[[3,0,0],[1,0],[2]]","3","0","","","","","","3","","","","","","","","",""
"","","","","","single-stim-button","78","157056","0.0-2.0-19.3-1.3","6092dea4efd6d61350f0fdbf","D2","batch4","","855","tol_toboard","","","","tol_peg_2","855","855","0","[[3,2,0],[1,0],[0]]","4","[[3,0,0],[1,0],[2]]","3","0","","","","","","3","","","","","","","","",""
"","","","","","single-stim-button","79","157800","0.0-2.0-19.4-0.4","6092dea4efd6d61350f0fdbf","D2","batch4","","744","tol_tohand","","","","tol_peg_1","744","744","0","[[3,0,0],[1,0],[0]]","5","[[3,0,0],[1,0],[2]]","3","0","","","","","","3","","","","","","","","",""
"","","","","","single-stim-button","80","158628","0.0-2.0-19.4-1.4","6092dea4efd6d61350f0fdbf","D2","batch4","","826","tol_toboard","","","","tol_peg_3","826","826","0","[[3,0,0],[1,0],[2]]","5","[[3,0,0],[1,0],[2]]","3","0","","","","","","3","","","","","","","","",""
"","","","","","poldrack-single-stim","81","159638","0.0-2.0-20.0","6092dea4efd6d61350f0fdbf","D2","batch4","","-1","tol_feedback","","","true","","1000","1000","500","","","","","","-1","none","true","2112","5490","","","","","","","","","",""
"","","","","","html-button-response","82","160508","0.0-2.0-21.0","6092dea4efd6d61350f0fdbf","D2","batch4","","870","tol_trial_num","<div class = centerbox><p class = center-block-text>problem <strong>5</strong> out of 25 problems</p></div>","0","","","","","","","","","","","","","","","","","","","","","","","","",""
"","","","","","single-stim-button","83","164405","0.0-2.0-22.0-0.0","6092dea4efd6d61350f0fdbf","D2","batch4","","3895","tol_tohand","","","","tol_peg_2","3895","3895","0","[[1,0,0],[0,0],[3]]","1","[[0,0,0],[1,2],[3]]","4","0","","","","","","7","","","","","","","","",""
"","","","","","single-stim-button","84","168174","0.0-2.0-22.0-1.0","6092dea4efd6d61350f0fdbf","D2","batch4","","3769","tol_toboard","","","","tol_peg_2","3769","3769","0","[[1,0,0],[2,0],[3]]","1","[[0,0,0],[1,2],[3]]","4","0","","","","","","7","","","","","","","","",""
"","","","","","single-stim-button","85","169302","0.0-2.0-22.1-0.1","6092dea4efd6d61350f0fdbf","D2","batch4","","1128","tol_tohand","","","","tol_peg_3","1128","1128","0","[[1,0,0],[2,0],[0]]","2","[[0,0,0],[1,2],[3]]","4","0","","","","","","7","","","","","","","","",""
"","","","","","single-stim-button","86","172031","0.0-2.0-22.1-1.1","6092dea4efd6d61350f0fdbf","D2","batch4","","2727","tol_toboard","","","","tol_peg_1","2727","2727","0","[[1,3,0],[2,0],[0]]","2","[[0,0,0],[1,2],[3]]","4","0","","","","","","7","","","","","","","","",""
"","","","","","single-stim-button","87","173432","0.0-2.0-22.2-0.2","6092dea4efd6d61350f0fdbf","D2","batch4","","1401","tol_tohand","","","","tol_peg_2","1401","1401","0","[[1,3,0],[0,0],[0]]","3","[[0,0,0],[1,2],[3]]","4","0","","","","","","7","","","","","","","","",""
"","","","","","single-stim-button","88","174328","0.0-2.0-22.2-1.2","6092dea4efd6d61350f0fdbf","D2","batch4","","896","tol_toboard","","","","tol_peg_3","896","896","0","[[1,3,0],[0,0],[2]]","3","[[0,0,0],[1,2],[3]]","4","0","","","","","","7","","","","","","","","",""
"","","","","","single-stim-button","89","175335","0.0-2.0-22.3-0.3","6092dea4efd6d61350f0fdbf","D2","batch4","","1007","tol_tohand","","","","tol_peg_1","1007","1007","0","[[1,0,0],[0,0],[2]]","4","[[0,0,0],[1,2],[3]]","4","0","","","","","","7","","","","","","","","",""
"","","","","","single-stim-button","90","179758","0.0-2.0-22.3-1.3","6092dea4efd6d61350f0fdbf","D2","batch4","","4422","tol_toboard","","","","tol_peg_2","4422","4422","0","[[1,0,0],[3,0],[2]]","4","[[0,0,0],[1,2],[3]]","4","0","","","","","","7","","","","","","","","",""
"","","","","","single-stim-button","91","180521","0.0-2.0-22.4-0.4","6092dea4efd6d61350f0fdbf","D2","batch4","","763","tol_tohand","","","","tol_peg_1","763","763","0","[[0,0,0],[3,0],[2]]","5","[[0,0,0],[1,2],[3]]","4","0","","","","","","7","","","","","","","","",""
"","","","","","single-stim-button","92","181193","0.0-2.0-22.4-1.4","6092dea4efd6d61350f0fdbf","D2","batch4","","672","tol_toboard","","","","tol_peg_2","672","672","0","[[0,0,0],[3,1],[2]]","5","[[0,0,0],[1,2],[3]]","4","0","","","","","","7","","","","","","","","",""
"","","","","","single-stim-button","93","182719","0.0-2.0-22.5-0.5","6092dea4efd6d61350f0fdbf","D2","batch4","","1526","tol_tohand","","","","tol_peg_3","1526","1526","0","[[0,0,0],[3,1],[0]]","6","[[0,0,0],[1,2],[3]]","4","0","","","","","","7","","","","","","","","",""
"","","","","","single-stim-button","94","183594","0.0-2.0-22.5-1.5","6092dea4efd6d61350f0fdbf","D2","batch4","","875","tol_toboard","","","","tol_peg_1","875","875","0","[[2,0,0],[3,1],[0]]","6","[[0,0,0],[1,2],[3]]","4","0","","","","","","7","","","","","","","","",""
"","","","","","single-stim-button","95","184642","0.0-2.0-22.6-0.6","6092dea4efd6d61350f0fdbf","D2","batch4","","1046","tol_tohand","","","","tol_peg_2","1046","1046","0","[[2,0,0],[3,0],[0]]","7","[[0,0,0],[1,2],[3]]","4","0","","","","","","7","","","","","","","","",""
"","","","","","single-stim-button","96","185931","0.0-2.0-22.6-1.6","6092dea4efd6d61350f0fdbf","D2","batch4","","1289","tol_toboard","","","","tol_peg_1","1289","1289","0","[[2,1,0],[3,0],[0]]","7","[[0,0,0],[1,2],[3]]","4","0","","","","","","7","","","","","","","","",""
"","","","","","single-stim-button","97","186584","0.0-2.0-22.7-0.7","6092dea4efd6d61350f0fdbf","D2","batch4","","653","tol_tohand","","","","tol_peg_2","653","653","0","[[2,1,0],[0,0],[0]]","8","[[0,0,0],[1,2],[3]]","4","0","","","","","","7","","","","","","","","",""
"","","","","","single-stim-button","98","187830","0.0-2.0-22.7-1.7","6092dea4efd6d61350f0fdbf","D2","batch4","","1246","tol_toboard","","","","tol_peg_3","1246","1246","0","[[2,1,0],[0,0],[3]]","8","[[0,0,0],[1,2],[3]]","4","0","","","","","","7","","","","","","","","",""
"","","","","","single-stim-button","99","188994","0.0-2.0-22.8-0.8","6092dea4efd6d61350f0fdbf","D2","batch4","","1163","tol_tohand","","","","tol_peg_1","1163","1163","0","[[2,0,0],[0,0],[3]]","9","[[0,0,0],[1,2],[3]]","4","0","","","","","","7","","","","","","","","",""
"","","","","","single-stim-button","100","190469","0.0-2.0-22.8-1.8","6092dea4efd6d61350f0fdbf","D2","batch4","","1475","tol_toboard","","","","tol_peg_2","1475","1475","0","[[2,0,0],[1,0],[3]]","9","[[0,0,0],[1,2],[3]]","4","0","","","","","","7","","","","","","","","",""
"","","","","","single-stim-button","101","191118","0.0-2.0-22.9-0.9","6092dea4efd6d61350f0fdbf","D2","batch4","","647","tol_tohand","","","","tol_peg_1","647","647","0","[[0,0,0],[1,0],[3]]","10","[[0,0,0],[1,2],[3]]","4","0","","","","","","7","","","","","","","","",""
"","","","","","single-stim-button","102","191622","0.0-2.0-22.9-1.9","6092dea4efd6d61350f0fdbf","D2","batch4","","504","tol_toboard","","","","tol_peg_2","504","504","0","[[0,0,0],[1,2],[3]]","10","[[0,0,0],[1,2],[3]]","4","0","","","","","","7","","","","","","","","",""
"","","","","","poldrack-single-stim","103","192629","0.0-2.0-23.0","6092dea4efd6d61350f0fdbf","D2","batch4","","-1","tol_feedback","","","true","","1000","1000","500","","","","","","-1","none","true","3895","13229","","","","","","","","","",""
"","","","","","html-button-response","104","193230","0.0-2.0-24.0","6092dea4efd6d61350f0fdbf","D2","batch4","","600","tol_trial_num","<div class = centerbox><p class = center-block-text>problem <strong>6</strong> out of 25 problems</p></div>","0","","","","","","","","","","","","","","","","","","","","","","","","",""
"","","","","","single-stim-button","105","197490","0.0-2.0-25.0-0.0","6092dea4efd6d61350f0fdbf","D2","batch4","","4259","tol_tohand","","","","tol_peg_3","4259","4259","0","[[0,0,0],[1,2],[0]]","1","[[1,0,0],[2,3],[0]]","5","0","","","","","","6","","","","","","","","",""
"","","","","","single-stim-button","106","199935","0.0-2.0-25.0-1.0","6092dea4efd6d61350f0fdbf","D2","batch4","","2445","tol_toboard","","","","tol_peg_1","2445","2445","0","[[3,0,0],[1,2],[0]]","1","[[1,0,0],[2,3],[0]]","5","0","","","","","","6","","","","","","","","",""
"","","","","","single-stim-button","107","200281","0.0-2.0-25.1-0.1","6092dea4efd6d61350f0fdbf","D2","batch4","","346","tol_tohand","","","","tol_peg_1","346","346","0","[[0,0,0],[1,2],[0]]","2","[[1,0,0],[2,3],[0]]","5","0","","","","","","6","","","","","","","","",""
"","","","","","single-stim-button","108","202306","0.0-2.0-25.1-1.1","6092dea4efd6d61350f0fdbf","D2","batch4","","2024","tol_toboard","","","","tol_peg_1","2024","2024","0","[[3,0,0],[1,2],[0]]","2","[[1,0,0],[2,3],[0]]","5","0","","","","","","6","","","","","","","","",""
"","","","","","single-stim-button","109","202924","0.0-2.0-25.2-0.2","6092dea4efd6d61350f0fdbf","D2","batch4","","617","tol_tohand","","","","tol_peg_2","617","617","0","[[3,0,0],[1,0],[0]]","3","[[1,0,0],[2,3],[0]]","5","0","","","","","","6","","","","","","","","",""
"","","","","","single-stim-button","110","203141","0.0-2.0-25.2-1.2","6092dea4efd6d61350f0fdbf","D2","batch4","","217","tol_toboard","","","","tol_peg_2","217","217","0","[[3,0,0],[1,2],[0]]","3","[[1,0,0],[2,3],[0]]","5","0","","","","","","6","","","","","","","","",""
"","","","","","single-stim-button","111","203817","0.0-2.0-25.3-0.3","6092dea4efd6d61350f0fdbf","D2","batch4","","676","tol_tohand","","","","tol_peg_2","676","676","0","[[3,0,0],[1,0],[0]]","4","[[1,0,0],[2,3],[0]]","5","0","","","","","","6","","","","","","","","",""
"","","","","","single-stim-button","112","204337","0.0-2.0-25.3-1.3","6092dea4efd6d61350f0fdbf","D2","batch4","","520","tol_toboard","","","","tol_peg_3","520","520","0","[[3,0,0],[1,0],[2]]","4","[[1,0,0],[2,3],[0]]","5","0","","","","","","6","","","","","","","","",""
"","","","","","single-stim-button","113","207637","0.0-2.0-25.4-0.4","6092dea4efd6d61350f0fdbf","D2","batch4","","3298","tol_tohand","","","","tol_peg_1","3298","3298","0","[[0,0,0],[1,0],[2]]","5","[[1,0,0],[2,3],[0]]","5","0","","","","","","6","","","","","","","","",""
"","","","","","single-stim-button","114","212095","0.0-2.0-25.4-1.4","6092dea4efd6d61350f0fdbf","D2","batch4","","4458","tol_toboard","","","","tol_peg_1","4458","4458","0","[[3,0,0],[1,0],[2]]","5","[[1,0,0],[2,3],[0]]","5","0","","","","","","6","","","","","","","","",""
"","","","","","single-stim-button","115","213122","0.0-2.0-25.5-0.5","6092dea4efd6d61350f0fdbf","D2","batch4","","1026","tol_tohand","","","","tol_peg_2","1026","1026","0","[[3,0,0],[0,0],[2]]","6","[[1,0,0],[2,3],[0]]","5","0","","","","","","6","","","","","","","","",""
"","","","","","single-stim-button","116","214148","0.0-2.0-25.5-1.5","6092dea4efd6d61350f0fdbf","D2","batch4","","1026","tol_toboard","","","","tol_peg_1","1026","1026","0","[[3,1,0],[0,0],[2]]","6","[[1,0,0],[2,3],[0]]","5","0","","","","","","6","","","","","","","","",""
"","","","","","single-stim-button","117","216296","0.0-2.0-25.6-0.6","6092dea4efd6d61350f0fdbf","D2","batch4","","2147","tol_tohand","","","","tol_peg_3","2147","2147","0","[[3,1,0],[0,0],[0]]","7","[[1,0,0],[2,3],[0]]","5","0","","","","","","6","","","","","","","","",""
"","","","","","single-stim-button","118","216846","0.0-2.0-25.6-1.6","6092dea4efd6d61350f0fdbf","D2","batch4","","549","tol_toboard","","","","tol_peg_2","549","549","0","[[3,1,0],[2,0],[0]]","7","[[1,0,0],[2,3],[0]]","5","0","","","","","","6","","","","","","","","",""
"","","","","","single-stim-button","119","218782","0.0-2.0-25.7-0.7","6092dea4efd6d61350f0fdbf","D2","batch4","","1935","tol_tohand","","","","tol_peg_1","1935","1935","0","[[3,0,0],[2,0],[0]]","8","[[1,0,0],[2,3],[0]]","5","0","","","","","","6","","","","","","","","",""
"","","","","","single-stim-button","120","220593","0.0-2.0-25.7-1.7","6092dea4efd6d61350f0fdbf","D2","batch4","","1810","tol_toboard","","","","tol_peg_3","1810","1810","0","[[3,0,0],[2,0],[1]]","8","[[1,0,0],[2,3],[0]]","5","0","","","","","","6","","","","","","","","",""
"","","","","","single-stim-button","121","221251","0.0-2.0-25.8-0.8","6092dea4efd6d61350f0fdbf","D2","batch4","","658","tol_tohand","","","","tol_peg_1","658","658","0","[[0,0,0],[2,0],[1]]","9","[[1,0,0],[2,3],[0]]","5","0","","","","","","6","","","","","","","","",""
"","","","","","single-stim-button","122","221842","0.0-2.0-25.8-1.8","6092dea4efd6d61350f0fdbf","D2","batch4","","589","tol_toboard","","","","tol_peg_2","589","589","0","[[0,0,0],[2,3],[1]]","9","[[1,0,0],[2,3],[0]]","5","0","","","","","","6","","","","","","","","",""
"","","","","","single-stim-button","123","222409","0.0-2.0-25.9-0.9","6092dea4efd6d61350f0fdbf","D2","batch4","","567","tol_tohand","","","","tol_peg_3","567","567","0","[[0,0,0],[2,3],[0]]","10","[[1,0,0],[2,3],[0]]","5","0","","","","","","6","","","","","","","","",""
"","","","","","single-stim-button","124","223127","0.0-2.0-25.9-1.9","6092dea4efd6d61350f0fdbf","D2","batch4","","717","tol_toboard","","","","tol_peg_1","717","717","0","[[1,0,0],[2,3],[0]]","10","[[1,0,0],[2,3],[0]]","5","0","","","","","","6","","","","","","","","",""
"","","","","","poldrack-single-stim","125","224138","0.0-2.0-26.0","6092dea4efd6d61350f0fdbf","D2","batch4","","-1","tol_feedback","","","true","","1000","1000","500","","","","","","-1","none","true","4259","15529","","","","","","","","","",""
"","","","","","html-button-response","126","224773","0.0-2.0-27.0","6092dea4efd6d61350f0fdbf","D2","batch4","","634","tol_trial_num","<div class = centerbox><p class = center-block-text>problem <strong>7</strong> out of 25 problems</p></div>","0","","","","","","","","","","","","","","","","","","","","","","","","",""
"","","","","","single-stim-button","127","227383","0.0-2.0-28.0-0.0","6092dea4efd6d61350f0fdbf","D2","batch4","","2609","tol_tohand","","","","tol_peg_3","2609","2609","0","[[2,1,0],[0,0],[0]]","1","[[1,2,0],[3,0],[0]]","6","0","","","","","","5","","","","","","","","",""
"","","","","","single-stim-button","128","227999","0.0-2.0-28.0-1.0","6092dea4efd6d61350f0fdbf","D2","batch4","","616","tol_toboard","","","","tol_peg_2","616","616","0","[[2,1,0],[3,0],[0]]","1","[[1,2,0],[3,0],[0]]","6","0","","","","","","5","","","","","","","","",""
"","","","","","single-stim-button","129","228799","0.0-2.0-28.1-0.1","6092dea4efd6d61350f0fdbf","D2","batch4","","799","tol_tohand","","","","tol_peg_1","799","799","0","[[2,0,0],[3,0],[0]]","2","[[1,2,0],[3,0],[0]]","6","0","","","","","","5","","","","","","","","",""
"","","","","","single-stim-button","130","229635","0.0-2.0-28.1-1.1","6092dea4efd6d61350f0fdbf","D2","batch4","","836","tol_toboard","","","","tol_peg_2","836","836","0","[[2,0,0],[3,1],[0]]","2","[[1,2,0],[3,0],[0]]","6","0","","","","","","5","","","","","","","","",""
"","","","","","single-stim-button","131","230222","0.0-2.0-28.2-0.2","6092dea4efd6d61350f0fdbf","D2","batch4","","587","tol_tohand","","","","tol_peg_1","587","587","0","[[0,0,0],[3,1],[0]]","3","[[1,2,0],[3,0],[0]]","6","0","","","","","","5","","","","","","","","",""
"","","","","","single-stim-button","132","231971","0.0-2.0-28.2-1.2","6092dea4efd6d61350f0fdbf","D2","batch4","","1748","tol_toboard","","","","tol_peg_3","1748","1748","0","[[0,0,0],[3,1],[2]]","3","[[1,2,0],[3,0],[0]]","6","0","","","","","","5","","","","","","","","",""
"","","","","","single-stim-button","133","232798","0.0-2.0-28.3-0.3","6092dea4efd6d61350f0fdbf","D2","batch4","","827","tol_tohand","","","","tol_peg_2","827","827","0","[[0,0,0],[3,0],[2]]","4","[[1,2,0],[3,0],[0]]","6","0","","","","","","5","","","","","","","","",""
"","","","","","single-stim-button","134","233150","0.0-2.0-28.3-1.3","6092dea4efd6d61350f0fdbf","D2","batch4","","352","tol_toboard","","","","tol_peg_1","352","352","0","[[1,0,0],[3,0],[2]]","4","[[1,2,0],[3,0],[0]]","6","0","","","","","","5","","","","","","","","",""
"","","","","","single-stim-button","135","233909","0.0-2.0-28.4-0.4","6092dea4efd6d61350f0fdbf","D2","batch4","","758","tol_tohand","","","","tol_peg_3","758","758","0","[[1,0,0],[3,0],[0]]","5","[[1,2,0],[3,0],[0]]","6","0","","","","","","5","","","","","","","","",""
"","","","","","single-stim-button","136","234612","0.0-2.0-28.4-1.4","6092dea4efd6d61350f0fdbf","D2","batch4","","703","tol_toboard","","","","tol_peg_1","703","703","0","[[1,2,0],[3,0],[0]]","5","[[1,2,0],[3,0],[0]]","6","0","","","","","","5","","","","","","","","",""
"","","","","","poldrack-single-stim","137","235624","0.0-2.0-29.0","6092dea4efd6d61350f0fdbf","D2","batch4","","-1","tol_feedback","","","true","","1000","1000","500","","","","","","-1","none","true","2609","5580","","","","","","","","","",""
"","","","","","html-button-response","138","236255","0.0-2.0-30.0","6092dea4efd6d61350f0fdbf","D2","batch4","","631","tol_trial_num","<div class = centerbox><p class = center-block-text>problem <strong>8</strong> out of 25 problems</p></div>","0","","","","","","","","","","","","","","","","","","","","","","","","",""
"","","","","","single-stim-button","139","238730","0.0-2.0-31.0-0.0","6092dea4efd6d61350f0fdbf","D2","batch4","","2475","tol_tohand","","","","tol_peg_3","2475","2475","0","[[0,0,0],[2,3],[0]]","1","[[1,2,0],[3,0],[0]]","7","0","","","","","","4","","","","","","","","",""
"","","","","","single-stim-button","140","239328","0.0-2.0-31.0-1.0","6092dea4efd6d61350f0fdbf","D2","batch4","","598","tol_toboard","","","","tol_peg_1","598","598","0","[[1,0,0],[2,3],[0]]","1","[[1,2,0],[3,0],[0]]","7","0","","","","","","4","","","","","","","","",""
"","","","","","single-stim-button","141","240428","0.0-2.0-31.1-0.1","6092dea4efd6d61350f0fdbf","D2","batch4","","1100","tol_tohand","","","","tol_peg_2","1100","1100","0","[[1,0,0],[2,0],[0]]","2","[[1,2,0],[3,0],[0]]","7","0","","","","","","4","","","","","","","","",""
"","","","","","single-stim-button","142","241200","0.0-2.0-31.1-1.1","6092dea4efd6d61350f0fdbf","D2","batch4","","772","tol_toboard","","","","tol_peg_3","772","772","0","[[1,0,0],[2,0],[3]]","2","[[1,2,0],[3,0],[0]]","7","0","","","","","","4","","","","","","","","",""
"","","","","","single-stim-button","143","241641","0.0-2.0-31.2-0.2","6092dea4efd6d61350f0fdbf","D2","batch4","","439","tol_tohand","","","","tol_peg_2","439","439","0","[[1,0,0],[0,0],[3]]","3","[[1,2,0],[3,0],[0]]","7","0","","","","","","4","","","","","","","","",""
"","","","","","single-stim-button","144","242227","0.0-2.0-31.2-1.2","6092dea4efd6d61350f0fdbf","D2","batch4","","585","tol_toboard","","","","tol_peg_1","585","585","0","[[1,2,0],[0,0],[3]]","3","[[1,2,0],[3,0],[0]]","7","0","","","","","","4","","","","","","","","",""
"","","","","","single-stim-button","145","242906","0.0-2.0-31.3-0.3","6092dea4efd6d61350f0fdbf","D2","batch4","","679","tol_tohand","","","","tol_peg_3","679","679","0","[[1,2,0],[0,0],[0]]","4","[[1,2,0],[3,0],[0]]","7","0","","","","","","4","","","","","","","","",""
"","","","","","single-stim-button","146","243564","0.0-2.0-31.3-1.3","6092dea4efd6d61350f0fdbf","D2","batch4","","658","tol_toboard","","","","tol_peg_2","658","658","0","[[1,2,0],[3,0],[0]]","4","[[1,2,0],[3,0],[0]]","7","0","","","","","","4","","","","","","","","",""
"","","","","","poldrack-single-stim","147","244574","0.0-2.0-32.0","6092dea4efd6d61350f0fdbf","D2","batch4","","-1","tol_feedback","","","true","","1000","1000","500","","","","","","-1","none","true","2475","4693","","","","","","","","","",""
"","","","","","html-button-response","148","245472","0.0-2.0-33.0","6092dea4efd6d61350f0fdbf","D2","batch4","","896","tol_trial_num","<div class = centerbox><p class = center-block-text>problem <strong>9</strong> out of 25 problems</p></div>","0","","","","","","","","","","","","","","","","","","","","","","","","",""
"","","","","","single-stim-button","149","248183","0.0-2.0-34.0-0.0","6092dea4efd6d61350f0fdbf","D2","batch4","","2711","tol_tohand","","","","tol_peg_1","2711","2711","0","[[3,0,0],[0,0],[1]]","1","[[2,1,0],[3,0],[0]]","8","0","","","","","","6","","","","","","","","",""
"","","","","","single-stim-button","150","249071","0.0-2.0-34.0-1.0","6092dea4efd6d61350f0fdbf","D2","batch4","","888","tol_toboard","","","","tol_peg_2","888","888","0","[[3,0,0],[2,0],[1]]","1","[[2,1,0],[3,0],[0]]","8","0","","","","","","6","","","","","","","","",""
"","","","","","single-stim-button","151","250269","0.0-2.0-34.1-0.1","6092dea4efd6d61350f0fdbf","D2","batch4","","1198","tol_tohand","","","","tol_peg_1","1198","1198","0","[[0,0,0],[2,0],[1]]","2","[[2,1,0],[3,0],[0]]","8","0","","","","","","6","","","","","","","","",""
"","","","","","single-stim-button","152","250919","0.0-2.0-34.1-1.1","6092dea4efd6d61350f0fdbf","D2","batch4","","650","tol_toboard","","","","tol_peg_2","650","650","0","[[0,0,0],[2,3],[1]]","2","[[2,1,0],[3,0],[0]]","8","0","","","","","","6","","","","","","","","",""
"","","","","","single-stim-button","153","251437","0.0-2.0-34.2-0.2","6092dea4efd6d61350f0fdbf","D2","batch4","","518","tol_tohand","","","","tol_peg_3","518","518","0","[[0,0,0],[2,3],[0]]","3","[[2,1,0],[3,0],[0]]","8","0","","","","","","6","","","","","","","","",""
"","","","","","single-stim-button","154","253913","0.0-2.0-34.2-1.2","6092dea4efd6d61350f0fdbf","D2","batch4","","2475","tol_toboard","","","","tol_peg_3","2475","2475","0","[[0,0,0],[2,3],[1]]","3","[[2,1,0],[3,0],[0]]","8","0","","","","","","6","","","","","","","","",""
"","","","","","single-stim-button","155","256118","0.0-2.0-34.3-0.3","6092dea4efd6d61350f0fdbf","D2","batch4","","2205","tol_tohand","","","","tol_peg_3","2205","2205","0","[[0,0,0],[2,3],[0]]","4","[[2,1,0],[3,0],[0]]","8","0","","","","","","6","","","","","","","","",""
"","","","","","single-stim-button","156","256976","0.0-2.0-34.3-1.3","6092dea4efd6d61350f0fdbf","D2","batch4","","857","tol_toboard","","","","tol_peg_1","857","857","0","[[1,0,0],[2,3],[0]]","4","[[2,1,0],[3,0],[0]]","8","0","","","","","","6","","","","","","","","",""
"","","","","","single-stim-button","157","257731","0.0-2.0-34.4-0.4","6092dea4efd6d61350f0fdbf","D2","batch4","","754","tol_tohand","","","","tol_peg_2","754","754","0","[[1,0,0],[2,0],[0]]","5","[[2,1,0],[3,0],[0]]","8","0","","","","","","6","","","","","","","","",""
"","","","","","single-stim-button","158","258599","0.0-2.0-34.4-1.4","6092dea4efd6d61350f0fdbf","D2","batch4","","867","tol_toboard","","","","tol_peg_3","867","867","0","[[1,0,0],[2,0],[3]]","5","[[2,1,0],[3,0],[0]]","8","0","","","","","","6","","","","","","","","",""
"","","","","","single-stim-button","159","259517","0.0-2.0-34.5-0.5","6092dea4efd6d61350f0fdbf","D2","batch4","","918","tol_tohand","","","","tol_peg_2","918","918","0","[[1,0,0],[0,0],[3]]","6","[[2,1,0],[3,0],[0]]","8","0","","","","","","6","","","","","","","","",""
"","","","","","single-stim-button","160","261502","0.0-2.0-34.5-1.5","6092dea4efd6d61350f0fdbf","D2","batch4","","1984","tol_toboard","","","","tol_peg_1","1984","1984","0","[[1,2,0],[0,0],[3]]","6","[[2,1,0],[3,0],[0]]","8","0","","","","","","6","","","","","","","","",""
"","","","","","single-stim-button","161","262510","0.0-2.0-34.6-0.6","6092dea4efd6d61350f0fdbf","D2","batch4","","1006","tol_tohand","","","","tol_peg_3","1006","1006","0","[[1,2,0],[0,0],[0]]","7","[[2,1,0],[3,0],[0]]","8","0","","","","","","6","","","","","","","","",""
"","","","","","single-stim-button","162","263047","0.0-2.0-34.6-1.6","6092dea4efd6d61350f0fdbf","D2","batch4","","537","tol_toboard","","","","tol_peg_2","537","537","0","[[1,2,0],[3,0],[0]]","7","[[2,1,0],[3,0],[0]]","8","0","","","","","","6","","","","","","","","",""
"","","","","","single-stim-button","163","263837","0.0-2.0-34.7-0.7","6092dea4efd6d61350f0fdbf","D2","batch4","","789","tol_tohand","","","","tol_peg_1","789","789","0","[[1,0,0],[3,0],[0]]","8","[[2,1,0],[3,0],[0]]","8","0","","","","","","6","","","","","","","","",""
"","","","","","single-stim-button","164","264422","0.0-2.0-34.7-1.7","6092dea4efd6d61350f0fdbf","D2","batch4","","585","tol_toboard","","","","tol_peg_2","585","585","0","[[1,0,0],[3,2],[0]]","8","[[2,1,0],[3,0],[0]]","8","0","","","","","","6","","","","","","","","",""
"","","","","","single-stim-button","165","265225","0.0-2.0-34.8-0.8","6092dea4efd6d61350f0fdbf","D2","batch4","","803","tol_tohand","","","","tol_peg_1","803","803","0","[[0,0,0],[3,2],[0]]","9","[[2,1,0],[3,0],[0]]","8","0","","","","","","6","","","","","","","","",""
"","","","","","single-stim-button","166","266966","0.0-2.0-34.8-1.8","6092dea4efd6d61350f0fdbf","D2","batch4","","1740","tol_toboard","","","","tol_peg_3","1740","1740","0","[[0,0,0],[3,2],[1]]","9","[[2,1,0],[3,0],[0]]","8","0","","","","","","6","","","","","","","","",""
"","","","","","single-stim-button","167","267561","0.0-2.0-34.9-0.9","6092dea4efd6d61350f0fdbf","D2","batch4","","595","tol_tohand","","","","tol_peg_2","595","595","0","[[0,0,0],[3,0],[1]]","10","[[2,1,0],[3,0],[0]]","8","0","","","","","","6","","","","","","","","",""
"","","","","","single-stim-button","168","267923","0.0-2.0-34.9-1.9","6092dea4efd6d61350f0fdbf","D2","batch4","","361","tol_toboard","","","","tol_peg_1","361","361","0","[[2,0,0],[3,0],[1]]","10","[[2,1,0],[3,0],[0]]","8","0","","","","","","6","","","","","","","","",""
"","","","","","single-stim-button","169","268570","0.0-2.0-34.10-0.10","6092dea4efd6d61350f0fdbf","D2","batch4","","647","tol_tohand","","","","tol_peg_3","647","647","0","[[2,0,0],[3,0],[0]]","11","[[2,1,0],[3,0],[0]]","8","0","","","","","","6","","","","","","","","",""
"","","","","","single-stim-button","170","269487","0.0-2.0-34.10-1.10","6092dea4efd6d61350f0fdbf","D2","batch4","","917","tol_toboard","","","","tol_peg_1","917","917","0","[[2,1,0],[3,0],[0]]","11","[[2,1,0],[3,0],[0]]","8","0","","","","","","6","","","","","","","","",""
"","","","","","poldrack-single-stim","171","270488","0.0-2.0-35.0","6092dea4efd6d61350f0fdbf","D2","batch4","","-1","tol_feedback","","","true","","1000","1000","500","","","","","","-1","none","true","2711","12144","","","","","","","","","",""
"","","","","","html-button-response","172","271077","0.0-2.0-36.0","6092dea4efd6d61350f0fdbf","D2","batch4","","589","tol_trial_num","<div class = centerbox><p class = center-block-text>problem <strong>10</strong> out of 25 problems</p></div>","0","","","","","","","","","","","","","","","","","","","","","","","","",""
"","","","","","single-stim-button","173","274591","0.0-2.0-37.0-0.0","6092dea4efd6d61350f0fdbf","D2","batch4","","3514","tol_tohand","","","","tol_peg_2","3514","3514","0","[[3,0,0],[0,0],[2]]","1","[[3,0,0],[2,1],[0]]","9","0","","","","","","3","","","","","","","","",""
"","","","","","single-stim-button","174","275995","0.0-2.0-37.0-1.0","6092dea4efd6d61350f0fdbf","D2","batch4","","1404","tol_toboard","","","","tol_peg_1","1404","1404","0","[[3,1,0],[0,0],[2]]","1","[[3,0,0],[2,1],[0]]","9","0","","","","","","3","","","","","","","","",""
"","","","","","single-stim-button","175","276494","0.0-2.0-37.1-0.1","6092dea4efd6d61350f0fdbf","D2","batch4","","499","tol_tohand","","","","tol_peg_3","499","499","0","[[3,1,0],[0,0],[0]]","2","[[3,0,0],[2,1],[0]]","9","0","","","","","","3","","","","","","","","",""
"","","","","","single-stim-button","176","276983","0.0-2.0-37.1-1.1","6092dea4efd6d61350f0fdbf","D2","batch4","","489","tol_toboard","","","","tol_peg_2","489","489","0","[[3,1,0],[2,0],[0]]","2","[[3,0,0],[2,1],[0]]","9","0","","","","","","3","","","","","","","","",""
"","","","","","single-stim-button","177","277545","0.0-2.0-37.2-0.2","6092dea4efd6d61350f0fdbf","D2","batch4","","562","tol_tohand","","","","tol_peg_1","562","562","0","[[3,0,0],[2,0],[0]]","3","[[3,0,0],[2,1],[0]]","9","0","","","","","","3","","","","","","","","",""
"","","","","","single-stim-button","178","277867","0.0-2.0-37.2-1.2","6092dea4efd6d61350f0fdbf","D2","batch4","","322","tol_toboard","","","","tol_peg_2","322","322","0","[[3,0,0],[2,1],[0]]","3","[[3,0,0],[2,1],[0]]","9","0","","","","","","3","","","","","","","","",""
"","","","","","poldrack-single-stim","179","278876","0.0-2.0-38.0","6092dea4efd6d61350f0fdbf","D2","batch4","","-1","tol_feedback","","","true","","1000","1000","500","","","","","","-1","none","true","3514","4575","","","","","","","","","",""
"","","","","","html-button-response","180","279740","0.0-2.0-39.0","6092dea4efd6d61350f0fdbf","D2","batch4","","865","tol_trial_num","<div class = centerbox><p class = center-block-text>problem <strong>11</strong> out of 25 problems</p></div>","0","","","","","","","","","","","","","","","","","","","","","","","","",""
"","","","","","single-stim-button","181","281992","0.0-2.0-40.0-0.0","6092dea4efd6d61350f0fdbf","D2","batch4","","2251","tol_tohand","","","","tol_peg_1","2251","2251","0","[[1,0,0],[3,0],[0]]","1","[[2,0,0],[1,3],[0]]","10","0","","","","","","6","","","","","","","","",""
"","","","","","single-stim-button","182","283226","0.0-2.0-40.0-1.0","6092dea4efd6d61350f0fdbf","D2","batch4","","1233","tol_toboard","","","","tol_peg_3","1233","1233","0","[[1,0,0],[3,0],[2]]","1","[[2,0,0],[1,3],[0]]","10","0","","","","","","6","","","","","","","","",""
"","","","","","single-stim-button","183","284083","0.0-2.0-40.1-0.1","6092dea4efd6d61350f0fdbf","D2","batch4","","857","tol_tohand","","","","tol_peg_2","857","857","0","[[1,0,0],[0,0],[2]]","2","[[2,0,0],[1,3],[0]]","10","0","","","","","","6","","","","","","","","",""
"","","","","","single-stim-button","184","286122","0.0-2.0-40.1-1.1","6092dea4efd6d61350f0fdbf","D2","batch4","","2039","tol_toboard","","","","tol_peg_1","2039","2039","0","[[1,3,0],[0,0],[2]]","2","[[2,0,0],[1,3],[0]]","10","0","","","","","","6","","","","","","","","",""
"","","","","","single-stim-button","185","287805","0.0-2.0-40.2-0.2","6092dea4efd6d61350f0fdbf","D2","batch4","","1682","tol_tohand","","","","tol_peg_3","1682","1682","0","[[1,3,0],[0,0],[0]]","3","[[2,0,0],[1,3],[0]]","10","0","","","","","","6","","","","","","","","",""
"","","","","","single-stim-button","186","288441","0.0-2.0-40.2-1.2","6092dea4efd6d61350f0fdbf","D2","batch4","","636","tol_toboard","","","","tol_peg_2","636","636","0","[[1,3,0],[2,0],[0]]","3","[[2,0,0],[1,3],[0]]","10","0","","","","","","6","","","","","","","","",""
"","","","","","single-stim-button","187","289553","0.0-2.0-40.3-0.3","6092dea4efd6d61350f0fdbf","D2","batch4","","1111","tol_tohand","","","","tol_peg_1","1111","1111","0","[[1,0,0],[2,0],[0]]","4","[[2,0,0],[1,3],[0]]","10","0","","","","","","6","","","","","","","","",""
"","","","","","single-stim-button","188","291422","0.0-2.0-40.3-1.3","6092dea4efd6d61350f0fdbf","D2","batch4","","1869","tol_toboard","","","","tol_peg_3","1869","1869","0","[[1,0,0],[2,0],[3]]","4","[[2,0,0],[1,3],[0]]","10","0","","","","","","6","","","","","","","","",""
"","","","","","single-stim-button","189","292224","0.0-2.0-40.4-0.4","6092dea4efd6d61350f0fdbf","D2","batch4","","800","tol_tohand","","","","tol_peg_1","800","800","0","[[0,0,0],[2,0],[3]]","5","[[2,0,0],[1,3],[0]]","10","0","","","","","","6","","","","","","","","",""
"","","","","","single-stim-button","190","293195","0.0-2.0-40.4-1.4","6092dea4efd6d61350f0fdbf","D2","batch4","","970","tol_toboard","","","","tol_peg_2","970","970","0","[[0,0,0],[2,1],[3]]","5","[[2,0,0],[1,3],[0]]","10","0","","","","","","6","","","","","","","","",""
"","","","","","single-stim-button","191","294202","0.0-2.0-40.5-0.5","6092dea4efd6d61350f0fdbf","D2","batch4","","1007","tol_tohand","","","","tol_peg_3","1007","1007","0","[[0,0,0],[2,1],[0]]","6","[[2,0,0],[1,3],[0]]","10","0","","","","","","6","","","","","","","","",""
"","","","","","single-stim-button","192","297742","0.0-2.0-40.5-1.5","6092dea4efd6d61350f0fdbf","D2","batch4","","3540","tol_toboard","","","","tol_peg_1","3540","3540","0","[[3,0,0],[2,1],[0]]","6","[[2,0,0],[1,3],[0]]","10","0","","","","","","6","","","","","","","","",""
"","","","","","single-stim-button","193","298415","0.0-2.0-40.6-0.6","6092dea4efd6d61350f0fdbf","D2","batch4","","672","tol_tohand","","","","tol_peg_2","672","672","0","[[3,0,0],[2,0],[0]]","7","[[2,0,0],[1,3],[0]]","10","0","","","","","","6","","","","","","","","",""
"","","","","","single-stim-button","194","299503","0.0-2.0-40.6-1.6","6092dea4efd6d61350f0fdbf","D2","batch4","","1086","tol_toboard","","","","tol_peg_3","1086","1086","0","[[3,0,0],[2,0],[1]]","7","[[2,0,0],[1,3],[0]]","10","0","","","","","","6","","","","","","","","",""
"","","","","","single-stim-button","195","303018","0.0-2.0-40.7-0.7","6092dea4efd6d61350f0fdbf","D2","batch4","","3515","tol_tohand","","","","tol_peg_2","3515","3515","0","[[3,0,0],[0,0],[1]]","8","[[2,0,0],[1,3],[0]]","10","0","","","","","","6","","","","","","","","",""
"","","","","","single-stim-button","196","305611","0.0-2.0-40.7-1.7","6092dea4efd6d61350f0fdbf","D2","batch4","","2593","tol_toboard","","","","tol_peg_1","2593","2593","0","[[3,2,0],[0,0],[1]]","8","[[2,0,0],[1,3],[0]]","10","0","","","","","","6","","","","","","","","",""
"","","","","","single-stim-button","197","306370","0.0-2.0-40.8-0.8","6092dea4efd6d61350f0fdbf","D2","batch4","","759","tol_tohand","","","","tol_peg_3","759","759","0","[[3,2,0],[0,0],[0]]","9","[[2,0,0],[1,3],[0]]","10","0","","","","","","6","","","","","","","","",""
"","","","","","single-stim-button","198","307028","0.0-2.0-40.8-1.8","6092dea4efd6d61350f0fdbf","D2","batch4","","658","tol_toboard","","","","tol_peg_2","658","658","0","[[3,2,0],[1,0],[0]]","9","[[2,0,0],[1,3],[0]]","10","0","","","","","","6","","","","","","","","",""
"","","","","","single-stim-button","199","307860","0.0-2.0-40.9-0.9","6092dea4efd6d61350f0fdbf","D2","batch4","","831","tol_tohand","","","","tol_peg_1","831","831","0","[[3,0,0],[1,0],[0]]","10","[[2,0,0],[1,3],[0]]","10","0","","","","","","6","","","","","","","","",""
"","","","","","single-stim-button","200","309293","0.0-2.0-40.9-1.9","6092dea4efd6d61350f0fdbf","D2","batch4","","1432","tol_toboard","","","","tol_peg_3","1432","1432","0","[[3,0,0],[1,0],[2]]","10","[[2,0,0],[1,3],[0]]","10","0","","","","","","6","","","","","","","","",""
"","","","","","single-stim-button","201","310125","0.0-2.0-40.10-0.10","6092dea4efd6d61350f0fdbf","D2","batch4","","832","tol_tohand","","","","tol_peg_1","832","832","0","[[0,0,0],[1,0],[2]]","11","[[2,0,0],[1,3],[0]]","10","0","","","","","","6","","","","","","","","",""
"","","","","","single-stim-button","202","310578","0.0-2.0-40.10-1.10","6092dea4efd6d61350f0fdbf","D2","batch4","","453","tol_toboard","","","","tol_peg_2","453","453","0","[[0,0,0],[1,3],[2]]","11","[[2,0,0],[1,3],[0]]","10","0","","","","","","6","","","","","","","","",""
"","","","","","single-stim-button","203","311000","0.0-2.0-40.11-0.11","6092dea4efd6d61350f0fdbf","D2","batch4","","421","tol_tohand","","","","tol_peg_3","421","421","0","[[0,0,0],[1,3],[0]]","12","[[2,0,0],[1,3],[0]]","10","0","","","","","","6","","","","","","","","",""
"","","","","","single-stim-button","204","311602","0.0-2.0-40.11-1.11","6092dea4efd6d61350f0fdbf","D2","batch4","","602","tol_toboard","","","","tol_peg_1","602","602","0","[[2,0,0],[1,3],[0]]","12","[[2,0,0],[1,3],[0]]","10","0","","","","","","6","","","","","","","","",""
"","","","","","poldrack-single-stim","205","312611","0.0-2.0-41.0","6092dea4efd6d61350f0fdbf","D2","batch4","","-1","tol_feedback","","","true","","1000","1000","500","","","","","","-1","none","true","2251","14738","","","","","","","","","",""
"","","","","","html-button-response","206","313344","0.0-2.0-42.0","6092dea4efd6d61350f0fdbf","D2","batch4","","732","tol_trial_num","<div class = centerbox><p class = center-block-text>problem <strong>12</strong> out of 25 problems</p></div>","0","","","","","","","","","","","","","","","","","","","","","","","","",""
"","","","","","single-stim-button","207","315241","0.0-2.0-43.0-0.0","6092dea4efd6d61350f0fdbf","D2","batch4","","1896","tol_tohand","","","","tol_peg_1","1896","1896","0","[[1,0,0],[3,0],[0]]","1","[[2,3,0],[0,0],[1]]","11","0","","","","","","4","","","","","","","","",""
"","","","","","single-stim-button","208","316529","0.0-2.0-43.0-1.0","6092dea4efd6d61350f0fdbf","D2","batch4","","1287","tol_toboard","","","","tol_peg_2","1287","1287","0","[[1,0,0],[3,2],[0]]","1","[[2,3,0],[0,0],[1]]","11","0","","","","","","4","","","","","","","","",""
"","","","","","single-stim-button","209","317073","0.0-2.0-43.1-0.1","6092dea4efd6d61350f0fdbf","D2","batch4","","543","tol_tohand","","","","tol_peg_1","543","543","0","[[0,0,0],[3,2],[0]]","2","[[2,3,0],[0,0],[1]]","11","0","","","","","","4","","","","","","","","",""
"","","","","","single-stim-button","210","317768","0.0-2.0-43.1-1.1","6092dea4efd6d61350f0fdbf","D2","batch4","","695","tol_toboard","","","","tol_peg_3","695","695","0","[[0,0,0],[3,2],[1]]","2","[[2,3,0],[0,0],[1]]","11","0","","","","","","4","","","","","","","","",""
"","","","","","single-stim-button","211","318851","0.0-2.0-43.2-0.2","6092dea4efd6d61350f0fdbf","D2","batch4","","1083","tol_tohand","","","","tol_peg_2","1083","1083","0","[[0,0,0],[3,0],[1]]","3","[[2,3,0],[0,0],[1]]","11","0","","","","","","4","","","","","","","","",""
"","","","","","single-stim-button","212","321661","0.0-2.0-43.2-1.2","6092dea4efd6d61350f0fdbf","D2","batch4","","2810","tol_toboard","","","","tol_peg_1","2810","2810","0","[[2,0,0],[3,0],[1]]","3","[[2,3,0],[0,0],[1]]","11","0","","","","","","4","","","","","","","","",""
"","","","","","single-stim-button","213","322277","0.0-2.0-43.3-0.3","6092dea4efd6d61350f0fdbf","D2","batch4","","615","tol_tohand","","","","tol_peg_2","615","615","0","[[2,0,0],[0,0],[1]]","4","[[2,3,0],[0,0],[1]]","11","0","","","","","","4","","","","","","","","",""
"","","","","","single-stim-button","214","322777","0.0-2.0-43.3-1.3","6092dea4efd6d61350f0fdbf","D2","batch4","","500","tol_toboard","","","","tol_peg_1","500","500","0","[[2,3,0],[0,0],[1]]","4","[[2,3,0],[0,0],[1]]","11","0","","","","","","4","","","","","","","","",""
"","","","","","poldrack-single-stim","215","323784","0.0-2.0-44.0","6092dea4efd6d61350f0fdbf","D2","batch4","","-1","tol_feedback","","","true","","1000","1000","500","","","","","","-1","none","true","1896","4137","","","","","","","","","",""
"","","","","","html-button-response","216","324369","0.0-2.0-45.0","6092dea4efd6d61350f0fdbf","D2","batch4","","584","tol_trial_num","<div class = centerbox><p class = center-block-text>problem <strong>13</strong> out of 25 problems</p></div>","0","","","","","","","","","","","","","","","","","","","","","","","","",""
"","","","","","single-stim-button","217","326340","0.0-2.0-46.0-0.0","6092dea4efd6d61350f0fdbf","D2","batch4","","1971","tol_tohand","","","","tol_peg_1","1971","1971","0","[[1,0,0],[3,0],[0]]","1","[[0,0,0],[2,3],[1]]","12","0","","","","","","4","","","","","","","","",""
"","","","","","single-stim-button","218","326909","0.0-2.0-46.0-1.0","6092dea4efd6d61350f0fdbf","D2","batch4","","569","tol_toboard","","","","tol_peg_2","569","569","0","[[1,0,0],[3,2],[0]]","1","[[0,0,0],[2,3],[1]]","12","0","","","","","","4","","","","","","","","",""
"","","","","","single-stim-button","219","327443","0.0-2.0-46.1-0.1","6092dea4efd6d61350f0fdbf","D2","batch4","","534","tol_tohand","","","","tol_peg_1","534","534","0","[[0,0,0],[3,2],[0]]","2","[[0,0,0],[2,3],[1]]","12","0","","","","","","4","","","","","","","","",""
"","","","","","single-stim-button","220","328081","0.0-2.0-46.1-1.1","6092dea4efd6d61350f0fdbf","D2","batch4","","638","tol_toboard","","","","tol_peg_3","638","638","0","[[0,0,0],[3,2],[1]]","2","[[0,0,0],[2,3],[1]]","12","0","","","","","","4","","","","","","","","",""
"","","","","","single-stim-button","221","329061","0.0-2.0-46.2-0.2","6092dea4efd6d61350f0fdbf","D2","batch4","","978","tol_tohand","","","","tol_peg_2","978","978","0","[[0,0,0],[3,0],[1]]","3","[[0,0,0],[2,3],[1]]","12","0","","","","","","4","","","","","","","","",""
"","","","","","single-stim-button","222","330248","0.0-2.0-46.2-1.2","6092dea4efd6d61350f0fdbf","D2","batch4","","1187","tol_toboard","","","","tol_peg_1","1187","1187","0","[[2,0,0],[3,0],[1]]","3","[[0,0,0],[2,3],[1]]","12","0","","","","","","4","","","","","","","","",""
"","","","","","single-stim-button","223","330875","0.0-2.0-46.3-0.3","6092dea4efd6d61350f0fdbf","D2","batch4","","626","tol_tohand","","","","tol_peg_2","626","626","0","[[2,0,0],[0,0],[1]]","4","[[0,0,0],[2,3],[1]]","12","0","","","","","","4","","","","","","","","",""
"","","","","","single-stim-button","224","333449","0.0-2.0-46.3-1.3","6092dea4efd6d61350f0fdbf","D2","batch4","","2573","tol_toboard","","","","tol_peg_2","2573","2573","0","[[2,0,0],[3,0],[1]]","4","[[0,0,0],[2,3],[1]]","12","0","","","","","","4","","","","","","","","",""
"","","","","","single-stim-button","225","333970","0.0-2.0-46.4-0.4","6092dea4efd6d61350f0fdbf","D2","batch4","","521","tol_tohand","","","","tol_peg_2","521","521","0","[[2,0,0],[0,0],[1]]","5","[[0,0,0],[2,3],[1]]","12","0","","","","","","4","","","","","","","","",""
"","","","","","single-stim-button","226","334426","0.0-2.0-46.4-1.4","6092dea4efd6d61350f0fdbf","D2","batch4","","456","tol_toboard","","","","tol_peg_1","456","456","0","[[2,3,0],[0,0],[1]]","5","[[0,0,0],[2,3],[1]]","12","0","","","","","","4","","","","","","","","",""
"","","","","","single-stim-button","227","335101","0.0-2.0-46.5-0.5","6092dea4efd6d61350f0fdbf","D2","batch4","","674","tol_tohand","","","","tol_peg_1","674","674","0","[[2,0,0],[0,0],[1]]","6","[[0,0,0],[2,3],[1]]","12","0","","","","","","4","","","","","","","","",""
"","","","","","single-stim-button","228","337896","0.0-2.0-46.5-1.5","6092dea4efd6d61350f0fdbf","D2","batch4","","2795","tol_toboard","","","","tol_peg_2","2795","2795","0","[[2,0,0],[3,0],[1]]","6","[[0,0,0],[2,3],[1]]","12","0","","","","","","4","","","","","","","","",""
"","","","","","single-stim-button","229","338328","0.0-2.0-46.6-0.6","6092dea4efd6d61350f0fdbf","D2","batch4","","432","tol_tohand","","","","tol_peg_3","432","432","0","[[2,0,0],[3,0],[0]]","7","[[0,0,0],[2,3],[1]]","12","0","","","","","","4","","","","","","","","",""
"","","","","","single-stim-button","230","340026","0.0-2.0-46.6-1.6","6092dea4efd6d61350f0fdbf","D2","batch4","","1698","tol_toboard","","","","tol_peg_2","1698","1698","0","[[2,0,0],[3,1],[0]]","7","[[0,0,0],[2,3],[1]]","12","0","","","","","","4","","","","","","","","",""
"","","","","","single-stim-button","231","340885","0.0-2.0-46.7-0.7","6092dea4efd6d61350f0fdbf","D2","batch4","","859","tol_tohand","","","","tol_peg_1","859","859","0","[[0,0,0],[3,1],[0]]","8","[[0,0,0],[2,3],[1]]","12","0","","","","","","4","","","","","","","","",""
"","","","","","single-stim-button","232","341935","0.0-2.0-46.7-1.7","6092dea4efd6d61350f0fdbf","D2","batch4","","1049","tol_toboard","","","","tol_peg_3","1049","1049","0","[[0,0,0],[3,1],[2]]","8","[[0,0,0],[2,3],[1]]","12","0","","","","","","4","","","","","","","","",""
"","","","","","single-stim-button","233","343037","0.0-2.0-46.8-0.8","6092dea4efd6d61350f0fdbf","D2","batch4","","1101","tol_tohand","","","","tol_peg_2","1101","1101","0","[[0,0,0],[3,0],[2]]","9","[[0,0,0],[2,3],[1]]","12","0","","","","","","4","","","","","","","","",""
"","","","","","single-stim-button","234","343683","0.0-2.0-46.8-1.8","6092dea4efd6d61350f0fdbf","D2","batch4","","646","tol_toboard","","","","tol_peg_1","646","646","0","[[1,0,0],[3,0],[2]]","9","[[0,0,0],[2,3],[1]]","12","0","","","","","","4","","","","","","","","",""
"","","","","","single-stim-button","235","344587","0.0-2.0-46.9-0.9","6092dea4efd6d61350f0fdbf","D2","batch4","","904","tol_tohand","","","","tol_peg_2","904","904","0","[[1,0,0],[0,0],[2]]","10","[[0,0,0],[2,3],[1]]","12","0","","","","","","4","","","","","","","","",""
"","","","","","single-stim-button","236","345298","0.0-2.0-46.9-1.9","6092dea4efd6d61350f0fdbf","D2","batch4","","711","tol_toboard","","","","tol_peg_1","711","711","0","[[1,3,0],[0,0],[2]]","10","[[0,0,0],[2,3],[1]]","12","0","","","","","","4","","","","","","","","",""
"","","","","","single-stim-button","237","346035","0.0-2.0-46.10-0.10","6092dea4efd6d61350f0fdbf","D2","batch4","","736","tol_tohand","","","","tol_peg_3","736","736","0","[[1,3,0],[0,0],[0]]","11","[[0,0,0],[2,3],[1]]","12","0","","","","","","4","","","","","","","","",""
"","","","","","single-stim-button","238","346399","0.0-2.0-46.10-1.10","6092dea4efd6d61350f0fdbf","D2","batch4","","363","tol_toboard","","","","tol_peg_2","363","363","0","[[1,3,0],[2,0],[0]]","11","[[0,0,0],[2,3],[1]]","12","0","","","","","","4","","","","","","","","",""
"","","","","","single-stim-button","239","347260","0.0-2.0-46.11-0.11","6092dea4efd6d61350f0fdbf","D2","batch4","","861","tol_tohand","","","","tol_peg_1","861","861","0","[[1,0,0],[2,0],[0]]","12","[[0,0,0],[2,3],[1]]","12","0","","","","","","4","","","","","","","","",""
"","","","","","single-stim-button","240","347603","0.0-2.0-46.11-1.11","6092dea4efd6d61350f0fdbf","D2","batch4","","341","tol_toboard","","","","tol_peg_2","341","341","0","[[1,0,0],[2,3],[0]]","12","[[0,0,0],[2,3],[1]]","12","0","","","","","","4","","","","","","","","",""
"","","","","","single-stim-button","241","348239","0.0-2.0-46.12-0.12","6092dea4efd6d61350f0fdbf","D2","batch4","","635","tol_tohand","","","","tol_peg_1","635","635","0","[[0,0,0],[2,3],[0]]","13","[[0,0,0],[2,3],[1]]","12","0","","","","","","4","","","","","","","","",""
"","","","","","single-stim-button","242","348797","0.0-2.0-46.12-1.12","6092dea4efd6d61350f0fdbf","D2","batch4","","557","tol_toboard","","","","tol_peg_3","557","557","0","[[0,0,0],[2,3],[1]]","13","[[0,0,0],[2,3],[1]]","12","0","","","","","","4","","","","","","","","",""
"","","","","","poldrack-single-stim","243","349810","0.0-2.0-47.0","6092dea4efd6d61350f0fdbf","D2","batch4","","-1","tol_feedback","","","true","","1000","1000","500","","","","","","-1","none","true","1971","10832","","","","","","","","","",""
"","","","","","html-button-response","244","352241","0.0-2.0-48.0","6092dea4efd6d61350f0fdbf","D2","batch4","","2431","attention_check","<p class = block-text>How many balls are in your board<br></p>","1","true","","","","","","","","","","","","","","","","","","","","","","","",""
"","","","","","html-button-response","245","352849","0.0-2.0-49.0","6092dea4efd6d61350f0fdbf","D2","batch4","","607","tol_trial_num","<div class = centerbox><p class = center-block-text>problem <strong>14</strong> out of 25 problems</p></div>","0","","","","","","","","","","","","","","","","","","","","","","","","",""
"","","","","","single-stim-button","246","354828","0.0-2.0-50.0-0.0","6092dea4efd6d61350f0fdbf","D2","batch4","","1978","tol_tohand","","","","tol_peg_1","1978","1978","0","[[2,0,0],[3,0],[0]]","1","[[1,2,0],[3,0],[0]]","13","0","","","","","","4","","","","","","","","",""
"","","","","","single-stim-button","247","355632","0.0-2.0-50.0-1.0","6092dea4efd6d61350f0fdbf","D2","batch4","","803","tol_toboard","","","","tol_peg_3","803","803","0","[[2,0,0],[3,0],[1]]","1","[[1,2,0],[3,0],[0]]","13","0","","","","","","4","","","","","","","","",""
"","","","","","single-stim-button","248","356458","0.0-2.0-50.1-0.1","6092dea4efd6d61350f0fdbf","D2","batch4","","826","tol_tohand","","","","tol_peg_1","826","826","0","[[0,0,0],[3,0],[1]]","2","[[1,2,0],[3,0],[0]]","13","0","","","","","","4","","","","","","","","",""
"","","","","","single-stim-button","249","356842","0.0-2.0-50.1-1.1","6092dea4efd6d61350f0fdbf","D2","batch4","","383","tol_toboard","","","","tol_peg_2","383","383","0","[[0,0,0],[3,2],[1]]","2","[[1,2,0],[3,0],[0]]","13","0","","","","","","4","","","","","","","","",""
"","","","","","single-stim-button","250","357269","0.0-2.0-50.2-0.2","6092dea4efd6d61350f0fdbf","D2","batch4","","427","tol_tohand","","","","tol_peg_3","427","427","0","[[0,0,0],[3,2],[0]]","3","[[1,2,0],[3,0],[0]]","13","0","","","","","","4","","","","","","","","",""
"","","","","","single-stim-button","251","358022","0.0-2.0-50.2-1.2","6092dea4efd6d61350f0fdbf","D2","batch4","","752","tol_toboard","","","","tol_peg_1","752","752","0","[[1,0,0],[3,2],[0]]","3","[[1,2,0],[3,0],[0]]","13","0","","","","","","4","","","","","","","","",""
"","","","","","single-stim-button","252","358468","0.0-2.0-50.3-0.3","6092dea4efd6d61350f0fdbf","D2","batch4","","446","tol_tohand","","","","tol_peg_2","446","446","0","[[1,0,0],[3,0],[0]]","4","[[1,2,0],[3,0],[0]]","13","0","","","","","","4","","","","","","","","",""
"","","","","","single-stim-button","253","359307","0.0-2.0-50.3-1.3","6092dea4efd6d61350f0fdbf","D2","batch4","","839","tol_toboard","","","","tol_peg_1","839","839","0","[[1,2,0],[3,0],[0]]","4","[[1,2,0],[3,0],[0]]","13","0","","","","","","4","","","","","","","","",""
"","","","","","poldrack-single-stim","254","360332","0.0-2.0-51.0","6092dea4efd6d61350f0fdbf","D2","batch4","","-1","tol_feedback","","","true","","1000","1000","500","","","","","","-1","none","true","1978","3677","","","","","","","","","",""
"","","","","","html-button-response","255","360973","0.0-2.0-52.0","6092dea4efd6d61350f0fdbf","D2","batch4","","641","tol_trial_num","<div class = centerbox><p class = center-block-text>problem <strong>15</strong> out of 25 problems</p></div>","0","","","","","","","","","","","","","","","","","","","","","","","","",""
"","","","","","single-stim-button","256","362867","0.0-2.0-53.0-0.0","6092dea4efd6d61350f0fdbf","D2","batch4","","1892","tol_tohand","","","","tol_peg_1","1892","1892","0","[[1,0,0],[3,0],[0]]","1","[[2,0,0],[3,0],[1]]","14","0","","","","","","3","","","","","","","","",""
"","","","","","single-stim-button","257","363361","0.0-2.0-53.0-1.0","6092dea4efd6d61350f0fdbf","D2","batch4","","494","tol_toboard","","","","tol_peg_2","494","494","0","[[1,0,0],[3,2],[0]]","1","[[2,0,0],[3,0],[1]]","14","0","","","","","","3","","","","","","","","",""
"","","","","","single-stim-button","258","363842","0.0-2.0-53.1-0.1","6092dea4efd6d61350f0fdbf","D2","batch4","","480","tol_tohand","","","","tol_peg_1","480","480","0","[[0,0,0],[3,2],[0]]","2","[[2,0,0],[3,0],[1]]","14","0","","","","","","3","","","","","","","","",""
"","","","","","single-stim-button","259","364660","0.0-2.0-53.1-1.1","6092dea4efd6d61350f0fdbf","D2","batch4","","818","tol_toboard","","","","tol_peg_3","818","818","0","[[0,0,0],[3,2],[1]]","2","[[2,0,0],[3,0],[1]]","14","0","","","","","","3","","","","","","","","",""
"","","","","","single-stim-button","260","365362","0.0-2.0-53.2-0.2","6092dea4efd6d61350f0fdbf","D2","batch4","","702","tol_tohand","","","","tol_peg_2","702","702","0","[[0,0,0],[3,0],[1]]","3","[[2,0,0],[3,0],[1]]","14","0","","","","","","3","","","","","","","","",""
"","","","","","single-stim-button","261","366041","0.0-2.0-53.2-1.2","6092dea4efd6d61350f0fdbf","D2","batch4","","678","tol_toboard","","","","tol_peg_1","678","678","0","[[2,0,0],[3,0],[1]]","3","[[2,0,0],[3,0],[1]]","14","0","","","","","","3","","","","","","","","",""
"","","","","","poldrack-single-stim","262","367048","0.0-2.0-54.0","6092dea4efd6d61350f0fdbf","D2","batch4","","-1","tol_feedback","","","true","","1000","1000","500","","","","","","-1","none","true","1892","3074","","","","","","","","","",""
"","","","","","html-button-response","263","368057","0.0-2.0-55.0","6092dea4efd6d61350f0fdbf","D2","batch4","","1008","tol_trial_num","<div class = centerbox><p class = center-block-text>problem <strong>16</strong> out of 25 problems</p></div>","0","","","","","","","","","","","","","","","","","","","","","","","","",""
"","","","","","single-stim-button","264","372302","0.0-2.0-56.0-0.0","6092dea4efd6d61350f0fdbf","D2","batch4","","4244","tol_tohand","","","","tol_peg_2","4244","4244","0","[[0,0,0],[2,0],[1]]","1","[[2,3,0],[1,0],[0]]","15","0","","","","","","7","","","","","","","","",""
"","","","","","single-stim-button","265","373393","0.0-2.0-56.0-1.0","6092dea4efd6d61350f0fdbf","D2","batch4","","1089","tol_toboard","","","","tol_peg_1","1089","1089","0","[[3,0,0],[2,0],[1]]","1","[[2,3,0],[1,0],[0]]","15","0","","","","","","7","","","","","","","","",""
"","","","","","single-stim-button","266","374089","0.0-2.0-56.1-0.1","6092dea4efd6d61350f0fdbf","D2","batch4","","696","tol_tohand","","","","tol_peg_2","696","696","0","[[3,0,0],[0,0],[1]]","2","[[2,3,0],[1,0],[0]]","15","0","","","","","","7","","","","","","","","",""
"","","","","","single-stim-button","267","374577","0.0-2.0-56.1-1.1","6092dea4efd6d61350f0fdbf","D2","batch4","","488","tol_toboard","","","","tol_peg_1","488","488","0","[[3,2,0],[0,0],[1]]","2","[[2,3,0],[1,0],[0]]","15","0","","","","","","7","","","","","","","","",""
"","","","","","single-stim-button","268","375425","0.0-2.0-56.2-0.2","6092dea4efd6d61350f0fdbf","D2","batch4","","848","tol_tohand","","","","tol_peg_3","848","848","0","[[3,2,0],[0,0],[0]]","3","[[2,3,0],[1,0],[0]]","15","0","","","","","","7","","","","","","","","",""
"","","","","","single-stim-button","269","375816","0.0-2.0-56.2-1.2","6092dea4efd6d61350f0fdbf","D2","batch4","","391","tol_toboard","","","","tol_peg_2","391","391","0","[[3,2,0],[1,0],[0]]","3","[[2,3,0],[1,0],[0]]","15","0","","","","","","7","","","","","","","","",""
"","","","","","single-stim-button","270","376964","0.0-2.0-56.3-0.3","6092dea4efd6d61350f0fdbf","D2","batch4","","1148","tol_tohand","","","","tol_peg_1","1148","1148","0","[[3,0,0],[1,0],[0]]","4","[[2,3,0],[1,0],[0]]","15","0","","","","","","7","","","","","","","","",""
"","","","","","single-stim-button","271","377386","0.0-2.0-56.3-1.3","6092dea4efd6d61350f0fdbf","D2","batch4","","422","tol_toboard","","","","tol_peg_2","422","422","0","[[3,0,0],[1,2],[0]]","4","[[2,3,0],[1,0],[0]]","15","0","","","","","","7","","","","","","","","",""
"","","","","","single-stim-button","272","378285","0.0-2.0-56.4-0.4","6092dea4efd6d61350f0fdbf","D2","batch4","","899","tol_tohand","","","","tol_peg_1","899","899","0","[[0,0,0],[1,2],[0]]","5","[[2,3,0],[1,0],[0]]","15","0","","","","","","7","","","","","","","","",""
"","","","","","single-stim-button","273","378936","0.0-2.0-56.4-1.4","6092dea4efd6d61350f0fdbf","D2","batch4","","651","tol_toboard","","","","tol_peg_3","651","651","0","[[0,0,0],[1,2],[3]]","5","[[2,3,0],[1,0],[0]]","15","0","","","","","","7","","","","","","","","",""
"","","","","","single-stim-button","274","379962","0.0-2.0-56.5-0.5","6092dea4efd6d61350f0fdbf","D2","batch4","","1026","tol_tohand","","","","tol_peg_2","1026","1026","0","[[0,0,0],[1,0],[3]]","6","[[2,3,0],[1,0],[0]]","15","0","","","","","","7","","","","","","","","",""
"","","","","","single-stim-button","275","380397","0.0-2.0-56.5-1.5","6092dea4efd6d61350f0fdbf","D2","batch4","","435","tol_toboard","","","","tol_peg_1","435","435","0","[[2,0,0],[1,0],[3]]","6","[[2,3,0],[1,0],[0]]","15","0","","","","","","7","","","","","","","","",""
"","","","","","single-stim-button","276","380925","0.0-2.0-56.6-0.6","6092dea4efd6d61350f0fdbf","D2","batch4","","527","tol_tohand","","","","tol_peg_3","527","527","0","[[2,0,0],[1,0],[0]]","7","[[2,3,0],[1,0],[0]]","15","0","","","","","","7","","","","","","","","",""
"","","","","","single-stim-button","277","381898","0.0-2.0-56.6-1.6","6092dea4efd6d61350f0fdbf","D2","batch4","","972","tol_toboard","","","","tol_peg_1","972","972","0","[[2,3,0],[1,0],[0]]","7","[[2,3,0],[1,0],[0]]","15","0","","","","","","7","","","","","","","","",""
"","","","","","poldrack-single-stim","278","382913","0.0-2.0-57.0","6092dea4efd6d61350f0fdbf","D2","batch4","","-1","tol_feedback","","","true","","1000","1000","500","","","","","","-1","none","true","4244","9388","","","","","","","","","",""
"","","","","","html-button-response","279","384035","0.0-2.0-58.0","6092dea4efd6d61350f0fdbf","D2","batch4","","1121","tol_trial_num","<div class = centerbox><p class = center-block-text>problem <strong>17</strong> out of 25 problems</p></div>","0","","","","","","","","","","","","","","","","","","","","","","","","",""
"","","","","","single-stim-button","280","392735","0.0-2.0-59.0-0.0","6092dea4efd6d61350f0fdbf","D2","batch4","","8699","tol_tohand","","","","tol_peg_1","8699","8699","0","[[1,0,0],[3,0],[0]]","1","[[3,1,0],[2,0],[0]]","16","0","","","","","","5","","","","","","","","",""
"","","","","","single-stim-button","281","393794","0.0-2.0-59.0-1.0","6092dea4efd6d61350f0fdbf","D2","batch4","","1059","tol_toboard","","","","tol_peg_3","1059","1059","0","[[1,0,0],[3,0],[2]]","1","[[3,1,0],[2,0],[0]]","16","0","","","","","","5","","","","","","","","",""
"","","","","","single-stim-button","282","394468","0.0-2.0-59.1-0.1","6092dea4efd6d61350f0fdbf","D2","batch4","","674","tol_tohand","","","","tol_peg_3","674","674","0","[[1,0,0],[3,0],[0]]","2","[[3,1,0],[2,0],[0]]","16","0","","","","","","5","","","","","","","","",""
"","","","","","single-stim-button","283","395580","0.0-2.0-59.1-1.1","6092dea4efd6d61350f0fdbf","D2","batch4","","1112","tol_toboard","","","","tol_peg_3","1112","1112","0","[[1,0,0],[3,0],[2]]","2","[[3,1,0],[2,0],[0]]","16","0","","","","","","5","","","","","","","","",""
"","","","","","single-stim-button","284","396695","0.0-2.0-59.2-0.2","6092dea4efd6d61350f0fdbf","D2","batch4","","1115","tol_tohand","","","","tol_peg_1","1115","1115","0","[[0,0,0],[3,0],[2]]","3","[[3,1,0],[2,0],[0]]","16","0","","","","","","5","","","","","","","","",""
"","","","","","single-stim-button","285","397480","0.0-2.0-59.2-1.2","6092dea4efd6d61350f0fdbf","D2","batch4","","784","tol_toboard","","","","tol_peg_2","784","784","0","[[0,0,0],[3,1],[2]]","3","[[3,1,0],[2,0],[0]]","16","0","","","","","","5","","","","","","","","",""
"","","","","","single-stim-button","286","400634","0.0-2.0-59.3-0.3","6092dea4efd6d61350f0fdbf","D2","batch4","","3153","tol_tohand","","","","tol_peg_3","3153","3153","0","[[0,0,0],[3,1],[0]]","4","[[3,1,0],[2,0],[0]]","16","0","","","","","","5","","","","","","","","",""
"","","","","","single-stim-button","287","402025","0.0-2.0-59.3-1.3","6092dea4efd6d61350f0fdbf","D2","batch4","","1390","tol_toboard","","","","tol_peg_1","1390","1390","0","[[2,0,0],[3,1],[0]]","4","[[3,1,0],[2,0],[0]]","16","0","","","","","","5","","","","","","","","",""
"","","","","","single-stim-button","288","402922","0.0-2.0-59.4-0.4","6092dea4efd6d61350f0fdbf","D2","batch4","","897","tol_tohand","","","","tol_peg_2","897","897","0","[[2,0,0],[3,0],[0]]","5","[[3,1,0],[2,0],[0]]","16","0","","","","","","5","","","","","","","","",""
"","","","","","single-stim-button","289","403668","0.0-2.0-59.4-1.4","6092dea4efd6d61350f0fdbf","D2","batch4","","746","tol_toboard","","","","tol_peg_3","746","746","0","[[2,0,0],[3,0],[1]]","5","[[3,1,0],[2,0],[0]]","16","0","","","","","","5","","","","","","","","",""
"","","","","","single-stim-button","290","405176","0.0-2.0-59.5-0.5","6092dea4efd6d61350f0fdbf","D2","batch4","","1507","tol_tohand","","","","tol_peg_2","1507","1507","0","[[2,0,0],[0,0],[1]]","6","[[3,1,0],[2,0],[0]]","16","0","","","","","","5","","","","","","","","",""
"","","","","","single-stim-button","291","407123","0.0-2.0-59.5-1.5","6092dea4efd6d61350f0fdbf","D2","batch4","","1947","tol_toboard","","","","tol_peg_1","1947","1947","0","[[2,3,0],[0,0],[1]]","6","[[3,1,0],[2,0],[0]]","16","0","","","","","","5","","","","","","","","",""
"","","","","","single-stim-button","292","407810","0.0-2.0-59.6-0.6","6092dea4efd6d61350f0fdbf","D2","batch4","","685","tol_tohand","","","","tol_peg_3","685","685","0","[[2,3,0],[0,0],[0]]","7","[[3,1,0],[2,0],[0]]","16","0","","","","","","5","","","","","","","","",""
"","","","","","single-stim-button","293","408617","0.0-2.0-59.6-1.6","6092dea4efd6d61350f0fdbf","D2","batch4","","807","tol_toboard","","","","tol_peg_2","807","807","0","[[2,3,0],[1,0],[0]]","7","[[3,1,0],[2,0],[0]]","16","0","","","","","","5","","","","","","","","",""
"","","","","","single-stim-button","294","409992","0.0-2.0-59.7-0.7","6092dea4efd6d61350f0fdbf","D2","batch4","","1375","tol_tohand","","","","tol_peg_1","1375","1375","0","[[2,0,0],[1,0],[0]]","8","[[3,1,0],[2,0],[0]]","16","0","","","","","","5","","","","","","","","",""
"","","","","","single-stim-button","295","411348","0.0-2.0-59.7-1.7","6092dea4efd6d61350f0fdbf","D2","batch4","","1355","tol_toboard","","","","tol_peg_2","1355","1355","0","[[2,0,0],[1,3],[0]]","8","[[3,1,0],[2,0],[0]]","16","0","","","","","","5","","","","","","","","",""
"","","","","","single-stim-button","296","412139","0.0-2.0-59.8-0.8","6092dea4efd6d61350f0fdbf","D2","batch4","","790","tol_tohand","","","","tol_peg_1","790","790","0","[[0,0,0],[1,3],[0]]","9","[[3,1,0],[2,0],[0]]","16","0","","","","","","5","","","","","","","","",""
"","","","","","single-stim-button","297","413029","0.0-2.0-59.8-1.8","6092dea4efd6d61350f0fdbf","D2","batch4","","888","tol_toboard","","","","tol_peg_3","888","888","0","[[0,0,0],[1,3],[2]]","9","[[3,1,0],[2,0],[0]]","16","0","","","","","","5","","","","","","","","",""
"","","","","","single-stim-button","298","413713","0.0-2.0-59.9-0.9","6092dea4efd6d61350f0fdbf","D2","batch4","","684","tol_tohand","","","","tol_peg_2","684","684","0","[[0,0,0],[1,0],[2]]","10","[[3,1,0],[2,0],[0]]","16","0","","","","","","5","","","","","","","","",""
"","","","","","single-stim-button","299","414291","0.0-2.0-59.9-1.9","6092dea4efd6d61350f0fdbf","D2","batch4","","578","tol_toboard","","","","tol_peg_1","578","578","0","[[3,0,0],[1,0],[2]]","10","[[3,1,0],[2,0],[0]]","16","0","","","","","","5","","","","","","","","",""
"","","","","","single-stim-button","300","414749","0.0-2.0-59.10-0.10","6092dea4efd6d61350f0fdbf","D2","batch4","","458","tol_tohand","","","","tol_peg_2","458","458","0","[[3,0,0],[0,0],[2]]","11","[[3,1,0],[2,0],[0]]","16","0","","","","","","5","","","","","","","","",""
"","","","","","single-stim-button","301","415421","0.0-2.0-59.10-1.10","6092dea4efd6d61350f0fdbf","D2","batch4","","671","tol_toboard","","","","tol_peg_1","671","671","0","[[3,1,0],[0,0],[2]]","11","[[3,1,0],[2,0],[0]]","16","0","","","","","","5","","","","","","","","",""
"","","","","","single-stim-button","302","416031","0.0-2.0-59.11-0.11","6092dea4efd6d61350f0fdbf","D2","batch4","","610","tol_tohand","","","","tol_peg_3","610","610","0","[[3,1,0],[0,0],[0]]","12","[[3,1,0],[2,0],[0]]","16","0","","","","","","5","","","","","","","","",""
"","","","","","single-stim-button","303","416414","0.0-2.0-59.11-1.11","6092dea4efd6d61350f0fdbf","D2","batch4","","381","tol_toboard","","","","tol_peg_2","381","381","0","[[3,1,0],[2,0],[0]]","12","[[3,1,0],[2,0],[0]]","16","0","","","","","","5","","","","","","","","",""
"","","","","","poldrack-single-stim","304","417423","0.0-2.0-60.0","6092dea4efd6d61350f0fdbf","D2","batch4","","-1","tol_feedback","","","true","","1000","1000","500","","","","","","-1","none","true","8699","20647","","","","","","","","","",""
"","","","","","html-button-response","305","418016","0.0-2.0-61.0","6092dea4efd6d61350f0fdbf","D2","batch4","","594","tol_trial_num","<div class = centerbox><p class = center-block-text>problem <strong>18</strong> out of 25 problems</p></div>","0","","","","","","","","","","","","","","","","","","","","","","","","",""
"","","","","","single-stim-button","306","420168","0.0-2.0-62.0-0.0","6092dea4efd6d61350f0fdbf","D2","batch4","","2152","tol_tohand","","","","tol_peg_1","2152","2152","0","[[1,0,0],[3,0],[0]]","1","[[3,0,0],[2,0],[1]]","17","0","","","","","","5","","","","","","","","",""
"","","","","","single-stim-button","307","420983","0.0-2.0-62.0-1.0","6092dea4efd6d61350f0fdbf","D2","batch4","","813","tol_toboard","","","","tol_peg_2","813","813","0","[[1,0,0],[3,2],[0]]","1","[[3,0,0],[2,0],[1]]","17","0","","","","","","5","","","","","","","","",""
"","","","","","single-stim-button","308","421608","0.0-2.0-62.1-0.1","6092dea4efd6d61350f0fdbf","D2","batch4","","625","tol_tohand","","","","tol_peg_1","625","625","0","[[0,0,0],[3,2],[0]]","2","[[3,0,0],[2,0],[1]]","17","0","","","","","","5","","","","","","","","",""
"","","","","","single-stim-button","309","422239","0.0-2.0-62.1-1.1","6092dea4efd6d61350f0fdbf","D2","batch4","","630","tol_toboard","","","","tol_peg_3","630","630","0","[[0,0,0],[3,2],[1]]","2","[[3,0,0],[2,0],[1]]","17","0","","","","","","5","","","","","","","","",""
"","","","","","single-stim-button","310","423446","0.0-2.0-62.2-0.2","6092dea4efd6d61350f0fdbf","D2","batch4","","1207","tol_tohand","","","","tol_peg_2","1207","1207","0","[[0,0,0],[3,0],[1]]","3","[[3,0,0],[2,0],[1]]","17","0","","","","","","5","","","","","","","","",""
"","","","","","single-stim-button","311","425484","0.0-2.0-62.2-1.2","6092dea4efd6d61350f0fdbf","D2","batch4","","2038","tol_toboard","","","","tol_peg_1","2038","2038","0","[[2,0,0],[3,0],[1]]","3","[[3,0,0],[2,0],[1]]","17","0","","","","","","5","","","","","","","","",""
"","","","","","single-stim-button","312","425976","0.0-2.0-62.3-0.3","6092dea4efd6d61350f0fdbf","D2","batch4","","491","tol_tohand","","","","tol_peg_2","491","491","0","[[2,0,0],[0,0],[1]]","4","[[3,0,0],[2,0],[1]]","17","0","","","","","","5","","","","","","","","",""
"","","","","","single-stim-button","313","427052","0.0-2.0-62.3-1.3","6092dea4efd6d61350f0fdbf","D2","batch4","","1076","tol_toboard","","","","tol_peg_1","1076","1076","0","[[2,3,0],[0,0],[1]]","4","[[3,0,0],[2,0],[1]]","17","0","","","","","","5","","","","","","","","",""
"","","","","","single-stim-button","314","428454","0.0-2.0-62.4-0.4","6092dea4efd6d61350f0fdbf","D2","batch4","","1402","tol_tohand","","","","tol_peg_1","1402","1402","0","[[2,0,0],[0,0],[1]]","5","[[3,0,0],[2,0],[1]]","17","0","","","","","","5","","","","","","","","",""
"","","","","","single-stim-button","315","430273","0.0-2.0-62.4-1.4","6092dea4efd6d61350f0fdbf","D2","batch4","","1819","tol_toboard","","","","tol_peg_1","1819","1819","0","[[2,3,0],[0,0],[1]]","5","[[3,0,0],[2,0],[1]]","17","0","","","","","","5","","","","","","","","",""
"","","","","","single-stim-button","316","430913","0.0-2.0-62.5-0.5","6092dea4efd6d61350f0fdbf","D2","batch4","","640","tol_tohand","","","","tol_peg_3","640","640","0","[[2,3,0],[0,0],[0]]","6","[[3,0,0],[2,0],[1]]","17","0","","","","","","5","","","","","","","","",""
"","","","","","single-stim-button","317","431319","0.0-2.0-62.5-1.5","6092dea4efd6d61350f0fdbf","D2","batch4","","406","tol_toboard","","","","tol_peg_2","406","406","0","[[2,3,0],[1,0],[0]]","6","[[3,0,0],[2,0],[1]]","17","0","","","","","","5","","","","","","","","",""
"","","","","","single-stim-button","318","432493","0.0-2.0-62.6-0.6","6092dea4efd6d61350f0fdbf","D2","batch4","","1174","tol_tohand","","","","tol_peg_1","1174","1174","0","[[2,0,0],[1,0],[0]]","7","[[3,0,0],[2,0],[1]]","17","0","","","","","","5","","","","","","","","",""
"","","","","","single-stim-button","319","432847","0.0-2.0-62.6-1.6","6092dea4efd6d61350f0fdbf","D2","batch4","","354","tol_toboard","","","","tol_peg_2","354","354","0","[[2,0,0],[1,3],[0]]","7","[[3,0,0],[2,0],[1]]","17","0","","","","","","5","","","","","","","","",""
"","","","","","single-stim-button","320","433347","0.0-2.0-62.7-0.7","6092dea4efd6d61350f0fdbf","D2","batch4","","500","tol_tohand","","","","tol_peg_1","500","500","0","[[0,0,0],[1,3],[0]]","8","[[3,0,0],[2,0],[1]]","17","0","","","","","","5","","","","","","","","",""
"","","","","","single-stim-button","321","435469","0.0-2.0-62.7-1.7","6092dea4efd6d61350f0fdbf","D2","batch4","","2122","tol_toboard","","","","tol_peg_3","2122","2122","0","[[0,0,0],[1,3],[2]]","8","[[3,0,0],[2,0],[1]]","17","0","","","","","","5","","","","","","","","",""
"","","","","","single-stim-button","322","436291","0.0-2.0-62.8-0.8","6092dea4efd6d61350f0fdbf","D2","batch4","","822","tol_tohand","","","","tol_peg_2","822","822","0","[[0,0,0],[1,0],[2]]","9","[[3,0,0],[2,0],[1]]","17","0","","","","","","5","","","","","","","","",""
"","","","","","single-stim-button","323","436846","0.0-2.0-62.8-1.8","6092dea4efd6d61350f0fdbf","D2","batch4","","555","tol_toboard","","","","tol_peg_1","555","555","0","[[3,0,0],[1,0],[2]]","9","[[3,0,0],[2,0],[1]]","17","0","","","","","","5","","","","","","","","",""
"","","","","","single-stim-button","324","437457","0.0-2.0-62.9-0.9","6092dea4efd6d61350f0fdbf","D2","batch4","","610","tol_tohand","","","","tol_peg_2","610","610","0","[[3,0,0],[0,0],[2]]","10","[[3,0,0],[2,0],[1]]","17","0","","","","","","5","","","","","","","","",""
"","","","","","single-stim-button","325","438079","0.0-2.0-62.9-1.9","6092dea4efd6d61350f0fdbf","D2","batch4","","622","tol_toboard","","","","tol_peg_1","622","622","0","[[3,1,0],[0,0],[2]]","10","[[3,0,0],[2,0],[1]]","17","0","","","","","","5","","","","","","","","",""
"","","","","","single-stim-button","326","439059","0.0-2.0-62.10-0.10","6092dea4efd6d61350f0fdbf","D2","batch4","","979","tol_tohand","","","","tol_peg_3","979","979","0","[[3,1,0],[0,0],[0]]","11","[[3,0,0],[2,0],[1]]","17","0","","","","","","5","","","","","","","","",""
"","","","","","single-stim-button","327","439449","0.0-2.0-62.10-1.10","6092dea4efd6d61350f0fdbf","D2","batch4","","390","tol_toboard","","","","tol_peg_2","390","390","0","[[3,1,0],[2,0],[0]]","11","[[3,0,0],[2,0],[1]]","17","0","","","","","","5","","","","","","","","",""
"","","","","","single-stim-button","328","440097","0.0-2.0-62.11-0.11","6092dea4efd6d61350f0fdbf","D2","batch4","","648","tol_tohand","","","","tol_peg_1","648","648","0","[[3,0,0],[2,0],[0]]","12","[[3,0,0],[2,0],[1]]","17","0","","","","","","5","","","","","","","","",""
"","","","","","single-stim-button","329","440561","0.0-2.0-62.11-1.11","6092dea4efd6d61350f0fdbf","D2","batch4","","464","tol_toboard","","","","tol_peg_3","464","464","0","[[3,0,0],[2,0],[1]]","12","[[3,0,0],[2,0],[1]]","17","0","","","","","","5","","","","","","","","",""
"","","","","","poldrack-single-stim","330","441568","0.0-2.0-63.0","6092dea4efd6d61350f0fdbf","D2","batch4","","-1","tol_feedback","","","true","","1000","1000","500","","","","","","-1","none","true","2152","11250","","","","","","","","","",""
"","","","","","html-button-response","331","442178","0.0-2.0-64.0","6092dea4efd6d61350f0fdbf","D2","batch4","","611","tol_trial_num","<div class = centerbox><p class = center-block-text>problem <strong>19</strong> out of 25 problems</p></div>","0","","","","","","","","","","","","","","","","","","","","","","","","",""
"","","","","","single-stim-button","332","443996","0.0-2.0-65.0-0.0","6092dea4efd6d61350f0fdbf","D2","batch4","","1817","tol_tohand","","","","tol_peg_2","1817","1817","0","[[1,2,0],[0,0],[0]]","1","[[0,0,0],[1,2],[3]]","18","0","","","","","","7","","","","","","","","",""
"","","","","","single-stim-button","333","444605","0.0-2.0-65.0-1.0","6092dea4efd6d61350f0fdbf","D2","batch4","","608","tol_toboard","","","","tol_peg_3","608","608","0","[[1,2,0],[0,0],[3]]","1","[[0,0,0],[1,2],[3]]","18","0","","","","","","7","","","","","","","","",""
"","","","","","single-stim-button","334","446382","0.0-2.0-65.1-0.1","6092dea4efd6d61350f0fdbf","D2","batch4","","1777","tol_tohand","","","","tol_peg_1","1777","1777","0","[[1,0,0],[0,0],[3]]","2","[[0,0,0],[1,2],[3]]","18","0","","","","","","7","","","","","","","","",""
"","","","","","single-stim-button","335","447367","0.0-2.0-65.1-1.1","6092dea4efd6d61350f0fdbf","D2","batch4","","984","tol_toboard","","","","tol_peg_2","984","984","0","[[1,0,0],[2,0],[3]]","2","[[0,0,0],[1,2],[3]]","18","0","","","","","","7","","","","","","","","",""
"","","","","","single-stim-button","336","447969","0.0-2.0-65.2-0.2","6092dea4efd6d61350f0fdbf","D2","batch4","","602","tol_tohand","","","","tol_peg_1","602","602","0","[[0,0,0],[2,0],[3]]","3","[[0,0,0],[1,2],[3]]","18","0","","","","","","7","","","","","","","","",""
"","","","","","single-stim-button","337","448728","0.0-2.0-65.2-1.2","6092dea4efd6d61350f0fdbf","D2","batch4","","759","tol_toboard","","","","tol_peg_2","759","759","0","[[0,0,0],[2,1],[3]]","3","[[0,0,0],[1,2],[3]]","18","0","","","","","","7","","","","","","","","",""
"","","","","","single-stim-button","338","451756","0.0-2.0-65.3-0.3","6092dea4efd6d61350f0fdbf","D2","batch4","","3027","tol_tohand","","","","tol_peg_2","3027","3027","0","[[0,0,0],[2,0],[3]]","4","[[0,0,0],[1,2],[3]]","18","0","","","","","","7","","","","","","","","",""
"","","","","","single-stim-button","339","453495","0.0-2.0-65.3-1.3","6092dea4efd6d61350f0fdbf","D2","batch4","","1739","tol_toboard","","","","tol_peg_1","1739","1739","0","[[1,0,0],[2,0],[3]]","4","[[0,0,0],[1,2],[3]]","18","0","","","","","","7","","","","","","","","",""
"","","","","","single-stim-button","340","455730","0.0-2.0-65.4-0.4","6092dea4efd6d61350f0fdbf","D2","batch4","","2234","tol_tohand","","","","tol_peg_3","2234","2234","0","[[1,0,0],[2,0],[0]]","5","[[0,0,0],[1,2],[3]]","18","0","","","","","","7","","","","","","","","",""
"","","","","","single-stim-button","341","456983","0.0-2.0-65.4-1.4","6092dea4efd6d61350f0fdbf","D2","batch4","","1252","tol_toboard","","","","tol_peg_2","1252","1252","0","[[1,0,0],[2,3],[0]]","5","[[0,0,0],[1,2],[3]]","18","0","","","","","","7","","","","","","","","",""
"","","","","","single-stim-button","342","457453","0.0-2.0-65.5-0.5","6092dea4efd6d61350f0fdbf","D2","batch4","","469","tol_tohand","","","","tol_peg_1","469","469","0","[[0,0,0],[2,3],[0]]","6","[[0,0,0],[1,2],[3]]","18","0","","","","","","7","","","","","","","","",""
"","","","","","single-stim-button","343","458071","0.0-2.0-65.5-1.5","6092dea4efd6d61350f0fdbf","D2","batch4","","617","tol_toboard","","","","tol_peg_3","617","617","0","[[0,0,0],[2,3],[1]]","6","[[0,0,0],[1,2],[3]]","18","0","","","","","","7","","","","","","","","",""
"","","","","","single-stim-button","344","458967","0.0-2.0-65.6-0.6","6092dea4efd6d61350f0fdbf","D2","batch4","","896","tol_tohand","","","","tol_peg_2","896","896","0","[[0,0,0],[2,0],[1]]","7","[[0,0,0],[1,2],[3]]","18","0","","","","","","7","","","","","","","","",""
"","","","","","single-stim-button","345","460071","0.0-2.0-65.6-1.6","6092dea4efd6d61350f0fdbf","D2","batch4","","1104","tol_toboard","","","","tol_peg_1","1104","1104","0","[[3,0,0],[2,0],[1]]","7","[[0,0,0],[1,2],[3]]","18","0","","","","","","7","","","","","","","","",""
"","","","","","single-stim-button","346","460596","0.0-2.0-65.7-0.7","6092dea4efd6d61350f0fdbf","D2","batch4","","525","tol_tohand","","","","tol_peg_2","525","525","0","[[3,0,0],[0,0],[1]]","8","[[0,0,0],[1,2],[3]]","18","0","","","","","","7","","","","","","","","",""
"","","","","","single-stim-button","347","461943","0.0-2.0-65.7-1.7","6092dea4efd6d61350f0fdbf","D2","batch4","","1347","tol_toboard","","","","tol_peg_1","1347","1347","0","[[3,2,0],[0,0],[1]]","8","[[0,0,0],[1,2],[3]]","18","0","","","","","","7","","","","","","","","",""
"","","","","","single-stim-button","348","462546","0.0-2.0-65.8-0.8","6092dea4efd6d61350f0fdbf","D2","batch4","","603","tol_tohand","","","","tol_peg_3","603","603","0","[[3,2,0],[0,0],[0]]","9","[[0,0,0],[1,2],[3]]","18","0","","","","","","7","","","","","","","","",""
"","","","","","single-stim-button","349","463003","0.0-2.0-65.8-1.8","6092dea4efd6d61350f0fdbf","D2","batch4","","457","tol_toboard","","","","tol_peg_2","457","457","0","[[3,2,0],[1,0],[0]]","9","[[0,0,0],[1,2],[3]]","18","0","","","","","","7","","","","","","","","",""
"","","","","","single-stim-button","350","464111","0.0-2.0-65.9-0.9","6092dea4efd6d61350f0fdbf","D2","batch4","","1107","tol_tohand","","","","tol_peg_1","1107","1107","0","[[3,0,0],[1,0],[0]]","10","[[0,0,0],[1,2],[3]]","18","0","","","","","","7","","","","","","","","",""
"","","","","","single-stim-button","351","464404","0.0-2.0-65.9-1.9","6092dea4efd6d61350f0fdbf","D2","batch4","","293","tol_toboard","","","","tol_peg_2","293","293","0","[[3,0,0],[1,2],[0]]","10","[[0,0,0],[1,2],[3]]","18","0","","","","","","7","","","","","","","","",""
"","","","","","single-stim-button","352","464934","0.0-2.0-65.10-0.10","6092dea4efd6d61350f0fdbf","D2","batch4","","530","tol_tohand","","","","tol_peg_1","530","530","0","[[0,0,0],[1,2],[0]]","11","[[0,0,0],[1,2],[3]]","18","0","","","","","","7","","","","","","","","",""
"","","","","","single-stim-button","353","465409","0.0-2.0-65.10-1.10","6092dea4efd6d61350f0fdbf","D2","batch4","","475","tol_toboard","","","","tol_peg_3","475","475","0","[[0,0,0],[1,2],[3]]","11","[[0,0,0],[1,2],[3]]","18","0","","","","","","7","","","","","","","","",""
"","","","","","poldrack-single-stim","354","466423","0.0-2.0-66.0","6092dea4efd6d61350f0fdbf","D2","batch4","","-1","tol_feedback","","","true","","1000","1000","500","","","","","","-1","none","true","1817","13587","","","","","","","","","",""
"","","","","","html-button-response","355","467030","0.0-2.0-67.0","6092dea4efd6d61350f0fdbf","D2","batch4","","607","tol_trial_num","<div class = centerbox><p class = center-block-text>problem <strong>20</strong> out of 25 problems</p></div>","0","","","","","","","","","","","","","","","","","","","","","","","","",""
