"success","timeout","failed_images","failed_audio","failed_video","trial_type","trial_index","time_elapsed","internal_node_id","subject_id","study_id","session_id","view_history","rt","stimulus","response","task","correct","answer","item","fiar_detect_rt","fiar_detect_correct","total_correct_fiar_detect","post_trial_gap","choices","mouse_click","stim_duration","block_duration","timing_post_trial","current_position","tol_num_moves_made","tol_target","tol_problem_id","tol_rt","key_press","possible_responses","tol_correct","preplanning","tol_rt_per_trial","tol_min_moves","spm_correct","spm_rt"
"true","false","[]","[]","[]","preload","0","1523","0.0-0.0","609371fc24c531563322d57c","D2","batch4","","","","","","","","","","","","","","","","","","","","","","","","","","","","","",""
"true","","","","","fullscreen","1","11694","0.0-1.0-0.0","609371fc24c531563322d57c","D2","batch4","","","","","","","","","","","","","","","","","","","","","","","","","","","","","",""
"true","","","","","fullscreen","2","14460","0.0-2.0-0.0","609371fc24c531563322d57c","D2","batch4","","","","","","","","","","","","","","","","","","","","","","","","","","","","","",""
"","","","","","instructions","3","24983","0.0-2.0-1.0-0.0","609371fc24c531563322d57c","D2","batch4","[{""page_index"":0,""viewing_time"":7909.100000023842},{""page_index"":1,""viewing_time"":2613.399999976158}]","10522.700000047684","","","","","","","","","","","","","","","","","","","","","","","","","","","",""
"","","","","","html-button-response","4","25875","0.0-2.0-1.0-1.0-0.0","609371fc24c531563322d57c","D2","batch4","","891.7000000476837","<p class=block-text> Let's answer a few questions <br>","0","pattern_enter_quiz","","","","","","","","","","","","","","","","","","","","","","","","",""
"","","","","","html-button-response","5","27263","0.0-2.0-1.0-1.0-1.0","609371fc24c531563322d57c","D2","batch4","","1387","<p class = block-text>True or False: You will have as much time as you want to make each choice. <br></p>","1","pattern_quiz","true","","","","","","","","","","","","","","","","","","","","","","","",""
"","","","","","html-button-response","6","27925","0.0-2.0-1.0-1.0-2.0","609371fc24c531563322d57c","D2","batch4","","662","<p class = block-text>Correct! You should make your choice <strong> as fast as you can</strong>.</p>","0","pattern_quiz_feedback","","","","","","","","","","","","","","","","","","","","","","","","",""
"","","","","","html-button-response","7","32364","0.0-2.0-1.0-1.0-3.0","609371fc24c531563322d57c","D2","batch4","","4437.800000071526","<p class = block-text>True or False: You will look for 4 pieces in black or white color connected in a row either horizontally, vertically or diagonally. <br></p>","0","pattern_quiz","true","","","","","","","","","","","","","","","","","","","","","","","",""
"","","","","","html-button-response","8","33077","0.0-2.0-1.0-1.0-4.0","609371fc24c531563322d57c","D2","batch4","","713","<p class = block-text>Correct! </p>","0","pattern_quiz_feedback","","","","","","","","","","","","","","","","","","","","","","","","",""
"","","","","","html-button-response","9","34274","0.0-2.0-2.0","609371fc24c531563322d57c","D2","batch4","","1195.9000000953674","<p class=block-text> Now that you've understood the game, let's do a few practice trials before we start!<br> <br>","0","pattern_enter_practice","","","","","","","","","","","","","","","","","","","","","","","","",""
"","","","","","image-keyboard-response","10","35767","0.0-2.0-3.0-0.0","609371fc24c531563322d57c","D2","batch4","","1489.5","stim/prac_yes_20_dia_b1.png","f","pattern_practice","true","f","","","","","","","","","","","","","","","","","","","","","","",""
"","","","","","html-keyboard-response","11","36776","0.0-2.0-3.0-1.0","609371fc24c531563322d57c","D2","batch4","","null","<p style=""font-size:30px;color:green;"">Correct!</p>","null","pattern_feedback","","","","","","","","","","","","","","","","","","","","","","","","",""
"","","","","","image-keyboard-response","12","37618","0.0-2.0-3.0-0.1","609371fc24c531563322d57c","D2","batch4","","840.6000000238419","stim/prac_no_18_1.png","j","pattern_practice","true","j","","","","","","","","","","","","","","","","","","","","","","",""
"","","","","","html-keyboard-response","13","38622","0.0-2.0-3.0-1.1","609371fc24c531563322d57c","D2","batch4","","null","<p style=""font-size:30px;color:green;"">Correct!</p>","null","pattern_feedback","","","","","","","","","","","","","","","","","","","","","","","","",""
"","","","","","image-keyboard-response","14","39129","0.0-2.0-3.0-0.2","609371fc24c531563322d57c","D2","batch4","","505.6999999284744","stim/prac_yes_16_ver_w1.png","f","pattern_practice","true","f","","","","","","","","","","","","","","","","","","","","","","",""
"","","","","","html-keyboard-response","15","40142","0.0-2.0-3.0-1.2","609371fc24c531563322d57c","D2","batch4","","null","<p style=""font-size:30px;color:green;"">Correct!</p>","null","pattern_feedback","","","","","","","","","","","","","","","","","","","","","","","","",""
"","","","","","image-keyboard-response","16","40877","0.0-2.0-3.0-0.3","609371fc24c531563322d57c","D2","batch4","","734.2999999523163","stim/prac_yes_18_hor_w1.png","f","pattern_practice","true","f","","","","","","","","","","","","","","","","","","","","","","",""
"","","","","","html-keyboard-response","17","41881","0.0-2.0-3.0-1.3","609371fc24c531563322d57c","D2","batch4","","null","<p style=""font-size:30px;color:green;"">Correct!</p>","null","pattern_feedback","","","","","","","","","","","","","","","","","","","","","","","","",""
"","","","","","image-keyboard-response","18","43249","0.0-2.0-3.0-0.4","609371fc24c531563322d57c","D2","batch4","","1367.2999999523163","stim/prac_no_16_1.png","j","pattern_practice","true","j","","","","","","","","","","","","","","","","","","","","","","",""
"","","","","","html-keyboard-response","19","44277","0.0-2.0-3.0-1.4","609371fc24c531563322d57c","D2","batch4","","null","<p style=""font-size:30px;color:green;"">Correct!</p>","null","pattern_feedback","","","","","","","","","","","","","","","","","","","","","","","","",""
"","","","","","html-button-response","20","45790","0.0-2.0-4.0","609371fc24c531563322d57c","D2","batch4","","1512.5","<p class=block-text> Good job! You are done with practice trials!<br>
        You responded correctly on 100% of the trials.<br>
        Press the button below to start official trials. Now you won't see any feedback about your response</p>","0","pattern_enter_official_trials","","","","","","","","","","","","","","","","","","","","","","","","",""
"","","","","","html-keyboard-response","21","46599","0.0-2.0-5.0-0.0","609371fc24c531563322d57c","D2","batch4","","null","<p class=block-text>Trial 1 out of 78</p>","null","pattern_show_trial_num","","","","","","","","","","","","","","","","","","","","","","","","",""
"","","","","","image-keyboard-response","22","47298","0.0-2.0-5.0-1.0","609371fc24c531563322d57c","D2","batch4","","698.5999999046326","stim/yes_53_ver_b1_b.png","f","pattern_response","true","f","pattern_74","698.5999999046326","true","1","","","","","","","","","","","","","","","","","","",""
"","","","","","html-keyboard-response","23","48615","0.0-2.0-5.0-0.1","609371fc24c531563322d57c","D2","batch4","","null","<p class=block-text>Trial 2 out of 78</p>","null","pattern_show_trial_num","","","","","","","","","","","","","","","","","","","","","","","","",""
"","","","","","image-keyboard-response","24","49192","0.0-2.0-5.0-1.1","609371fc24c531563322d57c","D2","batch4","","576","stim/no_15_1_w.png","j","pattern_response","true","j","pattern_03","576","true","2","","","","","","","","","","","","","","","","","","",""
"","","","","","html-keyboard-response","25","50499","0.0-2.0-5.0-0.2","609371fc24c531563322d57c","D2","batch4","","null","<p class=block-text>Trial 3 out of 78</p>","null","pattern_show_trial_num","","","","","","","","","","","","","","","","","","","","","","","","",""
"","","","","","image-keyboard-response","26","51107","0.0-2.0-5.0-1.2","609371fc24c531563322d57c","D2","batch4","","607.6000000238419","stim/yes_29_hor_b1_b.png","f","pattern_response","true","f","pattern_52","607.6000000238419","true","3","","","","","","","","","","","","","","","","","","",""
"","","","","","html-keyboard-response","27","52415","0.0-2.0-5.0-0.3","609371fc24c531563322d57c","D2","batch4","","null","<p class=block-text>Trial 4 out of 78</p>","null","pattern_show_trial_num","","","","","","","","","","","","","","","","","","","","","","","","",""
"","","","","","image-keyboard-response","28","53284","0.0-2.0-5.0-1.3","609371fc24c531563322d57c","D2","batch4","","868.8999999761581","stim/yes_63_dia_b1.png","j","pattern_response","false","f","pattern_78","868.8999999761581","false","3","","","","","","","","","","","","","","","","","","",""
"","","","","","html-keyboard-response","29","54599","0.0-2.0-5.0-0.4","609371fc24c531563322d57c","D2","batch4","","null","<p class=block-text>Trial 5 out of 78</p>","null","pattern_show_trial_num","","","","","","","","","","","","","","","","","","","","","","","","",""
"","","","","","image-keyboard-response","30","55232","0.0-2.0-5.0-1.4","609371fc24c531563322d57c","D2","batch4","","632.6000000238419","stim/yes_15_dia_b1u_b.png","f","pattern_response","true","f","pattern_44","632.6000000238419","true","4","","","","","","","","","","","","","","","","","","",""
"","","","","","html-keyboard-response","31","56535","0.0-2.0-5.0-0.5","609371fc24c531563322d57c","D2","batch4","","null","<p class=block-text>Trial 6 out of 78</p>","null","pattern_show_trial_num","","","","","","","","","","","","","","","","","","","","","","","","",""
"","","","","","image-keyboard-response","32","57708","0.0-2.0-5.0-1.5","609371fc24c531563322d57c","D2","batch4","","1172.0999999046326","stim/yes_33_dia_w1_w.png","j","pattern_response","false","f","pattern_56","1172.0999999046326","false","4","","","","","","","","","","","","","","","","","","",""
"","","","","","html-keyboard-response","33","59026","0.0-2.0-5.0-0.6","609371fc24c531563322d57c","D2","batch4","","null","<p class=block-text>Trial 7 out of 78</p>","null","pattern_show_trial_num","","","","","","","","","","","","","","","","","","","","","","","","",""
"","","","","","image-keyboard-response","34","60517","0.0-2.0-5.0-1.6","609371fc24c531563322d57c","D2","batch4","","1490.6000000238419","stim/no_37_2_w.png","j","pattern_response","true","j","pattern_19","1490.6000000238419","true","5","","","","","","","","","","","","","","","","","","",""
"","","","","","html-keyboard-response","35","61824","0.0-2.0-5.0-0.7","609371fc24c531563322d57c","D2","batch4","","null","<p class=block-text>Trial 8 out of 78</p>","null","pattern_show_trial_num","","","","","","","","","","","","","","","","","","","","","","","","",""
"","","","","","image-keyboard-response","36","62346","0.0-2.0-5.0-1.7","609371fc24c531563322d57c","D2","batch4","","521.8999999761581","stim/yes_12_hor_w1_w.png","f","pattern_response","true","f","pattern_42","521.8999999761581","true","6","","","","","","","","","","","","","","","","","","",""
"","","","","","html-keyboard-response","37","63662","0.0-2.0-5.0-0.8","609371fc24c531563322d57c","D2","batch4","","null","<p class=block-text>Trial 9 out of 78</p>","null","pattern_show_trial_num","","","","","","","","","","","","","","","","","","","","","","","","",""
"","","","","","image-keyboard-response","38","64761","0.0-2.0-5.0-1.8","609371fc24c531563322d57c","D2","batch4","","1097.8000000715256","stim/no_18_1_b.png","j","pattern_response","true","j","pattern_05","1097.8000000715256","true","7","","","","","","","","","","","","","","","","","","",""
"","","","","","html-keyboard-response","39","66073","0.0-2.0-5.0-0.9","609371fc24c531563322d57c","D2","batch4","","null","<p class=block-text>Trial 10 out of 78</p>","null","pattern_show_trial_num","","","","","","","","","","","","","","","","","","","","","","","","",""
"","","","","","image-keyboard-response","40","66931","0.0-2.0-5.0-1.9","609371fc24c531563322d57c","D2","batch4","","857.5","stim/yes_51_dia_b1.png","f","pattern_response","true","f","pattern_72","857.5","true","8","","","","","","","","","","","","","","","","","","",""
"","","","","","html-keyboard-response","41","68247","0.0-2.0-5.0-0.10","609371fc24c531563322d57c","D2","batch4","","null","<p class=block-text>Trial 11 out of 78</p>","null","pattern_show_trial_num","","","","","","","","","","","","","","","","","","","","","","","","",""
"","","","","","image-keyboard-response","42","69447","0.0-2.0-5.0-1.10","609371fc24c531563322d57c","D2","batch4","","1199.6999999284744","stim/no_28_2.png","j","pattern_response","true","j","pattern_11","1199.6999999284744","true","9","","","","","","","","","","","","","","","","","","",""
"","","","","","html-keyboard-response","43","70759","0.0-2.0-5.0-0.11","609371fc24c531563322d57c","D2","batch4","","null","<p class=block-text>Trial 12 out of 78</p>","null","pattern_show_trial_num","","","","","","","","","","","","","","","","","","","","","","","","",""
"","","","","","image-keyboard-response","44","71335","0.0-2.0-5.0-1.11","609371fc24c531563322d57c","D2","batch4","","575.6000000238419","stim/yes_17_ver_b1_b.png","f","pattern_response","true","f","pattern_46","575.6000000238419","true","10","","","","","","","","","","","","","","","","","","",""
"","","","","","html-keyboard-response","45","72647","0.0-2.0-5.0-0.12","609371fc24c531563322d57c","D2","batch4","","null","<p class=block-text>Trial 13 out of 78</p>","null","pattern_show_trial_num","","","","","","","","","","","","","","","","","","","","","","","","",""
"","","","","","image-keyboard-response","46","73714","0.0-2.0-5.0-1.12","609371fc24c531563322d57c","D2","batch4","","1066.1000000238419","stim/no_36_1_b.png","j","pattern_response","true","j","pattern_17","1066.1000000238419","true","11","","","","","","","","","","","","","","","","","","",""
"","","","","","html-keyboard-response","47","75029","0.0-2.0-5.0-0.13","609371fc24c531563322d57c","D2","batch4","","null","<p class=block-text>Trial 14 out of 78</p>","null","pattern_show_trial_num","","","","","","","","","","","","","","","","","","","","","","","","",""
"","","","","","image-keyboard-response","48","76088","0.0-2.0-5.0-1.13","609371fc24c531563322d57c","D2","batch4","","1058.2999999523163","stim/yes_58_dia_w1_w.png","f","pattern_response","true","f","pattern_76","1058.2999999523163","true","12","","","","","","","","","","","","","","","","","","",""
"","","","","","html-keyboard-response","49","77401","0.0-2.0-5.0-0.14","609371fc24c531563322d57c","D2","batch4","","null","<p class=block-text>Trial 15 out of 78</p>","null","pattern_show_trial_num","","","","","","","","","","","","","","","","","","","","","","","","",""
"","","","","","image-keyboard-response","50","78394","0.0-2.0-5.0-1.14","609371fc24c531563322d57c","D2","batch4","","992.6000000238419","stim/yes_46_ver_b1_b.png","f","pattern_response","true","f","pattern_68","992.6000000238419","true","13","","","","","","","","","","","","","","","","","","",""
"","","","","","html-keyboard-response","51","79707","0.0-2.0-5.0-0.15","609371fc24c531563322d57c","D2","batch4","","null","<p class=block-text>Trial 16 out of 78</p>","null","pattern_show_trial_num","","","","","","","","","","","","","","","","","","","","","","","","",""
"","","","","","image-keyboard-response","52","81287","0.0-2.0-5.0-1.15","609371fc24c531563322d57c","D2","batch4","","1579.1000000238419","stim/no_49_2_b.png","j","pattern_response","true","j","pattern_29","1579.1000000238419","true","14","","","","","","","","","","","","","","","","","","",""
"","","","","","html-keyboard-response","53","82606","0.0-2.0-5.0-0.16","609371fc24c531563322d57c","D2","batch4","","null","<p class=block-text>Trial 17 out of 78</p>","null","pattern_show_trial_num","","","","","","","","","","","","","","","","","","","","","","","","",""
"","","","","","image-keyboard-response","54","83722","0.0-2.0-5.0-1.16","609371fc24c531563322d57c","D2","batch4","","1114.7999999523163","stim/yes_30_ver_b1_b.png","f","pattern_response","true","f","pattern_54","1114.7999999523163","true","15","","","","","","","","","","","","","","","","","","",""
"","","","","","html-keyboard-response","55","85026","0.0-2.0-5.0-0.17","609371fc24c531563322d57c","D2","batch4","","null","<p class=block-text>Trial 18 out of 78</p>","null","pattern_show_trial_num","","","","","","","","","","","","","","","","","","","","","","","","",""
"","","","","","image-keyboard-response","56","85891","0.0-2.0-5.0-1.17","609371fc24c531563322d57c","D2","batch4","","864","stim/yes_70_ver_b1.png","f","pattern_response","true","f","pattern_80","864","true","16","","","","","","","","","","","","","","","","","","",""
"","","","","","html-keyboard-response","57","87200","0.0-2.0-5.0-0.18","609371fc24c531563322d57c","D2","batch4","","null","<p class=block-text>Trial 19 out of 78</p>","null","pattern_show_trial_num","","","","","","","","","","","","","","","","","","","","","","","","",""
"","","","","","image-keyboard-response","58","88595","0.0-2.0-5.0-1.18","609371fc24c531563322d57c","D2","batch4","","1393.6999999284744","stim/no_25_1_b.png","j","pattern_response","true","j","pattern_09","1393.6999999284744","true","17","","","","","","","","","","","","","","","","","","",""
"","","","","","html-keyboard-response","59","89906","0.0-2.0-5.0-0.19","609371fc24c531563322d57c","D2","batch4","","null","<p class=block-text>Trial 20 out of 78</p>","null","pattern_show_trial_num","","","","","","","","","","","","","","","","","","","","","","","","",""
"","","","","","image-keyboard-response","60","91124","0.0-2.0-5.0-1.19","609371fc24c531563322d57c","D2","batch4","","1217.3000000715256","stim/no_12_1.png","j","pattern_response","true","j","pattern_01","1217.3000000715256","true","18","","","","","","","","","","","","","","","","","","",""
"","","","","","html-keyboard-response","61","92441","0.0-2.0-5.0-0.20","609371fc24c531563322d57c","D2","batch4","","null","<p class=block-text>Trial 21 out of 78</p>","null","pattern_show_trial_num","","","","","","","","","","","","","","","","","","","","","","","","",""
"","","","","","image-keyboard-response","62","94127","0.0-2.0-5.0-1.20","609371fc24c531563322d57c","D2","batch4","","1685.6999999284744","stim/no_51_1.png","j","pattern_response","true","j","pattern_31","1685.6999999284744","true","19","","","","","","","","","","","","","","","","","","",""
"","","","","","html-keyboard-response","63","95431","0.0-2.0-5.0-0.21","609371fc24c531563322d57c","D2","batch4","","null","<p class=block-text>Trial 22 out of 78</p>","null","pattern_show_trial_num","","","","","","","","","","","","","","","","","","","","","","","","",""
"","","","","","image-keyboard-response","64","96547","0.0-2.0-5.0-1.21","609371fc24c531563322d57c","D2","batch4","","1114.8999999761581","stim/yes_23_ver_b1.png","f","pattern_response","true","f","pattern_48","1114.8999999761581","true","20","","","","","","","","","","","","","","","","","","",""
"","","","","","html-keyboard-response","65","97858","0.0-2.0-5.0-0.22","609371fc24c531563322d57c","D2","batch4","","null","<p class=block-text>Trial 23 out of 78</p>","null","pattern_show_trial_num","","","","","","","","","","","","","","","","","","","","","","","","",""
"","","","","","image-keyboard-response","66","98773","0.0-2.0-5.0-1.22","609371fc24c531563322d57c","D2","batch4","","914.2999999523163","stim/no_22_1_b.png","j","pattern_response","true","j","pattern_07","914.2999999523163","true","21","","","","","","","","","","","","","","","","","","",""
"","","","","","html-keyboard-response","67","100082","0.0-2.0-5.0-0.23","609371fc24c531563322d57c","D2","batch4","","null","<p class=block-text>Trial 24 out of 78</p>","null","pattern_show_trial_num","","","","","","","","","","","","","","","","","","","","","","","","",""
"","","","","","image-keyboard-response","68","101997","0.0-2.0-5.0-1.23","609371fc24c531563322d57c","D2","batch4","","1914.1999999284744","stim/no_58_1_w.png","j","pattern_response","true","j","pattern_35","1914.1999999284744","true","22","","","","","","","","","","","","","","","","","","",""
"","","","","","html-keyboard-response","69","103312","0.0-2.0-5.0-0.24","609371fc24c531563322d57c","D2","batch4","","null","<p class=block-text>Trial 25 out of 78</p>","null","pattern_show_trial_num","","","","","","","","","","","","","","","","","","","","","","","","",""
"","","","","","image-keyboard-response","70","104680","0.0-2.0-5.0-1.24","609371fc24c531563322d57c","D2","batch4","","1367.7999999523163","stim/no_45_1_w.png","j","pattern_response","true","j","pattern_25","1367.7999999523163","true","23","","","","","","","","","","","","","","","","","","",""
"","","","","","html-keyboard-response","71","106005","0.0-2.0-5.0-0.25","609371fc24c531563322d57c","D2","batch4","","null","<p class=block-text>Trial 26 out of 78</p>","null","pattern_show_trial_num","","","","","","","","","","","","","","","","","","","","","","","","",""
"","","","","","image-keyboard-response","72","106948","0.0-2.0-5.0-1.25","609371fc24c531563322d57c","D2","batch4","","942.3999999761581","stim/no_47_1_b.png","j","pattern_response","true","j","pattern_27","942.3999999761581","true","24","","","","","","","","","","","","","","","","","","",""
"","","","","","html-keyboard-response","73","108260","0.0-2.0-5.0-0.26","609371fc24c531563322d57c","D2","batch4","","null","<p class=block-text>Trial 27 out of 78</p>","null","pattern_show_trial_num","","","","","","","","","","","","","","","","","","","","","","","","",""
"","","","","","image-keyboard-response","74","109639","0.0-2.0-5.0-1.26","609371fc24c531563322d57c","D2","batch4","","1377.7999999523163","stim/no_53_1_b.png","j","pattern_response","true","j","pattern_33","1377.7999999523163","true","25","","","","","","","","","","","","","","","","","","",""
"","","","","","html-keyboard-response","75","110943","0.0-2.0-5.0-0.27","609371fc24c531563322d57c","D2","batch4","","null","<p class=block-text>Trial 28 out of 78</p>","null","pattern_show_trial_num","","","","","","","","","","","","","","","","","","","","","","","","",""
"","","","","","image-keyboard-response","76","111519","0.0-2.0-5.0-1.27","609371fc24c531563322d57c","D2","batch4","","575.3999999761581","stim/yes_36_ver_w1_w.png","f","pattern_response","true","f","pattern_58","575.3999999761581","true","26","","","","","","","","","","","","","","","","","","",""
"","","","","","html-keyboard-response","77","112833","0.0-2.0-5.0-0.28","609371fc24c531563322d57c","D2","batch4","","null","<p class=block-text>Trial 29 out of 78</p>","null","pattern_show_trial_num","","","","","","","","","","","","","","","","","","","","","","","","",""
"","","","","","image-keyboard-response","78","113696","0.0-2.0-5.0-1.28","609371fc24c531563322d57c","D2","batch4","","862.5","stim/no_33_1_b.png","j","pattern_response","true","j","pattern_15","862.5","true","27","","","","","","","","","","","","","","","","","","",""
"","","","","","html-keyboard-response","79","115000","0.0-2.0-5.0-0.29","609371fc24c531563322d57c","D2","batch4","","null","<p class=block-text>Trial 30 out of 78</p>","null","pattern_show_trial_num","","","","","","","","","","","","","","","","","","","","","","","","",""
"","","","","","image-keyboard-response","80","116199","0.0-2.0-5.0-1.29","609371fc24c531563322d57c","D2","batch4","","1197.2999999523163","stim/yes_44_ver_w1_w.png","f","pattern_response","true","f","pattern_66","1197.2999999523163","true","28","","","","","","","","","","","","","","","","","","",""
"","","","","","html-keyboard-response","81","117508","0.0-2.0-5.0-0.30","609371fc24c531563322d57c","D2","batch4","","null","<p class=block-text>Trial 31 out of 78</p>","null","pattern_show_trial_num","","","","","","","","","","","","","","","","","","","","","","","","",""
"","","","","","image-keyboard-response","82","118640","0.0-2.0-5.0-1.30","609371fc24c531563322d57c","D2","batch4","","1131.4000000953674","stim/yes_49_hor_w1_b.png","f","pattern_response","true","f","pattern_70","1131.4000000953674","true","29","","","","","","","","","","","","","","","","","","",""
"","","","","","html-keyboard-response","83","119956","0.0-2.0-5.0-0.31","609371fc24c531563322d57c","D2","batch4","","null","<p class=block-text>Trial 32 out of 78</p>","null","pattern_show_trial_num","","","","","","","","","","","","","","","","","","","","","","","","",""
"","","","","","image-keyboard-response","84","121094","0.0-2.0-5.0-1.31","609371fc24c531563322d57c","D2","batch4","","1137.3000000715256","stim/no_30_1_b.png","j","pattern_response","true","j","pattern_13","1137.3000000715256","true","30","","","","","","","","","","","","","","","","","","",""
"","","","","","html-keyboard-response","85","122414","0.0-2.0-5.0-0.32","609371fc24c531563322d57c","D2","batch4","","null","<p class=block-text>Trial 33 out of 78</p>","null","pattern_show_trial_num","","","","","","","","","","","","","","","","","","","","","","","","",""
"","","","","","image-keyboard-response","86","124118","0.0-2.0-5.0-1.32","609371fc24c531563322d57c","D2","batch4","","1703.3000000715256","stim/yes_42_dia_w1_w.png","j","pattern_response","false","f","pattern_64","1703.3000000715256","false","30","","","","","","","","","","","","","","","","","","",""
"","","","","","html-keyboard-response","87","125422","0.0-2.0-5.0-0.33","609371fc24c531563322d57c","D2","batch4","","null","<p class=block-text>Trial 34 out of 78</p>","null","pattern_show_trial_num","","","","","","","","","","","","","","","","","","","","","","","","",""
"","","","","","image-keyboard-response","88","127737","0.0-2.0-5.0-1.33","609371fc24c531563322d57c","D2","batch4","","2314.600000023842","stim/no_39_1_w.png","j","pattern_response","true","j","pattern_21","2314.600000023842","true","31","","","","","","","","","","","","","","","","","","",""
"","","","","","html-keyboard-response","89","129051","0.0-2.0-5.0-0.34","609371fc24c531563322d57c","D2","batch4","","null","<p class=block-text>Trial 35 out of 78</p>","null","pattern_show_trial_num","","","","","","","","","","","","","","","","","","","","","","","","",""
"","","","","","image-keyboard-response","90","130109","0.0-2.0-5.0-1.34","609371fc24c531563322d57c","D2","batch4","","1056.3999999761581","stim/yes_26_dia_w2_w.png","f","pattern_response","true","f","pattern_50","1056.3999999761581","true","32","","","","","","","","","","","","","","","","","","",""
"","","","","","html-keyboard-response","91","131420","0.0-2.0-5.0-0.35","609371fc24c531563322d57c","D2","batch4","","null","<p class=block-text>Trial 36 out of 78</p>","null","pattern_show_trial_num","","","","","","","","","","","","","","","","","","","","","","","","",""
"","","","","","image-keyboard-response","92","133576","0.0-2.0-5.0-1.35","609371fc24c531563322d57c","D2","batch4","","2155","stim/no_67_1.png","j","pattern_response","true","j","pattern_39","2155","true","33","","","","","","","","","","","","","","","","","","",""
"","","","","","html-keyboard-response","93","134894","0.0-2.0-5.0-0.36","609371fc24c531563322d57c","D2","batch4","","null","<p class=block-text>Trial 37 out of 78</p>","null","pattern_show_trial_num","","","","","","","","","","","","","","","","","","","","","","","","",""
"","","","","","image-keyboard-response","94","136455","0.0-2.0-5.0-1.36","609371fc24c531563322d57c","D2","batch4","","1559.8999999761581","stim/no_43_2_b.png","j","pattern_response","true","j","pattern_23","1559.8999999761581","true","34","","","","","","","","","","","","","","","","","","",""
"","","","","","html-keyboard-response","95","137764","0.0-2.0-5.0-0.37","609371fc24c531563322d57c","D2","batch4","","null","<p class=block-text>Trial 38 out of 78</p>","null","pattern_show_trial_num","","","","","","","","","","","","","","","","","","","","","","","","",""
"","","","","","image-keyboard-response","96","139193","0.0-2.0-5.0-1.37","609371fc24c531563322d57c","D2","batch4","","1428.5","stim/yes_39_hor_w1_w.png","f","pattern_response","true","f","pattern_62","1428.5","true","35","","","","","","","","","","","","","","","","","","",""
"","","","","","html-keyboard-response","97","140508","0.0-2.0-5.0-0.38","609371fc24c531563322d57c","D2","batch4","","null","<p class=block-text>Trial 39 out of 78</p>","null","pattern_show_trial_num","","","","","","","","","","","","","","","","","","","","","","","","",""
"","","","","","image-keyboard-response","98","141370","0.0-2.0-5.0-1.38","609371fc24c531563322d57c","D2","batch4","","861.6999999284744","stim/yes_37_hor_w1_w.png","f","pattern_response","true","f","pattern_60","861.6999999284744","true","36","","","","","","","","","","","","","","","","","","",""
"","","","","","image-keyboard-response","99","143353","0.0-2.0-6.0","609371fc24c531563322d57c","D2","batch4","","1473.7000000476837","stim/empty_board.png","j","attention_check","true","j","","","","","500","[""f"",""j""]","","","","","","","","","","","","","","","","",""
"","","","","","html-keyboard-response","100","144161","0.0-2.0-7.0-0.0","609371fc24c531563322d57c","D2","batch4","","null","<p class=block-text>Trial 40 out of 78</p>","null","pattern_show_trial_num","","","","","","","","","","","","","","","","","","","","","","","","",""
"","","","","","image-keyboard-response","101","146841","0.0-2.0-7.0-1.0","609371fc24c531563322d57c","D2","batch4","","2679.3000000715256","stim/no_29_1_b.png","j","pattern_response","true","j","pattern_12","2679.3000000715256","true","37","","","","","","","","","","","","","","","","","","",""
"","","","","","html-keyboard-response","102","148160","0.0-2.0-7.0-0.1","609371fc24c531563322d57c","D2","batch4","","null","<p class=block-text>Trial 41 out of 78</p>","null","pattern_show_trial_num","","","","","","","","","","","","","","","","","","","","","","","","",""
"","","","","","image-keyboard-response","103","150633","0.0-2.0-7.0-1.1","609371fc24c531563322d57c","D2","batch4","","2472.4000000953674","stim/no_44_1.png","j","pattern_response","true","j","pattern_24","2472.4000000953674","true","38","","","","","","","","","","","","","","","","","","",""
"","","","","","html-keyboard-response","104","151946","0.0-2.0-7.0-0.2","609371fc24c531563322d57c","D2","batch4","","null","<p class=block-text>Trial 42 out of 78</p>","null","pattern_show_trial_num","","","","","","","","","","","","","","","","","","","","","","","","",""
"","","","","","image-keyboard-response","105","153580","0.0-2.0-7.0-1.2","609371fc24c531563322d57c","D2","batch4","","1633.3999999761581","stim/yes_37_dia_w1.png","j","pattern_response","false","f","pattern_59","1633.3999999761581","false","38","","","","","","","","","","","","","","","","","","",""
"","","","","","html-keyboard-response","106","154888","0.0-2.0-7.0-0.3","609371fc24c531563322d57c","D2","batch4","","null","<p class=block-text>Trial 43 out of 78</p>","null","pattern_show_trial_num","","","","","","","","","","","","","","","","","","","","","","","","",""
"","","","","","image-keyboard-response","107","157381","0.0-2.0-7.0-1.3","609371fc24c531563322d57c","D2","batch4","","2491.6999999284744","stim/no_62_1_w.png","j","pattern_response","true","j","pattern_36","2491.6999999284744","true","39","","","","","","","","","","","","","","","","","","",""
"","","","","","html-keyboard-response","108","158699","0.0-2.0-7.0-0.4","609371fc24c531563322d57c","D2","batch4","","null","<p class=block-text>Trial 44 out of 78</p>","null","pattern_show_trial_num","","","","","","","","","","","","","","","","","","","","","","","","",""
"","","","","","image-keyboard-response","109","161034","0.0-2.0-7.0-1.4","609371fc24c531563322d57c","D2","batch4","","2334","stim/no_46_1_b.png","j","pattern_response","true","j","pattern_26","2334","true","40","","","","","","","","","","","","","","","","","","",""
"","","","","","html-keyboard-response","110","162351","0.0-2.0-7.0-0.5","609371fc24c531563322d57c","D2","batch4","","null","<p class=block-text>Trial 45 out of 78</p>","null","pattern_show_trial_num","","","","","","","","","","","","","","","","","","","","","","","","",""
"","","","","","image-keyboard-response","111","164440","0.0-2.0-7.0-1.5","609371fc24c531563322d57c","D2","batch4","","2087.899999976158","stim/yes_60_ver_b1_b.png","f","pattern_response","true","f","pattern_77","2087.899999976158","true","41","","","","","","","","","","","","","","","","","","",""
"","","","","","html-keyboard-response","112","165753","0.0-2.0-7.0-0.6","609371fc24c531563322d57c","D2","batch4","","null","<p class=block-text>Trial 46 out of 78</p>","null","pattern_show_trial_num","","","","","","","","","","","","","","","","","","","","","","","","",""
"","","","","","image-keyboard-response","113","166583","0.0-2.0-7.0-1.6","609371fc24c531563322d57c","D2","batch4","","829.8000000715256","stim/no_13_2_b.png","j","pattern_response","true","j","pattern_02","829.8000000715256","true","42","","","","","","","","","","","","","","","","","","",""
"","","","","","html-keyboard-response","114","167905","0.0-2.0-7.0-0.7","609371fc24c531563322d57c","D2","batch4","","null","<p class=block-text>Trial 47 out of 78</p>","null","pattern_show_trial_num","","","","","","","","","","","","","","","","","","","","","","","","",""
"","","","","","image-keyboard-response","115","170072","0.0-2.0-7.0-1.7","609371fc24c531563322d57c","D2","batch4","","2166.2999999523163","stim/yes_50_dia_w1.png","j","pattern_response","false","f","pattern_71","2166.2999999523163","false","42","","","","","","","","","","","","","","","","","","",""
"","","","","","html-keyboard-response","116","171378","0.0-2.0-7.0-0.8","609371fc24c531563322d57c","D2","batch4","","null","<p class=block-text>Trial 48 out of 78</p>","null","pattern_show_trial_num","","","","","","","","","","","","","","","","","","","","","","","","",""
"","","","","","image-keyboard-response","117","172970","0.0-2.0-7.0-1.8","609371fc24c531563322d57c","D2","batch4","","1590.7999999523163","stim/no_50_1.png","j","pattern_response","true","j","pattern_30","1590.7999999523163","true","43","","","","","","","","","","","","","","","","","","",""
"","","","","","html-keyboard-response","118","174279","0.0-2.0-7.0-0.9","609371fc24c531563322d57c","D2","batch4","","null","<p class=block-text>Trial 49 out of 78</p>","null","pattern_show_trial_num","","","","","","","","","","","","","","","","","","","","","","","","",""
"","","","","","image-keyboard-response","119","175584","0.0-2.0-7.0-1.9","609371fc24c531563322d57c","D2","batch4","","1304.6999999284744","stim/no_20_1_w.png","j","pattern_response","true","j","pattern_06","1304.6999999284744","true","44","","","","","","","","","","","","","","","","","","",""
"","","","","","html-keyboard-response","120","176897","0.0-2.0-7.0-0.10","609371fc24c531563322d57c","D2","batch4","","null","<p class=block-text>Trial 50 out of 78</p>","null","pattern_show_trial_num","","","","","","","","","","","","","","","","","","","","","","","","",""
"","","","","","image-keyboard-response","121","180232","0.0-2.0-7.0-1.10","609371fc24c531563322d57c","D2","batch4","","3333.1999999284744","stim/no_65_1_b.png","j","pattern_response","true","j","pattern_38","3333.1999999284744","true","45","","","","","","","","","","","","","","","","","","",""
"","","","","","html-keyboard-response","122","181547","0.0-2.0-7.0-0.11","609371fc24c531563322d57c","D2","batch4","","null","<p class=block-text>Trial 51 out of 78</p>","null","pattern_show_trial_num","","","","","","","","","","","","","","","","","","","","","","","","",""
"","","","","","image-keyboard-response","123","184636","0.0-2.0-7.0-1.11","609371fc24c531563322d57c","D2","batch4","","3087.3000000715256","stim/no_70_2.png","j","pattern_response","true","j","pattern_40","3087.3000000715256","true","46","","","","","","","","","","","","","","","","","","",""
"","","","","","html-keyboard-response","124","185942","0.0-2.0-7.0-0.12","609371fc24c531563322d57c","D2","batch4","","null","<p class=block-text>Trial 52 out of 78</p>","null","pattern_show_trial_num","","","","","","","","","","","","","","","","","","","","","","","","",""
"","","","","","image-keyboard-response","125","186911","0.0-2.0-7.0-1.12","609371fc24c531563322d57c","D2","batch4","","967.8000000715256","stim/yes_17_dia_w1.png","f","pattern_response","true","f","pattern_45","967.8000000715256","true","47","","","","","","","","","","","","","","","","","","",""
"","","","","","html-keyboard-response","126","188226","0.0-2.0-7.0-0.13","609371fc24c531563322d57c","D2","batch4","","null","<p class=block-text>Trial 53 out of 78</p>","null","pattern_show_trial_num","","","","","","","","","","","","","","","","","","","","","","","","",""
"","","","","","image-keyboard-response","127","189774","0.0-2.0-7.0-1.13","609371fc24c531563322d57c","D2","batch4","","1547.7999999523163","stim/yes_14_hor_b1_w.png","f","pattern_response","true","f","pattern_43","1547.7999999523163","true","48","","","","","","","","","","","","","","","","","","",""
"","","","","","html-keyboard-response","128","191085","0.0-2.0-7.0-0.14","609371fc24c531563322d57c","D2","batch4","","null","<p class=block-text>Trial 54 out of 78</p>","null","pattern_show_trial_num","","","","","","","","","","","","","","","","","","","","","","","","",""
"","","","","","image-keyboard-response","129","194199","0.0-2.0-7.0-1.14","609371fc24c531563322d57c","D2","batch4","","3112.899999976158","stim/yes_38_hor_b1_b.png","f","pattern_response","true","f","pattern_61","3112.899999976158","true","49","","","","","","","","","","","","","","","","","","",""
"","","","","","html-keyboard-response","130","195509","0.0-2.0-7.0-0.15","609371fc24c531563322d57c","D2","batch4","","null","<p class=block-text>Trial 55 out of 78</p>","null","pattern_show_trial_num","","","","","","","","","","","","","","","","","","","","","","","","",""
"","","","","","image-keyboard-response","131","197374","0.0-2.0-7.0-1.15","609371fc24c531563322d57c","D2","batch4","","1863.2999999523163","stim/yes_31_hor_b1.png","f","pattern_response","true","f","pattern_55","1863.2999999523163","true","50","","","","","","","","","","","","","","","","","","",""
"","","","","","html-keyboard-response","132","198684","0.0-2.0-7.0-0.16","609371fc24c531563322d57c","D2","batch4","","null","<p class=block-text>Trial 56 out of 78</p>","null","pattern_show_trial_num","","","","","","","","","","","","","","","","","","","","","","","","",""
"","","","","","image-keyboard-response","133","200786","0.0-2.0-7.0-1.16","609371fc24c531563322d57c","D2","batch4","","2100.6999999284744","stim/no_55_1_w.png","j","pattern_response","true","j","pattern_34","2100.6999999284744","true","51","","","","","","","","","","","","","","","","","","",""
"","","","","","html-keyboard-response","134","202106","0.0-2.0-7.0-0.17","609371fc24c531563322d57c","D2","batch4","","null","<p class=block-text>Trial 57 out of 78</p>","null","pattern_show_trial_num","","","","","","","","","","","","","","","","","","","","","","","","",""
"","","","","","image-keyboard-response","135","203232","0.0-2.0-7.0-1.17","609371fc24c531563322d57c","D2","batch4","","1125.3999999761581","stim/yes_43_ver_w1_w.png","f","pattern_response","true","f","pattern_65","1125.3999999761581","true","52","","","","","","","","","","","","","","","","","","",""
"","","","","","html-keyboard-response","136","204546","0.0-2.0-7.0-0.18","609371fc24c531563322d57c","D2","batch4","","null","<p class=block-text>Trial 58 out of 78</p>","null","pattern_show_trial_num","","","","","","","","","","","","","","","","","","","","","","","","",""
"","","","","","image-keyboard-response","137","206526","0.0-2.0-7.0-1.18","609371fc24c531563322d57c","D2","batch4","","1978.8000000715256","stim/no_17_1_w.png","j","pattern_response","true","j","pattern_04","1978.8000000715256","true","53","","","","","","","","","","","","","","","","","","",""
"","","","","","html-keyboard-response","138","207836","0.0-2.0-7.0-0.19","609371fc24c531563322d57c","D2","batch4","","null","<p class=block-text>Trial 59 out of 78</p>","null","pattern_show_trial_num","","","","","","","","","","","","","","","","","","","","","","","","",""
"","","","","","image-keyboard-response","139","208841","0.0-2.0-7.0-1.19","609371fc24c531563322d57c","D2","batch4","","1004.3999999761581","stim/yes_25_hor_b1_b.png","f","pattern_response","true","f","pattern_49","1004.3999999761581","true","54","","","","","","","","","","","","","","","","","","",""
"","","","","","html-keyboard-response","140","210162","0.0-2.0-7.0-0.20","609371fc24c531563322d57c","D2","batch4","","null","<p class=block-text>Trial 60 out of 78</p>","null","pattern_show_trial_num","","","","","","","","","","","","","","","","","","","","","","","","",""
"","","","","","image-keyboard-response","141","211978","0.0-2.0-7.0-1.20","609371fc24c531563322d57c","D2","batch4","","1815.1000000238419","stim/yes_48_dia_w1_w.png","f","pattern_response","true","f","pattern_69","1815.1000000238419","true","55","","","","","","","","","","","","","","","","","","",""
"","","","","","html-keyboard-response","142","213291","0.0-2.0-7.0-0.21","609371fc24c531563322d57c","D2","batch4","","null","<p class=block-text>Trial 61 out of 78</p>","null","pattern_show_trial_num","","","","","","","","","","","","","","","","","","","","","","","","",""
"","","","","","image-keyboard-response","143","214266","0.0-2.0-7.0-1.21","609371fc24c531563322d57c","D2","batch4","","973.7999999523163","stim/yes_55_hor_w1_w.png","f","pattern_response","true","f","pattern_75","973.7999999523163","true","56","","","","","","","","","","","","","","","","","","",""
"","","","","","html-keyboard-response","144","215574","0.0-2.0-7.0-0.22","609371fc24c531563322d57c","D2","batch4","","null","<p class=block-text>Trial 62 out of 78</p>","null","pattern_show_trial_num","","","","","","","","","","","","","","","","","","","","","","","","",""
"","","","","","image-keyboard-response","145","218393","0.0-2.0-7.0-1.22","609371fc24c531563322d57c","D2","batch4","","2818.399999976158","stim/no_52_1.png","j","pattern_response","true","j","pattern_32","2818.399999976158","true","57","","","","","","","","","","","","","","","","","","",""
"","","","","","html-keyboard-response","146","219716","0.0-2.0-7.0-0.23","609371fc24c531563322d57c","D2","batch4","","null","<p class=block-text>Trial 63 out of 78</p>","null","pattern_show_trial_num","","","","","","","","","","","","","","","","","","","","","","","","",""
"","","","","","image-keyboard-response","147","222261","0.0-2.0-7.0-1.23","609371fc24c531563322d57c","D2","batch4","","2544.2000000476837","stim/yes_35_dia_b1.png","f","pattern_response","true","f","pattern_57","2544.2000000476837","true","58","","","","","","","","","","","","","","","","","","",""
"","","","","","html-keyboard-response","148","223584","0.0-2.0-7.0-0.24","609371fc24c531563322d57c","D2","batch4","","null","<p class=block-text>Trial 64 out of 78</p>","null","pattern_show_trial_num","","","","","","","","","","","","","","","","","","","","","","","","",""
"","","","","","image-keyboard-response","149","225956","0.0-2.0-7.0-1.24","609371fc24c531563322d57c","D2","batch4","","2371","stim/no_38_1_b.png","j","pattern_response","true","j","pattern_20","2371","true","59","","","","","","","","","","","","","","","","","","",""
"","","","","","html-keyboard-response","150","227260","0.0-2.0-7.0-0.25","609371fc24c531563322d57c","D2","batch4","","null","<p class=block-text>Trial 65 out of 78</p>","null","pattern_show_trial_num","","","","","","","","","","","","","","","","","","","","","","","","",""
"","","","","","image-keyboard-response","151","228287","0.0-2.0-7.0-1.25","609371fc24c531563322d57c","D2","batch4","","1025.3999999761581","stim/yes_28_ver_b1.png","f","pattern_response","true","f","pattern_51","1025.3999999761581","true","60","","","","","","","","","","","","","","","","","","",""
"","","","","","html-keyboard-response","152","229592","0.0-2.0-7.0-0.26","609371fc24c531563322d57c","D2","batch4","","null","<p class=block-text>Trial 66 out of 78</p>","null","pattern_show_trial_num","","","","","","","","","","","","","","","","","","","","","","","","",""
"","","","","","image-keyboard-response","153","230785","0.0-2.0-7.0-1.26","609371fc24c531563322d57c","D2","batch4","","1192.7000000476837","stim/no_32_1_w.png","j","pattern_response","true","j","pattern_14","1192.7000000476837","true","61","","","","","","","","","","","","","","","","","","",""
"","","","","","html-keyboard-response","154","232095","0.0-2.0-7.0-0.27","609371fc24c531563322d57c","D2","batch4","","null","<p class=block-text>Trial 67 out of 78</p>","null","pattern_show_trial_num","","","","","","","","","","","","","","","","","","","","","","","","",""
"","","","","","image-keyboard-response","155","234446","0.0-2.0-7.0-1.27","609371fc24c531563322d57c","D2","batch4","","2349.7000000476837","stim/yes_29_ver_w1.png","j","pattern_response","false","f","pattern_53","2349.7000000476837","false","61","","","","","","","","","","","","","","","","","","",""
"","","","","","html-keyboard-response","156","235748","0.0-2.0-7.0-0.28","609371fc24c531563322d57c","D2","batch4","","null","<p class=block-text>Trial 68 out of 78</p>","null","pattern_show_trial_num","","","","","","","","","","","","","","","","","","","","","","","","",""
"","","","","","image-keyboard-response","157","238736","0.0-2.0-7.0-1.28","609371fc24c531563322d57c","D2","batch4","","2987.9000000953674","stim/no_48_1_w.png","j","pattern_response","true","j","pattern_28","2987.9000000953674","true","62","","","","","","","","","","","","","","","","","","",""
"","","","","","html-keyboard-response","158","240039","0.0-2.0-7.0-0.29","609371fc24c531563322d57c","D2","batch4","","null","<p class=block-text>Trial 69 out of 78</p>","null","pattern_show_trial_num","","","","","","","","","","","","","","","","","","","","","","","","",""
"","","","","","image-keyboard-response","159","241475","0.0-2.0-7.0-1.29","609371fc24c531563322d57c","D2","batch4","","1435.7000000476837","stim/no_26_1_w.png","j","pattern_response","true","j","pattern_10","1435.7000000476837","true","63","","","","","","","","","","","","","","","","","","",""
"","","","","","html-keyboard-response","160","242785","0.0-2.0-7.0-0.30","609371fc24c531563322d57c","D2","batch4","","null","<p class=block-text>Trial 70 out of 78</p>","null","pattern_show_trial_num","","","","","","","","","","","","","","","","","","","","","","","","",""
"","","","","","image-keyboard-response","161","245809","0.0-2.0-7.0-1.30","609371fc24c531563322d57c","D2","batch4","","3023","stim/no_36_2_w.png","j","pattern_response","true","j","pattern_18","3023","true","64","","","","","","","","","","","","","","","","","","",""
"","","","","","html-keyboard-response","162","247123","0.0-2.0-7.0-0.31","609371fc24c531563322d57c","D2","batch4","","null","<p class=block-text>Trial 71 out of 78</p>","null","pattern_show_trial_num","","","","","","","","","","","","","","","","","","","","","","","","",""
"","","","","","image-keyboard-response","163","248014","0.0-2.0-7.0-1.31","609371fc24c531563322d57c","D2","batch4","","889.7999999523163","stim/yes_22_ver_w1.png","f","pattern_response","true","f","pattern_47","889.7999999523163","true","65","","","","","","","","","","","","","","","","","","",""
"","","","","","html-keyboard-response","164","249324","0.0-2.0-7.0-0.32","609371fc24c531563322d57c","D2","batch4","","null","<p class=block-text>Trial 72 out of 78</p>","null","pattern_show_trial_num","","","","","","","","","","","","","","","","","","","","","","","","",""
"","","","","","image-keyboard-response","165","250475","0.0-2.0-7.0-1.32","609371fc24c531563322d57c","D2","batch4","","1149.8000000715256","stim/yes_45_hor_b2_b.png","f","pattern_response","true","f","pattern_67","1149.8000000715256","true","66","","","","","","","","","","","","","","","","","","",""
"","","","","","html-keyboard-response","166","251782","0.0-2.0-7.0-0.33","609371fc24c531563322d57c","D2","batch4","","null","<p class=block-text>Trial 73 out of 78</p>","null","pattern_show_trial_num","","","","","","","","","","","","","","","","","","","","","","","","",""
"","","","","","image-keyboard-response","167","253644","0.0-2.0-7.0-1.33","609371fc24c531563322d57c","D2","batch4","","1861.4000000953674","stim/no_34_1_b.png","j","pattern_response","true","j","pattern_16","1861.4000000953674","true","67","","","","","","","","","","","","","","","","","","",""
"","","","","","html-keyboard-response","168","254961","0.0-2.0-7.0-0.34","609371fc24c531563322d57c","D2","batch4","","null","<p class=block-text>Trial 74 out of 78</p>","null","pattern_show_trial_num","","","","","","","","","","","","","","","","","","","","","","","","",""
"","","","","","image-keyboard-response","169","256904","0.0-2.0-7.0-1.34","609371fc24c531563322d57c","D2","batch4","","1942.6000000238419","stim/yes_40_dia_b1_b.png","j","pattern_response","false","f","pattern_63","1942.6000000238419","false","67","","","","","","","","","","","","","","","","","","",""
"","","","","","html-keyboard-response","170","258222","0.0-2.0-7.0-0.35","609371fc24c531563322d57c","D2","batch4","","null","<p class=block-text>Trial 75 out of 78</p>","null","pattern_show_trial_num","","","","","","","","","","","","","","","","","","","","","","","","",""
"","","","","","image-keyboard-response","171","259330","0.0-2.0-7.0-1.35","609371fc24c531563322d57c","D2","batch4","","1107.4000000953674","stim/yes_67_hor_b1.png","f","pattern_response","true","f","pattern_79","1107.4000000953674","true","68","","","","","","","","","","","","","","","","","","",""
"","","","","","html-keyboard-response","172","260646","0.0-2.0-7.0-0.36","609371fc24c531563322d57c","D2","batch4","","null","<p class=block-text>Trial 76 out of 78</p>","null","pattern_show_trial_num","","","","","","","","","","","","","","","","","","","","","","","","",""
"","","","","","image-keyboard-response","173","261944","0.0-2.0-7.0-1.36","609371fc24c531563322d57c","D2","batch4","","1297.1000000238419","stim/yes_52_ver_w1.png","f","pattern_response","true","f","pattern_73","1297.1000000238419","true","69","","","","","","","","","","","","","","","","","","",""
"","","","","","html-keyboard-response","174","263247","0.0-2.0-7.0-0.37","609371fc24c531563322d57c","D2","batch4","","null","<p class=block-text>Trial 77 out of 78</p>","null","pattern_show_trial_num","","","","","","","","","","","","","","","","","","","","","","","","",""
"","","","","","image-keyboard-response","175","264947","0.0-2.0-7.0-1.37","609371fc24c531563322d57c","D2","batch4","","1698.7999999523163","stim/no_42_1_w.png","j","pattern_response","true","j","pattern_22","1698.7999999523163","true","70","","","","","","","","","","","","","","","","","","",""
"","","","","","html-keyboard-response","176","266262","0.0-2.0-7.0-0.38","609371fc24c531563322d57c","D2","batch4","","null","<p class=block-text>Trial 78 out of 78</p>","null","pattern_show_trial_num","","","","","","","","","","","","","","","","","","","","","","","","",""
"","","","","","image-keyboard-response","177","267624","0.0-2.0-7.0-1.38","609371fc24c531563322d57c","D2","batch4","","1361.2999999523163","stim/no_23_1.png","j","pattern_response","true","j","pattern_08","1361.2999999523163","true","71","","","","","","","","","","","","","","","","","","",""
"","","","","","html-button-response","178","272790","0.0-2.0-8.0","609371fc24c531563322d57c","D2","batch4","","4651.100000023842","<p class = block-text>This concludes the 4-in-a-row detection game.Thank you for your responses!<br>
            You responded correctly on 91% of the trials.<br>
            When you are ready, press ""Continue"" button to continue </p>","0","","","","","","","","","","","","","","","","","","","","","","","","","",""
"true","","","","","fullscreen","179","275700","0.0-3.0-0.0","609371fc24c531563322d57c","D2","batch4","","","","","","","","","","","","","","","","","","","","","","","","","","","","","",""
"","","","","","instructions","180","315374","0.0-3.0-1.0-0.0-0.0","609371fc24c531563322d57c","D2","batch4","[{""page_index"":0,""viewing_time"":9247.5},{""page_index"":1,""viewing_time"":5096.199999928474},{""page_index"":2,""viewing_time"":2905.9000000953674},{""page_index"":3,""viewing_time"":9303.599999904633},{""page_index"":4,""viewing_time"":4765.400000095367},{""page_index"":5,""viewing_time"":5777.599999904633},{""page_index"":6,""viewing_time"":2576.7000000476837}]","39673","","","tol-instructions","","","","","","","","","","","","","","","","","","","","","","","","",""
"","","","","","html-button-response","181","316231","0.0-3.0-1.0-1.0-0.0","609371fc24c531563322d57c","D2","batch4","","856.2000000476837","<p class=block-text> Let's answer a few questions <br>","0","tol_enter_quiz","","","","","","","","","","","","","","","","","","","","","","","","",""
"","","","","","html-button-response","182","319527","0.0-3.0-1.0-1.0-1.0","609371fc24c531563322d57c","D2","batch4","","3295.5","<p class = block-text>True or False: You can only move the ball on top of a peg. <br></p>","0","tol_quiz","true","","","","","","","","","","","","","","","","","","","","","","","",""
"","","","","","html-button-response","183","320354","0.0-3.0-1.0-1.0-2.0","609371fc24c531563322d57c","D2","batch4","","825.8999999761581","<p class = block-text>Correct! You can only move the ball on top of a peg.</p>","0","tol_quiz_feedback","","","","","","","","","","","","","","","","","","","","","","","","",""
"","","","","","html-button-response","184","323230","0.0-3.0-1.0-1.0-3.0","609371fc24c531563322d57c","D2","batch4","","2875.7000000476837","<p class = block-text>True or False: You should try to match your board with the target board with fewest moves possible. <br></p>","0","tol_quiz","true","","","","","","","","","","","","","","","","","","","","","","","",""
"","","","","","html-button-response","185","323902","0.0-3.0-1.0-1.0-4.0","609371fc24c531563322d57c","D2","batch4","","671.7000000476837","<p class = block-text>Correct! </p>","0","tol_quiz_feedback","","","","","","","","","","","","","","","","","","","","","","","","",""
"","","","","","html-button-response","186","325168","0.0-3.0-2.0","609371fc24c531563322d57c","D2","batch4","","1265.3999999761581","<p class=block-text> Now that you've understood the game, let's practice a few easier examples before we start!<br> <br>","0","","","","","","","","","","","","","","","","","","","","","","","","","",""
"","","","","","single-stim-button","187","328050","0.0-3.0-3.0-0.0","609371fc24c531563322d57c","D2","batch4","","2880","","","tol_practice","","","","","","","","","tol_peg_2","2880","2880","0","[[1,2,0],[0,0],[0]]","1","[[1,2,0],[0,0],[3]]","practice","2880","","","","","","","",""
"","","","","","single-stim-button","188","329023","0.0-3.0-3.0-1.0","609371fc24c531563322d57c","D2","batch4","","973","","","tol_practice","","","","","","","","","tol_peg_3","973","973","0","[[1,2,0],[0,0],[3]]","1","[[1,2,0],[0,0],[3]]","practice","973","","","","","","","",""
"","","","","","poldrack-single-stim","189","330025","0.0-3.0-4.0","609371fc24c531563322d57c","D2","batch4","","-1","","","tol_feedback","true","","","","","","","","","1000","1000","500","","","","","","-1","none","true","","0","","",""
"","","","","","single-stim-button","190","333485","0.0-3.0-5.0-0.0","609371fc24c531563322d57c","D2","batch4","","3460","","","tol_practice","","","","","","","","","tol_peg_1","3460","3460","0","[[1,0,0],[3,0],[0]]","2","[[0,0,0],[3,1],[2]]","practice","3460","","","","","","","",""
"","","","","","single-stim-button","191","334231","0.0-3.0-5.0-1.0","609371fc24c531563322d57c","D2","batch4","","745","","","tol_practice","","","","","","","","","tol_peg_3","745","745","0","[[1,0,0],[3,0],[2]]","2","[[0,0,0],[3,1],[2]]","practice","745","","","","","","","",""
"","","","","","single-stim-button","192","334835","0.0-3.0-5.1-0.1","609371fc24c531563322d57c","D2","batch4","","604","","","tol_practice","","","","","","","","","tol_peg_1","604","604","0","[[0,0,0],[3,0],[2]]","3","[[0,0,0],[3,1],[2]]","practice","604","","","","","","","",""
"","","","","","single-stim-button","193","335139","0.0-3.0-5.1-1.1","609371fc24c531563322d57c","D2","batch4","","304","","","tol_practice","","","","","","","","","tol_peg_2","304","304","0","[[0,0,0],[3,1],[2]]","3","[[0,0,0],[3,1],[2]]","practice","304","","","","","","","",""
"","","","","","poldrack-single-stim","194","336148","0.0-3.0-6.0","609371fc24c531563322d57c","D2","batch4","","-1","","","tol_feedback","true","","","","","","","","","1000","1000","500","","","","","","-1","none","true","","0","","",""
"","","","","","single-stim-button","195","337764","0.0-3.0-7.0-0.0","609371fc24c531563322d57c","D2","batch4","","1615","","","tol_practice","","","","","","","","","tol_peg_2","1615","1615","0","[[1,2,0],[0,0],[0]]","4","[[1,0,0],[2,0],[3]]","practice","1615","","","","","","","",""
"","","","","","single-stim-button","196","338574","0.0-3.0-7.0-1.0","609371fc24c531563322d57c","D2","batch4","","810","","","tol_practice","","","","","","","","","tol_peg_3","810","810","0","[[1,2,0],[0,0],[3]]","4","[[1,0,0],[2,0],[3]]","practice","810","","","","","","","",""
"","","","","","single-stim-button","197","339025","0.0-3.0-7.1-0.1","609371fc24c531563322d57c","D2","batch4","","451","","","tol_practice","","","","","","","","","tol_peg_1","451","451","0","[[1,0,0],[0,0],[3]]","5","[[1,0,0],[2,0],[3]]","practice","451","","","","","","","",""
"","","","","","single-stim-button","198","339625","0.0-3.0-7.1-1.1","609371fc24c531563322d57c","D2","batch4","","600","","","tol_practice","","","","","","","","","tol_peg_2","600","600","0","[[1,0,0],[2,0],[3]]","5","[[1,0,0],[2,0],[3]]","practice","600","","","","","","","",""
"","","","","","poldrack-single-stim","199","340637","0.0-3.0-8.0","609371fc24c531563322d57c","D2","batch4","","-1","","","tol_feedback","true","","","","","","","","","1000","1000","500","","","","","","-1","none","true","","0","","",""
"","","","","","html-button-response","200","342054","0.0-3.0-9.0","609371fc24c531563322d57c","D2","batch4","","1416.3999999761581","<div class = centerbox><p class = center-block-text>Great job! You are done with practice trials<br>You are about to start official trials.<br> <br> Problem <strong>1</strong> out of 25 problems</p></div>","0","tol_instruction","","","","","","","","","","","","","","","","","","","","","","","","",""
"","","","","","single-stim-button","201","345824","0.0-3.0-10.0-0.0","609371fc24c531563322d57c","D2","batch4","","2761","","","tol_tohand","","","","","","","","","tol_peg_1","2761","2761","0","[[1,0,0],[3,0],[0]]","1","[[1,3,0],[2,0],[0]]","0","0","","","","","","3","",""
"","","","","","single-stim-button","202","346489","0.0-3.0-10.0-1.0","609371fc24c531563322d57c","D2","batch4","","665","","","tol_toboard","","","","","","","","","tol_peg_3","665","665","0","[[1,0,0],[3,0],[2]]","1","[[1,3,0],[2,0],[0]]","0","0","","","","","","3","",""
"","","","","","single-stim-button","203","347492","0.0-3.0-10.1-0.1","609371fc24c531563322d57c","D2","batch4","","1002","","","tol_tohand","","","","","","","","","tol_peg_2","1002","1002","0","[[1,0,0],[0,0],[2]]","2","[[1,3,0],[2,0],[0]]","0","0","","","","","","3","",""
"","","","","","single-stim-button","204","347922","0.0-3.0-10.1-1.1","609371fc24c531563322d57c","D2","batch4","","429","","","tol_toboard","","","","","","","","","tol_peg_1","429","429","0","[[1,3,0],[0,0],[2]]","2","[[1,3,0],[2,0],[0]]","0","0","","","","","","3","",""
"","","","","","single-stim-button","205","348389","0.0-3.0-10.2-0.2","609371fc24c531563322d57c","D2","batch4","","467","","","tol_tohand","","","","","","","","","tol_peg_3","467","467","0","[[1,3,0],[0,0],[0]]","3","[[1,3,0],[2,0],[0]]","0","0","","","","","","3","",""
"","","","","","single-stim-button","206","348727","0.0-3.0-10.2-1.2","609371fc24c531563322d57c","D2","batch4","","338","","","tol_toboard","","","","","","","","","tol_peg_2","338","338","0","[[1,3,0],[2,0],[0]]","3","[[1,3,0],[2,0],[0]]","0","0","","","","","","3","",""
"","","","","","poldrack-single-stim","207","349728","0.0-3.0-11.0","609371fc24c531563322d57c","D2","batch4","","-1","","","tol_feedback","true","","","","","","","","","1000","1000","500","","","","","","-1","none","true","2761","4230","","",""
"","","","","","html-button-response","208","350613","0.0-3.0-12.0","609371fc24c531563322d57c","D2","batch4","","884.0999999046326","<div class = centerbox><p class = center-block-text>problem <strong>2</strong> out of 25 problems</p></div>","0","tol_trial_num","","","","","","","","","","","","","","","","","","","","","","","","",""
"","","","","","single-stim-button","209","355434","0.0-3.0-13.0-0.0","609371fc24c531563322d57c","D2","batch4","","4821","","","tol_tohand","","","","","","","","","tol_peg_1","4821","4821","0","[[1,0,0],[3,0],[0]]","1","[[2,1,3],[0,0],[0]]","1","0","","","","","","5","",""
"","","","","","single-stim-button","210","356201","0.0-3.0-13.0-1.0","609371fc24c531563322d57c","D2","batch4","","767","","","tol_toboard","","","","","","","","","tol_peg_3","767","767","0","[[1,0,0],[3,0],[2]]","1","[[2,1,3],[0,0],[0]]","1","0","","","","","","5","",""
"","","","","","single-stim-button","211","356701","0.0-3.0-13.1-0.1","609371fc24c531563322d57c","D2","batch4","","500","","","tol_tohand","","","","","","","","","tol_peg_1","500","500","0","[[0,0,0],[3,0],[2]]","2","[[2,1,3],[0,0],[0]]","1","0","","","","","","5","",""
"","","","","","single-stim-button","212","362245","0.0-3.0-13.1-1.1","609371fc24c531563322d57c","D2","batch4","","5544","","","tol_toboard","","","","","","","","","tol_peg_1","5544","5544","0","[[1,0,0],[3,0],[2]]","2","[[2,1,3],[0,0],[0]]","1","0","","","","","","5","",""
"","","","","","single-stim-button","213","364199","0.0-3.0-13.2-0.2","609371fc24c531563322d57c","D2","batch4","","1953","","","tol_tohand","","","","","","","","","tol_peg_3","1953","1953","0","[[1,0,0],[3,0],[0]]","3","[[2,1,3],[0,0],[0]]","1","0","","","","","","5","",""
"","","","","","single-stim-button","214","364626","0.0-3.0-13.2-1.2","609371fc24c531563322d57c","D2","batch4","","427","","","tol_toboard","","","","","","","","","tol_peg_2","427","427","0","[[1,0,0],[3,2],[0]]","3","[[2,1,3],[0,0],[0]]","1","0","","","","","","5","",""
"","","","","","single-stim-button","215","365073","0.0-3.0-13.3-0.3","609371fc24c531563322d57c","D2","batch4","","446","","","tol_tohand","","","","","","","","","tol_peg_1","446","446","0","[[0,0,0],[3,2],[0]]","4","[[2,1,3],[0,0],[0]]","1","0","","","","","","5","",""
"","","","","","single-stim-button","216","365704","0.0-3.0-13.3-1.3","609371fc24c531563322d57c","D2","batch4","","631","","","tol_toboard","","","","","","","","","tol_peg_3","631","631","0","[[0,0,0],[3,2],[1]]","4","[[2,1,3],[0,0],[0]]","1","0","","","","","","5","",""
"","","","","","single-stim-button","217","367650","0.0-3.0-13.4-0.4","609371fc24c531563322d57c","D2","batch4","","1946","","","tol_tohand","","","","","","","","","tol_peg_2","1946","1946","0","[[0,0,0],[3,0],[1]]","5","[[2,1,3],[0,0],[0]]","1","0","","","","","","5","",""
"","","","","","single-stim-button","218","368139","0.0-3.0-13.4-1.4","609371fc24c531563322d57c","D2","batch4","","489","","","tol_toboard","","","","","","","","","tol_peg_1","489","489","0","[[2,0,0],[3,0],[1]]","5","[[2,1,3],[0,0],[0]]","1","0","","","","","","5","",""
"","","","","","single-stim-button","219","368931","0.0-3.0-13.5-0.5","609371fc24c531563322d57c","D2","batch4","","791","","","tol_tohand","","","","","","","","","tol_peg_3","791","791","0","[[2,0,0],[3,0],[0]]","6","[[2,1,3],[0,0],[0]]","1","0","","","","","","5","",""
"","","","","","single-stim-button","220","369422","0.0-3.0-13.5-1.5","609371fc24c531563322d57c","D2","batch4","","491","","","tol_toboard","","","","","","","","","tol_peg_1","491","491","0","[[2,1,0],[3,0],[0]]","6","[[2,1,3],[0,0],[0]]","1","0","","","","","","5","",""
"","","","","","single-stim-button","221","369766","0.0-3.0-13.6-0.6","609371fc24c531563322d57c","D2","batch4","","344","","","tol_tohand","","","","","","","","","tol_peg_2","344","344","0","[[2,1,0],[0,0],[0]]","7","[[2,1,3],[0,0],[0]]","1","0","","","","","","5","",""
"","","","","","single-stim-button","222","370104","0.0-3.0-13.6-1.6","609371fc24c531563322d57c","D2","batch4","","338","","","tol_toboard","","","","","","","","","tol_peg_1","338","338","0","[[2,1,3],[0,0],[0]]","7","[[2,1,3],[0,0],[0]]","1","0","","","","","","5","",""
"","","","","","poldrack-single-stim","223","371113","0.0-3.0-14.0","609371fc24c531563322d57c","D2","batch4","","-1","","","tol_feedback","true","","","","","","","","","1000","1000","500","","","","","","-1","none","true","4821","10801","","",""
"","","","","","html-button-response","224","371969","0.0-3.0-15.0","609371fc24c531563322d57c","D2","batch4","","856","<div class = centerbox><p class = center-block-text>problem <strong>3</strong> out of 25 problems</p></div>","0","tol_trial_num","","","","","","","","","","","","","","","","","","","","","","","","",""
"","","","","","single-stim-button","225","379078","0.0-3.0-16.0-0.0","609371fc24c531563322d57c","D2","batch4","","7108","","","tol_tohand","","","","","","","","","tol_peg_1","7108","7108","0","[[2,0,0],[0,0],[1]]","1","[[1,2,0],[3,0],[0]]","2","0","","","","","","4","",""
"","","","","","single-stim-button","226","379562","0.0-3.0-16.0-1.0","609371fc24c531563322d57c","D2","batch4","","484","","","tol_toboard","","","","","","","","","tol_peg_2","484","484","0","[[2,0,0],[3,0],[1]]","1","[[1,2,0],[3,0],[0]]","2","0","","","","","","4","",""
"","","","","","single-stim-button","227","381136","0.0-3.0-16.1-0.1","609371fc24c531563322d57c","D2","batch4","","1574","","","tol_tohand","","","","","","","","","tol_peg_1","1574","1574","0","[[0,0,0],[3,0],[1]]","2","[[1,2,0],[3,0],[0]]","2","0","","","","","","4","",""
"","","","","","single-stim-button","228","381476","0.0-3.0-16.1-1.1","609371fc24c531563322d57c","D2","batch4","","340","","","tol_toboard","","","","","","","","","tol_peg_2","340","340","0","[[0,0,0],[3,2],[1]]","2","[[1,2,0],[3,0],[0]]","2","0","","","","","","4","",""
"","","","","","single-stim-button","229","381853","0.0-3.0-16.2-0.2","609371fc24c531563322d57c","D2","batch4","","375","","","tol_tohand","","","","","","","","","tol_peg_3","375","375","0","[[0,0,0],[3,2],[0]]","3","[[1,2,0],[3,0],[0]]","2","0","","","","","","4","",""
"","","","","","single-stim-button","230","382497","0.0-3.0-16.2-1.2","609371fc24c531563322d57c","D2","batch4","","644","","","tol_toboard","","","","","","","","","tol_peg_1","644","644","0","[[1,0,0],[3,2],[0]]","3","[[1,2,0],[3,0],[0]]","2","0","","","","","","4","",""
"","","","","","single-stim-button","231","384569","0.0-3.0-16.3-0.3","609371fc24c531563322d57c","D2","batch4","","2072","","","tol_tohand","","","","","","","","","tol_peg_2","2072","2072","0","[[1,0,0],[3,0],[0]]","4","[[1,2,0],[3,0],[0]]","2","0","","","","","","4","",""
"","","","","","single-stim-button","232","385037","0.0-3.0-16.3-1.3","609371fc24c531563322d57c","D2","batch4","","468","","","tol_toboard","","","","","","","","","tol_peg_1","468","468","0","[[1,2,0],[3,0],[0]]","4","[[1,2,0],[3,0],[0]]","2","0","","","","","","4","",""
"","","","","","poldrack-single-stim","233","386050","0.0-3.0-17.0","609371fc24c531563322d57c","D2","batch4","","-1","","","tol_feedback","true","","","","","","","","","1000","1000","500","","","","","","-1","none","true","7108","11129","","",""
"","","","","","html-button-response","234","386770","0.0-3.0-18.0","609371fc24c531563322d57c","D2","batch4","","720.2000000476837","<div class = centerbox><p class = center-block-text>problem <strong>4</strong> out of 25 problems</p></div>","0","tol_trial_num","","","","","","","","","","","","","","","","","","","","","","","","",""
"","","","","","single-stim-button","235","389852","0.0-3.0-19.0-0.0","609371fc24c531563322d57c","D2","batch4","","3081","","","tol_tohand","","","","","","","","","tol_peg_2","3081","3081","0","[[3,0,0],[2,0],[0]]","1","[[3,0,0],[1,0],[2]]","3","0","","","","","","3","",""
"","","","","","single-stim-button","236","390287","0.0-3.0-19.0-1.0","609371fc24c531563322d57c","D2","batch4","","435","","","tol_toboard","","","","","","","","","tol_peg_1","435","435","0","[[3,1,0],[2,0],[0]]","1","[[3,0,0],[1,0],[2]]","3","0","","","","","","3","",""
"","","","","","single-stim-button","237","390616","0.0-3.0-19.1-0.1","609371fc24c531563322d57c","D2","batch4","","328","","","tol_tohand","","","","","","","","","tol_peg_2","328","328","0","[[3,1,0],[0,0],[0]]","2","[[3,0,0],[1,0],[2]]","3","0","","","","","","3","",""
"","","","","","single-stim-button","238","391179","0.0-3.0-19.1-1.1","609371fc24c531563322d57c","D2","batch4","","562","","","tol_toboard","","","","","","","","","tol_peg_3","562","562","0","[[3,1,0],[0,0],[2]]","2","[[3,0,0],[1,0],[2]]","3","0","","","","","","3","",""
"","","","","","single-stim-button","239","391577","0.0-3.0-19.2-0.2","609371fc24c531563322d57c","D2","batch4","","397","","","tol_tohand","","","","","","","","","tol_peg_1","397","397","0","[[3,0,0],[0,0],[2]]","3","[[3,0,0],[1,0],[2]]","3","0","","","","","","3","",""
"","","","","","single-stim-button","240","391851","0.0-3.0-19.2-1.2","609371fc24c531563322d57c","D2","batch4","","274","","","tol_toboard","","","","","","","","","tol_peg_2","274","274","0","[[3,0,0],[1,0],[2]]","3","[[3,0,0],[1,0],[2]]","3","0","","","","","","3","",""
"","","","","","poldrack-single-stim","241","392852","0.0-3.0-20.0","609371fc24c531563322d57c","D2","batch4","","-1","","","tol_feedback","true","","","","","","","","","1000","1000","500","","","","","","-1","none","true","3081","3806","","",""
"","","","","","html-button-response","242","393187","0.0-3.0-21.0","609371fc24c531563322d57c","D2","batch4","","334.5","<div class = centerbox><p class = center-block-text>problem <strong>5</strong> out of 25 problems</p></div>","0","tol_trial_num","","","","","","","","","","","","","","","","","","","","","","","","",""
"","","","","","single-stim-button","243","401694","0.0-3.0-22.0-0.0","609371fc24c531563322d57c","D2","batch4","","8507","","","tol_tohand","","","","","","","","","tol_peg_2","8507","8507","0","[[1,0,0],[0,0],[3]]","1","[[0,0,0],[1,2],[3]]","4","0","","","","","","7","",""
"","","","","","single-stim-button","244","402246","0.0-3.0-22.0-1.0","609371fc24c531563322d57c","D2","batch4","","552","","","tol_toboard","","","","","","","","","tol_peg_1","552","552","0","[[1,2,0],[0,0],[3]]","1","[[0,0,0],[1,2],[3]]","4","0","","","","","","7","",""
"","","","","","single-stim-button","245","402621","0.0-3.0-22.1-0.1","609371fc24c531563322d57c","D2","batch4","","375","","","tol_tohand","","","","","","","","","tol_peg_3","375","375","0","[[1,2,0],[0,0],[0]]","2","[[0,0,0],[1,2],[3]]","4","0","","","","","","7","",""
"","","","","","single-stim-button","246","404309","0.0-3.0-22.1-1.1","609371fc24c531563322d57c","D2","batch4","","1687","","","tol_toboard","","","","","","","","","tol_peg_3","1687","1687","0","[[1,2,0],[0,0],[3]]","2","[[0,0,0],[1,2],[3]]","4","0","","","","","","7","",""
"","","","","","single-stim-button","247","405708","0.0-3.0-22.2-0.2","609371fc24c531563322d57c","D2","batch4","","1399","","","tol_tohand","","","","","","","","","tol_peg_3","1399","1399","0","[[1,2,0],[0,0],[0]]","3","[[0,0,0],[1,2],[3]]","4","0","","","","","","7","",""
"","","","","","single-stim-button","248","405982","0.0-3.0-22.2-1.2","609371fc24c531563322d57c","D2","batch4","","274","","","tol_toboard","","","","","","","","","tol_peg_2","274","274","0","[[1,2,0],[3,0],[0]]","3","[[0,0,0],[1,2],[3]]","4","0","","","","","","7","",""
"","","","","","single-stim-button","249","406530","0.0-3.0-22.3-0.3","609371fc24c531563322d57c","D2","batch4","","547","","","tol_tohand","","","","","","","","","tol_peg_1","547","547","0","[[1,0,0],[3,0],[0]]","4","[[0,0,0],[1,2],[3]]","4","0","","","","","","7","",""
"","","","","","single-stim-button","250","407861","0.0-3.0-22.3-1.3","609371fc24c531563322d57c","D2","batch4","","1331","","","tol_toboard","","","","","","","","","tol_peg_2","1331","1331","0","[[1,0,0],[3,2],[0]]","4","[[0,0,0],[1,2],[3]]","4","0","","","","","","7","",""
"","","","","","single-stim-button","251","408509","0.0-3.0-22.4-0.4","609371fc24c531563322d57c","D2","batch4","","648","","","tol_tohand","","","","","","","","","tol_peg_1","648","648","0","[[0,0,0],[3,2],[0]]","5","[[0,0,0],[1,2],[3]]","4","0","","","","","","7","",""
"","","","","","single-stim-button","252","409043","0.0-3.0-22.4-1.4","609371fc24c531563322d57c","D2","batch4","","534","","","tol_toboard","","","","","","","","","tol_peg_3","534","534","0","[[0,0,0],[3,2],[1]]","5","[[0,0,0],[1,2],[3]]","4","0","","","","","","7","",""
"","","","","","single-stim-button","253","411699","0.0-3.0-22.5-0.5","609371fc24c531563322d57c","D2","batch4","","2656","","","tol_tohand","","","","","","","","","tol_peg_2","2656","2656","0","[[0,0,0],[3,0],[1]]","6","[[0,0,0],[1,2],[3]]","4","0","","","","","","7","",""
"","","","","","single-stim-button","254","413186","0.0-3.0-22.5-1.5","609371fc24c531563322d57c","D2","batch4","","1486","","","tol_toboard","","","","","","","","","tol_peg_1","1486","1486","0","[[2,0,0],[3,0],[1]]","6","[[0,0,0],[1,2],[3]]","4","0","","","","","","7","",""
"","","","","","single-stim-button","255","413563","0.0-3.0-22.6-0.6","609371fc24c531563322d57c","D2","batch4","","377","","","tol_tohand","","","","","","","","","tol_peg_3","377","377","0","[[2,0,0],[3,0],[0]]","7","[[0,0,0],[1,2],[3]]","4","0","","","","","","7","",""
"","","","","","single-stim-button","256","413983","0.0-3.0-22.6-1.6","609371fc24c531563322d57c","D2","batch4","","420","","","tol_toboard","","","","","","","","","tol_peg_1","420","420","0","[[2,1,0],[3,0],[0]]","7","[[0,0,0],[1,2],[3]]","4","0","","","","","","7","",""
"","","","","","single-stim-button","257","414359","0.0-3.0-22.7-0.7","609371fc24c531563322d57c","D2","batch4","","375","","","tol_tohand","","","","","","","","","tol_peg_2","375","375","0","[[2,1,0],[0,0],[0]]","8","[[0,0,0],[1,2],[3]]","4","0","","","","","","7","",""
"","","","","","single-stim-button","258","414905","0.0-3.0-22.7-1.7","609371fc24c531563322d57c","D2","batch4","","546","","","tol_toboard","","","","","","","","","tol_peg_3","546","546","0","[[2,1,0],[0,0],[3]]","8","[[0,0,0],[1,2],[3]]","4","0","","","","","","7","",""
"","","","","","single-stim-button","259","415697","0.0-3.0-22.8-0.8","609371fc24c531563322d57c","D2","batch4","","791","","","tol_tohand","","","","","","","","","tol_peg_1","791","791","0","[[2,0,0],[0,0],[3]]","9","[[0,0,0],[1,2],[3]]","4","0","","","","","","7","",""
"","","","","","single-stim-button","260","416033","0.0-3.0-22.8-1.8","609371fc24c531563322d57c","D2","batch4","","336","","","tol_toboard","","","","","","","","","tol_peg_2","336","336","0","[[2,0,0],[1,0],[3]]","9","[[0,0,0],[1,2],[3]]","4","0","","","","","","7","",""
"","","","","","single-stim-button","261","416480","0.0-3.0-22.9-0.9","609371fc24c531563322d57c","D2","batch4","","446","","","tol_tohand","","","","","","","","","tol_peg_1","446","446","0","[[0,0,0],[1,0],[3]]","10","[[0,0,0],[1,2],[3]]","4","0","","","","","","7","",""
"","","","","","single-stim-button","262","416807","0.0-3.0-22.9-1.9","609371fc24c531563322d57c","D2","batch4","","327","","","tol_toboard","","","","","","","","","tol_peg_2","327","327","0","[[0,0,0],[1,2],[3]]","10","[[0,0,0],[1,2],[3]]","4","0","","","","","","7","",""
"","","","","","poldrack-single-stim","263","417808","0.0-3.0-23.0","609371fc24c531563322d57c","D2","batch4","","-1","","","tol_feedback","true","","","","","","","","","1000","1000","500","","","","","","-1","none","true","8507","16121","","",""
"","","","","","html-button-response","264","418487","0.0-3.0-24.0","609371fc24c531563322d57c","D2","batch4","","678.2999999523163","<div class = centerbox><p class = center-block-text>problem <strong>6</strong> out of 25 problems</p></div>","0","tol_trial_num","","","","","","","","","","","","","","","","","","","","","","","","",""
"","","","","","single-stim-button","265","423474","0.0-3.0-25.0-0.0","609371fc24c531563322d57c","D2","batch4","","4987","","","tol_tohand","","","","","","","","","tol_peg_2","4987","4987","0","[[0,0,0],[1,0],[3]]","1","[[1,0,0],[2,3],[0]]","5","0","","","","","","6","",""
"","","","","","single-stim-button","266","426970","0.0-3.0-25.0-1.0","609371fc24c531563322d57c","D2","batch4","","3496","","","tol_toboard","","","","","","","","","tol_peg_1","3496","3496","0","[[2,0,0],[1,0],[3]]","1","[[1,0,0],[2,3],[0]]","5","0","","","","","","6","",""
"","","","","","single-stim-button","267","427495","0.0-3.0-25.1-0.1","609371fc24c531563322d57c","D2","batch4","","525","","","tol_tohand","","","","","","","","","tol_peg_3","525","525","0","[[2,0,0],[1,0],[0]]","2","[[1,0,0],[2,3],[0]]","5","0","","","","","","6","",""
"","","","","","single-stim-button","268","427877","0.0-3.0-25.1-1.1","609371fc24c531563322d57c","D2","batch4","","382","","","tol_toboard","","","","","","","","","tol_peg_2","382","382","0","[[2,0,0],[1,3],[0]]","2","[[1,0,0],[2,3],[0]]","5","0","","","","","","6","",""
"","","","","","single-stim-button","269","428293","0.0-3.0-25.2-0.2","609371fc24c531563322d57c","D2","batch4","","415","","","tol_tohand","","","","","","","","","tol_peg_1","415","415","0","[[0,0,0],[1,3],[0]]","3","[[1,0,0],[2,3],[0]]","5","0","","","","","","6","",""
"","","","","","single-stim-button","270","428795","0.0-3.0-25.2-1.2","609371fc24c531563322d57c","D2","batch4","","502","","","tol_toboard","","","","","","","","","tol_peg_3","502","502","0","[[0,0,0],[1,3],[2]]","3","[[1,0,0],[2,3],[0]]","5","0","","","","","","6","",""
"","","","","","single-stim-button","271","429360","0.0-3.0-25.3-0.3","609371fc24c531563322d57c","D2","batch4","","565","","","tol_tohand","","","","","","","","","tol_peg_2","565","565","0","[[0,0,0],[1,0],[2]]","4","[[1,0,0],[2,3],[0]]","5","0","","","","","","6","",""
"","","","","","single-stim-button","272","429730","0.0-3.0-25.3-1.3","609371fc24c531563322d57c","D2","batch4","","370","","","tol_toboard","","","","","","","","","tol_peg_1","370","370","0","[[3,0,0],[1,0],[2]]","4","[[1,0,0],[2,3],[0]]","5","0","","","","","","6","",""
"","","","","","single-stim-button","273","433498","0.0-3.0-25.4-0.4","609371fc24c531563322d57c","D2","batch4","","3768","","","tol_tohand","","","","","","","","","tol_peg_3","3768","3768","0","[[3,0,0],[1,0],[0]]","5","[[1,0,0],[2,3],[0]]","5","0","","","","","","6","",""
"","","","","","single-stim-button","274","433871","0.0-3.0-25.4-1.4","609371fc24c531563322d57c","D2","batch4","","373","","","tol_toboard","","","","","","","","","tol_peg_1","373","373","0","[[3,2,0],[1,0],[0]]","5","[[1,0,0],[2,3],[0]]","5","0","","","","","","6","",""
"","","","","","single-stim-button","275","434164","0.0-3.0-25.5-0.5","609371fc24c531563322d57c","D2","batch4","","293","","","tol_tohand","","","","","","","","","tol_peg_2","293","293","0","[[3,2,0],[0,0],[0]]","6","[[1,0,0],[2,3],[0]]","5","0","","","","","","6","",""
"","","","","","single-stim-button","276","434626","0.0-3.0-25.5-1.5","609371fc24c531563322d57c","D2","batch4","","462","","","tol_toboard","","","","","","","","","tol_peg_3","462","462","0","[[3,2,0],[0,0],[1]]","6","[[1,0,0],[2,3],[0]]","5","0","","","","","","6","",""
"","","","","","single-stim-button","277","435650","0.0-3.0-25.6-0.6","609371fc24c531563322d57c","D2","batch4","","1024","","","tol_tohand","","","","","","","","","tol_peg_1","1024","1024","0","[[3,0,0],[0,0],[1]]","7","[[1,0,0],[2,3],[0]]","5","0","","","","","","6","",""
"","","","","","single-stim-button","278","436016","0.0-3.0-25.6-1.6","609371fc24c531563322d57c","D2","batch4","","366","","","tol_toboard","","","","","","","","","tol_peg_2","366","366","0","[[3,0,0],[2,0],[1]]","7","[[1,0,0],[2,3],[0]]","5","0","","","","","","6","",""
"","","","","","single-stim-button","279","436370","0.0-3.0-25.7-0.7","609371fc24c531563322d57c","D2","batch4","","354","","","tol_tohand","","","","","","","","","tol_peg_1","354","354","0","[[0,0,0],[2,0],[1]]","8","[[1,0,0],[2,3],[0]]","5","0","","","","","","6","",""
"","","","","","single-stim-button","280","436569","0.0-3.0-25.7-1.7","609371fc24c531563322d57c","D2","batch4","","198","","","tol_toboard","","","","","","","","","tol_peg_2","198","198","0","[[0,0,0],[2,3],[1]]","8","[[1,0,0],[2,3],[0]]","5","0","","","","","","6","",""
"","","","","","single-stim-button","281","436898","0.0-3.0-25.8-0.8","609371fc24c531563322d57c","D2","batch4","","329","","","tol_tohand","","","","","","","","","tol_peg_3","329","329","0","[[0,0,0],[2,3],[0]]","9","[[1,0,0],[2,3],[0]]","5","0","","","","","","6","",""
"","","","","","single-stim-button","282","437191","0.0-3.0-25.8-1.8","609371fc24c531563322d57c","D2","batch4","","293","","","tol_toboard","","","","","","","","","tol_peg_1","293","293","0","[[1,0,0],[2,3],[0]]","9","[[1,0,0],[2,3],[0]]","5","0","","","","","","6","",""
"","","","","","poldrack-single-stim","283","438192","0.0-3.0-26.0","609371fc24c531563322d57c","D2","batch4","","-1","","","tol_feedback","true","","","","","","","","","1000","1000","500","","","","","","-1","none","true","4987","12260","","",""
"","","","","","html-button-response","284","438993","0.0-3.0-27.0","609371fc24c531563322d57c","D2","batch4","","800.5","<div class = centerbox><p class = center-block-text>problem <strong>7</strong> out of 25 problems</p></div>","0","tol_trial_num","","","","","","","","","","","","","","","","","","","","","","","","",""
"","","","","","single-stim-button","285","442211","0.0-3.0-28.0-0.0","609371fc24c531563322d57c","D2","batch4","","3218","","","tol_tohand","","","","","","","","","tol_peg_3","3218","3218","0","[[2,1,0],[0,0],[0]]","1","[[1,2,0],[3,0],[0]]","6","0","","","","","","5","",""
"","","","","","single-stim-button","286","442569","0.0-3.0-28.0-1.0","609371fc24c531563322d57c","D2","batch4","","358","","","tol_toboard","","","","","","","","","tol_peg_2","358","358","0","[[2,1,0],[3,0],[0]]","1","[[1,2,0],[3,0],[0]]","6","0","","","","","","5","",""
"","","","","","single-stim-button","287","442890","0.0-3.0-28.1-0.1","609371fc24c531563322d57c","D2","batch4","","321","","","tol_tohand","","","","","","","","","tol_peg_1","321","321","0","[[2,0,0],[3,0],[0]]","2","[[1,2,0],[3,0],[0]]","6","0","","","","","","5","",""
"","","","","","single-stim-button","288","443226","0.0-3.0-28.1-1.1","609371fc24c531563322d57c","D2","batch4","","336","","","tol_toboard","","","","","","","","","tol_peg_3","336","336","0","[[2,0,0],[3,0],[1]]","2","[[1,2,0],[3,0],[0]]","6","0","","","","","","5","",""
"","","","","","single-stim-button","289","443625","0.0-3.0-28.2-0.2","609371fc24c531563322d57c","D2","batch4","","399","","","tol_tohand","","","","","","","","","tol_peg_1","399","399","0","[[0,0,0],[3,0],[1]]","3","[[1,2,0],[3,0],[0]]","6","0","","","","","","5","",""
"","","","","","single-stim-button","290","443914","0.0-3.0-28.2-1.2","609371fc24c531563322d57c","D2","batch4","","289","","","tol_toboard","","","","","","","","","tol_peg_2","289","289","0","[[0,0,0],[3,2],[1]]","3","[[1,2,0],[3,0],[0]]","6","0","","","","","","5","",""
"","","","","","single-stim-button","291","444263","0.0-3.0-28.3-0.3","609371fc24c531563322d57c","D2","batch4","","348","","","tol_tohand","","","","","","","","","tol_peg_3","348","348","0","[[0,0,0],[3,2],[0]]","4","[[1,2,0],[3,0],[0]]","6","0","","","","","","5","",""
"","","","","","single-stim-button","292","444594","0.0-3.0-28.3-1.3","609371fc24c531563322d57c","D2","batch4","","330","","","tol_toboard","","","","","","","","","tol_peg_1","330","330","0","[[1,0,0],[3,2],[0]]","4","[[1,2,0],[3,0],[0]]","6","0","","","","","","5","",""
"","","","","","single-stim-button","293","444925","0.0-3.0-28.4-0.4","609371fc24c531563322d57c","D2","batch4","","331","","","tol_tohand","","","","","","","","","tol_peg_2","331","331","0","[[1,0,0],[3,0],[0]]","5","[[1,2,0],[3,0],[0]]","6","0","","","","","","5","",""
"","","","","","single-stim-button","294","445288","0.0-3.0-28.4-1.4","609371fc24c531563322d57c","D2","batch4","","363","","","tol_toboard","","","","","","","","","tol_peg_1","363","363","0","[[1,2,0],[3,0],[0]]","5","[[1,2,0],[3,0],[0]]","6","0","","","","","","5","",""
"","","","","","poldrack-single-stim","295","446290","0.0-3.0-29.0","609371fc24c531563322d57c","D2","batch4","","-1","","","tol_feedback","true","","","","","","","","","1000","1000","500","","","","","","-1","none","true","3218","4617","","",""
"","","","","","html-button-response","296","446903","0.0-3.0-30.0","609371fc24c531563322d57c","D2","batch4","","612.2000000476837","<div class = centerbox><p class = center-block-text>problem <strong>8</strong> out of 25 problems</p></div>","0","tol_trial_num","","","","","","","","","","","","","","","","","","","","","","","","",""
"","","","","","single-stim-button","297","453490","0.0-3.0-31.0-0.0","609371fc24c531563322d57c","D2","batch4","","6587","","","tol_tohand","","","","","","","","","tol_peg_3","6587","6587","0","[[0,0,0],[2,3],[0]]","1","[[1,2,0],[3,0],[0]]","7","0","","","","","","4","",""
"","","","","","single-stim-button","298","454177","0.0-3.0-31.0-1.0","609371fc24c531563322d57c","D2","batch4","","687","","","tol_toboard","","","","","","","","","tol_peg_1","687","687","0","[[1,0,0],[2,3],[0]]","1","[[1,2,0],[3,0],[0]]","7","0","","","","","","4","",""
"","","","","","single-stim-button","299","454493","0.0-3.0-31.1-0.1","609371fc24c531563322d57c","D2","batch4","","316","","","tol_tohand","","","","","","","","","tol_peg_2","316","316","0","[[1,0,0],[2,0],[0]]","2","[[1,2,0],[3,0],[0]]","7","0","","","","","","4","",""
"","","","","","single-stim-button","300","454972","0.0-3.0-31.1-1.1","609371fc24c531563322d57c","D2","batch4","","479","","","tol_toboard","","","","","","","","","tol_peg_3","479","479","0","[[1,0,0],[2,0],[3]]","2","[[1,2,0],[3,0],[0]]","7","0","","","","","","4","",""
"","","","","","single-stim-button","301","455228","0.0-3.0-31.2-0.2","609371fc24c531563322d57c","D2","batch4","","256","","","tol_tohand","","","","","","","","","tol_peg_2","256","256","0","[[1,0,0],[0,0],[3]]","3","[[1,2,0],[3,0],[0]]","7","0","","","","","","4","",""
"","","","","","single-stim-button","302","455491","0.0-3.0-31.2-1.2","609371fc24c531563322d57c","D2","batch4","","263","","","tol_toboard","","","","","","","","","tol_peg_1","263","263","0","[[1,2,0],[0,0],[3]]","3","[[1,2,0],[3,0],[0]]","7","0","","","","","","4","",""
"","","","","","single-stim-button","303","455826","0.0-3.0-31.3-0.3","609371fc24c531563322d57c","D2","batch4","","335","","","tol_tohand","","","","","","","","","tol_peg_3","335","335","0","[[1,2,0],[0,0],[0]]","4","[[1,2,0],[3,0],[0]]","7","0","","","","","","4","",""
"","","","","","single-stim-button","304","456077","0.0-3.0-31.3-1.3","609371fc24c531563322d57c","D2","batch4","","251","","","tol_toboard","","","","","","","","","tol_peg_2","251","251","0","[[1,2,0],[3,0],[0]]","4","[[1,2,0],[3,0],[0]]","7","0","","","","","","4","",""
"","","","","","poldrack-single-stim","305","457078","0.0-3.0-32.0","609371fc24c531563322d57c","D2","batch4","","-1","","","tol_feedback","true","","","","","","","","","1000","1000","500","","","","","","-1","none","true","6587","7494","","",""
"","","","","","html-button-response","306","457414","0.0-3.0-33.0","609371fc24c531563322d57c","D2","batch4","","335.2000000476837","<div class = centerbox><p class = center-block-text>problem <strong>9</strong> out of 25 problems</p></div>","0","tol_trial_num","","","","","","","","","","","","","","","","","","","","","","","","",""
"","","","","","single-stim-button","307","466839","0.0-3.0-34.0-0.0","609371fc24c531563322d57c","D2","batch4","","9425","","","tol_tohand","","","","","","","","","tol_peg_1","9425","9425","0","[[3,0,0],[0,0],[1]]","1","[[2,1,0],[3,0],[0]]","8","0","","","","","","6","",""
"","","","","","single-stim-button","308","467147","0.0-3.0-34.0-1.0","609371fc24c531563322d57c","D2","batch4","","307","","","tol_toboard","","","","","","","","","tol_peg_2","307","307","0","[[3,0,0],[2,0],[1]]","1","[[2,1,0],[3,0],[0]]","8","0","","","","","","6","",""
"","","","","","single-stim-button","309","473318","0.0-3.0-34.1-0.1","609371fc24c531563322d57c","D2","batch4","","6171","","","tol_tohand","","","","","","","","","tol_peg_3","6171","6171","0","[[3,0,0],[2,0],[0]]","2","[[2,1,0],[3,0],[0]]","8","0","","","","","","6","",""
"","","","","","single-stim-button","310","474651","0.0-3.0-34.1-1.1","609371fc24c531563322d57c","D2","batch4","","1332","","","tol_toboard","","","","","","","","","tol_peg_2","1332","1332","0","[[3,0,0],[2,1],[0]]","2","[[2,1,0],[3,0],[0]]","8","0","","","","","","6","",""
"","","","","","single-stim-button","311","475025","0.0-3.0-34.2-0.2","609371fc24c531563322d57c","D2","batch4","","374","","","tol_tohand","","","","","","","","","tol_peg_1","374","374","0","[[0,0,0],[2,1],[0]]","3","[[2,1,0],[3,0],[0]]","8","0","","","","","","6","",""
"","","","","","single-stim-button","312","475401","0.0-3.0-34.2-1.2","609371fc24c531563322d57c","D2","batch4","","375","","","tol_toboard","","","","","","","","","tol_peg_3","375","375","0","[[0,0,0],[2,1],[3]]","3","[[2,1,0],[3,0],[0]]","8","0","","","","","","6","",""
"","","","","","single-stim-button","313","478405","0.0-3.0-34.3-0.3","609371fc24c531563322d57c","D2","batch4","","3004","","","tol_tohand","","","","","","","","","tol_peg_2","3004","3004","0","[[0,0,0],[2,0],[3]]","4","[[2,1,0],[3,0],[0]]","8","0","","","","","","6","",""
"","","","","","single-stim-button","314","478791","0.0-3.0-34.3-1.3","609371fc24c531563322d57c","D2","batch4","","386","","","tol_toboard","","","","","","","","","tol_peg_1","386","386","0","[[1,0,0],[2,0],[3]]","4","[[2,1,0],[3,0],[0]]","8","0","","","","","","6","",""
"","","","","","single-stim-button","315","479179","0.0-3.0-34.4-0.4","609371fc24c531563322d57c","D2","batch4","","388","","","tol_tohand","","","","","","","","","tol_peg_2","388","388","0","[[1,0,0],[0,0],[3]]","5","[[2,1,0],[3,0],[0]]","8","0","","","","","","6","",""
"","","","","","single-stim-button","316","479533","0.0-3.0-34.4-1.4","609371fc24c531563322d57c","D2","batch4","","353","","","tol_toboard","","","","","","","","","tol_peg_1","353","353","0","[[1,2,0],[0,0],[3]]","5","[[2,1,0],[3,0],[0]]","8","0","","","","","","6","",""
"","","","","","single-stim-button","317","480837","0.0-3.0-34.5-0.5","609371fc24c531563322d57c","D2","batch4","","1304","","","tol_tohand","","","","","","","","","tol_peg_3","1304","1304","0","[[1,2,0],[0,0],[0]]","6","[[2,1,0],[3,0],[0]]","8","0","","","","","","6","",""
"","","","","","single-stim-button","318","481379","0.0-3.0-34.5-1.5","609371fc24c531563322d57c","D2","batch4","","542","","","tol_toboard","","","","","","","","","tol_peg_2","542","542","0","[[1,2,0],[3,0],[0]]","6","[[2,1,0],[3,0],[0]]","8","0","","","","","","6","",""
"","","","","","single-stim-button","319","483144","0.0-3.0-34.6-0.6","609371fc24c531563322d57c","D2","batch4","","1764","","","tol_tohand","","","","","","","","","tol_peg_1","1764","1764","0","[[1,0,0],[3,0],[0]]","7","[[2,1,0],[3,0],[0]]","8","0","","","","","","6","",""
"","","","","","single-stim-button","320","483450","0.0-3.0-34.6-1.6","609371fc24c531563322d57c","D2","batch4","","305","","","tol_toboard","","","","","","","","","tol_peg_2","305","305","0","[[1,0,0],[3,2],[0]]","7","[[2,1,0],[3,0],[0]]","8","0","","","","","","6","",""
"","","","","","single-stim-button","321","483992","0.0-3.0-34.7-0.7","609371fc24c531563322d57c","D2","batch4","","542","","","tol_tohand","","","","","","","","","tol_peg_1","542","542","0","[[0,0,0],[3,2],[0]]","8","[[2,1,0],[3,0],[0]]","8","0","","","","","","6","",""
"","","","","","single-stim-button","322","484398","0.0-3.0-34.7-1.7","609371fc24c531563322d57c","D2","batch4","","406","","","tol_toboard","","","","","","","","","tol_peg_3","406","406","0","[[0,0,0],[3,2],[1]]","8","[[2,1,0],[3,0],[0]]","8","0","","","","","","6","",""
"","","","","","single-stim-button","323","484748","0.0-3.0-34.8-0.8","609371fc24c531563322d57c","D2","batch4","","350","","","tol_tohand","","","","","","","","","tol_peg_2","350","350","0","[[0,0,0],[3,0],[1]]","9","[[2,1,0],[3,0],[0]]","8","0","","","","","","6","",""
"","","","","","single-stim-button","324","485273","0.0-3.0-34.8-1.8","609371fc24c531563322d57c","D2","batch4","","524","","","tol_toboard","","","","","","","","","tol_peg_1","524","524","0","[[2,0,0],[3,0],[1]]","9","[[2,1,0],[3,0],[0]]","8","0","","","","","","6","",""
"","","","","","single-stim-button","325","485634","0.0-3.0-34.9-0.9","609371fc24c531563322d57c","D2","batch4","","361","","","tol_tohand","","","","","","","","","tol_peg_3","361","361","0","[[2,0,0],[3,0],[0]]","10","[[2,1,0],[3,0],[0]]","8","0","","","","","","6","",""
"","","","","","single-stim-button","326","486009","0.0-3.0-34.9-1.9","609371fc24c531563322d57c","D2","batch4","","375","","","tol_toboard","","","","","","","","","tol_peg_1","375","375","0","[[2,1,0],[3,0],[0]]","10","[[2,1,0],[3,0],[0]]","8","0","","","","","","6","",""
"","","","","","poldrack-single-stim","327","487023","0.0-3.0-35.0","609371fc24c531563322d57c","D2","batch4","","-1","","","tol_feedback","true","","","","","","","","","1000","1000","500","","","","","","-1","none","true","9425","23683","","",""
"","","","","","html-button-response","328","487635","0.0-3.0-36.0","609371fc24c531563322d57c","D2","batch4","","611.6000000238419","<div class = centerbox><p class = center-block-text>problem <strong>10</strong> out of 25 problems</p></div>","0","tol_trial_num","","","","","","","","","","","","","","","","","","","","","","","","",""
"","","","","","single-stim-button","329","491115","0.0-3.0-37.0-0.0","609371fc24c531563322d57c","D2","batch4","","3480","","","tol_tohand","","","","","","","","","tol_peg_2","3480","3480","0","[[3,0,0],[0,0],[2]]","1","[[3,0,0],[2,1],[0]]","9","0","","","","","","3","",""
"","","","","","single-stim-button","330","491518","0.0-3.0-37.0-1.0","609371fc24c531563322d57c","D2","batch4","","403","","","tol_toboard","","","","","","","","","tol_peg_1","403","403","0","[[3,1,0],[0,0],[2]]","1","[[3,0,0],[2,1],[0]]","9","0","","","","","","3","",""
"","","","","","single-stim-button","331","491842","0.0-3.0-37.1-0.1","609371fc24c531563322d57c","D2","batch4","","324","","","tol_tohand","","","","","","","","","tol_peg_3","324","324","0","[[3,1,0],[0,0],[0]]","2","[[3,0,0],[2,1],[0]]","9","0","","","","","","3","",""
"","","","","","single-stim-button","332","492291","0.0-3.0-37.1-1.1","609371fc24c531563322d57c","D2","batch4","","449","","","tol_toboard","","","","","","","","","tol_peg_2","449","449","0","[[3,1,0],[2,0],[0]]","2","[[3,0,0],[2,1],[0]]","9","0","","","","","","3","",""
"","","","","","single-stim-button","333","492655","0.0-3.0-37.2-0.2","609371fc24c531563322d57c","D2","batch4","","363","","","tol_tohand","","","","","","","","","tol_peg_1","363","363","0","[[3,0,0],[2,0],[0]]","3","[[3,0,0],[2,1],[0]]","9","0","","","","","","3","",""
"","","","","","single-stim-button","334","492921","0.0-3.0-37.2-1.2","609371fc24c531563322d57c","D2","batch4","","265","","","tol_toboard","","","","","","","","","tol_peg_2","265","265","0","[[3,0,0],[2,1],[0]]","3","[[3,0,0],[2,1],[0]]","9","0","","","","","","3","",""
"","","","","","poldrack-single-stim","335","493921","0.0-3.0-38.0","609371fc24c531563322d57c","D2","batch4","","-1","","","tol_feedback","true","","","","","","","","","1000","1000","500","","","","","","-1","none","true","3480","4167","","",""
"","","","","","html-button-response","336","494367","0.0-3.0-39.0","609371fc24c531563322d57c","D2","batch4","","444.90000009536743","<div class = centerbox><p class = center-block-text>problem <strong>11</strong> out of 25 problems</p></div>","0","tol_trial_num","","","","","","","","","","","","","","","","","","","","","","","","",""
"","","","","","single-stim-button","337","502321","0.0-3.0-40.0-0.0","609371fc24c531563322d57c","D2","batch4","","7954","","","tol_tohand","","","","","","","","","tol_peg_2","7954","7954","0","[[1,2,0],[0,0],[0]]","1","[[2,0,0],[1,3],[0]]","10","0","","","","","","6","",""
"","","","","","single-stim-button","338","505060","0.0-3.0-40.0-1.0","609371fc24c531563322d57c","D2","batch4","","2739","","","tol_toboard","","","","","","","","","tol_peg_2","2739","2739","0","[[1,2,0],[3,0],[0]]","1","[[2,0,0],[1,3],[0]]","10","0","","","","","","6","",""
"","","","","","single-stim-button","339","505675","0.0-3.0-40.1-0.1","609371fc24c531563322d57c","D2","batch4","","614","","","tol_tohand","","","","","","","","","tol_peg_1","614","614","0","[[1,0,0],[3,0],[0]]","2","[[2,0,0],[1,3],[0]]","10","0","","","","","","6","",""
"","","","","","single-stim-button","340","506062","0.0-3.0-40.1-1.1","609371fc24c531563322d57c","D2","batch4","","387","","","tol_toboard","","","","","","","","","tol_peg_3","387","387","0","[[1,0,0],[3,0],[2]]","2","[[2,0,0],[1,3],[0]]","10","0","","","","","","6","",""
"","","","","","single-stim-button","341","506432","0.0-3.0-40.2-0.2","609371fc24c531563322d57c","D2","batch4","","370","","","tol_tohand","","","","","","","","","tol_peg_1","370","370","0","[[0,0,0],[3,0],[2]]","3","[[2,0,0],[1,3],[0]]","10","0","","","","","","6","",""
"","","","","","single-stim-button","342","506674","0.0-3.0-40.2-1.2","609371fc24c531563322d57c","D2","batch4","","241","","","tol_toboard","","","","","","","","","tol_peg_2","241","241","0","[[0,0,0],[3,1],[2]]","3","[[2,0,0],[1,3],[0]]","10","0","","","","","","6","",""
"","","","","","single-stim-button","343","508070","0.0-3.0-40.3-0.3","609371fc24c531563322d57c","D2","batch4","","1396","","","tol_tohand","","","","","","","","","tol_peg_3","1396","1396","0","[[0,0,0],[3,1],[0]]","4","[[2,0,0],[1,3],[0]]","10","0","","","","","","6","",""
"","","","","","single-stim-button","344","508515","0.0-3.0-40.3-1.3","609371fc24c531563322d57c","D2","batch4","","445","","","tol_toboard","","","","","","","","","tol_peg_1","445","445","0","[[2,0,0],[3,1],[0]]","4","[[2,0,0],[1,3],[0]]","10","0","","","","","","6","",""
"","","","","","single-stim-button","345","508909","0.0-3.0-40.4-0.4","609371fc24c531563322d57c","D2","batch4","","393","","","tol_tohand","","","","","","","","","tol_peg_2","393","393","0","[[2,0,0],[3,0],[0]]","5","[[2,0,0],[1,3],[0]]","10","0","","","","","","6","",""
"","","","","","single-stim-button","346","509270","0.0-3.0-40.4-1.4","609371fc24c531563322d57c","D2","batch4","","361","","","tol_toboard","","","","","","","","","tol_peg_3","361","361","0","[[2,0,0],[3,0],[1]]","5","[[2,0,0],[1,3],[0]]","10","0","","","","","","6","",""
"","","","","","single-stim-button","347","509681","0.0-3.0-40.5-0.5","609371fc24c531563322d57c","D2","batch4","","411","","","tol_tohand","","","","","","","","","tol_peg_2","411","411","0","[[2,0,0],[0,0],[1]]","6","[[2,0,0],[1,3],[0]]","10","0","","","","","","6","",""
"","","","","","single-stim-button","348","510014","0.0-3.0-40.5-1.5","609371fc24c531563322d57c","D2","batch4","","333","","","tol_toboard","","","","","","","","","tol_peg_1","333","333","0","[[2,3,0],[0,0],[1]]","6","[[2,0,0],[1,3],[0]]","10","0","","","","","","6","",""
