"success","timeout","failed_images","failed_audio","failed_video","trial_type","trial_index","time_elapsed","internal_node_id","subject_id","study_id","session_id","task","rt","stimulus","response","item","answer","correct","spm_correct","spm_rt","view_history","fiar_detect_rt","fiar_detect_correct","total_correct_fiar_detect","post_trial_gap","choices","mouse_click","stim_duration","block_duration","timing_post_trial","current_position","tol_num_moves_made","tol_target","tol_problem_id","tol_rt","key_press","possible_responses","tol_correct","preplanning","tol_rt_per_trial","tol_min_moves"
"true","false","[]","[]","[]","preload","0","1499","0.0-0.0","609ac8ca9e4928ec75d40a10","F1","batch6","","","","","","","","","","","","","","","","","","","","","","","","","","","","","",""
"true","","","","","fullscreen","1","783653","0.0-1.0-0.0","609ac8ca9e4928ec75d40a10","F1","batch6","","","","","","","","","","","","","","","","","","","","","","","","","","","","","",""
"true","","","","","fullscreen","2","798343","0.0-2.0-0.0","609ac8ca9e4928ec75d40a10","F1","batch6","spm_fullscreen","","","","","","","","","","","","","","","","","","","","","","","","","","","","",""
"","","","","","html-button-response","3","810978","0.0-2.0-1.0","609ac8ca9e4928ec75d40a10","F1","batch6","","12633.5","<p class = block-text><b>Instructions</b> <br>This is a widely used intelligence test in research. <br>In this test, a figure with a missing piece will be presented.<br>Below the figure are alternative pieces to complete the figure, only one of which is correct.<br> Different figures might involve different principles for obtaining the missing piece<br>Your job is to select the most logical piece to complete the figure.</p>","0","","","","","","","","","","","","","","","","","","","","","","","","","",""
"","","","","","html-keyboard-response","4","811794","0.0-2.0-2.0-0.0","609ac8ca9e4928ec75d40a10","F1","batch6","spm_show_trial_num","null","<p class=block-text>Trial 1 out of 60</p>","null","","","","","","","","","","","","","","","","","","","","","","","","","",""
"","","","","","image-button-response","5","816090","0.0-2.0-2.0-1.0","609ac8ca9e4928ec75d40a10","F1","batch6","spm_respsonse","4291.89999961853","img/question_1_1.jpeg","3","mat_01","4","1","1","4291.89999961853","","","","","","","","","","","","","","","","","","","","",""
"","","","","","html-keyboard-response","6","817163","0.0-2.0-2.0-0.1","609ac8ca9e4928ec75d40a10","F1","batch6","spm_show_trial_num","null","<p class=block-text>Trial 2 out of 60</p>","null","","","","","","","","","","","","","","","","","","","","","","","","","",""
"","","","","","image-button-response","7","819418","0.0-2.0-2.0-1.1","609ac8ca9e4928ec75d40a10","F1","batch6","spm_respsonse","2253.1000003814697","img/question_1_2.jpeg","4","mat_02","5","1","1","2253.1000003814697","","","","","","","","","","","","","","","","","","","","",""
"","","","","","html-keyboard-response","8","820498","0.0-2.0-2.0-0.2","609ac8ca9e4928ec75d40a10","F1","batch6","spm_show_trial_num","null","<p class=block-text>Trial 3 out of 60</p>","null","","","","","","","","","","","","","","","","","","","","","","","","","",""
"","","","","","image-button-response","9","823506","0.0-2.0-2.0-1.2","609ac8ca9e4928ec75d40a10","F1","batch6","spm_respsonse","3005.900001525879","img/question_1_3.jpeg","0","mat_03","1","1","1","3005.900001525879","","","","","","","","","","","","","","","","","","","","",""
"","","","","","html-keyboard-response","10","824583","0.0-2.0-2.0-0.3","609ac8ca9e4928ec75d40a10","F1","batch6","spm_show_trial_num","null","<p class=block-text>Trial 4 out of 60</p>","null","","","","","","","","","","","","","","","","","","","","","","","","","",""
"","","","","","image-button-response","11","829314","0.0-2.0-2.0-1.3","609ac8ca9e4928ec75d40a10","F1","batch6","spm_respsonse","4728.900001525879","img/question_1_4.jpeg","1","mat_04","2","1","1","4728.900001525879","","","","","","","","","","","","","","","","","","","","",""
"","","","","","html-keyboard-response","12","830385","0.0-2.0-2.0-0.4","609ac8ca9e4928ec75d40a10","F1","batch6","spm_show_trial_num","null","<p class=block-text>Trial 5 out of 60</p>","null","","","","","","","","","","","","","","","","","","","","","","","","","",""
"","","","","","image-button-response","13","835090","0.0-2.0-2.0-1.4","609ac8ca9e4928ec75d40a10","F1","batch6","spm_respsonse","4703.10000038147","img/question_1_5.jpeg","5","mat_05","6","1","1","4703.10000038147","","","","","","","","","","","","","","","","","","","","",""
"","","","","","html-keyboard-response","14","836162","0.0-2.0-2.0-0.5","609ac8ca9e4928ec75d40a10","F1","batch6","spm_show_trial_num","null","<p class=block-text>Trial 6 out of 60</p>","null","","","","","","","","","","","","","","","","","","","","","","","","","",""
"","","","","","image-button-response","15","840178","0.0-2.0-2.0-1.5","609ac8ca9e4928ec75d40a10","F1","batch6","spm_respsonse","4014.6000003814697","img/question_1_6.jpeg","2","mat_06","3","1","1","4014.6000003814697","","","","","","","","","","","","","","","","","","","","",""
"","","","","","html-keyboard-response","16","841256","0.0-2.0-2.0-0.6","609ac8ca9e4928ec75d40a10","F1","batch6","spm_show_trial_num","null","<p class=block-text>Trial 7 out of 60</p>","null","","","","","","","","","","","","","","","","","","","","","","","","","",""
"","","","","","image-button-response","17","848682","0.0-2.0-2.0-1.6","609ac8ca9e4928ec75d40a10","F1","batch6","spm_respsonse","7423.5","img/question_1_7.jpeg","5","mat_07","6","1","1","7423.5","","","","","","","","","","","","","","","","","","","","",""
"","","","","","html-keyboard-response","18","849757","0.0-2.0-2.0-0.7","609ac8ca9e4928ec75d40a10","F1","batch6","spm_show_trial_num","null","<p class=block-text>Trial 8 out of 60</p>","null","","","","","","","","","","","","","","","","","","","","","","","","","",""
"","","","","","image-button-response","19","858762","0.0-2.0-2.0-1.7","609ac8ca9e4928ec75d40a10","F1","batch6","spm_respsonse","9003.29999923706","img/question_1_8.jpeg","1","mat_08","2","1","1","9003.29999923706","","","","","","","","","","","","","","","","","","","","",""
"","","","","","html-keyboard-response","20","859830","0.0-2.0-2.0-0.8","609ac8ca9e4928ec75d40a10","F1","batch6","spm_show_trial_num","null","<p class=block-text>Trial 9 out of 60</p>","null","","","","","","","","","","","","","","","","","","","","","","","","","",""
"","","","","","image-button-response","21","865402","0.0-2.0-2.0-1.8","609ac8ca9e4928ec75d40a10","F1","batch6","spm_respsonse","5569.700000762939","img/question_1_9.jpeg","0","mat_09","1","1","1","5569.700000762939","","","","","","","","","","","","","","","","","","","","",""
"","","","","","html-keyboard-response","22","866482","0.0-2.0-2.0-0.9","609ac8ca9e4928ec75d40a10","F1","batch6","spm_show_trial_num","null","<p class=block-text>Trial 10 out of 60</p>","null","","","","","","","","","","","","","","","","","","","","","","","","","",""
"","","","","","image-button-response","23","872882","0.0-2.0-2.0-1.9","609ac8ca9e4928ec75d40a10","F1","batch6","spm_respsonse","6397.39999961853","img/question_1_10.jpeg","2","mat_10","3","1","1","6397.39999961853","","","","","","","","","","","","","","","","","","","","",""
"","","","","","html-keyboard-response","24","873942","0.0-2.0-2.0-0.10","609ac8ca9e4928ec75d40a10","F1","batch6","spm_show_trial_num","null","<p class=block-text>Trial 11 out of 60</p>","null","","","","","","","","","","","","","","","","","","","","","","","","","",""
"","","","","","image-button-response","25","882338","0.0-2.0-2.0-1.10","609ac8ca9e4928ec75d40a10","F1","batch6","spm_respsonse","8393.70000076294","img/question_1_11.jpeg","3","mat_11","4","1","1","8393.70000076294","","","","","","","","","","","","","","","","","","","","",""
"","","","","","html-keyboard-response","26","883405","0.0-2.0-2.0-0.11","609ac8ca9e4928ec75d40a10","F1","batch6","spm_show_trial_num","null","<p class=block-text>Trial 12 out of 60</p>","null","","","","","","","","","","","","","","","","","","","","","","","","","",""
"","","","","","image-button-response","27","910737","0.0-2.0-2.0-1.11","609ac8ca9e4928ec75d40a10","F1","batch6","spm_respsonse","27329.90000152588","img/question_1_12.jpeg","4","mat_12","5","1","1","27329.90000152588","","","","","","","","","","","","","","","","","","","","",""
"","","","","","html-keyboard-response","28","911816","0.0-2.0-2.0-0.12","609ac8ca9e4928ec75d40a10","F1","batch6","spm_show_trial_num","null","<p class=block-text>Trial 13 out of 60</p>","null","","","","","","","","","","","","","","","","","","","","","","","","","",""
"","","","","","image-button-response","29","915361","0.0-2.0-2.0-1.12","609ac8ca9e4928ec75d40a10","F1","batch6","spm_respsonse","3543","img/question_2_1.jpeg","1","mat_13","2","1","1","3543","","","","","","","","","","","","","","","","","","","","",""
"","","","","","html-keyboard-response","30","916435","0.0-2.0-2.0-0.13","609ac8ca9e4928ec75d40a10","F1","batch6","spm_show_trial_num","null","<p class=block-text>Trial 14 out of 60</p>","null","","","","","","","","","","","","","","","","","","","","","","","","","",""
"","","","","","image-button-response","31","920457","0.0-2.0-2.0-1.13","609ac8ca9e4928ec75d40a10","F1","batch6","spm_respsonse","4020.3999996185303","img/question_2_2.jpeg","2","mat_14","6","0","0","4020.3999996185303","","","","","","","","","","","","","","","","","","","","",""
"","","","","","html-keyboard-response","32","921541","0.0-2.0-2.0-0.14","609ac8ca9e4928ec75d40a10","F1","batch6","spm_show_trial_num","null","<p class=block-text>Trial 15 out of 60</p>","null","","","","","","","","","","","","","","","","","","","","","","","","","",""
"","","","","","image-button-response","33","924649","0.0-2.0-2.0-1.14","609ac8ca9e4928ec75d40a10","F1","batch6","spm_respsonse","3106","img/question_2_3.jpeg","0","mat_15","1","1","1","3106","","","","","","","","","","","","","","","","","","","","",""
"","","","","","html-keyboard-response","34","925718","0.0-2.0-2.0-0.15","609ac8ca9e4928ec75d40a10","F1","batch6","spm_show_trial_num","null","<p class=block-text>Trial 16 out of 60</p>","null","","","","","","","","","","","","","","","","","","","","","","","","","",""
"","","","","","image-button-response","35","929073","0.0-2.0-2.0-1.15","609ac8ca9e4928ec75d40a10","F1","batch6","spm_respsonse","3353.2999992370605","img/question_2_4.jpeg","1","mat_16","2","1","1","3353.2999992370605","","","","","","","","","","","","","","","","","","","","",""
"","","","","","html-keyboard-response","36","930140","0.0-2.0-2.0-0.16","609ac8ca9e4928ec75d40a10","F1","batch6","spm_show_trial_num","null","<p class=block-text>Trial 17 out of 60</p>","null","","","","","","","","","","","","","","","","","","","","","","","","","",""
"","","","","","image-button-response","37","935537","0.0-2.0-2.0-1.16","609ac8ca9e4928ec75d40a10","F1","batch6","spm_respsonse","5395.199998855591","img/question_2_5.jpeg","0","mat_17","1","1","1","5395.199998855591","","","","","","","","","","","","","","","","","","","","",""
"","","","","","html-keyboard-response","38","936609","0.0-2.0-2.0-0.17","609ac8ca9e4928ec75d40a10","F1","batch6","spm_show_trial_num","null","<p class=block-text>Trial 18 out of 60</p>","null","","","","","","","","","","","","","","","","","","","","","","","","","",""
"","","","","","image-button-response","39","942377","0.0-2.0-2.0-1.17","609ac8ca9e4928ec75d40a10","F1","batch6","spm_respsonse","5765.799999237061","img/question_2_6.jpeg","2","mat_18","3","1","1","5765.799999237061","","","","","","","","","","","","","","","","","","","","",""
"","","","","","html-keyboard-response","40","943446","0.0-2.0-2.0-0.18","609ac8ca9e4928ec75d40a10","F1","batch6","spm_show_trial_num","null","<p class=block-text>Trial 19 out of 60</p>","null","","","","","","","","","","","","","","","","","","","","","","","","","",""
"","","","","","image-button-response","41","947913","0.0-2.0-2.0-1.18","609ac8ca9e4928ec75d40a10","F1","batch6","spm_respsonse","4465.400001525879","img/question_2_7.jpeg","5","mat_19","5","0","0","4465.400001525879","","","","","","","","","","","","","","","","","","","","",""
"","","","","","html-keyboard-response","42","948981","0.0-2.0-2.0-0.19","609ac8ca9e4928ec75d40a10","F1","batch6","spm_show_trial_num","null","<p class=block-text>Trial 20 out of 60</p>","null","","","","","","","","","","","","","","","","","","","","","","","","","",""
"","","","","","image-button-response","43","953697","0.0-2.0-2.0-1.19","609ac8ca9e4928ec75d40a10","F1","batch6","spm_respsonse","4714.300001144409","img/question_2_8.jpeg","4","mat_20","6","0","0","4714.300001144409","","","","","","","","","","","","","","","","","","","","",""
"","","","","","html-keyboard-response","44","954765","0.0-2.0-2.0-0.20","609ac8ca9e4928ec75d40a10","F1","batch6","spm_show_trial_num","null","<p class=block-text>Trial 21 out of 60</p>","null","","","","","","","","","","","","","","","","","","","","","","","","","",""
"","","","","","image-button-response","45","968177","0.0-2.0-2.0-1.20","609ac8ca9e4928ec75d40a10","F1","batch6","spm_respsonse","13409.10000038147","img/question_2_9.jpeg","4","mat_21","4","0","0","13409.10000038147","","","","","","","","","","","","","","","","","","","","",""
"","","","","","html-keyboard-response","46","969255","0.0-2.0-2.0-0.21","609ac8ca9e4928ec75d40a10","F1","batch6","spm_show_trial_num","null","<p class=block-text>Trial 22 out of 60</p>","null","","","","","","","","","","","","","","","","","","","","","","","","","",""
"","","","","","image-button-response","47","981257","0.0-2.0-2.0-1.21","609ac8ca9e4928ec75d40a10","F1","batch6","spm_respsonse","11999.29999923706","img/question_2_10.jpeg","2","mat_22","3","1","1","11999.29999923706","","","","","","","","","","","","","","","","","","","","",""
"","","","","","html-keyboard-response","48","982327","0.0-2.0-2.0-0.22","609ac8ca9e4928ec75d40a10","F1","batch6","spm_show_trial_num","null","<p class=block-text>Trial 23 out of 60</p>","null","","","","","","","","","","","","","","","","","","","","","","","","","",""
"","","","","","image-button-response","49","989657","0.0-2.0-2.0-1.22","609ac8ca9e4928ec75d40a10","F1","batch6","spm_respsonse","7327.400001525879","img/question_2_11.jpeg","3","mat_23","4","1","1","7327.400001525879","","","","","","","","","","","","","","","","","","","","",""
"","","","","","html-keyboard-response","50","990730","0.0-2.0-2.0-0.23","609ac8ca9e4928ec75d40a10","F1","batch6","spm_show_trial_num","null","<p class=block-text>Trial 24 out of 60</p>","null","","","","","","","","","","","","","","","","","","","","","","","","","",""
"","","","","","image-button-response","51","1018496","0.0-2.0-2.0-1.23","609ac8ca9e4928ec75d40a10","F1","batch6","spm_respsonse","27764.09999847412","img/question_2_12.jpeg","4","mat_24","5","1","1","27764.09999847412","","","","","","","","","","","","","","","","","","","","",""
"","","","","","html-button-response","52","1020328","0.0-2.0-3.0","609ac8ca9e4928ec75d40a10","F1","batch6","attention_check","1567.2999992370605","<p class = block-text>Attention check: Please choose 1<br></p>","0","","","true","","","","","","","","","","","","","","","","","","","","","","",""
"","","","","","html-keyboard-response","53","1021136","0.0-2.0-4.0-0.0","609ac8ca9e4928ec75d40a10","F1","batch6","spm_show_trial_num","null","<p class=block-text>Trial 25 out of 60</p>","null","","","","","","","","","","","","","","","","","","","","","","","","","",""
"","","","","","image-button-response","54","1028952","0.0-2.0-4.0-1.0","609ac8ca9e4928ec75d40a10","F1","batch6","spm_respsonse","7814.300001144409","img/question_3_1.jpeg","7","mat_25","8","1","1","7814.300001144409","","","","","","","","","","","","","","","","","","","","",""
"","","","","","html-keyboard-response","55","1030028","0.0-2.0-4.0-0.1","609ac8ca9e4928ec75d40a10","F1","batch6","spm_show_trial_num","null","<p class=block-text>Trial 26 out of 60</p>","null","","","","","","","","","","","","","","","","","","","","","","","","","",""
"","","","","","image-button-response","56","1039160","0.0-2.0-4.0-1.1","609ac8ca9e4928ec75d40a10","F1","batch6","spm_respsonse","9129.30000114441","img/question_3_2.jpeg","1","mat_26","2","1","1","9129.30000114441","","","","","","","","","","","","","","","","","","","","",""
"","","","","","html-keyboard-response","57","1040233","0.0-2.0-4.0-0.2","609ac8ca9e4928ec75d40a10","F1","batch6","spm_show_trial_num","null","<p class=block-text>Trial 27 out of 60</p>","null","","","","","","","","","","","","","","","","","","","","","","","","","",""
"","","","","","image-button-response","58","1053856","0.0-2.0-4.0-1.2","609ac8ca9e4928ec75d40a10","F1","batch6","spm_respsonse","13620.29999923706","img/question_3_3.jpeg","2","mat_27","3","1","1","13620.29999923706","","","","","","","","","","","","","","","","","","","","",""
"","","","","","html-keyboard-response","59","1054930","0.0-2.0-4.0-0.3","609ac8ca9e4928ec75d40a10","F1","batch6","spm_show_trial_num","null","<p class=block-text>Trial 28 out of 60</p>","null","","","","","","","","","","","","","","","","","","","","","","","","","",""
"","","","","","image-button-response","60","1059920","0.0-2.0-4.0-1.3","609ac8ca9e4928ec75d40a10","F1","batch6","spm_respsonse","4987","img/question_3_4.jpeg","7","mat_28","8","1","1","4987","","","","","","","","","","","","","","","","","","","","",""
"","","","","","html-keyboard-response","61","1060982","0.0-2.0-4.0-0.4","609ac8ca9e4928ec75d40a10","F1","batch6","spm_show_trial_num","null","<p class=block-text>Trial 29 out of 60</p>","null","","","","","","","","","","","","","","","","","","","","","","","","","",""
"","","","","","image-button-response","62","1064383","0.0-2.0-4.0-1.4","609ac8ca9e4928ec75d40a10","F1","batch6","spm_respsonse","3399","img/question_3_5.jpeg","6","mat_29","7","1","1","3399","","","","","","","","","","","","","","","","","","","","",""
"","","","","","html-keyboard-response","63","1065447","0.0-2.0-4.0-0.5","609ac8ca9e4928ec75d40a10","F1","batch6","spm_show_trial_num","null","<p class=block-text>Trial 30 out of 60</p>","null","","","","","","","","","","","","","","","","","","","","","","","","","",""
"","","","","","image-button-response","64","1072583","0.0-2.0-4.0-1.5","609ac8ca9e4928ec75d40a10","F1","batch6","spm_respsonse","7134.39999961853","img/question_3_6.jpeg","5","mat_30","4","0","0","7134.39999961853","","","","","","","","","","","","","","","","","","","","",""
"","","","","","html-keyboard-response","65","1073660","0.0-2.0-4.0-0.6","609ac8ca9e4928ec75d40a10","F1","batch6","spm_show_trial_num","null","<p class=block-text>Trial 31 out of 60</p>","null","","","","","","","","","","","","","","","","","","","","","","","","","",""
"","","","","","image-button-response","66","1084079","0.0-2.0-4.0-1.6","609ac8ca9e4928ec75d40a10","F1","batch6","spm_respsonse","10416.70000076294","img/question_3_7.jpeg","4","mat_31","5","1","1","10416.70000076294","","","","","","","","","","","","","","","","","","","","",""
"","","","","","html-keyboard-response","67","1085148","0.0-2.0-4.0-0.7","609ac8ca9e4928ec75d40a10","F1","batch6","spm_show_trial_num","null","<p class=block-text>Trial 32 out of 60</p>","null","","","","","","","","","","","","","","","","","","","","","","","","","",""
"","","","","","image-button-response","68","1098447","0.0-2.0-4.0-1.7","609ac8ca9e4928ec75d40a10","F1","batch6","spm_respsonse","13296.29999923706","img/question_3_8.jpeg","0","mat_32","1","1","1","13296.29999923706","","","","","","","","","","","","","","","","","","","","",""
"","","","","","html-keyboard-response","69","1099514","0.0-2.0-4.0-0.8","609ac8ca9e4928ec75d40a10","F1","batch6","spm_show_trial_num","null","<p class=block-text>Trial 33 out of 60</p>","null","","","","","","","","","","","","","","","","","","","","","","","","","",""
"","","","","","image-button-response","70","1107391","0.0-2.0-4.0-1.8","609ac8ca9e4928ec75d40a10","F1","batch6","spm_respsonse","7874.799999237061","img/question_3_9.jpeg","6","mat_33","7","1","1","7874.799999237061","","","","","","","","","","","","","","","","","","","","",""
"","","","","","html-keyboard-response","71","1108474","0.0-2.0-4.0-0.9","609ac8ca9e4928ec75d40a10","F1","batch6","spm_show_trial_num","null","<p class=block-text>Trial 34 out of 60</p>","null","","","","","","","","","","","","","","","","","","","","","","","","","",""
"","","","","","image-button-response","72","1121671","0.0-2.0-4.0-1.9","609ac8ca9e4928ec75d40a10","F1","batch6","spm_respsonse","13194.5","img/question_3_10.jpeg","7","mat_34","6","0","0","13194.5","","","","","","","","","","","","","","","","","","","","",""
"","","","","","html-keyboard-response","73","1122746","0.0-2.0-4.0-0.10","609ac8ca9e4928ec75d40a10","F1","batch6","spm_show_trial_num","null","<p class=block-text>Trial 35 out of 60</p>","null","","","","","","","","","","","","","","","","","","","","","","","","","",""
"","","","","","image-button-response","74","1145695","0.0-2.0-4.0-1.10","609ac8ca9e4928ec75d40a10","F1","batch6","spm_respsonse","22946","img/question_3_11.jpeg","3","mat_35","1","0","0","22946","","","","","","","","","","","","","","","","","","","","",""
"","","","","","html-keyboard-response","75","1146771","0.0-2.0-4.0-0.11","609ac8ca9e4928ec75d40a10","F1","batch6","spm_show_trial_num","null","<p class=block-text>Trial 36 out of 60</p>","null","","","","","","","","","","","","","","","","","","","","","","","","","",""
"","","","","","image-button-response","76","1152046","0.0-2.0-4.0-1.11","609ac8ca9e4928ec75d40a10","F1","batch6","spm_respsonse","5273","img/question_3_12.jpeg","7","mat_36","2","0","0","5273","","","","","","","","","","","","","","","","","","","","",""
"","","","","","html-keyboard-response","77","1153125","0.0-2.0-4.0-0.12","609ac8ca9e4928ec75d40a10","F1","batch6","spm_show_trial_num","null","<p class=block-text>Trial 37 out of 60</p>","null","","","","","","","","","","","","","","","","","","","","","","","","","",""
"","","","","","image-button-response","78","1158094","0.0-2.0-4.0-1.12","609ac8ca9e4928ec75d40a10","F1","batch6","spm_respsonse","4967.5","img/question_4_1.jpeg","2","mat_37","3","1","1","4967.5","","","","","","","","","","","","","","","","","","","","",""
"","","","","","html-keyboard-response","79","1159177","0.0-2.0-4.0-0.13","609ac8ca9e4928ec75d40a10","F1","batch6","spm_show_trial_num","null","<p class=block-text>Trial 38 out of 60</p>","null","","","","","","","","","","","","","","","","","","","","","","","","","",""
"","","","","","image-button-response","80","1163782","0.0-2.0-4.0-1.13","609ac8ca9e4928ec75d40a10","F1","batch6","spm_respsonse","4603.39999961853","img/question_4_2.jpeg","3","mat_38","4","1","1","4603.39999961853","","","","","","","","","","","","","","","","","","","","",""
"","","","","","html-keyboard-response","81","1164862","0.0-2.0-4.0-0.14","609ac8ca9e4928ec75d40a10","F1","batch6","spm_show_trial_num","null","<p class=block-text>Trial 39 out of 60</p>","null","","","","","","","","","","","","","","","","","","","","","","","","","",""
"","","","","","image-button-response","82","1179870","0.0-2.0-4.0-1.14","609ac8ca9e4928ec75d40a10","F1","batch6","spm_respsonse","15005.89999961853","img/question_4_3.jpeg","2","mat_39","3","1","1","15005.89999961853","","","","","","","","","","","","","","","","","","","","",""
"","","","","","html-keyboard-response","83","1180951","0.0-2.0-4.0-0.15","609ac8ca9e4928ec75d40a10","F1","batch6","spm_show_trial_num","null","<p class=block-text>Trial 40 out of 60</p>","null","","","","","","","","","","","","","","","","","","","","","","","","","",""
"","","","","","image-button-response","84","1186934","0.0-2.0-4.0-1.15","609ac8ca9e4928ec75d40a10","F1","batch6","spm_respsonse","5980.699998855591","img/question_4_4.jpeg","6","mat_40","7","1","1","5980.699998855591","","","","","","","","","","","","","","","","","","","","",""
"","","","","","html-keyboard-response","85","1188007","0.0-2.0-4.0-0.16","609ac8ca9e4928ec75d40a10","F1","batch6","spm_show_trial_num","null","<p class=block-text>Trial 41 out of 60</p>","null","","","","","","","","","","","","","","","","","","","","","","","","","",""
"","","","","","image-button-response","86","1194878","0.0-2.0-4.0-1.16","609ac8ca9e4928ec75d40a10","F1","batch6","spm_respsonse","6869.10000038147","img/question_4_5.jpeg","7","mat_41","8","1","1","6869.10000038147","","","","","","","","","","","","","","","","","","","","",""
"","","","","","html-keyboard-response","87","1195947","0.0-2.0-4.0-0.17","609ac8ca9e4928ec75d40a10","F1","batch6","spm_show_trial_num","null","<p class=block-text>Trial 42 out of 60</p>","null","","","","","","","","","","","","","","","","","","","","","","","","","",""
"","","","","","image-button-response","88","1207646","0.0-2.0-4.0-1.17","609ac8ca9e4928ec75d40a10","F1","batch6","spm_respsonse","11696.5","img/question_4_6.jpeg","5","mat_42","6","1","1","11696.5","","","","","","","","","","","","","","","","","","","","",""
"","","","","","html-keyboard-response","89","1208729","0.0-2.0-4.0-0.18","609ac8ca9e4928ec75d40a10","F1","batch6","spm_show_trial_num","null","<p class=block-text>Trial 43 out of 60</p>","null","","","","","","","","","","","","","","","","","","","","","","","","","",""
"","","","","","image-button-response","90","1222894","0.0-2.0-4.0-1.18","609ac8ca9e4928ec75d40a10","F1","batch6","spm_respsonse","14162.10000038147","img/question_4_7.jpeg","4","mat_43","5","1","1","14162.10000038147","","","","","","","","","","","","","","","","","","","","",""
"","","","","","html-keyboard-response","91","1223967","0.0-2.0-4.0-0.19","609ac8ca9e4928ec75d40a10","F1","batch6","spm_show_trial_num","null","<p class=block-text>Trial 44 out of 60</p>","null","","","","","","","","","","","","","","","","","","","","","","","","","",""
"","","","","","image-button-response","92","1233029","0.0-2.0-4.0-1.19","609ac8ca9e4928ec75d40a10","F1","batch6","spm_respsonse","9059.79999923706","img/question_4_8.jpeg","3","mat_44","4","1","1","9059.79999923706","","","","","","","","","","","","","","","","","","","","",""
"","","","","","html-keyboard-response","93","1234105","0.0-2.0-4.0-0.20","609ac8ca9e4928ec75d40a10","F1","batch6","spm_show_trial_num","null","<p class=block-text>Trial 45 out of 60</p>","null","","","","","","","","","","","","","","","","","","","","","","","","","",""
"","","","","","image-button-response","94","1248165","0.0-2.0-4.0-1.20","609ac8ca9e4928ec75d40a10","F1","batch6","spm_respsonse","14058.60000038147","img/question_4_9.jpeg","0","mat_45","1","1","1","14058.60000038147","","","","","","","","","","","","","","","","","","","","",""
"","","","","","html-keyboard-response","95","1249238","0.0-2.0-4.0-0.21","609ac8ca9e4928ec75d40a10","F1","batch6","spm_show_trial_num","null","<p class=block-text>Trial 46 out of 60</p>","null","","","","","","","","","","","","","","","","","","","","","","","","","",""
"","","","","","image-button-response","96","1268373","0.0-2.0-4.0-1.21","609ac8ca9e4928ec75d40a10","F1","batch6","spm_respsonse","19132.69999885559","img/question_4_10.jpeg","7","mat_46","2","0","0","19132.69999885559","","","","","","","","","","","","","","","","","","","","",""
"","","","","","html-keyboard-response","97","1269451","0.0-2.0-4.0-0.22","609ac8ca9e4928ec75d40a10","F1","batch6","spm_show_trial_num","null","<p class=block-text>Trial 47 out of 60</p>","null","","","","","","","","","","","","","","","","","","","","","","","","","",""
"","","","","","image-button-response","98","1291957","0.0-2.0-4.0-1.22","609ac8ca9e4928ec75d40a10","F1","batch6","spm_respsonse","22503.09999847412","img/question_4_11.jpeg","4","mat_47","5","1","1","22503.09999847412","","","","","","","","","","","","","","","","","","","","",""
"","","","","","html-keyboard-response","99","1293036","0.0-2.0-4.0-0.23","609ac8ca9e4928ec75d40a10","F1","batch6","spm_show_trial_num","null","<p class=block-text>Trial 48 out of 60</p>","null","","","","","","","","","","","","","","","","","","","","","","","","","",""
"","","","","","image-button-response","100","1299092","0.0-2.0-4.0-1.23","609ac8ca9e4928ec75d40a10","F1","batch6","spm_respsonse","6053.799999237061","img/question_4_12.jpeg","7","mat_48","6","0","0","6053.799999237061","","","","","","","","","","","","","","","","","","","","",""
"","","","","","html-keyboard-response","101","1300156","0.0-2.0-4.0-0.24","609ac8ca9e4928ec75d40a10","F1","batch6","spm_show_trial_num","null","<p class=block-text>Trial 49 out of 60</p>","null","","","","","","","","","","","","","","","","","","","","","","","","","",""
"","","","","","image-button-response","102","1305716","0.0-2.0-4.0-1.24","609ac8ca9e4928ec75d40a10","F1","batch6","spm_respsonse","5557.799999237061","img/question_5_1.jpeg","6","mat_49","7","1","1","5557.799999237061","","","","","","","","","","","","","","","","","","","","",""
"","","","","","html-keyboard-response","103","1306800","0.0-2.0-4.0-0.25","609ac8ca9e4928ec75d40a10","F1","batch6","spm_show_trial_num","null","<p class=block-text>Trial 50 out of 60</p>","null","","","","","","","","","","","","","","","","","","","","","","","","","",""
"","","","","","image-button-response","104","1318100","0.0-2.0-4.0-1.25","609ac8ca9e4928ec75d40a10","F1","batch6","spm_respsonse","11298.099998474121","img/question_5_2.jpeg","0","mat_50","6","0","0","11298.099998474121","","","","","","","","","","","","","","","","","","","","",""
"","","","","","html-keyboard-response","105","1319182","0.0-2.0-4.0-0.26","609ac8ca9e4928ec75d40a10","F1","batch6","spm_show_trial_num","null","<p class=block-text>Trial 51 out of 60</p>","null","","","","","","","","","","","","","","","","","","","","","","","","","",""
"","","","","","image-button-response","106","1322044","0.0-2.0-4.0-1.26","609ac8ca9e4928ec75d40a10","F1","batch6","spm_respsonse","2859.5","img/question_5_3.jpeg","7","mat_51","8","1","1","2859.5","","","","","","","","","","","","","","","","","","","","",""
"","","","","","html-keyboard-response","107","1323117","0.0-2.0-4.0-0.27","609ac8ca9e4928ec75d40a10","F1","batch6","spm_show_trial_num","null","<p class=block-text>Trial 52 out of 60</p>","null","","","","","","","","","","","","","","","","","","","","","","","","","",""
"","","","","","image-button-response","108","1329212","0.0-2.0-4.0-1.27","609ac8ca9e4928ec75d40a10","F1","batch6","spm_respsonse","6093.39999961853","img/question_5_4.jpeg","2","mat_52","2","0","0","6093.39999961853","","","","","","","","","","","","","","","","","","","","",""
"","","","","","html-keyboard-response","109","1330292","0.0-2.0-4.0-0.28","609ac8ca9e4928ec75d40a10","F1","batch6","spm_show_trial_num","null","<p class=block-text>Trial 53 out of 60</p>","null","","","","","","","","","","","","","","","","","","","","","","","","","",""
"","","","","","image-button-response","110","1337124","0.0-2.0-4.0-1.28","609ac8ca9e4928ec75d40a10","F1","batch6","spm_respsonse","6830.39999961853","img/question_5_5.jpeg","0","mat_53","1","1","1","6830.39999961853","","","","","","","","","","","","","","","","","","","","",""
"","","","","","html-keyboard-response","111","1338182","0.0-2.0-4.0-0.29","609ac8ca9e4928ec75d40a10","F1","batch6","spm_show_trial_num","null","<p class=block-text>Trial 54 out of 60</p>","null","","","","","","","","","","","","","","","","","","","","","","","","","",""
"","","","","","image-button-response","112","1370660","0.0-2.0-4.0-1.29","609ac8ca9e4928ec75d40a10","F1","batch6","spm_respsonse","32476","img/question_5_6.jpeg","7","mat_54","5","0","0","32476","","","","","","","","","","","","","","","","","","","","",""
"","","","","","html-keyboard-response","113","1371729","0.0-2.0-4.0-0.30","609ac8ca9e4928ec75d40a10","F1","batch6","spm_show_trial_num","null","<p class=block-text>Trial 55 out of 60</p>","null","","","","","","","","","","","","","","","","","","","","","","","","","",""
"","","","","","image-button-response","114","1386788","0.0-2.0-4.0-1.30","609ac8ca9e4928ec75d40a10","F1","batch6","spm_respsonse","15056.79999923706","img/question_5_7.jpeg","3","mat_55","1","0","0","15056.79999923706","","","","","","","","","","","","","","","","","","","","",""
"","","","","","html-keyboard-response","115","1387861","0.0-2.0-4.0-0.31","609ac8ca9e4928ec75d40a10","F1","batch6","spm_show_trial_num","null","<p class=block-text>Trial 56 out of 60</p>","null","","","","","","","","","","","","","","","","","","","","","","","","","",""
"","","","","","image-button-response","116","1391980","0.0-2.0-4.0-1.31","609ac8ca9e4928ec75d40a10","F1","batch6","spm_respsonse","4117","img/question_5_8.jpeg","6","mat_56","6","0","0","4117","","","","","","","","","","","","","","","","","","","","",""
"","","","","","html-keyboard-response","117","1393054","0.0-2.0-4.0-0.32","609ac8ca9e4928ec75d40a10","F1","batch6","spm_show_trial_num","null","<p class=block-text>Trial 57 out of 60</p>","null","","","","","","","","","","","","","","","","","","","","","","","","","",""
"","","","","","image-button-response","118","1400788","0.0-2.0-4.0-1.32","609ac8ca9e4928ec75d40a10","F1","batch6","spm_respsonse","7731.5","img/question_5_9.jpeg","7","mat_57","3","0","0","7731.5","","","","","","","","","","","","","","","","","","","","",""
"","","","","","html-keyboard-response","119","1401852","0.0-2.0-4.0-0.33","609ac8ca9e4928ec75d40a10","F1","batch6","spm_show_trial_num","null","<p class=block-text>Trial 58 out of 60</p>","null","","","","","","","","","","","","","","","","","","","","","","","","","",""
"","","","","","image-button-response","120","1407171","0.0-2.0-4.0-1.33","609ac8ca9e4928ec75d40a10","F1","batch6","spm_respsonse","5317.300001144409","img/question_5_10.jpeg","3","mat_58","2","0","0","5317.300001144409","","","","","","","","","","","","","","","","","","","","",""
"","","","","","html-keyboard-response","121","1408261","0.0-2.0-4.0-0.34","609ac8ca9e4928ec75d40a10","F1","batch6","spm_show_trial_num","null","<p class=block-text>Trial 59 out of 60</p>","null","","","","","","","","","","","","","","","","","","","","","","","","","",""
"","","","","","image-button-response","122","1412235","0.0-2.0-4.0-1.34","609ac8ca9e4928ec75d40a10","F1","batch6","spm_respsonse","3972.5","img/question_5_11.jpeg","6","mat_59","4","0","0","3972.5","","","","","","","","","","","","","","","","","","","","",""
"","","","","","html-keyboard-response","123","1413306","0.0-2.0-4.0-0.35","609ac8ca9e4928ec75d40a10","F1","batch6","spm_show_trial_num","null","<p class=block-text>Trial 60 out of 60</p>","null","","","","","","","","","","","","","","","","","","","","","","","","","",""
"","","","","","image-button-response","124","1418763","0.0-2.0-4.0-1.35","609ac8ca9e4928ec75d40a10","F1","batch6","spm_respsonse","5455.799999237061","img/question_5_12.jpeg","5","mat_60","5","0","0","5455.799999237061","","","","","","","","","","","","","","","","","","","","",""
"","","","","","html-button-response","125","1421827","0.0-2.0-5.0","609ac8ca9e4928ec75d40a10","F1","batch6","spm_goodbye","2811.900001525879","<p class= block-text>This concludes the Standard Progressive Matrix game. Thank you for your responses!<br> When you are ready, click the button continue</p>","0","","","","","","","","","","","","","","","","","","","","","","","","","",""
"true","","","","","fullscreen","126","1432515","0.0-3.0-0.0","609ac8ca9e4928ec75d40a10","F1","batch6","","","","","","","","","","","","","","","","","","","","","","","","","","","","","",""
"","","","","","instructions","127","1458235","0.0-3.0-1.0-0.0","609ac8ca9e4928ec75d40a10","F1","batch6","","25718.5","","","","","","","","[{""page_index"":0,""viewing_time"":16046.29999923706},{""page_index"":1,""viewing_time"":9671.80000114441}]","","","","","","","","","","","","","","","","","","","",""
"","","","","","html-button-response","128","1459043","0.0-3.0-1.0-1.0-0.0","609ac8ca9e4928ec75d40a10","F1","batch6","pattern_enter_quiz","807.1000003814697","<p class=block-text> Let's answer a few questions <br>","0","","","","","","","","","","","","","","","","","","","","","","","","","",""
"","","","","","html-button-response","129","1461651","0.0-3.0-1.0-1.0-1.0","609ac8ca9e4928ec75d40a10","F1","batch6","pattern_quiz","2606.8999996185303","<p class = block-text>True or False: You will have as much time as you want to make each choice. <br></p>","1","","","true","","","","","","","","","","","","","","","","","","","","","","",""
"","","","","","html-button-response","130","1462747","0.0-3.0-1.0-1.0-2.0","609ac8ca9e4928ec75d40a10","F1","batch6","pattern_quiz_feedback","1094.5","<p class = block-text>Correct! You should make your choice <strong> as fast as you can</strong>.</p>","0","","","","","","","","","","","","","","","","","","","","","","","","","",""
"","","","","","html-button-response","131","1466738","0.0-3.0-1.0-1.0-3.0","609ac8ca9e4928ec75d40a10","F1","batch6","pattern_quiz","3990.7999992370605","<p class = block-text>True or False: You will look for 4 pieces in black or white color connected in a row either horizontally, vertically or diagonally. <br></p>","0","","","true","","","","","","","","","","","","","","","","","","","","","","",""
"","","","","","html-button-response","132","1467475","0.0-3.0-1.0-1.0-4.0","609ac8ca9e4928ec75d40a10","F1","batch6","pattern_quiz_feedback","735","<p class = block-text>Correct! </p>","0","","","","","","","","","","","","","","","","","","","","","","","","","",""
"","","","","","html-button-response","133","1470179","0.0-3.0-2.0","609ac8ca9e4928ec75d40a10","F1","batch6","pattern_enter_practice","2702.2000007629395","<p class=block-text> Now that you've understood the game, let's do a few practice trials before we start!<br> <br>","0","","","","","","","","","","","","","","","","","","","","","","","","","",""
"","","","","","image-keyboard-response","134","1472119","0.0-3.0-3.0-0.0","609ac8ca9e4928ec75d40a10","F1","batch6","pattern_practice","1938.2000007629395","stim/prac_yes_18_hor_w1.png","f","","f","true","","","","","","","","","","","","","","","","","","","","","","",""
"","","","","","html-keyboard-response","135","1473149","0.0-3.0-3.0-1.0","609ac8ca9e4928ec75d40a10","F1","batch6","pattern_feedback","null","<p style=""font-size:30px;color:green;"">Correct!</p>","null","","","","","","","","","","","","","","","","","","","","","","","","","",""
"","","","","","image-keyboard-response","136","1474990","0.0-3.0-3.0-0.1","609ac8ca9e4928ec75d40a10","F1","batch6","pattern_practice","1839.599998474121","stim/prac_yes_20_dia_b1.png","f","","f","true","","","","","","","","","","","","","","","","","","","","","","",""
"","","","","","html-keyboard-response","137","1476020","0.0-3.0-3.0-1.1","609ac8ca9e4928ec75d40a10","F1","batch6","pattern_feedback","null","<p style=""font-size:30px;color:green;"">Correct!</p>","null","","","","","","","","","","","","","","","","","","","","","","","","","",""
"","","","","","image-keyboard-response","138","1477662","0.0-3.0-3.0-0.2","609ac8ca9e4928ec75d40a10","F1","batch6","pattern_practice","1641.3999996185303","stim/prac_no_18_1.png","j","","j","true","","","","","","","","","","","","","","","","","","","","","","",""
"","","","","","html-keyboard-response","139","1478686","0.0-3.0-3.0-1.2","609ac8ca9e4928ec75d40a10","F1","batch6","pattern_feedback","null","<p style=""font-size:30px;color:green;"">Correct!</p>","null","","","","","","","","","","","","","","","","","","","","","","","","","",""
"","","","","","image-keyboard-response","140","1479518","0.0-3.0-3.0-0.3","609ac8ca9e4928ec75d40a10","F1","batch6","pattern_practice","831.2000007629395","stim/prac_yes_16_ver_w1.png","f","","f","true","","","","","","","","","","","","","","","","","","","","","","",""
"","","","","","html-keyboard-response","141","1480552","0.0-3.0-3.0-1.3","609ac8ca9e4928ec75d40a10","F1","batch6","pattern_feedback","null","<p style=""font-size:30px;color:green;"">Correct!</p>","null","","","","","","","","","","","","","","","","","","","","","","","","","",""
"","","","","","image-keyboard-response","142","1482854","0.0-3.0-3.0-0.4","609ac8ca9e4928ec75d40a10","F1","batch6","pattern_practice","2301","stim/prac_no_16_1.png","j","","j","true","","","","","","","","","","","","","","","","","","","","","","",""
"","","","","","html-keyboard-response","143","1483886","0.0-3.0-3.0-1.4","609ac8ca9e4928ec75d40a10","F1","batch6","pattern_feedback","null","<p style=""font-size:30px;color:green;"">Correct!</p>","null","","","","","","","","","","","","","","","","","","","","","","","","","",""
"","","","","","html-button-response","144","1487195","0.0-3.0-4.0","609ac8ca9e4928ec75d40a10","F1","batch6","pattern_enter_official_trials","3306.5","<p class=block-text> Good job! You are done with practice trials!<br>
        You responded correctly on 100% of the trials.<br>
        Press the button below to start official trials. Now you won't see any feedback about your response</p>","0","","","","","","","","","","","","","","","","","","","","","","","","","",""
"","","","","","html-keyboard-response","145","1488008","0.0-3.0-5.0-0.0","609ac8ca9e4928ec75d40a10","F1","batch6","pattern_show_trial_num","null","<p class=block-text>Trial 1 out of 78</p>","null","","","","","","","","","","","","","","","","","","","","","","","","","",""
"","","","","","image-keyboard-response","146","1489150","0.0-3.0-5.0-1.0","609ac8ca9e4928ec75d40a10","F1","batch6","pattern_response","1140.900001525879","stim/yes_46_ver_b1_b.png","f","pattern_68","f","true","","","","1140.900001525879","true","1","","","","","","","","","","","","","","","","",""
"","","","","","html-keyboard-response","147","1490483","0.0-3.0-5.0-0.1","609ac8ca9e4928ec75d40a10","F1","batch6","pattern_show_trial_num","null","<p class=block-text>Trial 2 out of 78</p>","null","","","","","","","","","","","","","","","","","","","","","","","","","",""
"","","","","","image-keyboard-response","148","1491134","0.0-3.0-5.0-1.1","609ac8ca9e4928ec75d40a10","F1","batch6","pattern_response","649.5","stim/yes_29_hor_b1_b.png","f","pattern_52","f","true","","","","649.5","true","2","","","","","","","","","","","","","","","","",""
"","","","","","html-keyboard-response","149","1492453","0.0-3.0-5.0-0.2","609ac8ca9e4928ec75d40a10","F1","batch6","pattern_show_trial_num","null","<p class=block-text>Trial 3 out of 78</p>","null","","","","","","","","","","","","","","","","","","","","","","","","","",""
"","","","","","image-keyboard-response","150","1493334","0.0-3.0-5.0-1.2","609ac8ca9e4928ec75d40a10","F1","batch6","pattern_response","879.7999992370605","stim/yes_30_ver_b1_b.png","f","pattern_54","f","true","","","","879.7999992370605","true","3","","","","","","","","","","","","","","","","",""
"","","","","","html-keyboard-response","151","1494655","0.0-3.0-5.0-0.3","609ac8ca9e4928ec75d40a10","F1","batch6","pattern_show_trial_num","null","<p class=block-text>Trial 4 out of 78</p>","null","","","","","","","","","","","","","","","","","","","","","","","","","",""
"","","","","","image-keyboard-response","152","1496462","0.0-3.0-5.0-1.3","609ac8ca9e4928ec75d40a10","F1","batch6","pattern_response","1805.8999996185303","stim/no_47_1_b.png","j","pattern_27","j","true","","","","1805.8999996185303","true","4","","","","","","","","","","","","","","","","",""
"","","","","","html-keyboard-response","153","1497788","0.0-3.0-5.0-0.4","609ac8ca9e4928ec75d40a10","F1","batch6","pattern_show_trial_num","null","<p class=block-text>Trial 5 out of 78</p>","null","","","","","","","","","","","","","","","","","","","","","","","","","",""
"","","","","","image-keyboard-response","154","1500702","0.0-3.0-5.0-1.4","609ac8ca9e4928ec75d40a10","F1","batch6","pattern_response","2912","stim/no_39_1_w.png","j","pattern_21","j","true","","","","2912","true","5","","","","","","","","","","","","","","","","",""
"","","","","","html-keyboard-response","155","1502024","0.0-3.0-5.0-0.5","609ac8ca9e4928ec75d40a10","F1","batch6","pattern_show_trial_num","null","<p class=block-text>Trial 6 out of 78</p>","null","","","","","","","","","","","","","","","","","","","","","","","","","",""
"","","","","","image-keyboard-response","156","1504102","0.0-3.0-5.0-1.5","609ac8ca9e4928ec75d40a10","F1","batch6","pattern_response","2076.7000007629395","stim/yes_51_dia_b1.png","f","pattern_72","f","true","","","","2076.7000007629395","true","6","","","","","","","","","","","","","","","","",""
"","","","","","html-keyboard-response","157","1505424","0.0-3.0-5.0-0.6","609ac8ca9e4928ec75d40a10","F1","batch6","pattern_show_trial_num","null","<p class=block-text>Trial 7 out of 78</p>","null","","","","","","","","","","","","","","","","","","","","","","","","","",""
"","","","","","image-keyboard-response","158","1506342","0.0-3.0-5.0-1.6","609ac8ca9e4928ec75d40a10","F1","batch6","pattern_response","916.1000003814697","stim/yes_15_dia_b1u_b.png","f","pattern_44","f","true","","","","916.1000003814697","true","7","","","","","","","","","","","","","","","","",""
"","","","","","html-keyboard-response","159","1507659","0.0-3.0-5.0-0.7","609ac8ca9e4928ec75d40a10","F1","batch6","pattern_show_trial_num","null","<p class=block-text>Trial 8 out of 78</p>","null","","","","","","","","","","","","","","","","","","","","","","","","","",""
"","","","","","image-keyboard-response","160","1508262","0.0-3.0-5.0-1.7","609ac8ca9e4928ec75d40a10","F1","batch6","pattern_response","601.2999992370605","stim/yes_12_hor_w1_w.png","f","pattern_42","f","true","","","","601.2999992370605","true","8","","","","","","","","","","","","","","","","",""
"","","","","","html-keyboard-response","161","1509593","0.0-3.0-5.0-0.8","609ac8ca9e4928ec75d40a10","F1","batch6","pattern_show_trial_num","null","<p class=block-text>Trial 9 out of 78</p>","null","","","","","","","","","","","","","","","","","","","","","","","","","",""
"","","","","","image-keyboard-response","162","1512316","0.0-3.0-5.0-1.8","609ac8ca9e4928ec75d40a10","F1","batch6","pattern_response","2731.5","stim/no_53_1_b.png","j","pattern_33","j","true","","","","2731.5","true","9","","","","","","","","","","","","","","","","",""
"","","","","","html-keyboard-response","163","1513635","0.0-3.0-5.0-0.9","609ac8ca9e4928ec75d40a10","F1","batch6","pattern_show_trial_num","null","<p class=block-text>Trial 10 out of 78</p>","null","","","","","","","","","","","","","","","","","","","","","","","","","",""
"","","","","","image-keyboard-response","164","1514428","0.0-3.0-5.0-1.9","609ac8ca9e4928ec75d40a10","F1","batch6","pattern_response","791.7999992370605","stim/yes_37_hor_w1_w.png","f","pattern_60","f","true","","","","791.7999992370605","true","10","","","","","","","","","","","","","","","","",""
"","","","","","html-keyboard-response","165","1515752","0.0-3.0-5.0-0.10","609ac8ca9e4928ec75d40a10","F1","batch6","pattern_show_trial_num","null","<p class=block-text>Trial 11 out of 78</p>","null","","","","","","","","","","","","","","","","","","","","","","","","","",""
"","","","","","image-keyboard-response","166","1518132","0.0-3.0-5.0-1.10","609ac8ca9e4928ec75d40a10","F1","batch6","pattern_response","2378.699998855591","stim/no_58_1_w.png","j","pattern_35","j","true","","","","2378.699998855591","true","11","","","","","","","","","","","","","","","","",""
"","","","","","html-keyboard-response","167","1519453","0.0-3.0-5.0-0.11","609ac8ca9e4928ec75d40a10","F1","batch6","pattern_show_trial_num","null","<p class=block-text>Trial 12 out of 78</p>","null","","","","","","","","","","","","","","","","","","","","","","","","","",""
"","","","","","image-keyboard-response","168","1523924","0.0-3.0-5.0-1.11","609ac8ca9e4928ec75d40a10","F1","batch6","pattern_response","4469.10000038147","stim/yes_63_dia_b1.png","j","pattern_78","f","false","","","","4469.10000038147","false","11","","","","","","","","","","","","","","","","",""
"","","","","","html-keyboard-response","169","1525239","0.0-3.0-5.0-0.12","609ac8ca9e4928ec75d40a10","F1","batch6","pattern_show_trial_num","null","<p class=block-text>Trial 13 out of 78</p>","null","","","","","","","","","","","","","","","","","","","","","","","","","",""
"","","","","","image-keyboard-response","170","1528876","0.0-3.0-5.0-1.12","609ac8ca9e4928ec75d40a10","F1","batch6","pattern_response","3635.8999996185303","stim/no_51_1.png","j","pattern_31","j","true","","","","3635.8999996185303","true","12","","","","","","","","","","","","","","","","",""
"","","","","","html-keyboard-response","171","1530208","0.0-3.0-5.0-0.13","609ac8ca9e4928ec75d40a10","F1","batch6","pattern_show_trial_num","null","<p class=block-text>Trial 14 out of 78</p>","null","","","","","","","","","","","","","","","","","","","","","","","","","",""
"","","","","","image-keyboard-response","172","1533972","0.0-3.0-5.0-1.13","609ac8ca9e4928ec75d40a10","F1","batch6","pattern_response","3762.3999996185303","stim/no_37_2_w.png","j","pattern_19","j","true","","","","3762.3999996185303","true","13","","","","","","","","","","","","","","","","",""
"","","","","","html-keyboard-response","173","1535293","0.0-3.0-5.0-0.14","609ac8ca9e4928ec75d40a10","F1","batch6","pattern_show_trial_num","null","<p class=block-text>Trial 15 out of 78</p>","null","","","","","","","","","","","","","","","","","","","","","","","","","",""
"","","","","","image-keyboard-response","174","1536420","0.0-3.0-5.0-1.14","609ac8ca9e4928ec75d40a10","F1","batch6","pattern_response","1125","stim/no_12_1.png","j","pattern_01","j","true","","","","1125","true","14","","","","","","","","","","","","","","","","",""
"","","","","","html-keyboard-response","175","1537744","0.0-3.0-5.0-0.15","609ac8ca9e4928ec75d40a10","F1","batch6","pattern_show_trial_num","null","<p class=block-text>Trial 16 out of 78</p>","null","","","","","","","","","","","","","","","","","","","","","","","","","",""
"","","","","","image-keyboard-response","176","1539860","0.0-3.0-5.0-1.15","609ac8ca9e4928ec75d40a10","F1","batch6","pattern_response","2114.400001525879","stim/no_30_1_b.png","j","pattern_13","j","true","","","","2114.400001525879","true","15","","","","","","","","","","","","","","","","",""
"","","","","","html-keyboard-response","177","1541179","0.0-3.0-5.0-0.16","609ac8ca9e4928ec75d40a10","F1","batch6","pattern_show_trial_num","null","<p class=block-text>Trial 17 out of 78</p>","null","","","","","","","","","","","","","","","","","","","","","","","","","",""
"","","","","","image-keyboard-response","178","1542204","0.0-3.0-5.0-1.16","609ac8ca9e4928ec75d40a10","F1","batch6","pattern_response","1023.1000003814697","stim/yes_23_ver_b1.png","f","pattern_48","f","true","","","","1023.1000003814697","true","16","","","","","","","","","","","","","","","","",""
"","","","","","html-keyboard-response","179","1543529","0.0-3.0-5.0-0.17","609ac8ca9e4928ec75d40a10","F1","batch6","pattern_show_trial_num","null","<p class=block-text>Trial 18 out of 78</p>","null","","","","","","","","","","","","","","","","","","","","","","","","","",""
"","","","","","image-keyboard-response","180","1546484","0.0-3.0-5.0-1.17","609ac8ca9e4928ec75d40a10","F1","batch6","pattern_response","2949.599998474121","stim/no_28_2.png","j","pattern_11","j","true","","","","2949.599998474121","true","17","","","","","","","","","","","","","","","","",""
"","","","","","html-keyboard-response","181","1547815","0.0-3.0-5.0-0.18","609ac8ca9e4928ec75d40a10","F1","batch6","pattern_show_trial_num","null","<p class=block-text>Trial 19 out of 78</p>","null","","","","","","","","","","","","","","","","","","","","","","","","","",""
"","","","","","image-keyboard-response","182","1549068","0.0-3.0-5.0-1.18","609ac8ca9e4928ec75d40a10","F1","batch6","pattern_response","1251.6999988555908","stim/yes_53_ver_b1_b.png","f","pattern_74","f","true","","","","1251.6999988555908","true","18","","","","","","","","","","","","","","","","",""
"","","","","","html-keyboard-response","183","1550399","0.0-3.0-5.0-0.19","609ac8ca9e4928ec75d40a10","F1","batch6","pattern_show_trial_num","null","<p class=block-text>Trial 20 out of 78</p>","null","","","","","","","","","","","","","","","","","","","","","","","","","",""
"","","","","","image-keyboard-response","184","1552924","0.0-3.0-5.0-1.19","609ac8ca9e4928ec75d40a10","F1","batch6","pattern_response","2524.1000003814697","stim/yes_42_dia_w1_w.png","j","pattern_64","f","false","","","","2524.1000003814697","false","18","","","","","","","","","","","","","","","","",""
"","","","","","html-keyboard-response","185","1554250","0.0-3.0-5.0-0.20","609ac8ca9e4928ec75d40a10","F1","batch6","pattern_show_trial_num","null","<p class=block-text>Trial 21 out of 78</p>","null","","","","","","","","","","","","","","","","","","","","","","","","","",""
"","","","","","image-keyboard-response","186","1558260","0.0-3.0-5.0-1.20","609ac8ca9e4928ec75d40a10","F1","batch6","pattern_response","4008.3999996185303","stim/no_45_1_w.png","j","pattern_25","j","true","","","","4008.3999996185303","true","19","","","","","","","","","","","","","","","","",""
"","","","","","html-keyboard-response","187","1559586","0.0-3.0-5.0-0.21","609ac8ca9e4928ec75d40a10","F1","batch6","pattern_show_trial_num","null","<p class=block-text>Trial 22 out of 78</p>","null","","","","","","","","","","","","","","","","","","","","","","","","","",""
"","","","","","image-keyboard-response","188","1560476","0.0-3.0-5.0-1.21","609ac8ca9e4928ec75d40a10","F1","batch6","pattern_response","888.3000011444092","stim/yes_26_dia_w2_w.png","f","pattern_50","f","true","","","","888.3000011444092","true","20","","","","","","","","","","","","","","","","",""
"","","","","","html-keyboard-response","189","1561803","0.0-3.0-5.0-0.22","609ac8ca9e4928ec75d40a10","F1","batch6","pattern_show_trial_num","null","<p class=block-text>Trial 23 out of 78</p>","null","","","","","","","","","","","","","","","","","","","","","","","","","",""
"","","","","","image-keyboard-response","190","1563964","0.0-3.0-5.0-1.22","609ac8ca9e4928ec75d40a10","F1","batch6","pattern_response","2159.6000003814697","stim/no_15_1_w.png","j","pattern_03","j","true","","","","2159.6000003814697","true","21","","","","","","","","","","","","","","","","",""
"","","","","","html-keyboard-response","191","1565287","0.0-3.0-5.0-0.23","609ac8ca9e4928ec75d40a10","F1","batch6","pattern_show_trial_num","null","<p class=block-text>Trial 24 out of 78</p>","null","","","","","","","","","","","","","","","","","","","","","","","","","",""
"","","","","","image-keyboard-response","192","1567092","0.0-3.0-5.0-1.23","609ac8ca9e4928ec75d40a10","F1","batch6","pattern_response","1803","stim/no_18_1_b.png","j","pattern_05","j","true","","","","1803","true","22","","","","","","","","","","","","","","","","",""
"","","","","","html-keyboard-response","193","1568422","0.0-3.0-5.0-0.24","609ac8ca9e4928ec75d40a10","F1","batch6","pattern_show_trial_num","null","<p class=block-text>Trial 25 out of 78</p>","null","","","","","","","","","","","","","","","","","","","","","","","","","",""
"","","","","","image-keyboard-response","194","1570972","0.0-3.0-5.0-1.24","609ac8ca9e4928ec75d40a10","F1","batch6","pattern_response","2547.7000007629395","stim/no_25_1_b.png","j","pattern_09","j","true","","","","2547.7000007629395","true","23","","","","","","","","","","","","","","","","",""
"","","","","","html-keyboard-response","195","1572292","0.0-3.0-5.0-0.25","609ac8ca9e4928ec75d40a10","F1","batch6","pattern_show_trial_num","null","<p class=block-text>Trial 26 out of 78</p>","null","","","","","","","","","","","","","","","","","","","","","","","","","",""
"","","","","","image-keyboard-response","196","1573366","0.0-3.0-5.0-1.25","609ac8ca9e4928ec75d40a10","F1","batch6","pattern_response","1077.8999996185303","stim/yes_39_hor_w1_w.png","f","pattern_62","f","true","","","","1077.8999996185303","true","24","","","","","","","","","","","","","","","","",""
"","","","","","html-keyboard-response","197","1574686","0.0-3.0-5.0-0.26","609ac8ca9e4928ec75d40a10","F1","batch6","pattern_show_trial_num","null","<p class=block-text>Trial 27 out of 78</p>","null","","","","","","","","","","","","","","","","","","","","","","","","","",""
"","","","","","image-keyboard-response","198","1578103","0.0-3.0-5.0-1.26","609ac8ca9e4928ec75d40a10","F1","batch6","pattern_response","3415.2000007629395","stim/no_43_2_b.png","j","pattern_23","j","true","","","","3415.2000007629395","true","25","","","","","","","","","","","","","","","","",""
"","","","","","html-keyboard-response","199","1579423","0.0-3.0-5.0-0.27","609ac8ca9e4928ec75d40a10","F1","batch6","pattern_show_trial_num","null","<p class=block-text>Trial 28 out of 78</p>","null","","","","","","","","","","","","","","","","","","","","","","","","","",""
"","","","","","image-keyboard-response","200","1583502","0.0-3.0-5.0-1.27","609ac8ca9e4928ec75d40a10","F1","batch6","pattern_response","4077.8999996185303","stim/yes_44_ver_w1_w.png","j","pattern_66","f","false","","","","4077.8999996185303","false","25","","","","","","","","","","","","","","","","",""
"","","","","","html-keyboard-response","201","1584824","0.0-3.0-5.0-0.28","609ac8ca9e4928ec75d40a10","F1","batch6","pattern_show_trial_num","null","<p class=block-text>Trial 29 out of 78</p>","null","","","","","","","","","","","","","","","","","","","","","","","","","",""
"","","","","","image-keyboard-response","202","1585766","0.0-3.0-5.0-1.28","609ac8ca9e4928ec75d40a10","F1","batch6","pattern_response","941","stim/yes_17_ver_b1_b.png","f","pattern_46","f","true","","","","941","true","26","","","","","","","","","","","","","","","","",""
"","","","","","html-keyboard-response","203","1587091","0.0-3.0-5.0-0.29","609ac8ca9e4928ec75d40a10","F1","batch6","pattern_show_trial_num","null","<p class=block-text>Trial 30 out of 78</p>","null","","","","","","","","","","","","","","","","","","","","","","","","","",""
"","","","","","image-keyboard-response","204","1589390","0.0-3.0-5.0-1.29","609ac8ca9e4928ec75d40a10","F1","batch6","pattern_response","2298.300001144409","stim/no_22_1_b.png","j","pattern_07","j","true","","","","2298.300001144409","true","27","","","","","","","","","","","","","","","","",""
"","","","","","html-keyboard-response","205","1590727","0.0-3.0-5.0-0.30","609ac8ca9e4928ec75d40a10","F1","batch6","pattern_show_trial_num","null","<p class=block-text>Trial 31 out of 78</p>","null","","","","","","","","","","","","","","","","","","","","","","","","","",""
"","","","","","image-keyboard-response","206","1591942","0.0-3.0-5.0-1.30","609ac8ca9e4928ec75d40a10","F1","batch6","pattern_response","1214","stim/yes_33_dia_w1_w.png","f","pattern_56","f","true","","","","1214","true","28","","","","","","","","","","","","","","","","",""
"","","","","","html-keyboard-response","207","1593277","0.0-3.0-5.0-0.31","609ac8ca9e4928ec75d40a10","F1","batch6","pattern_show_trial_num","null","<p class=block-text>Trial 32 out of 78</p>","null","","","","","","","","","","","","","","","","","","","","","","","","","",""
"","","","","","image-keyboard-response","208","1594038","0.0-3.0-5.0-1.31","609ac8ca9e4928ec75d40a10","F1","batch6","pattern_response","759.8999996185303","stim/yes_36_ver_w1_w.png","f","pattern_58","f","true","","","","759.8999996185303","true","29","","","","","","","","","","","","","","","","",""
"","","","","","html-keyboard-response","209","1595361","0.0-3.0-5.0-0.32","609ac8ca9e4928ec75d40a10","F1","batch6","pattern_show_trial_num","null","<p class=block-text>Trial 33 out of 78</p>","null","","","","","","","","","","","","","","","","","","","","","","","","","",""
"","","","","","image-keyboard-response","210","1598878","0.0-3.0-5.0-1.32","609ac8ca9e4928ec75d40a10","F1","batch6","pattern_response","3516.6000003814697","stim/no_67_1.png","j","pattern_39","j","true","","","","3516.6000003814697","true","30","","","","","","","","","","","","","","","","",""
"","","","","","html-keyboard-response","211","1600214","0.0-3.0-5.0-0.33","609ac8ca9e4928ec75d40a10","F1","batch6","pattern_show_trial_num","null","<p class=block-text>Trial 34 out of 78</p>","null","","","","","","","","","","","","","","","","","","","","","","","","","",""
"","","","","","image-keyboard-response","212","1601686","0.0-3.0-5.0-1.33","609ac8ca9e4928ec75d40a10","F1","batch6","pattern_response","1470.8999996185303","stim/no_33_1_b.png","j","pattern_15","j","true","","","","1470.8999996185303","true","31","","","","","","","","","","","","","","","","",""
"","","","","","html-keyboard-response","213","1603013","0.0-3.0-5.0-0.34","609ac8ca9e4928ec75d40a10","F1","batch6","pattern_show_trial_num","null","<p class=block-text>Trial 35 out of 78</p>","null","","","","","","","","","","","","","","","","","","","","","","","","","",""
"","","","","","image-keyboard-response","214","1607046","0.0-3.0-5.0-1.34","609ac8ca9e4928ec75d40a10","F1","batch6","pattern_response","4031.5","stim/yes_58_dia_w1_w.png","j","pattern_76","f","false","","","","4031.5","false","31","","","","","","","","","","","","","","","","",""
"","","","","","html-keyboard-response","215","1608366","0.0-3.0-5.0-0.35","609ac8ca9e4928ec75d40a10","F1","batch6","pattern_show_trial_num","null","<p class=block-text>Trial 36 out of 78</p>","null","","","","","","","","","","","","","","","","","","","","","","","","","",""
"","","","","","image-keyboard-response","216","1610910","0.0-3.0-5.0-1.35","609ac8ca9e4928ec75d40a10","F1","batch6","pattern_response","2542.3999996185303","stim/no_49_2_b.png","j","pattern_29","j","true","","","","2542.3999996185303","true","32","","","","","","","","","","","","","","","","",""
"","","","","","html-keyboard-response","217","1612233","0.0-3.0-5.0-0.36","609ac8ca9e4928ec75d40a10","F1","batch6","pattern_show_trial_num","null","<p class=block-text>Trial 37 out of 78</p>","null","","","","","","","","","","","","","","","","","","","","","","","","","",""
"","","","","","image-keyboard-response","218","1614670","0.0-3.0-5.0-1.36","609ac8ca9e4928ec75d40a10","F1","batch6","pattern_response","2435.199998855591","stim/no_36_1_b.png","j","pattern_17","j","true","","","","2435.199998855591","true","33","","","","","","","","","","","","","","","","",""
"","","","","","html-keyboard-response","219","1616001","0.0-3.0-5.0-0.37","609ac8ca9e4928ec75d40a10","F1","batch6","pattern_show_trial_num","null","<p class=block-text>Trial 38 out of 78</p>","null","","","","","","","","","","","","","","","","","","","","","","","","","",""
"","","","","","image-keyboard-response","220","1618934","0.0-3.0-5.0-1.37","609ac8ca9e4928ec75d40a10","F1","batch6","pattern_response","2931.2000007629395","stim/yes_70_ver_b1.png","f","pattern_80","f","true","","","","2931.2000007629395","true","34","","","","","","","","","","","","","","","","",""
"","","","","","html-keyboard-response","221","1620255","0.0-3.0-5.0-0.38","609ac8ca9e4928ec75d40a10","F1","batch6","pattern_show_trial_num","null","<p class=block-text>Trial 39 out of 78</p>","null","","","","","","","","","","","","","","","","","","","","","","","","","",""
"","","","","","image-keyboard-response","222","1621326","0.0-3.0-5.0-1.38","609ac8ca9e4928ec75d40a10","F1","batch6","pattern_response","1069.1000003814697","stim/yes_49_hor_w1_b.png","f","pattern_70","f","true","","","","1069.1000003814697","true","35","","","","","","","","","","","","","","","","",""
"","","","","","image-keyboard-response","223","1623886","0.0-3.0-6.0","609ac8ca9e4928ec75d40a10","F1","batch6","attention_check","2043.6000003814697","stim/empty_board.png","j","","j","true","","","","","","","500","[""f"",""j""]","","","","","","","","","","","","","","",""
"","","","","","html-keyboard-response","224","1624690","0.0-3.0-7.0-0.0","609ac8ca9e4928ec75d40a10","F1","batch6","pattern_show_trial_num","null","<p class=block-text>Trial 40 out of 78</p>","null","","","","","","","","","","","","","","","","","","","","","","","","","",""
"","","","","","image-keyboard-response","225","1626662","0.0-3.0-7.0-1.0","609ac8ca9e4928ec75d40a10","F1","batch6","pattern_response","1966.7999992370605","stim/no_17_1_w.png","j","pattern_04","j","true","","","","1966.7999992370605","true","36","","","","","","","","","","","","","","","","",""
"","","","","","html-keyboard-response","226","1627990","0.0-3.0-7.0-0.1","609ac8ca9e4928ec75d40a10","F1","batch6","pattern_show_trial_num","null","<p class=block-text>Trial 41 out of 78</p>","null","","","","","","","","","","","","","","","","","","","","","","","","","",""
"","","","","","image-keyboard-response","227","1631158","0.0-3.0-7.0-1.1","609ac8ca9e4928ec75d40a10","F1","batch6","pattern_response","3166.3999996185303","stim/no_36_2_w.png","j","pattern_18","j","true","","","","3166.3999996185303","true","37","","","","","","","","","","","","","","","","",""
"","","","","","html-keyboard-response","228","1632492","0.0-3.0-7.0-0.2","609ac8ca9e4928ec75d40a10","F1","batch6","pattern_show_trial_num","null","<p class=block-text>Trial 42 out of 78</p>","null","","","","","","","","","","","","","","","","","","","","","","","","","",""
"","","","","","image-keyboard-response","229","1633526","0.0-3.0-7.0-1.2","609ac8ca9e4928ec75d40a10","F1","batch6","pattern_response","1024.7999992370605","stim/yes_25_hor_b1_b.png","f","pattern_49","f","true","","","","1024.7999992370605","true","38","","","","","","","","","","","","","","","","",""
"","","","","","html-keyboard-response","230","1634851","0.0-3.0-7.0-0.3","609ac8ca9e4928ec75d40a10","F1","batch6","pattern_show_trial_num","null","<p class=block-text>Trial 43 out of 78</p>","null","","","","","","","","","","","","","","","","","","","","","","","","","",""
"","","","","","image-keyboard-response","231","1636582","0.0-3.0-7.0-1.3","609ac8ca9e4928ec75d40a10","F1","batch6","pattern_response","1730.1999988555908","stim/yes_52_ver_w1.png","f","pattern_73","f","true","","","","1730.1999988555908","true","39","","","","","","","","","","","","","","","","",""
"","","","","","html-keyboard-response","232","1637902","0.0-3.0-7.0-0.4","609ac8ca9e4928ec75d40a10","F1","batch6","pattern_show_trial_num","null","<p class=block-text>Trial 44 out of 78</p>","null","","","","","","","","","","","","","","","","","","","","","","","","","",""
"","","","","","image-keyboard-response","233","1639686","0.0-3.0-7.0-1.4","609ac8ca9e4928ec75d40a10","F1","batch6","pattern_response","1782.7000007629395","stim/yes_37_dia_w1.png","f","pattern_59","f","true","","","","1782.7000007629395","true","40","","","","","","","","","","","","","","","","",""
"","","","","","html-keyboard-response","234","1641018","0.0-3.0-7.0-0.5","609ac8ca9e4928ec75d40a10","F1","batch6","pattern_show_trial_num","null","<p class=block-text>Trial 45 out of 78</p>","null","","","","","","","","","","","","","","","","","","","","","","","","","",""
"","","","","","image-keyboard-response","235","1642278","0.0-3.0-7.0-1.5","609ac8ca9e4928ec75d40a10","F1","batch6","pattern_response","1258.3000011444092","stim/no_20_1_w.png","j","pattern_06","j","true","","","","1258.3000011444092","true","41","","","","","","","","","","","","","","","","",""
"","","","","","html-keyboard-response","236","1643604","0.0-3.0-7.0-0.6","609ac8ca9e4928ec75d40a10","F1","batch6","pattern_show_trial_num","null","<p class=block-text>Trial 46 out of 78</p>","null","","","","","","","","","","","","","","","","","","","","","","","","","",""
"","","","","","image-keyboard-response","237","1647734","0.0-3.0-7.0-1.6","609ac8ca9e4928ec75d40a10","F1","batch6","pattern_response","4128.700000762939","stim/no_50_1.png","j","pattern_30","j","true","","","","4128.700000762939","true","42","","","","","","","","","","","","","","","","",""
"","","","","","html-keyboard-response","238","1649056","0.0-3.0-7.0-0.7","609ac8ca9e4928ec75d40a10","F1","batch6","pattern_show_trial_num","null","<p class=block-text>Trial 47 out of 78</p>","null","","","","","","","","","","","","","","","","","","","","","","","","","",""
"","","","","","image-keyboard-response","239","1649870","0.0-3.0-7.0-1.7","609ac8ca9e4928ec75d40a10","F1","batch6","pattern_response","812.5","stim/yes_22_ver_w1.png","f","pattern_47","f","true","","","","812.5","true","43","","","","","","","","","","","","","","","","",""
"","","","","","html-keyboard-response","240","1651190","0.0-3.0-7.0-0.8","609ac8ca9e4928ec75d40a10","F1","batch6","pattern_show_trial_num","null","<p class=block-text>Trial 48 out of 78</p>","null","","","","","","","","","","","","","","","","","","","","","","","","","",""
"","","","","","image-keyboard-response","241","1652894","0.0-3.0-7.0-1.8","609ac8ca9e4928ec75d40a10","F1","batch6","pattern_response","1702.900001525879","stim/no_23_1.png","j","pattern_08","j","true","","","","1702.900001525879","true","44","","","","","","","","","","","","","","","","",""
"","","","","","html-keyboard-response","242","1654225","0.0-3.0-7.0-0.9","609ac8ca9e4928ec75d40a10","F1","batch6","pattern_show_trial_num","null","<p class=block-text>Trial 49 out of 78</p>","null","","","","","","","","","","","","","","","","","","","","","","","","","",""
"","","","","","image-keyboard-response","243","1657502","0.0-3.0-7.0-1.9","609ac8ca9e4928ec75d40a10","F1","batch6","pattern_response","3275.2000007629395","stim/yes_40_dia_b1_b.png","j","pattern_63","f","false","","","","3275.2000007629395","false","44","","","","","","","","","","","","","","","","",""
"","","","","","html-keyboard-response","244","1658826","0.0-3.0-7.0-0.10","609ac8ca9e4928ec75d40a10","F1","batch6","pattern_show_trial_num","null","<p class=block-text>Trial 50 out of 78</p>","null","","","","","","","","","","","","","","","","","","","","","","","","","",""
"","","","","","image-keyboard-response","245","1661462","0.0-3.0-7.0-1.10","609ac8ca9e4928ec75d40a10","F1","batch6","pattern_response","2633.8999996185303","stim/yes_50_dia_w1.png","f","pattern_71","f","true","","","","2633.8999996185303","true","45","","","","","","","","","","","","","","","","",""
"","","","","","html-keyboard-response","246","1662794","0.0-3.0-7.0-0.11","609ac8ca9e4928ec75d40a10","F1","batch6","pattern_show_trial_num","null","<p class=block-text>Trial 51 out of 78</p>","null","","","","","","","","","","","","","","","","","","","","","","","","","",""
"","","","","","image-keyboard-response","247","1664054","0.0-3.0-7.0-1.11","609ac8ca9e4928ec75d40a10","F1","batch6","pattern_response","1257.6000003814697","stim/yes_28_ver_b1.png","f","pattern_51","f","true","","","","1257.6000003814697","true","46","","","","","","","","","","","","","","","","",""
"","","","","","html-keyboard-response","248","1665379","0.0-3.0-7.0-0.12","609ac8ca9e4928ec75d40a10","F1","batch6","pattern_show_trial_num","null","<p class=block-text>Trial 52 out of 78</p>","null","","","","","","","","","","","","","","","","","","","","","","","","","",""
"","","","","","image-keyboard-response","249","1668110","0.0-3.0-7.0-1.12","609ac8ca9e4928ec75d40a10","F1","batch6","pattern_response","2729.5","stim/no_46_1_b.png","j","pattern_26","j","true","","","","2729.5","true","47","","","","","","","","","","","","","","","","",""
"","","","","","html-keyboard-response","250","1669430","0.0-3.0-7.0-0.13","609ac8ca9e4928ec75d40a10","F1","batch6","pattern_show_trial_num","null","<p class=block-text>Trial 53 out of 78</p>","null","","","","","","","","","","","","","","","","","","","","","","","","","",""
"","","","","","image-keyboard-response","251","1672630","0.0-3.0-7.0-1.13","609ac8ca9e4928ec75d40a10","F1","batch6","pattern_response","3198","stim/no_26_1_w.png","j","pattern_10","j","true","","","","3198","true","48","","","","","","","","","","","","","","","","",""
"","","","","","html-keyboard-response","252","1673951","0.0-3.0-7.0-0.14","609ac8ca9e4928ec75d40a10","F1","batch6","pattern_show_trial_num","null","<p class=block-text>Trial 54 out of 78</p>","null","","","","","","","","","","","","","","","","","","","","","","","","","",""
"","","","","","image-keyboard-response","253","1676918","0.0-3.0-7.0-1.14","609ac8ca9e4928ec75d40a10","F1","batch6","pattern_response","2965.5","stim/no_38_1_b.png","j","pattern_20","j","true","","","","2965.5","true","49","","","","","","","","","","","","","","","","",""
"","","","","","html-keyboard-response","254","1678250","0.0-3.0-7.0-0.15","609ac8ca9e4928ec75d40a10","F1","batch6","pattern_show_trial_num","null","<p class=block-text>Trial 55 out of 78</p>","null","","","","","","","","","","","","","","","","","","","","","","","","","",""
"","","","","","image-keyboard-response","255","1679573","0.0-3.0-7.0-1.15","609ac8ca9e4928ec75d40a10","F1","batch6","pattern_response","1321.5","stim/no_32_1_w.png","j","pattern_14","j","true","","","","1321.5","true","50","","","","","","","","","","","","","","","","",""
"","","","","","html-keyboard-response","256","1680901","0.0-3.0-7.0-0.16","609ac8ca9e4928ec75d40a10","F1","batch6","pattern_show_trial_num","null","<p class=block-text>Trial 56 out of 78</p>","null","","","","","","","","","","","","","","","","","","","","","","","","","",""
"","","","","","image-keyboard-response","257","1684902","0.0-3.0-7.0-1.16","609ac8ca9e4928ec75d40a10","F1","batch6","pattern_response","3998.7000007629395","stim/no_62_1_w.png","j","pattern_36","j","true","","","","3998.7000007629395","true","51","","","","","","","","","","","","","","","","",""
"","","","","","html-keyboard-response","258","1686244","0.0-3.0-7.0-0.17","609ac8ca9e4928ec75d40a10","F1","batch6","pattern_show_trial_num","null","<p class=block-text>Trial 57 out of 78</p>","null","","","","","","","","","","","","","","","","","","","","","","","","","",""
"","","","","","image-keyboard-response","259","1688645","0.0-3.0-7.0-1.17","609ac8ca9e4928ec75d40a10","F1","batch6","pattern_response","2399.6000003814697","stim/no_48_1_w.png","j","pattern_28","j","true","","","","2399.6000003814697","true","52","","","","","","","","","","","","","","","","",""
"","","","","","html-keyboard-response","260","1689971","0.0-3.0-7.0-0.18","609ac8ca9e4928ec75d40a10","F1","batch6","pattern_show_trial_num","null","<p class=block-text>Trial 58 out of 78</p>","null","","","","","","","","","","","","","","","","","","","","","","","","","",""
"","","","","","image-keyboard-response","261","1692125","0.0-3.0-7.0-1.18","609ac8ca9e4928ec75d40a10","F1","batch6","pattern_response","2152.900001525879","stim/yes_67_hor_b1.png","f","pattern_79","f","true","","","","2152.900001525879","true","53","","","","","","","","","","","","","","","","",""
"","","","","","html-keyboard-response","262","1693456","0.0-3.0-7.0-0.19","609ac8ca9e4928ec75d40a10","F1","batch6","pattern_show_trial_num","null","<p class=block-text>Trial 59 out of 78</p>","null","","","","","","","","","","","","","","","","","","","","","","","","","",""
"","","","","","image-keyboard-response","263","1697701","0.0-3.0-7.0-1.19","609ac8ca9e4928ec75d40a10","F1","batch6","pattern_response","4251.5","stim/no_65_1_b.png","j","pattern_38","j","true","","","","4251.5","true","54","","","","","","","","","","","","","","","","",""
"","","","","","html-keyboard-response","264","1699033","0.0-3.0-7.0-0.20","609ac8ca9e4928ec75d40a10","F1","batch6","pattern_show_trial_num","null","<p class=block-text>Trial 60 out of 78</p>","null","","","","","","","","","","","","","","","","","","","","","","","","","",""
"","","","","","image-keyboard-response","265","1701181","0.0-3.0-7.0-1.20","609ac8ca9e4928ec75d40a10","F1","batch6","pattern_response","2146","stim/no_29_1_b.png","j","pattern_12","j","true","","","","2146","true","55","","","","","","","","","","","","","","","","",""
"","","","","","html-keyboard-response","266","1702501","0.0-3.0-7.0-0.21","609ac8ca9e4928ec75d40a10","F1","batch6","pattern_show_trial_num","null","<p class=block-text>Trial 61 out of 78</p>","null","","","","","","","","","","","","","","","","","","","","","","","","","",""
"","","","","","image-keyboard-response","267","1704893","0.0-3.0-7.0-1.21","609ac8ca9e4928ec75d40a10","F1","batch6","pattern_response","2390.2999992370605","stim/no_55_1_w.png","j","pattern_34","j","true","","","","2390.2999992370605","true","56","","","","","","","","","","","","","","","","",""
"","","","","","html-keyboard-response","268","1706220","0.0-3.0-7.0-0.22","609ac8ca9e4928ec75d40a10","F1","batch6","pattern_show_trial_num","null","<p class=block-text>Trial 62 out of 78</p>","null","","","","","","","","","","","","","","","","","","","","","","","","","",""
"","","","","","image-keyboard-response","269","1706989","0.0-3.0-7.0-1.22","609ac8ca9e4928ec75d40a10","F1","batch6","pattern_response","766.6000003814697","stim/yes_14_hor_b1_w.png","f","pattern_43","f","true","","","","766.6000003814697","true","57","","","","","","","","","","","","","","","","",""
"","","","","","html-keyboard-response","270","1708319","0.0-3.0-7.0-0.23","609ac8ca9e4928ec75d40a10","F1","batch6","pattern_show_trial_num","null","<p class=block-text>Trial 63 out of 78</p>","null","","","","","","","","","","","","","","","","","","","","","","","","","",""
"","","","","","image-keyboard-response","271","1710973","0.0-3.0-7.0-1.23","609ac8ca9e4928ec75d40a10","F1","batch6","pattern_response","2652.2000007629395","stim/no_52_1.png","j","pattern_32","j","true","","","","2652.2000007629395","true","58","","","","","","","","","","","","","","","","",""
"","","","","","html-keyboard-response","272","1712305","0.0-3.0-7.0-0.24","609ac8ca9e4928ec75d40a10","F1","batch6","pattern_show_trial_num","null","<p class=block-text>Trial 64 out of 78</p>","null","","","","","","","","","","","","","","","","","","","","","","","","","",""
"","","","","","image-keyboard-response","273","1714925","0.0-3.0-7.0-1.24","609ac8ca9e4928ec75d40a10","F1","batch6","pattern_response","2618.3999996185303","stim/no_44_1.png","j","pattern_24","j","true","","","","2618.3999996185303","true","59","","","","","","","","","","","","","","","","",""
"","","","","","html-keyboard-response","274","1716256","0.0-3.0-7.0-0.25","609ac8ca9e4928ec75d40a10","F1","batch6","pattern_show_trial_num","null","<p class=block-text>Trial 65 out of 78</p>","null","","","","","","","","","","","","","","","","","","","","","","","","","",""
"","","","","","image-keyboard-response","275","1717580","0.0-3.0-7.0-1.25","609ac8ca9e4928ec75d40a10","F1","batch6","pattern_response","1323","stim/yes_17_dia_w1.png","f","pattern_45","f","true","","","","1323","true","60","","","","","","","","","","","","","","","","",""
"","","","","","html-keyboard-response","276","1718907","0.0-3.0-7.0-0.26","609ac8ca9e4928ec75d40a10","F1","batch6","pattern_show_trial_num","null","<p class=block-text>Trial 66 out of 78</p>","null","","","","","","","","","","","","","","","","","","","","","","","","","",""
"","","","","","image-keyboard-response","277","1720884","0.0-3.0-7.0-1.26","609ac8ca9e4928ec75d40a10","F1","batch6","pattern_response","1975.8999996185303","stim/yes_38_hor_b1_b.png","j","pattern_61","f","false","","","","1975.8999996185303","false","60","","","","","","","","","","","","","","","","",""
"","","","","","html-keyboard-response","278","1722209","0.0-3.0-7.0-0.27","609ac8ca9e4928ec75d40a10","F1","batch6","pattern_show_trial_num","null","<p class=block-text>Trial 67 out of 78</p>","null","","","","","","","","","","","","","","","","","","","","","","","","","",""
"","","","","","image-keyboard-response","279","1724452","0.0-3.0-7.0-1.27","609ac8ca9e4928ec75d40a10","F1","batch6","pattern_response","2242.8999996185303","stim/no_13_2_b.png","j","pattern_02","j","true","","","","2242.8999996185303","true","61","","","","","","","","","","","","","","","","",""
"","","","","","html-keyboard-response","280","1725777","0.0-3.0-7.0-0.28","609ac8ca9e4928ec75d40a10","F1","batch6","pattern_show_trial_num","null","<p class=block-text>Trial 68 out of 78</p>","null","","","","","","","","","","","","","","","","","","","","","","","","","",""
"","","","","","image-keyboard-response","281","1728564","0.0-3.0-7.0-1.28","609ac8ca9e4928ec75d40a10","F1","batch6","pattern_response","2786.3999996185303","stim/yes_45_hor_b2_b.png","f","pattern_67","f","true","","","","2786.3999996185303","true","62","","","","","","","","","","","","","","","","",""
"","","","","","html-keyboard-response","282","1729894","0.0-3.0-7.0-0.29","609ac8ca9e4928ec75d40a10","F1","batch6","pattern_show_trial_num","null","<p class=block-text>Trial 69 out of 78</p>","null","","","","","","","","","","","","","","","","","","","","","","","","","",""
"","","","","","image-keyboard-response","283","1731428","0.0-3.0-7.0-1.29","609ac8ca9e4928ec75d40a10","F1","batch6","pattern_response","1532.5","stim/no_42_1_w.png","j","pattern_22","j","true","","","","1532.5","true","63","","","","","","","","","","","","","","","","",""
"","","","","","html-keyboard-response","284","1732762","0.0-3.0-7.0-0.30","609ac8ca9e4928ec75d40a10","F1","batch6","pattern_show_trial_num","null","<p class=block-text>Trial 70 out of 78</p>","null","","","","","","","","","","","","","","","","","","","","","","","","","",""
"","","","","","image-keyboard-response","285","1734316","0.0-3.0-7.0-1.30","609ac8ca9e4928ec75d40a10","F1","batch6","pattern_response","1552.900001525879","stim/yes_31_hor_b1.png","f","pattern_55","f","true","","","","1552.900001525879","true","64","","","","","","","","","","","","","","","","",""
"","","","","","html-keyboard-response","286","1735646","0.0-3.0-7.0-0.31","609ac8ca9e4928ec75d40a10","F1","batch6","pattern_show_trial_num","null","<p class=block-text>Trial 71 out of 78</p>","null","","","","","","","","","","","","","","","","","","","","","","","","","",""
"","","","","","image-keyboard-response","287","1736924","0.0-3.0-7.0-1.31","609ac8ca9e4928ec75d40a10","F1","batch6","pattern_response","1276.8999996185303","stim/yes_55_hor_w1_w.png","f","pattern_75","f","true","","","","1276.8999996185303","true","65","","","","","","","","","","","","","","","","",""
"","","","","","html-keyboard-response","288","1738248","0.0-3.0-7.0-0.32","609ac8ca9e4928ec75d40a10","F1","batch6","pattern_show_trial_num","null","<p class=block-text>Trial 72 out of 78</p>","null","","","","","","","","","","","","","","","","","","","","","","","","","",""
"","","","","","image-keyboard-response","289","1741900","0.0-3.0-7.0-1.32","609ac8ca9e4928ec75d40a10","F1","batch6","pattern_response","3651","stim/yes_60_ver_b1_b.png","f","pattern_77","f","true","","","","3651","true","66","","","","","","","","","","","","","","","","",""
"","","","","","html-keyboard-response","290","1743234","0.0-3.0-7.0-0.33","609ac8ca9e4928ec75d40a10","F1","batch6","pattern_show_trial_num","null","<p class=block-text>Trial 73 out of 78</p>","null","","","","","","","","","","","","","","","","","","","","","","","","","",""
"","","","","","image-keyboard-response","291","1744508","0.0-3.0-7.0-1.33","609ac8ca9e4928ec75d40a10","F1","batch6","pattern_response","1272.3999996185303","stim/yes_43_ver_w1_w.png","f","pattern_65","f","true","","","","1272.3999996185303","true","67","","","","","","","","","","","","","","","","",""
"","","","","","html-keyboard-response","292","1745834","0.0-3.0-7.0-0.34","609ac8ca9e4928ec75d40a10","F1","batch6","pattern_show_trial_num","null","<p class=block-text>Trial 74 out of 78</p>","null","","","","","","","","","","","","","","","","","","","","","","","","","",""
"","","","","","image-keyboard-response","293","1749420","0.0-3.0-7.0-1.34","609ac8ca9e4928ec75d40a10","F1","batch6","pattern_response","3585.400001525879","stim/no_34_1_b.png","j","pattern_16","j","true","","","","3585.400001525879","true","68","","","","","","","","","","","","","","","","",""
"","","","","","html-keyboard-response","294","1750752","0.0-3.0-7.0-0.35","609ac8ca9e4928ec75d40a10","F1","batch6","pattern_show_trial_num","null","<p class=block-text>Trial 75 out of 78</p>","null","","","","","","","","","","","","","","","","","","","","","","","","","",""
"","","","","","image-keyboard-response","295","1752516","0.0-3.0-7.0-1.35","609ac8ca9e4928ec75d40a10","F1","batch6","pattern_response","1762.5","stim/yes_35_dia_b1.png","f","pattern_57","f","true","","","","1762.5","true","69","","","","","","","","","","","","","","","","",""
"","","","","","html-keyboard-response","296","1753837","0.0-3.0-7.0-0.36","609ac8ca9e4928ec75d40a10","F1","batch6","pattern_show_trial_num","null","<p class=block-text>Trial 76 out of 78</p>","null","","","","","","","","","","","","","","","","","","","","","","","","","",""
"","","","","","image-keyboard-response","297","1758434","0.0-3.0-7.0-1.36","609ac8ca9e4928ec75d40a10","F1","batch6","pattern_response","4590.10000038147","stim/yes_48_dia_w1_w.png","j","pattern_69","f","false","","","","4590.10000038147","false","69","","","","","","","","","","","","","","","","",""
"","","","","","html-keyboard-response","298","1759762","0.0-3.0-7.0-0.37","609ac8ca9e4928ec75d40a10","F1","batch6","pattern_show_trial_num","null","<p class=block-text>Trial 77 out of 78</p>","null","","","","","","","","","","","","","","","","","","","","","","","","","",""
"","","","","","image-keyboard-response","299","1763490","0.0-3.0-7.0-1.37","609ac8ca9e4928ec75d40a10","F1","batch6","pattern_response","3726.7000007629395","stim/no_70_2.png","j","pattern_40","j","true","","","","3726.7000007629395","true","70","","","","","","","","","","","","","","","","",""
"","","","","","html-keyboard-response","300","1764815","0.0-3.0-7.0-0.38","609ac8ca9e4928ec75d40a10","F1","batch6","pattern_show_trial_num","null","<p class=block-text>Trial 78 out of 78</p>","null","","","","","","","","","","","","","","","","","","","","","","","","","",""
"","","","","","image-keyboard-response","301","1765970","0.0-3.0-7.0-1.38","609ac8ca9e4928ec75d40a10","F1","batch6","pattern_response","1154.099998474121","stim/yes_29_ver_w1.png","f","pattern_53","f","true","","","","1154.099998474121","true","71","","","","","","","","","","","","","","","","",""
"","","","","","html-button-response","302","1771374","0.0-3.0-8.0","609ac8ca9e4928ec75d40a10","F1","batch6","","4888.39999961853","<p class = block-text>This concludes the 4-in-a-row detection game.Thank you for your responses!<br>
            You responded correctly on 91% of the trials.<br>
            When you are ready, press ""Continue"" button to continue </p>","0","","","","","","","","","","","","","","","","","","","","","","","","","",""
"true","","","","","fullscreen","303","1773670","0.0-4.0-0.0","609ac8ca9e4928ec75d40a10","F1","batch6","","","","","","","","","","","","","","","","","","","","","","","","","","","","","",""
"","","","","","instructions","304","1983932","0.0-4.0-1.0-0.0-0.0","609ac8ca9e4928ec75d40a10","F1","batch6","tol-instructions","210253.20000076294","","","","","","","","[{""page_index"":0,""viewing_time"":11831.20000076294},{""page_index"":1,""viewing_time"":6103.89999961853},{""page_index"":2,""viewing_time"":2928},{""page_index"":3,""viewing_time"":11128},{""page_index"":4,""viewing_time"":5359.799999237061},{""page_index"":5,""viewing_time"":171118.10000038147},{""page_index"":6,""viewing_time"":1783.8000011444092}]","","","","","","","","","","","","","","","","","","","",""
"","","","","","html-button-response","305","1984596","0.0-4.0-1.0-1.0-0.0","609ac8ca9e4928ec75d40a10","F1","batch6","tol_enter_quiz","663.0999984741211","<p class=block-text> Let's answer a few questions <br>","0","","","","","","","","","","","","","","","","","","","","","","","","","",""
"","","","","","html-button-response","306","1990764","0.0-4.0-1.0-1.0-1.0","609ac8ca9e4928ec75d40a10","F1","batch6","tol_quiz","6166.799999237061","<p class = block-text>True or False: You can only move the ball on top of a peg. <br></p>","0","","","true","","","","","","","","","","","","","","","","","","","","","","",""
"","","","","","html-button-response","307","1991716","0.0-4.0-1.0-1.0-2.0","609ac8ca9e4928ec75d40a10","F1","batch6","tol_quiz_feedback","950.8000011444092","<p class = block-text>Correct! You can only move the ball on top of a peg.</p>","0","","","","","","","","","","","","","","","","","","","","","","","","","",""
"","","","","","html-button-response","308","1995204","0.0-4.0-1.0-1.0-3.0","609ac8ca9e4928ec75d40a10","F1","batch6","tol_quiz","3487","<p class = block-text>True or False: You should try to match your board with the target board with fewest moves possible. <br></p>","0","","","true","","","","","","","","","","","","","","","","","","","","","","",""
"","","","","","html-button-response","309","1995772","0.0-4.0-1.0-1.0-4.0","609ac8ca9e4928ec75d40a10","F1","batch6","tol_quiz_feedback","566.6000003814697","<p class = block-text>Correct! </p>","0","","","","","","","","","","","","","","","","","","","","","","","","","",""
"","","","","","html-button-response","310","1996988","0.0-4.0-2.0","609ac8ca9e4928ec75d40a10","F1","batch6","","1214.8000011444092","<p class=block-text> Now that you've understood the game, let's practice a few easier examples before we start!<br> <br>","0","","","","","","","","","","","","","","","","","","","","","","","","","",""
"","","","","","single-stim-button","311","2007774","0.0-4.0-3.0-0.0","609ac8ca9e4928ec75d40a10","F1","batch6","tol_practice","10784","","","","","","","","","","","","","","tol_peg_2","10784","10784","0","[[1,2,0],[0,0],[0]]","1","[[1,2,0],[0,0],[3]]","practice","10784","","","","","",""
"","","","","","single-stim-button","312","2009620","0.0-4.0-3.0-1.0","609ac8ca9e4928ec75d40a10","F1","batch6","tol_practice","1846","","","","","","","","","","","","","","tol_peg_3","1846","1846","0","[[1,2,0],[0,0],[3]]","1","[[1,2,0],[0,0],[3]]","practice","1846","","","","","",""
"","","","","","poldrack-single-stim","313","2010622","0.0-4.0-4.0","609ac8ca9e4928ec75d40a10","F1","batch6","tol_feedback","-1","","","","","true","","","","","","","","","","1000","1000","500","","","","","","-1","none","true","","0",""
"","","","","","single-stim-button","314","2014796","0.0-4.0-5.0-0.0","609ac8ca9e4928ec75d40a10","F1","batch6","tol_practice","4173","","","","","","","","","","","","","","tol_peg_1","4173","4173","0","[[1,0,0],[3,0],[0]]","2","[[0,0,0],[3,1],[2]]","practice","4173","","","","","",""
"","","","","","single-stim-button","315","2016228","0.0-4.0-5.0-1.0","609ac8ca9e4928ec75d40a10","F1","batch6","tol_practice","1432","","","","","","","","","","","","","","tol_peg_1","1432","1432","0","[[1,2,0],[3,0],[0]]","2","[[0,0,0],[3,1],[2]]","practice","1432","","","","","",""
"","","","","","single-stim-button","316","2017228","0.0-4.0-5.1-0.1","609ac8ca9e4928ec75d40a10","F1","batch6","tol_practice","1000","","","","","","","","","","","","","","tol_peg_1","1000","1000","0","[[1,0,0],[3,0],[0]]","3","[[0,0,0],[3,1],[2]]","practice","1000","","","","","",""
"","","","","","single-stim-button","317","2018748","0.0-4.0-5.1-1.1","609ac8ca9e4928ec75d40a10","F1","batch6","tol_practice","1519","","","","","","","","","","","","","","tol_peg_3","1519","1519","0","[[1,0,0],[3,0],[2]]","3","[[0,0,0],[3,1],[2]]","practice","1519","","","","","",""
"","","","","","single-stim-button","318","2019540","0.0-4.0-5.2-0.2","609ac8ca9e4928ec75d40a10","F1","batch6","tol_practice","792","","","","","","","","","","","","","","tol_peg_1","792","792","0","[[0,0,0],[3,0],[2]]","4","[[0,0,0],[3,1],[2]]","practice","792","","","","","",""
"","","","","","single-stim-button","319","2020076","0.0-4.0-5.2-1.2","609ac8ca9e4928ec75d40a10","F1","batch6","tol_practice","536","","","","","","","","","","","","","","tol_peg_2","536","536","0","[[0,0,0],[3,1],[2]]","4","[[0,0,0],[3,1],[2]]","practice","536","","","","","",""
"","","","","","poldrack-single-stim","320","2021079","0.0-4.0-6.0","609ac8ca9e4928ec75d40a10","F1","batch6","tol_feedback","-1","","","","","true","","","","","","","","","","1000","1000","500","","","","","","-1","none","true","","0",""
"","","","","","single-stim-button","321","2024476","0.0-4.0-7.0-0.0","609ac8ca9e4928ec75d40a10","F1","batch6","tol_practice","3396","","","","","","","","","","","","","","tol_peg_2","3396","3396","0","[[1,2,0],[0,0],[0]]","5","[[1,0,0],[2,0],[3]]","practice","3396","","","","","",""
"","","","","","single-stim-button","322","2025236","0.0-4.0-7.0-1.0","609ac8ca9e4928ec75d40a10","F1","batch6","tol_practice","760","","","","","","","","","","","","","","tol_peg_3","760","760","0","[[1,2,0],[0,0],[3]]","5","[[1,0,0],[2,0],[3]]","practice","760","","","","","",""
"","","","","","single-stim-button","323","2026172","0.0-4.0-7.1-0.1","609ac8ca9e4928ec75d40a10","F1","batch6","tol_practice","935","","","","","","","","","","","","","","tol_peg_1","935","935","0","[[1,0,0],[0,0],[3]]","6","[[1,0,0],[2,0],[3]]","practice","935","","","","","",""
"","","","","","single-stim-button","324","2026764","0.0-4.0-7.1-1.1","609ac8ca9e4928ec75d40a10","F1","batch6","tol_practice","591","","","","","","","","","","","","","","tol_peg_2","591","591","0","[[1,0,0],[2,0],[3]]","6","[[1,0,0],[2,0],[3]]","practice","591","","","","","",""
"","","","","","poldrack-single-stim","325","2027776","0.0-4.0-8.0","609ac8ca9e4928ec75d40a10","F1","batch6","tol_feedback","-1","","","","","true","","","","","","","","","","1000","1000","500","","","","","","-1","none","true","","0",""
"","","","","","html-button-response","326","2031644","0.0-4.0-9.0","609ac8ca9e4928ec75d40a10","F1","batch6","tol_instruction","3867.099998474121","<div class = centerbox><p class = center-block-text>Great job! You are done with practice trials<br>You are about to start official trials.<br> <br> Problem <strong>1</strong> out of 25 problems</p></div>","0","","","","","","","","","","","","","","","","","","","","","","","","","",""
"","","","","","single-stim-button","327","2036636","0.0-4.0-10.0-0.0","609ac8ca9e4928ec75d40a10","F1","batch6","tol_tohand","3974","","","","","","","","","","","","","","tol_peg_1","3974","3974","0","[[1,0,0],[3,0],[0]]","1","[[1,3,0],[2,0],[0]]","0","0","","","","","","3"
"","","","","","single-stim-button","328","2037644","0.0-4.0-10.0-1.0","609ac8ca9e4928ec75d40a10","F1","batch6","tol_toboard","1007","","","","","","","","","","","","","","tol_peg_2","1007","1007","0","[[1,0,0],[3,2],[0]]","1","[[1,3,0],[2,0],[0]]","0","0","","","","","","3"
"","","","","","single-stim-button","329","2038508","0.0-4.0-10.1-0.1","609ac8ca9e4928ec75d40a10","F1","batch6","tol_tohand","863","","","","","","","","","","","","","","tol_peg_2","863","863","0","[[1,0,0],[3,0],[0]]","2","[[1,3,0],[2,0],[0]]","0","0","","","","","","3"
"","","","","","single-stim-button","330","2039604","0.0-4.0-10.1-1.1","609ac8ca9e4928ec75d40a10","F1","batch6","tol_toboard","1095","","","","","","","","","","","","","","tol_peg_3","1095","1095","0","[[1,0,0],[3,0],[2]]","2","[[1,3,0],[2,0],[0]]","0","0","","","","","","3"
"","","","","","single-stim-button","331","2040060","0.0-4.0-10.2-0.2","609ac8ca9e4928ec75d40a10","F1","batch6","tol_tohand","455","","","","","","","","","","","","","","tol_peg_2","455","455","0","[[1,0,0],[0,0],[2]]","3","[[1,3,0],[2,0],[0]]","0","0","","","","","","3"
"","","","","","single-stim-button","332","2041108","0.0-4.0-10.2-1.2","609ac8ca9e4928ec75d40a10","F1","batch6","tol_toboard","1047","","","","","","","","","","","","","","tol_peg_1","1047","1047","0","[[1,3,0],[0,0],[2]]","3","[[1,3,0],[2,0],[0]]","0","0","","","","","","3"
"","","","","","single-stim-button","333","2067027","0.0-4.0-10.3-0.3","609ac8ca9e4928ec75d40a10","F1","batch6","tol_tohand","25919","","","","","","","","","","","","","","tol_peg_3","25919","25919","0","[[1,3,0],[0,0],[0]]","4","[[1,3,0],[2,0],[0]]","0","0","","","","","","3"
"","","","","","single-stim-button","334","2067643","0.0-4.0-10.3-1.3","609ac8ca9e4928ec75d40a10","F1","batch6","tol_toboard","615","","","","","","","","","","","","","","tol_peg_2","615","615","0","[[1,3,0],[2,0],[0]]","4","[[1,3,0],[2,0],[0]]","0","0","","","","","","3"
"","","","","","poldrack-single-stim","335","2068655","0.0-4.0-11.0","609ac8ca9e4928ec75d40a10","F1","batch6","tol_feedback","-1","","","","","true","","","","","","","","","","1000","1000","500","","","","","","-1","none","true","3974","31211",""
"","","","","","html-button-response","336","2069731","0.0-4.0-12.0","609ac8ca9e4928ec75d40a10","F1","batch6","tol_trial_num","1074.7999992370605","<div class = centerbox><p class = center-block-text>problem <strong>2</strong> out of 25 problems</p></div>","0","","","","","","","","","","","","","","","","","","","","","","","","","",""
"","","","","","single-stim-button","337","2079219","0.0-4.0-13.0-0.0","609ac8ca9e4928ec75d40a10","F1","batch6","tol_tohand","9487","","","","","","","","","","","","","","tol_peg_1","9487","9487","0","[[1,0,0],[3,0],[0]]","1","[[2,1,3],[0,0],[0]]","1","0","","","","","","5"
"","","","","","single-stim-button","338","2080843","0.0-4.0-13.0-1.0","609ac8ca9e4928ec75d40a10","F1","batch6","tol_toboard","1623","","","","","","","","","","","","","","tol_peg_3","1623","1623","0","[[1,0,0],[3,0],[2]]","1","[[2,1,3],[0,0],[0]]","1","0","","","","","","5"
"","","","","","single-stim-button","339","2083099","0.0-4.0-13.1-0.1","609ac8ca9e4928ec75d40a10","F1","batch6","tol_tohand","2255","","","","","","","","","","","","","","tol_peg_1","2255","2255","0","[[0,0,0],[3,0],[2]]","2","[[2,1,3],[0,0],[0]]","1","0","","","","","","5"
"","","","","","single-stim-button","340","2086331","0.0-4.0-13.1-1.1","609ac8ca9e4928ec75d40a10","F1","batch6","tol_toboard","3231","","","","","","","","","","","","","","tol_peg_1","3231","3231","0","[[1,0,0],[3,0],[2]]","2","[[2,1,3],[0,0],[0]]","1","0","","","","","","5"
"","","","","","single-stim-button","341","2088219","0.0-4.0-13.2-0.2","609ac8ca9e4928ec75d40a10","F1","batch6","tol_tohand","1887","","","","","","","","","","","","","","tol_peg_3","1887","1887","0","[[1,0,0],[3,0],[0]]","3","[[2,1,3],[0,0],[0]]","1","0","","","","","","5"
"","","","","","single-stim-button","342","2089355","0.0-4.0-13.2-1.2","609ac8ca9e4928ec75d40a10","F1","batch6","tol_toboard","1136","","","","","","","","","","","","","","tol_peg_2","1136","1136","0","[[1,0,0],[3,2],[0]]","3","[[2,1,3],[0,0],[0]]","1","0","","","","","","5"
"","","","","","single-stim-button","343","2090251","0.0-4.0-13.3-0.3","609ac8ca9e4928ec75d40a10","F1","batch6","tol_tohand","895","","","","","","","","","","","","","","tol_peg_2","895","895","0","[[1,0,0],[3,0],[0]]","4","[[2,1,3],[0,0],[0]]","1","0","","","","","","5"
"","","","","","single-stim-button","344","2091379","0.0-4.0-13.3-1.3","609ac8ca9e4928ec75d40a10","F1","batch6","tol_toboard","1128","","","","","","","","","","","","","","tol_peg_2","1128","1128","0","[[1,0,0],[3,2],[0]]","4","[[2,1,3],[0,0],[0]]","1","0","","","","","","5"
"","","","","","single-stim-button","345","2094995","0.0-4.0-13.4-0.4","609ac8ca9e4928ec75d40a10","F1","batch6","tol_tohand","3615","","","","","","","","","","","","","","tol_peg_1","3615","3615","0","[[0,0,0],[3,2],[0]]","5","[[2,1,3],[0,0],[0]]","1","0","","","","","","5"
"","","","","","single-stim-button","346","2095915","0.0-4.0-13.4-1.4","609ac8ca9e4928ec75d40a10","F1","batch6","tol_toboard","920","","","","","","","","","","","","","","tol_peg_3","920","920","0","[[0,0,0],[3,2],[1]]","5","[[2,1,3],[0,0],[0]]","1","0","","","","","","5"
"","","","","","single-stim-button","347","2097331","0.0-4.0-13.5-0.5","609ac8ca9e4928ec75d40a10","F1","batch6","tol_tohand","1415","","","","","","","","","","","","","","tol_peg_2","1415","1415","0","[[0,0,0],[3,0],[1]]","6","[[2,1,3],[0,0],[0]]","1","0","","","","","","5"
