"success","timeout","failed_images","failed_audio","failed_video","trial_type","trial_index","time_elapsed","internal_node_id","subject_id","study_id","session_id","view_history","rt","task","stimulus","response","correct","mouse_click","stim_duration","block_duration","timing_post_trial","current_position","tol_num_moves_made","tol_target","tol_problem_id","tol_rt","key_press","possible_responses","tol_correct","preplanning","tol_rt_per_trial","tol_min_moves","item","answer","spm_correct","spm_rt","fiar_detect_rt","fiar_detect_correct","total_correct_fiar_detect","post_trial_gap","choices"
"true","false","[]","[]","[]","preload","0","10701","0.0-0.0","60a3128cb035414bb4588090","E1","batch5","","","","","","","","","","","","","","","","","","","","","","","","","","","","","",""
"true","","","","","fullscreen","1","269027","0.0-1.0-0.0","60a3128cb035414bb4588090","E1","batch5","","","","","","","","","","","","","","","","","","","","","","","","","","","","","",""
"true","","","","","fullscreen","2","271091","0.0-2.0-0.0","60a3128cb035414bb4588090","E1","batch5","","","","","","","","","","","","","","","","","","","","","","","","","","","","","",""
"","","","","","instructions","3","338733","0.0-2.0-1.0-0.0-0.0","60a3128cb035414bb4588090","E1","batch5","[{""page_index"":0,""viewing_time"":5579.39999999851},{""page_index"":1,""viewing_time"":10070.39999999851},{""page_index"":2,""viewing_time"":5540.4000000059605},{""page_index"":3,""viewing_time"":10080.69999999553},{""page_index"":4,""viewing_time"":24645.60000000149},{""page_index"":5,""viewing_time"":9668.5},{""page_index"":6,""viewing_time"":2054.39999999851}]","67640.29999999702","tol-instructions","","","","","","","","","","","","","","","","","","","","","","","","","","",""
"","","","","","html-button-response","4","339955","0.0-2.0-1.0-1.0-0.0","60a3128cb035414bb4588090","E1","batch5","","1218.5","tol_enter_quiz","<p class=block-text> Let's answer a few questions <br>","0","","","","","","","","","","","","","","","","","","","","","","","","",""
"","","","","","html-button-response","5","343337","0.0-2.0-1.0-1.0-1.0","60a3128cb035414bb4588090","E1","batch5","","3377.2999999970198","tol_quiz","<p class = block-text>True or False: You can only move the ball on top of a peg. <br></p>","1","false","","","","","","","","","","","","","","","","","","","","","","","",""
"","","","","","html-button-response","6","595931","0.0-2.0-1.0-1.0-2.0","60a3128cb035414bb4588090","E1","batch5","","252590.3999999985","tol_quiz_feedback","<p class = block-text>Incorrect. Remember, you can only move the ball on top of a peg.</p>","0","","","","","","","","","","","","","","","","","","","","","","","","",""
"","","","","","html-button-response","7","600551","0.0-2.0-1.0-1.0-3.0","60a3128cb035414bb4588090","E1","batch5","","4617.19999999553","tol_quiz","<p class = block-text>True or False: You should try to match your board with the target board with fewest moves possible. <br></p>","0","true","","","","","","","","","","","","","","","","","","","","","","","",""
"","","","","","html-button-response","8","601551","0.0-2.0-1.0-1.0-4.0","60a3128cb035414bb4588090","E1","batch5","","997.6000000014901","tol_quiz_feedback","<p class = block-text>Correct! </p>","0","","","","","","","","","","","","","","","","","","","","","","","","",""
"","","","","","html-button-response","9","604013","0.0-2.0-1.0-2.0-0.0","60a3128cb035414bb4588090","E1","batch5","","2459","","<p class = block-text>You made too many incorrect choices.</p><p class = block-text>You will now repeat the instructions and quiz</p>","0","","","","","","","","","","","","","","","","","","","","","","","","",""
"","","","","","instructions","10","609832","0.0-2.0-1.1-0.1-0.1","60a3128cb035414bb4588090","E1","batch5","[{""page_index"":0,""viewing_time"":1933.6000000014901},{""page_index"":1,""viewing_time"":751.0999999940395},{""page_index"":2,""viewing_time"":437.1000000014901},{""page_index"":3,""viewing_time"":432.3999999985099},{""page_index"":4,""viewing_time"":572.2000000029802},{""page_index"":5,""viewing_time"":394.70000000298023},{""page_index"":6,""viewing_time"":1294.5}]","5816.10000000149","tol-instructions","","","","","","","","","","","","","","","","","","","","","","","","","","",""
"","","","","","html-button-response","11","610802","0.0-2.0-1.1-1.1-0.1","60a3128cb035414bb4588090","E1","batch5","","968.3999999985099","tol_enter_quiz","<p class=block-text> Let's answer a few questions <br>","0","","","","","","","","","","","","","","","","","","","","","","","","",""
"","","","","","html-button-response","12","613398","0.0-2.0-1.1-1.1-1.1","60a3128cb035414bb4588090","E1","batch5","","2593.89999999851","tol_quiz","<p class = block-text>True or False: You can only move the ball on top of a peg. <br></p>","0","true","","","","","","","","","","","","","","","","","","","","","","","",""
"","","","","","html-button-response","13","614605","0.0-2.0-1.1-1.1-2.1","60a3128cb035414bb4588090","E1","batch5","","1205.1000000014901","tol_quiz_feedback","<p class = block-text>Correct! You can only move the ball on top of a peg.</p>","0","","","","","","","","","","","","","","","","","","","","","","","","",""
"","","","","","html-button-response","14","618093","0.0-2.0-1.1-1.1-3.1","60a3128cb035414bb4588090","E1","batch5","","3485.7000000029802","tol_quiz","<p class = block-text>True or False: You should try to match your board with the target board with fewest moves possible. <br></p>","0","true","","","","","","","","","","","","","","","","","","","","","","","",""
"","","","","","html-button-response","15","618911","0.0-2.0-1.1-1.1-4.1","60a3128cb035414bb4588090","E1","batch5","","815.1999999955297","tol_quiz_feedback","<p class = block-text>Correct! </p>","0","","","","","","","","","","","","","","","","","","","","","","","","",""
"","","","","","html-button-response","16","620926","0.0-2.0-2.0","60a3128cb035414bb4588090","E1","batch5","","2013.2000000029802","","<p class=block-text> Now that you've understood the game, let's practice a few easier examples before we start!<br> <br>","0","","","","","","","","","","","","","","","","","","","","","","","","",""
"","","","","","single-stim-button","17","625376","0.0-2.0-3.0-0.0","60a3128cb035414bb4588090","E1","batch5","","4448","tol_practice","","","","tol_peg_2","4448","4448","0","[[1,2,0],[0,0],[0]]","1","[[1,2,0],[0,0],[3]]","practice","4448","","","","","","","","","","","","","","",""
"","","","","","single-stim-button","18","629650","0.0-2.0-3.0-1.0","60a3128cb035414bb4588090","E1","batch5","","4271","tol_practice","","","","tol_peg_3","4271","4271","0","[[1,2,0],[0,0],[3]]","1","[[1,2,0],[0,0],[3]]","practice","4271","","","","","","","","","","","","","","",""
"","","","","","poldrack-single-stim","19","630660","0.0-2.0-4.0","60a3128cb035414bb4588090","E1","batch5","","-1","tol_feedback","","","true","","1000","1000","500","","","","","","-1","none","true","","0","","","","","","","","","",""
"","","","","","single-stim-button","20","634384","0.0-2.0-5.0-0.0","60a3128cb035414bb4588090","E1","batch5","","3723","tol_practice","","","","tol_peg_1","3723","3723","0","[[1,0,0],[3,0],[0]]","2","[[0,0,0],[3,1],[2]]","practice","3723","","","","","","","","","","","","","","",""
"","","","","","single-stim-button","21","637532","0.0-2.0-5.0-1.0","60a3128cb035414bb4588090","E1","batch5","","3146","tol_practice","","","","tol_peg_3","3146","3146","0","[[1,0,0],[3,0],[2]]","2","[[0,0,0],[3,1],[2]]","practice","3146","","","","","","","","","","","","","","",""
"","","","","","single-stim-button","22","639578","0.0-2.0-5.1-0.1","60a3128cb035414bb4588090","E1","batch5","","2044","tol_practice","","","","tol_peg_1","2044","2044","0","[[0,0,0],[3,0],[2]]","3","[[0,0,0],[3,1],[2]]","practice","2044","","","","","","","","","","","","","","",""
"","","","","","single-stim-button","23","640590","0.0-2.0-5.1-1.1","60a3128cb035414bb4588090","E1","batch5","","1010","tol_practice","","","","tol_peg_2","1010","1010","0","[[0,0,0],[3,1],[2]]","3","[[0,0,0],[3,1],[2]]","practice","1010","","","","","","","","","","","","","","",""
"","","","","","poldrack-single-stim","24","641596","0.0-2.0-6.0","60a3128cb035414bb4588090","E1","batch5","","-1","tol_feedback","","","true","","1000","1000","500","","","","","","-1","none","true","","0","","","","","","","","","",""
"","","","","","single-stim-button","25","644965","0.0-2.0-7.0-0.0","60a3128cb035414bb4588090","E1","batch5","","3369","tol_practice","","","","tol_peg_1","3369","3369","0","[[1,0,0],[3,0],[0]]","4","[[1,0,0],[2,0],[3]]","practice","3369","","","","","","","","","","","","","","",""
"","","","","","single-stim-button","26","645862","0.0-2.0-7.0-1.0","60a3128cb035414bb4588090","E1","batch5","","896","tol_practice","","","","tol_peg_2","896","896","0","[[1,0,0],[3,2],[0]]","4","[[1,0,0],[2,0],[3]]","practice","896","","","","","","","","","","","","","","",""
"","","","","","single-stim-button","27","648878","0.0-2.0-7.1-0.1","60a3128cb035414bb4588090","E1","batch5","","3014","tol_practice","","","","tol_peg_2","3014","3014","0","[[1,0,0],[3,0],[0]]","5","[[1,0,0],[2,0],[3]]","practice","3014","","","","","","","","","","","","","","",""
"","","","","","single-stim-button","28","650889","0.0-2.0-7.1-1.1","60a3128cb035414bb4588090","E1","batch5","","2010","tol_practice","","","","tol_peg_1","2010","2010","0","[[1,2,0],[3,0],[0]]","5","[[1,0,0],[2,0],[3]]","practice","2010","","","","","","","","","","","","","","",""
"","","","","","single-stim-button","29","651748","0.0-2.0-7.2-0.2","60a3128cb035414bb4588090","E1","batch5","","857","tol_practice","","","","tol_peg_2","857","857","0","[[1,2,0],[0,0],[0]]","6","[[1,0,0],[2,0],[3]]","practice","857","","","","","","","","","","","","","","",""
"","","","","","single-stim-button","30","652753","0.0-2.0-7.2-1.2","60a3128cb035414bb4588090","E1","batch5","","1004","tol_practice","","","","tol_peg_3","1004","1004","0","[[1,2,0],[0,0],[3]]","6","[[1,0,0],[2,0],[3]]","practice","1004","","","","","","","","","","","","","","",""
"","","","","","single-stim-button","31","653614","0.0-2.0-7.3-0.3","60a3128cb035414bb4588090","E1","batch5","","860","tol_practice","","","","tol_peg_1","860","860","0","[[1,0,0],[0,0],[3]]","7","[[1,0,0],[2,0],[3]]","practice","860","","","","","","","","","","","","","","",""
"","","","","","single-stim-button","32","654721","0.0-2.0-7.3-1.3","60a3128cb035414bb4588090","E1","batch5","","1106","tol_practice","","","","tol_peg_2","1106","1106","0","[[1,0,0],[2,0],[3]]","7","[[1,0,0],[2,0],[3]]","practice","1106","","","","","","","","","","","","","","",""
"","","","","","poldrack-single-stim","33","655723","0.0-2.0-8.0","60a3128cb035414bb4588090","E1","batch5","","-1","tol_feedback","","","true","","1000","1000","500","","","","","","-1","none","true","","0","","","","","","","","","",""
"","","","","","html-button-response","34","658348","0.0-2.0-9.0","60a3128cb035414bb4588090","E1","batch5","","2623.39999999851","tol_instruction","<div class = centerbox><p class = center-block-text>Great job! You are done with practice trials<br>You are about to start official trials.<br> <br> Problem <strong>1</strong> out of 25 problems</p></div>","0","","","","","","","","","","","","","","","","","","","","","","","","",""
"","","","","","single-stim-button","35","662481","0.0-2.0-10.0-0.0","60a3128cb035414bb4588090","E1","batch5","","3125","tol_tohand","","","","tol_peg_1","3125","3125","0","[[1,0,0],[3,0],[0]]","1","[[1,3,0],[2,0],[0]]","0","0","","","","","","3","","","","","","","","",""
"","","","","","single-stim-button","36","667051","0.0-2.0-10.0-1.0","60a3128cb035414bb4588090","E1","batch5","","4568","tol_toboard","","","","tol_peg_3","4568","4568","0","[[1,0,0],[3,0],[2]]","1","[[1,3,0],[2,0],[0]]","0","0","","","","","","3","","","","","","","","",""
"","","","","","single-stim-button","37","668210","0.0-2.0-10.1-0.1","60a3128cb035414bb4588090","E1","batch5","","1158","tol_tohand","","","","tol_peg_2","1158","1158","0","[[1,0,0],[0,0],[2]]","2","[[1,3,0],[2,0],[0]]","0","0","","","","","","3","","","","","","","","",""
"","","","","","single-stim-button","38","671770","0.0-2.0-10.1-1.1","60a3128cb035414bb4588090","E1","batch5","","3558","tol_toboard","","","","tol_peg_1","3558","3558","0","[[1,3,0],[0,0],[2]]","2","[[1,3,0],[2,0],[0]]","0","0","","","","","","3","","","","","","","","",""
"","","","","","single-stim-button","39","675327","0.0-2.0-10.2-0.2","60a3128cb035414bb4588090","E1","batch5","","3556","tol_tohand","","","","tol_peg_3","3556","3556","0","[[1,3,0],[0,0],[0]]","3","[[1,3,0],[2,0],[0]]","0","0","","","","","","3","","","","","","","","",""
"","","","","","single-stim-button","40","677596","0.0-2.0-10.2-1.2","60a3128cb035414bb4588090","E1","batch5","","2268","tol_toboard","","","","tol_peg_2","2268","2268","0","[[1,3,0],[2,0],[0]]","3","[[1,3,0],[2,0],[0]]","0","0","","","","","","3","","","","","","","","",""
"","","","","","poldrack-single-stim","41","678604","0.0-2.0-11.0","60a3128cb035414bb4588090","E1","batch5","","-1","tol_feedback","","","true","","1000","1000","500","","","","","","-1","none","true","3125","7839","","","","","","","","","",""
"","","","","","html-button-response","42","680671","0.0-2.0-12.0","60a3128cb035414bb4588090","E1","batch5","","2065.60000000149","tol_trial_num","<div class = centerbox><p class = center-block-text>problem <strong>2</strong> out of 25 problems</p></div>","0","","","","","","","","","","","","","","","","","","","","","","","","",""
"","","","","","single-stim-button","43","683418","0.0-2.0-13.0-0.0","60a3128cb035414bb4588090","E1","batch5","","2745","tol_tohand","","","","tol_peg_1","2745","2745","0","[[1,0,0],[3,0],[0]]","1","[[2,1,3],[0,0],[0]]","1","0","","","","","","5","","","","","","","","",""
"","","","","","single-stim-button","44","685617","0.0-2.0-13.0-1.0","60a3128cb035414bb4588090","E1","batch5","","2199","tol_toboard","","","","tol_peg_3","2199","2199","0","[[1,0,0],[3,0],[2]]","1","[[2,1,3],[0,0],[0]]","1","0","","","","","","5","","","","","","","","",""
"","","","","","single-stim-button","45","690541","0.0-2.0-13.1-0.1","60a3128cb035414bb4588090","E1","batch5","","4922","tol_tohand","","","","tol_peg_1","4922","4922","0","[[0,0,0],[3,0],[2]]","2","[[2,1,3],[0,0],[0]]","1","0","","","","","","5","","","","","","","","",""
"","","","","","single-stim-button","46","697347","0.0-2.0-13.1-1.1","60a3128cb035414bb4588090","E1","batch5","","6805","tol_toboard","","","","tol_peg_1","6805","6805","0","[[1,0,0],[3,0],[2]]","2","[[2,1,3],[0,0],[0]]","1","0","","","","","","5","","","","","","","","",""
"","","","","","single-stim-button","47","699135","0.0-2.0-13.2-0.2","60a3128cb035414bb4588090","E1","batch5","","1786","tol_tohand","","","","tol_peg_2","1786","1786","0","[[1,0,0],[0,0],[2]]","3","[[2,1,3],[0,0],[0]]","1","0","","","","","","5","","","","","","","","",""
"","","","","","single-stim-button","48","703951","0.0-2.0-13.2-1.2","60a3128cb035414bb4588090","E1","batch5","","4815","tol_toboard","","","","tol_peg_2","4815","4815","0","[[1,0,0],[3,0],[2]]","3","[[2,1,3],[0,0],[0]]","1","0","","","","","","5","","","","","","","","",""
"","","","","","single-stim-button","49","704826","0.0-2.0-13.3-0.3","60a3128cb035414bb4588090","E1","batch5","","873","tol_tohand","","","","tol_peg_3","873","873","0","[[1,0,0],[3,0],[0]]","4","[[2,1,3],[0,0],[0]]","1","0","","","","","","5","","","","","","","","",""
"","","","","","single-stim-button","50","705755","0.0-2.0-13.3-1.3","60a3128cb035414bb4588090","E1","batch5","","929","tol_toboard","","","","tol_peg_1","929","929","0","[[1,2,0],[3,0],[0]]","4","[[2,1,3],[0,0],[0]]","1","0","","","","","","5","","","","","","","","",""
"","","","","","single-stim-button","51","709361","0.0-2.0-13.4-0.4","60a3128cb035414bb4588090","E1","batch5","","3605","tol_tohand","","","","tol_peg_2","3605","3605","0","[[1,2,0],[0,0],[0]]","5","[[2,1,3],[0,0],[0]]","1","0","","","","","","5","","","","","","","","",""
"","","","","","single-stim-button","52","713567","0.0-2.0-13.4-1.4","60a3128cb035414bb4588090","E1","batch5","","4204","tol_toboard","","","","tol_peg_2","4204","4204","0","[[1,2,0],[3,0],[0]]","5","[[2,1,3],[0,0],[0]]","1","0","","","","","","5","","","","","","","","",""
"","","","","","single-stim-button","53","715441","0.0-2.0-13.5-0.5","60a3128cb035414bb4588090","E1","batch5","","1872","tol_tohand","","","","tol_peg_2","1872","1872","0","[[1,2,0],[0,0],[0]]","6","[[2,1,3],[0,0],[0]]","1","0","","","","","","5","","","","","","","","",""
"","","","","","single-stim-button","54","716526","0.0-2.0-13.5-1.5","60a3128cb035414bb4588090","E1","batch5","","1083","tol_toboard","","","","tol_peg_3","1083","1083","0","[[1,2,0],[0,0],[3]]","6","[[2,1,3],[0,0],[0]]","1","0","","","","","","5","","","","","","","","",""
"","","","","","single-stim-button","55","721252","0.0-2.0-13.6-0.6","60a3128cb035414bb4588090","E1","batch5","","4725","tol_tohand","","","","tol_peg_1","4725","4725","0","[[1,0,0],[0,0],[3]]","7","[[2,1,3],[0,0],[0]]","1","0","","","","","","5","","","","","","","","",""
"","","","","","single-stim-button","56","722199","0.0-2.0-13.6-1.6","60a3128cb035414bb4588090","E1","batch5","","945","tol_toboard","","","","tol_peg_2","945","945","0","[[1,0,0],[2,0],[3]]","7","[[2,1,3],[0,0],[0]]","1","0","","","","","","5","","","","","","","","",""
"","","","","","single-stim-button","57","724782","0.0-2.0-13.7-0.7","60a3128cb035414bb4588090","E1","batch5","","2582","tol_tohand","","","","tol_peg_1","2582","2582","0","[[0,0,0],[2,0],[3]]","8","[[2,1,3],[0,0],[0]]","1","0","","","","","","5","","","","","","","","",""
"","","","","","single-stim-button","58","729900","0.0-2.0-13.7-1.7","60a3128cb035414bb4588090","E1","batch5","","5116","tol_toboard","","","","tol_peg_1","5116","5116","0","[[1,0,0],[2,0],[3]]","8","[[2,1,3],[0,0],[0]]","1","0","","","","","","5","","","","","","","","",""
"","","","","","single-stim-button","59","730778","0.0-2.0-13.8-0.8","60a3128cb035414bb4588090","E1","batch5","","878","tol_tohand","","","","tol_peg_3","878","878","0","[[1,0,0],[2,0],[0]]","9","[[2,1,3],[0,0],[0]]","1","0","","","","","","5","","","","","","","","",""
"","","","","","single-stim-button","60","732206","0.0-2.0-13.8-1.8","60a3128cb035414bb4588090","E1","batch5","","1426","tol_toboard","","","","tol_peg_2","1426","1426","0","[[1,0,0],[2,3],[0]]","9","[[2,1,3],[0,0],[0]]","1","0","","","","","","5","","","","","","","","",""
"","","","","","single-stim-button","61","737317","0.0-2.0-13.9-0.9","60a3128cb035414bb4588090","E1","batch5","","5110","tol_tohand","","","","tol_peg_2","5110","5110","0","[[1,0,0],[2,0],[0]]","10","[[2,1,3],[0,0],[0]]","1","0","","","","","","5","","","","","","","","",""
"","","","","","single-stim-button","62","738177","0.0-2.0-13.9-1.9","60a3128cb035414bb4588090","E1","batch5","","859","tol_toboard","","","","tol_peg_1","859","859","0","[[1,3,0],[2,0],[0]]","10","[[2,1,3],[0,0],[0]]","1","0","","","","","","5","","","","","","","","",""
"","","","","","single-stim-button","63","739029","0.0-2.0-13.10-0.10","60a3128cb035414bb4588090","E1","batch5","","850","tol_tohand","","","","tol_peg_2","850","850","0","[[1,3,0],[0,0],[0]]","11","[[2,1,3],[0,0],[0]]","1","0","","","","","","5","","","","","","","","",""
"","","","","","single-stim-button","64","739728","0.0-2.0-13.10-1.10","60a3128cb035414bb4588090","E1","batch5","","698","tol_toboard","","","","tol_peg_3","698","698","0","[[1,3,0],[0,0],[2]]","11","[[2,1,3],[0,0],[0]]","1","0","","","","","","5","","","","","","","","",""
"","","","","","single-stim-button","65","740783","0.0-2.0-13.11-0.11","60a3128cb035414bb4588090","E1","batch5","","1053","tol_tohand","","","","tol_peg_1","1053","1053","0","[[1,0,0],[0,0],[2]]","12","[[2,1,3],[0,0],[0]]","1","0","","","","","","5","","","","","","","","",""
"","","","","","single-stim-button","66","741954","0.0-2.0-13.11-1.11","60a3128cb035414bb4588090","E1","batch5","","1171","tol_toboard","","","","tol_peg_2","1171","1171","0","[[1,0,0],[3,0],[2]]","12","[[2,1,3],[0,0],[0]]","1","0","","","","","","5","","","","","","","","",""
"","","","","","single-stim-button","67","742861","0.0-2.0-13.12-0.12","60a3128cb035414bb4588090","E1","batch5","","905","tol_tohand","","","","tol_peg_1","905","905","0","[[0,0,0],[3,0],[2]]","13","[[2,1,3],[0,0],[0]]","1","0","","","","","","5","","","","","","","","",""
"","","","","","single-stim-button","68","743838","0.0-2.0-13.12-1.12","60a3128cb035414bb4588090","E1","batch5","","976","tol_toboard","","","","tol_peg_2","976","976","0","[[0,0,0],[3,1],[2]]","13","[[2,1,3],[0,0],[0]]","1","0","","","","","","5","","","","","","","","",""
"","","","","","single-stim-button","69","746019","0.0-2.0-13.13-0.13","60a3128cb035414bb4588090","E1","batch5","","2180","tol_tohand","","","","tol_peg_3","2180","2180","0","[[0,0,0],[3,1],[0]]","14","[[2,1,3],[0,0],[0]]","1","0","","","","","","5","","","","","","","","",""
"","","","","","single-stim-button","70","747000","0.0-2.0-13.13-1.13","60a3128cb035414bb4588090","E1","batch5","","980","tol_toboard","","","","tol_peg_1","980","980","0","[[2,0,0],[3,1],[0]]","14","[[2,1,3],[0,0],[0]]","1","0","","","","","","5","","","","","","","","",""
"","","","","","single-stim-button","71","748242","0.0-2.0-13.14-0.14","60a3128cb035414bb4588090","E1","batch5","","1241","tol_tohand","","","","tol_peg_2","1241","1241","0","[[2,0,0],[3,0],[0]]","15","[[2,1,3],[0,0],[0]]","1","0","","","","","","5","","","","","","","","",""
"","","","","","single-stim-button","72","749897","0.0-2.0-13.14-1.14","60a3128cb035414bb4588090","E1","batch5","","1654","tol_toboard","","","","tol_peg_1","1654","1654","0","[[2,1,0],[3,0],[0]]","15","[[2,1,3],[0,0],[0]]","1","0","","","","","","5","","","","","","","","",""
"","","","","","single-stim-button","73","750745","0.0-2.0-13.15-0.15","60a3128cb035414bb4588090","E1","batch5","","846","tol_tohand","","","","tol_peg_2","846","846","0","[[2,1,0],[0,0],[0]]","16","[[2,1,3],[0,0],[0]]","1","0","","","","","","5","","","","","","","","",""
"","","","","","single-stim-button","74","752073","0.0-2.0-13.15-1.15","60a3128cb035414bb4588090","E1","batch5","","1327","tol_toboard","","","","tol_peg_1","1327","1327","0","[[2,1,3],[0,0],[0]]","16","[[2,1,3],[0,0],[0]]","1","0","","","","","","5","","","","","","","","",""
"","","","","","poldrack-single-stim","75","753076","0.0-2.0-14.0","60a3128cb035414bb4588090","E1","batch5","","-1","tol_feedback","","","true","","1000","1000","500","","","","","","-1","none","true","2745","36173","","","","","","","","","",""
"","","","","","html-button-response","76","754464","0.0-2.0-15.0","60a3128cb035414bb4588090","E1","batch5","","1386.3999999985099","tol_trial_num","<div class = centerbox><p class = center-block-text>problem <strong>3</strong> out of 25 problems</p></div>","0","","","","","","","","","","","","","","","","","","","","","","","","",""
"","","","","","single-stim-button","77","757918","0.0-2.0-16.0-0.0","60a3128cb035414bb4588090","E1","batch5","","3452","tol_tohand","","","","tol_peg_1","3452","3452","0","[[2,0,0],[0,0],[1]]","1","[[1,2,0],[3,0],[0]]","2","0","","","","","","4","","","","","","","","",""
"","","","","","single-stim-button","78","759399","0.0-2.0-16.0-1.0","60a3128cb035414bb4588090","E1","batch5","","1481","tol_toboard","","","","tol_peg_2","1481","1481","0","[[2,0,0],[3,0],[1]]","1","[[1,2,0],[3,0],[0]]","2","0","","","","","","4","","","","","","","","",""
"","","","","","single-stim-button","79","759813","0.0-2.0-16.1-0.1","60a3128cb035414bb4588090","E1","batch5","","413","tol_tohand","","","","tol_peg_2","413","413","0","[[2,0,0],[0,0],[1]]","2","[[1,2,0],[3,0],[0]]","2","0","","","","","","4","","","","","","","","",""
"","","","","","single-stim-button","80","760720","0.0-2.0-16.1-1.1","60a3128cb035414bb4588090","E1","batch5","","905","tol_toboard","","","","tol_peg_2","905","905","0","[[2,0,0],[3,0],[1]]","2","[[1,2,0],[3,0],[0]]","2","0","","","","","","4","","","","","","","","",""
"","","","","","single-stim-button","81","762006","0.0-2.0-16.2-0.2","60a3128cb035414bb4588090","E1","batch5","","1285","tol_tohand","","","","tol_peg_1","1285","1285","0","[[0,0,0],[3,0],[1]]","3","[[1,2,0],[3,0],[0]]","2","0","","","","","","4","","","","","","","","",""
"","","","","","single-stim-button","82","764376","0.0-2.0-16.2-1.2","60a3128cb035414bb4588090","E1","batch5","","2369","tol_toboard","","","","tol_peg_2","2369","2369","0","[[0,0,0],[3,2],[1]]","3","[[1,2,0],[3,0],[0]]","2","0","","","","","","4","","","","","","","","",""
"","","","","","single-stim-button","83","765035","0.0-2.0-16.3-0.3","60a3128cb035414bb4588090","E1","batch5","","659","tol_tohand","","","","tol_peg_2","659","659","0","[[0,0,0],[3,0],[1]]","4","[[1,2,0],[3,0],[0]]","2","0","","","","","","4","","","","","","","","",""
"","","","","","single-stim-button","84","766171","0.0-2.0-16.3-1.3","60a3128cb035414bb4588090","E1","batch5","","1134","tol_toboard","","","","tol_peg_1","1134","1134","0","[[2,0,0],[3,0],[1]]","4","[[1,2,0],[3,0],[0]]","2","0","","","","","","4","","","","","","","","",""
"","","","","","single-stim-button","85","771144","0.0-2.0-16.4-0.4","60a3128cb035414bb4588090","E1","batch5","","4971","tol_tohand","","","","tol_peg_3","4971","4971","0","[[2,0,0],[3,0],[0]]","5","[[1,2,0],[3,0],[0]]","2","0","","","","","","4","","","","","","","","",""
"","","","","","single-stim-button","86","771995","0.0-2.0-16.4-1.4","60a3128cb035414bb4588090","E1","batch5","","849","tol_toboard","","","","tol_peg_1","849","849","0","[[2,1,0],[3,0],[0]]","5","[[1,2,0],[3,0],[0]]","2","0","","","","","","4","","","","","","","","",""
"","","","","","single-stim-button","87","779538","0.0-2.0-16.5-0.5","60a3128cb035414bb4588090","E1","batch5","","7542","tol_tohand","","","","tol_peg_2","7542","7542","0","[[2,1,0],[0,0],[0]]","6","[[1,2,0],[3,0],[0]]","2","0","","","","","","4","","","","","","","","",""
"","","","","","single-stim-button","88","780791","0.0-2.0-16.5-1.5","60a3128cb035414bb4588090","E1","batch5","","1252","tol_toboard","","","","tol_peg_3","1252","1252","0","[[2,1,0],[0,0],[3]]","6","[[1,2,0],[3,0],[0]]","2","0","","","","","","4","","","","","","","","",""
"","","","","","single-stim-button","89","783847","0.0-2.0-16.6-0.6","60a3128cb035414bb4588090","E1","batch5","","3054","tol_tohand","","","","tol_peg_1","3054","3054","0","[[2,0,0],[0,0],[3]]","7","[[1,2,0],[3,0],[0]]","2","0","","","","","","4","","","","","","","","",""
"","","","","","single-stim-button","90","788431","0.0-2.0-16.6-1.6","60a3128cb035414bb4588090","E1","batch5","","4583","tol_toboard","","","","tol_peg_1","4583","4583","0","[[2,1,0],[0,0],[3]]","7","[[1,2,0],[3,0],[0]]","2","0","","","","","","4","","","","","","","","",""
"","","","","","single-stim-button","91","789636","0.0-2.0-16.7-0.7","60a3128cb035414bb4588090","E1","batch5","","1205","tol_tohand","","","","tol_peg_3","1205","1205","0","[[2,1,0],[0,0],[0]]","8","[[1,2,0],[3,0],[0]]","2","0","","","","","","4","","","","","","","","",""
"","","","","","single-stim-button","92","790680","0.0-2.0-16.7-1.7","60a3128cb035414bb4588090","E1","batch5","","1043","tol_toboard","","","","tol_peg_2","1043","1043","0","[[2,1,0],[3,0],[0]]","8","[[1,2,0],[3,0],[0]]","2","0","","","","","","4","","","","","","","","",""
"","","","","","single-stim-button","93","793214","0.0-2.0-16.8-0.8","60a3128cb035414bb4588090","E1","batch5","","2533","tol_tohand","","","","tol_peg_1","2533","2533","0","[[2,0,0],[3,0],[0]]","9","[[1,2,0],[3,0],[0]]","2","0","","","","","","4","","","","","","","","",""
"","","","","","single-stim-button","94","800717","0.0-2.0-16.8-1.8","60a3128cb035414bb4588090","E1","batch5","","7500","tol_toboard","","","","tol_peg_3","7500","7500","0","[[2,0,0],[3,0],[1]]","9","[[1,2,0],[3,0],[0]]","2","0","","","","","","4","","","","","","","","",""
"","","","","","single-stim-button","95","801582","0.0-2.0-16.9-0.9","60a3128cb035414bb4588090","E1","batch5","","864","tol_tohand","","","","tol_peg_1","864","864","0","[[0,0,0],[3,0],[1]]","10","[[1,2,0],[3,0],[0]]","2","0","","","","","","4","","","","","","","","",""
"","","","","","single-stim-button","96","802493","0.0-2.0-16.9-1.9","60a3128cb035414bb4588090","E1","batch5","","910","tol_toboard","","","","tol_peg_2","910","910","0","[[0,0,0],[3,2],[1]]","10","[[1,2,0],[3,0],[0]]","2","0","","","","","","4","","","","","","","","",""
"","","","","","single-stim-button","97","803170","0.0-2.0-16.10-0.10","60a3128cb035414bb4588090","E1","batch5","","676","tol_tohand","","","","tol_peg_3","676","676","0","[[0,0,0],[3,2],[0]]","11","[[1,2,0],[3,0],[0]]","2","0","","","","","","4","","","","","","","","",""
"","","","","","single-stim-button","98","804977","0.0-2.0-16.10-1.10","60a3128cb035414bb4588090","E1","batch5","","1806","tol_toboard","","","","tol_peg_1","1806","1806","0","[[1,0,0],[3,2],[0]]","11","[[1,2,0],[3,0],[0]]","2","0","","","","","","4","","","","","","","","",""
"","","","","","single-stim-button","99","805700","0.0-2.0-16.11-0.11","60a3128cb035414bb4588090","E1","batch5","","721","tol_tohand","","","","tol_peg_2","721","721","0","[[1,0,0],[3,0],[0]]","12","[[1,2,0],[3,0],[0]]","2","0","","","","","","4","","","","","","","","",""
"","","","","","single-stim-button","100","807690","0.0-2.0-16.11-1.11","60a3128cb035414bb4588090","E1","batch5","","1990","tol_toboard","","","","tol_peg_1","1990","1990","0","[[1,2,0],[3,0],[0]]","12","[[1,2,0],[3,0],[0]]","2","0","","","","","","4","","","","","","","","",""
"","","","","","poldrack-single-stim","101","808699","0.0-2.0-17.0","60a3128cb035414bb4588090","E1","batch5","","-1","tol_feedback","","","true","","1000","1000","500","","","","","","-1","none","true","3452","27375","","","","","","","","","",""
"","","","","","html-button-response","102","809920","0.0-2.0-18.0","60a3128cb035414bb4588090","E1","batch5","","1219","tol_trial_num","<div class = centerbox><p class = center-block-text>problem <strong>4</strong> out of 25 problems</p></div>","0","","","","","","","","","","","","","","","","","","","","","","","","",""
"","","","","","single-stim-button","103","814323","0.0-2.0-19.0-0.0","60a3128cb035414bb4588090","E1","batch5","","4401","tol_tohand","","","","tol_peg_2","4401","4401","0","[[3,0,0],[2,0],[0]]","1","[[3,0,0],[1,0],[2]]","3","0","","","","","","3","","","","","","","","",""
"","","","","","single-stim-button","104","816099","0.0-2.0-19.0-1.0","60a3128cb035414bb4588090","E1","batch5","","1774","tol_toboard","","","","tol_peg_3","1774","1774","0","[[3,0,0],[2,0],[1]]","1","[[3,0,0],[1,0],[2]]","3","0","","","","","","3","","","","","","","","",""
"","","","","","single-stim-button","105","821781","0.0-2.0-19.1-0.1","60a3128cb035414bb4588090","E1","batch5","","5681","tol_tohand","","","","tol_peg_2","5681","5681","0","[[3,0,0],[0,0],[1]]","2","[[3,0,0],[1,0],[2]]","3","0","","","","","","3","","","","","","","","",""
"","","","","","single-stim-button","106","825994","0.0-2.0-19.1-1.1","60a3128cb035414bb4588090","E1","batch5","","4211","tol_toboard","","","","tol_peg_2","4211","4211","0","[[3,0,0],[2,0],[1]]","2","[[3,0,0],[1,0],[2]]","3","0","","","","","","3","","","","","","","","",""
"","","","","","single-stim-button","107","829767","0.0-2.0-19.2-0.2","60a3128cb035414bb4588090","E1","batch5","","3771","tol_tohand","","","","tol_peg_3","3771","3771","0","[[3,0,0],[2,0],[0]]","3","[[3,0,0],[1,0],[2]]","3","0","","","","","","3","","","","","","","","",""
"","","","","","single-stim-button","108","831368","0.0-2.0-19.2-1.2","60a3128cb035414bb4588090","E1","batch5","","1599","tol_toboard","","","","tol_peg_1","1599","1599","0","[[3,1,0],[2,0],[0]]","3","[[3,0,0],[1,0],[2]]","3","0","","","","","","3","","","","","","","","",""
"","","","","","single-stim-button","109","832468","0.0-2.0-19.3-0.3","60a3128cb035414bb4588090","E1","batch5","","1099","tol_tohand","","","","tol_peg_2","1099","1099","0","[[3,1,0],[0,0],[0]]","4","[[3,0,0],[1,0],[2]]","3","0","","","","","","3","","","","","","","","",""
"","","","","","single-stim-button","110","833415","0.0-2.0-19.3-1.3","60a3128cb035414bb4588090","E1","batch5","","947","tol_toboard","","","","tol_peg_3","947","947","0","[[3,1,0],[0,0],[2]]","4","[[3,0,0],[1,0],[2]]","3","0","","","","","","3","","","","","","","","",""
"","","","","","single-stim-button","111","834464","0.0-2.0-19.4-0.4","60a3128cb035414bb4588090","E1","batch5","","1047","tol_tohand","","","","tol_peg_1","1047","1047","0","[[3,0,0],[0,0],[2]]","5","[[3,0,0],[1,0],[2]]","3","0","","","","","","3","","","","","","","","",""
"","","","","","single-stim-button","112","835336","0.0-2.0-19.4-1.4","60a3128cb035414bb4588090","E1","batch5","","872","tol_toboard","","","","tol_peg_2","872","872","0","[[3,0,0],[1,0],[2]]","5","[[3,0,0],[1,0],[2]]","3","0","","","","","","3","","","","","","","","",""
"","","","","","poldrack-single-stim","113","836339","0.0-2.0-20.0","60a3128cb035414bb4588090","E1","batch5","","-1","tol_feedback","","","true","","1000","1000","500","","","","","","-1","none","true","4401","15999","","","","","","","","","",""
"","","","","","html-button-response","114","837244","0.0-2.0-21.0","60a3128cb035414bb4588090","E1","batch5","","903.3999999985099","tol_trial_num","<div class = centerbox><p class = center-block-text>problem <strong>5</strong> out of 25 problems</p></div>","0","","","","","","","","","","","","","","","","","","","","","","","","",""
"","","","","","single-stim-button","115","841714","0.0-2.0-22.0-0.0","60a3128cb035414bb4588090","E1","batch5","","4469","tol_tohand","","","","tol_peg_1","4469","4469","0","[[0,0,0],[2,0],[3]]","1","[[0,0,0],[1,2],[3]]","4","0","","","","","","7","","","","","","","","",""
"","","","","","single-stim-button","116","845001","0.0-2.0-22.0-1.0","60a3128cb035414bb4588090","E1","batch5","","3286","tol_toboard","","","","tol_peg_2","3286","3286","0","[[0,0,0],[2,1],[3]]","1","[[0,0,0],[1,2],[3]]","4","0","","","","","","7","","","","","","","","",""
"","","","","","single-stim-button","117","846635","0.0-2.0-22.1-0.1","60a3128cb035414bb4588090","E1","batch5","","1632","tol_tohand","","","","tol_peg_2","1632","1632","0","[[0,0,0],[2,0],[3]]","2","[[0,0,0],[1,2],[3]]","4","0","","","","","","7","","","","","","","","",""
"","","","","","single-stim-button","118","847334","0.0-2.0-22.1-1.1","60a3128cb035414bb4588090","E1","batch5","","698","tol_toboard","","","","tol_peg_1","698","698","0","[[1,0,0],[2,0],[3]]","2","[[0,0,0],[1,2],[3]]","4","0","","","","","","7","","","","","","","","",""
"","","","","","single-stim-button","119","852710","0.0-2.0-22.2-0.2","60a3128cb035414bb4588090","E1","batch5","","5374","tol_tohand","","","","tol_peg_3","5374","5374","0","[[1,0,0],[2,0],[0]]","3","[[0,0,0],[1,2],[3]]","4","0","","","","","","7","","","","","","","","",""
"","","","","","single-stim-button","120","853632","0.0-2.0-22.2-1.2","60a3128cb035414bb4588090","E1","batch5","","920","tol_toboard","","","","tol_peg_1","920","920","0","[[1,3,0],[2,0],[0]]","3","[[0,0,0],[1,2],[3]]","4","0","","","","","","7","","","","","","","","",""
"","","","","","single-stim-button","121","855330","0.0-2.0-22.3-0.3","60a3128cb035414bb4588090","E1","batch5","","1697","tol_tohand","","","","tol_peg_2","1697","1697","0","[[1,3,0],[0,0],[0]]","4","[[0,0,0],[1,2],[3]]","4","0","","","","","","7","","","","","","","","",""
"","","","","","single-stim-button","122","856382","0.0-2.0-22.3-1.3","60a3128cb035414bb4588090","E1","batch5","","1051","tol_toboard","","","","tol_peg_3","1051","1051","0","[[1,3,0],[0,0],[2]]","4","[[0,0,0],[1,2],[3]]","4","0","","","","","","7","","","","","","","","",""
"","","","","","single-stim-button","123","861528","0.0-2.0-22.4-0.4","60a3128cb035414bb4588090","E1","batch5","","5144","tol_tohand","","","","tol_peg_3","5144","5144","0","[[1,3,0],[0,0],[0]]","5","[[0,0,0],[1,2],[3]]","4","0","","","","","","7","","","","","","","","",""
"","","","","","single-stim-button","124","862826","0.0-2.0-22.4-1.4","60a3128cb035414bb4588090","E1","batch5","","1297","tol_toboard","","","","tol_peg_1","1297","1297","0","[[1,3,2],[0,0],[0]]","5","[[0,0,0],[1,2],[3]]","4","0","","","","","","7","","","","","","","","",""
"","","","","","single-stim-button","125","863446","0.0-2.0-22.5-0.5","60a3128cb035414bb4588090","E1","batch5","","618","tol_tohand","","","","tol_peg_1","618","618","0","[[1,3,0],[0,0],[0]]","6","[[0,0,0],[1,2],[3]]","4","0","","","","","","7","","","","","","","","",""
"","","","","","single-stim-button","126","865208","0.0-2.0-22.5-1.5","60a3128cb035414bb4588090","E1","batch5","","1761","tol_toboard","","","","tol_peg_2","1761","1761","0","[[1,3,0],[2,0],[0]]","6","[[0,0,0],[1,2],[3]]","4","0","","","","","","7","","","","","","","","",""
"","","","","","single-stim-button","127","866139","0.0-2.0-22.6-0.6","60a3128cb035414bb4588090","E1","batch5","","930","tol_tohand","","","","tol_peg_2","930","930","0","[[1,3,0],[0,0],[0]]","7","[[0,0,0],[1,2],[3]]","4","0","","","","","","7","","","","","","","","",""
"","","","","","single-stim-button","128","867019","0.0-2.0-22.6-1.6","60a3128cb035414bb4588090","E1","batch5","","878","tol_toboard","","","","tol_peg_3","878","878","0","[[1,3,0],[0,0],[2]]","7","[[0,0,0],[1,2],[3]]","4","0","","","","","","7","","","","","","","","",""
"","","","","","single-stim-button","129","867638","0.0-2.0-22.7-0.7","60a3128cb035414bb4588090","E1","batch5","","618","tol_tohand","","","","tol_peg_3","618","618","0","[[1,3,0],[0,0],[0]]","8","[[0,0,0],[1,2],[3]]","4","0","","","","","","7","","","","","","","","",""
"","","","","","single-stim-button","130","868315","0.0-2.0-22.7-1.7","60a3128cb035414bb4588090","E1","batch5","","676","tol_toboard","","","","tol_peg_2","676","676","0","[[1,3,0],[2,0],[0]]","8","[[0,0,0],[1,2],[3]]","4","0","","","","","","7","","","","","","","","",""
"","","","","","single-stim-button","131","869624","0.0-2.0-22.8-0.8","60a3128cb035414bb4588090","E1","batch5","","1307","tol_tohand","","","","tol_peg_2","1307","1307","0","[[1,3,0],[0,0],[0]]","9","[[0,0,0],[1,2],[3]]","4","0","","","","","","7","","","","","","","","",""
"","","","","","single-stim-button","132","870911","0.0-2.0-22.8-1.8","60a3128cb035414bb4588090","E1","batch5","","1287","tol_toboard","","","","tol_peg_2","1287","1287","0","[[1,3,0],[2,0],[0]]","9","[[0,0,0],[1,2],[3]]","4","0","","","","","","7","","","","","","","","",""
"","","","","","single-stim-button","133","871620","0.0-2.0-22.9-0.9","60a3128cb035414bb4588090","E1","batch5","","707","tol_tohand","","","","tol_peg_1","707","707","0","[[1,0,0],[2,0],[0]]","10","[[0,0,0],[1,2],[3]]","4","0","","","","","","7","","","","","","","","",""
"","","","","","single-stim-button","134","873731","0.0-2.0-22.9-1.9","60a3128cb035414bb4588090","E1","batch5","","2108","tol_toboard","","","","tol_peg_3","2108","2108","0","[[1,0,0],[2,0],[3]]","10","[[0,0,0],[1,2],[3]]","4","0","","","","","","7","","","","","","","","",""
"","","","","","single-stim-button","135","874415","0.0-2.0-22.10-0.10","60a3128cb035414bb4588090","E1","batch5","","683","tol_tohand","","","","tol_peg_1","683","683","0","[[0,0,0],[2,0],[3]]","11","[[0,0,0],[1,2],[3]]","4","0","","","","","","7","","","","","","","","",""
"","","","","","single-stim-button","136","878669","0.0-2.0-22.10-1.10","60a3128cb035414bb4588090","E1","batch5","","4253","tol_toboard","","","","tol_peg_2","4253","4253","0","[[0,0,0],[2,1],[3]]","11","[[0,0,0],[1,2],[3]]","4","0","","","","","","7","","","","","","","","",""
"","","","","","single-stim-button","137","880819","0.0-2.0-22.11-0.11","60a3128cb035414bb4588090","E1","batch5","","2148","tol_tohand","","","","tol_peg_2","2148","2148","0","[[0,0,0],[2,0],[3]]","12","[[0,0,0],[1,2],[3]]","4","0","","","","","","7","","","","","","","","",""
"","","","","","single-stim-button","138","883479","0.0-2.0-22.11-1.11","60a3128cb035414bb4588090","E1","batch5","","2659","tol_toboard","","","","tol_peg_1","2659","2659","0","[[1,0,0],[2,0],[3]]","12","[[0,0,0],[1,2],[3]]","4","0","","","","","","7","","","","","","","","",""
"","","","","","single-stim-button","139","884144","0.0-2.0-22.12-0.12","60a3128cb035414bb4588090","E1","batch5","","664","tol_tohand","","","","tol_peg_2","664","664","0","[[1,0,0],[0,0],[3]]","13","[[0,0,0],[1,2],[3]]","4","0","","","","","","7","","","","","","","","",""
"","","","","","single-stim-button","140","886336","0.0-2.0-22.12-1.12","60a3128cb035414bb4588090","E1","batch5","","2190","tol_toboard","","","","tol_peg_1","2190","2190","0","[[1,2,0],[0,0],[3]]","13","[[0,0,0],[1,2],[3]]","4","0","","","","","","7","","","","","","","","",""
"","","","","","single-stim-button","141","887255","0.0-2.0-22.13-0.13","60a3128cb035414bb4588090","E1","batch5","","917","tol_tohand","","","","tol_peg_1","917","917","0","[[1,0,0],[0,0],[3]]","14","[[0,0,0],[1,2],[3]]","4","0","","","","","","7","","","","","","","","",""
"","","","","","single-stim-button","142","889789","0.0-2.0-22.13-1.13","60a3128cb035414bb4588090","E1","batch5","","2533","tol_toboard","","","","tol_peg_2","2533","2533","0","[[1,0,0],[2,0],[3]]","14","[[0,0,0],[1,2],[3]]","4","0","","","","","","7","","","","","","","","",""
"","","","","","single-stim-button","143","890974","0.0-2.0-22.14-0.14","60a3128cb035414bb4588090","E1","batch5","","1183","tol_tohand","","","","tol_peg_2","1183","1183","0","[[1,0,0],[0,0],[3]]","15","[[0,0,0],[1,2],[3]]","4","0","","","","","","7","","","","","","","","",""
"","","","","","single-stim-button","144","892141","0.0-2.0-22.14-1.14","60a3128cb035414bb4588090","E1","batch5","","1167","tol_toboard","","","","tol_peg_2","1167","1167","0","[[1,0,0],[2,0],[3]]","15","[[0,0,0],[1,2],[3]]","4","0","","","","","","7","","","","","","","","",""
"","","","","","single-stim-button","145","896534","0.0-2.0-22.15-0.15","60a3128cb035414bb4588090","E1","batch5","","4392","tol_tohand","","","","tol_peg_1","4392","4392","0","[[0,0,0],[2,0],[3]]","16","[[0,0,0],[1,2],[3]]","4","0","","","","","","7","","","","","","","","",""
"","","","","","single-stim-button","146","898538","0.0-2.0-22.15-1.15","60a3128cb035414bb4588090","E1","batch5","","2002","tol_toboard","","","","tol_peg_1","2002","2002","0","[[1,0,0],[2,0],[3]]","16","[[0,0,0],[1,2],[3]]","4","0","","","","","","7","","","","","","","","",""
"","","","","","single-stim-button","147","904055","0.0-2.0-22.16-0.16","60a3128cb035414bb4588090","E1","batch5","","5516","tol_tohand","","","","tol_peg_1","5516","5516","0","[[0,0,0],[2,0],[3]]","17","[[0,0,0],[1,2],[3]]","4","0","","","","","","7","","","","","","","","",""
"","","","","","single-stim-button","148","905199","0.0-2.0-22.16-1.16","60a3128cb035414bb4588090","E1","batch5","","1142","tol_toboard","","","","tol_peg_2","1142","1142","0","[[0,0,0],[2,1],[3]]","17","[[0,0,0],[1,2],[3]]","4","0","","","","","","7","","","","","","","","",""
"","","","","","single-stim-button","149","905952","0.0-2.0-22.17-0.17","60a3128cb035414bb4588090","E1","batch5","","753","tol_tohand","","","","tol_peg_3","753","753","0","[[0,0,0],[2,1],[0]]","18","[[0,0,0],[1,2],[3]]","4","0","","","","","","7","","","","","","","","",""
"","","","","","single-stim-button","150","907133","0.0-2.0-22.17-1.17","60a3128cb035414bb4588090","E1","batch5","","1179","tol_toboard","","","","tol_peg_1","1179","1179","0","[[3,0,0],[2,1],[0]]","18","[[0,0,0],[1,2],[3]]","4","0","","","","","","7","","","","","","","","",""
"","","","","","single-stim-button","151","912321","0.0-2.0-22.18-0.18","60a3128cb035414bb4588090","E1","batch5","","5187","tol_tohand","","","","tol_peg_1","5187","5187","0","[[0,0,0],[2,1],[0]]","19","[[0,0,0],[1,2],[3]]","4","0","","","","","","7","","","","","","","","",""
"","","","","","single-stim-button","152","913093","0.0-2.0-22.18-1.18","60a3128cb035414bb4588090","E1","batch5","","770","tol_toboard","","","","tol_peg_3","770","770","0","[[0,0,0],[2,1],[3]]","19","[[0,0,0],[1,2],[3]]","4","0","","","","","","7","","","","","","","","",""
"","","","","","single-stim-button","153","914908","0.0-2.0-22.19-0.19","60a3128cb035414bb4588090","E1","batch5","","1814","tol_tohand","","","","tol_peg_2","1814","1814","0","[[0,0,0],[2,0],[3]]","20","[[0,0,0],[1,2],[3]]","4","0","","","","","","7","","","","","","","","",""
"","","","","","single-stim-button","154","915822","0.0-2.0-22.19-1.19","60a3128cb035414bb4588090","E1","batch5","","913","tol_toboard","","","","tol_peg_1","913","913","0","[[1,0,0],[2,0],[3]]","20","[[0,0,0],[1,2],[3]]","4","0","","","","","","7","","","","","","","","",""
"","","","","","single-stim-button","155","921025","0.0-2.0-22.20-0.20","60a3128cb035414bb4588090","E1","batch5","","5201","tol_tohand","","","","tol_peg_2","5201","5201","0","[[1,0,0],[0,0],[3]]","21","[[0,0,0],[1,2],[3]]","4","0","","","","","","7","","","","","","","","",""
"","","","","","single-stim-button","156","922791","0.0-2.0-22.20-1.20","60a3128cb035414bb4588090","E1","batch5","","1764","tol_toboard","","","","tol_peg_2","1764","1764","0","[[1,0,0],[2,0],[3]]","21","[[0,0,0],[1,2],[3]]","4","0","","","","","","7","","","","","","","","",""
"","","","","","single-stim-button","157","925499","0.0-2.0-22.21-0.21","60a3128cb035414bb4588090","E1","batch5","","2706","tol_tohand","","","","tol_peg_3","2706","2706","0","[[1,0,0],[2,0],[0]]","22","[[0,0,0],[1,2],[3]]","4","0","","","","","","7","","","","","","","","",""
"","","","","","single-stim-button","158","926244","0.0-2.0-22.21-1.21","60a3128cb035414bb4588090","E1","batch5","","743","tol_toboard","","","","tol_peg_2","743","743","0","[[1,0,0],[2,3],[0]]","22","[[0,0,0],[1,2],[3]]","4","0","","","","","","7","","","","","","","","",""
"","","","","","single-stim-button","159","927175","0.0-2.0-22.22-0.22","60a3128cb035414bb4588090","E1","batch5","","931","tol_tohand","","","","tol_peg_1","931","931","0","[[0,0,0],[2,3],[0]]","23","[[0,0,0],[1,2],[3]]","4","0","","","","","","7","","","","","","","","",""
"","","","","","single-stim-button","160","928164","0.0-2.0-22.22-1.22","60a3128cb035414bb4588090","E1","batch5","","987","tol_toboard","","","","tol_peg_3","987","987","0","[[0,0,0],[2,3],[1]]","23","[[0,0,0],[1,2],[3]]","4","0","","","","","","7","","","","","","","","",""
"","","","","","single-stim-button","161","931927","0.0-2.0-22.23-0.23","60a3128cb035414bb4588090","E1","batch5","","3762","tol_tohand","","","","tol_peg_2","3762","3762","0","[[0,0,0],[2,0],[1]]","24","[[0,0,0],[1,2],[3]]","4","0","","","","","","7","","","","","","","","",""
"","","","","","single-stim-button","162","932846","0.0-2.0-22.23-1.23","60a3128cb035414bb4588090","E1","batch5","","917","tol_toboard","","","","tol_peg_1","917","917","0","[[3,0,0],[2,0],[1]]","24","[[0,0,0],[1,2],[3]]","4","0","","","","","","7","","","","","","","","",""
"","","","","","single-stim-button","163","933860","0.0-2.0-22.24-0.24","60a3128cb035414bb4588090","E1","batch5","","1013","tol_tohand","","","","tol_peg_2","1013","1013","0","[[3,0,0],[0,0],[1]]","25","[[0,0,0],[1,2],[3]]","4","0","","","","","","7","","","","","","","","",""
"","","","","","single-stim-button","164","934690","0.0-2.0-22.24-1.24","60a3128cb035414bb4588090","E1","batch5","","830","tol_toboard","","","","tol_peg_1","830","830","0","[[3,2,0],[0,0],[1]]","25","[[0,0,0],[1,2],[3]]","4","0","","","","","","7","","","","","","","","",""
"","","","","","single-stim-button","165","935617","0.0-2.0-22.25-0.25","60a3128cb035414bb4588090","E1","batch5","","926","tol_tohand","","","","tol_peg_3","926","926","0","[[3,2,0],[0,0],[0]]","26","[[0,0,0],[1,2],[3]]","4","0","","","","","","7","","","","","","","","",""
"","","","","","single-stim-button","166","936458","0.0-2.0-22.25-1.25","60a3128cb035414bb4588090","E1","batch5","","839","tol_toboard","","","","tol_peg_2","839","839","0","[[3,2,0],[1,0],[0]]","26","[[0,0,0],[1,2],[3]]","4","0","","","","","","7","","","","","","","","",""
"","","","","","single-stim-button","167","937322","0.0-2.0-22.26-0.26","60a3128cb035414bb4588090","E1","batch5","","863","tol_tohand","","","","tol_peg_1","863","863","0","[[3,0,0],[1,0],[0]]","27","[[0,0,0],[1,2],[3]]","4","0","","","","","","7","","","","","","","","",""
"","","","","","single-stim-button","168","938218","0.0-2.0-22.26-1.26","60a3128cb035414bb4588090","E1","batch5","","896","tol_toboard","","","","tol_peg_2","896","896","0","[[3,0,0],[1,2],[0]]","27","[[0,0,0],[1,2],[3]]","4","0","","","","","","7","","","","","","","","",""
"","","","","","single-stim-button","169","938961","0.0-2.0-22.27-0.27","60a3128cb035414bb4588090","E1","batch5","","741","tol_tohand","","","","tol_peg_1","741","741","0","[[0,0,0],[1,2],[0]]","28","[[0,0,0],[1,2],[3]]","4","0","","","","","","7","","","","","","","","",""
"","","","","","single-stim-button","170","940025","0.0-2.0-22.27-1.27","60a3128cb035414bb4588090","E1","batch5","","1062","tol_toboard","","","","tol_peg_3","1062","1062","0","[[0,0,0],[1,2],[3]]","28","[[0,0,0],[1,2],[3]]","4","0","","","","","","7","","","","","","","","",""
"","","","","","poldrack-single-stim","171","941028","0.0-2.0-23.0","60a3128cb035414bb4588090","E1","batch5","","-1","tol_feedback","","","true","","1000","1000","500","","","","","","-1","none","true","4469","61896","","","","","","","","","",""
"","","","","","html-button-response","172","942035","0.0-2.0-24.0","60a3128cb035414bb4588090","E1","batch5","","1005.5","tol_trial_num","<div class = centerbox><p class = center-block-text>problem <strong>6</strong> out of 25 problems</p></div>","0","","","","","","","","","","","","","","","","","","","","","","","","",""
"","","","","","single-stim-button","173","945347","0.0-2.0-25.0-0.0","60a3128cb035414bb4588090","E1","batch5","","3310","tol_tohand","","","","tol_peg_2","3310","3310","0","[[0,0,0],[1,0],[3]]","1","[[1,0,0],[2,3],[0]]","5","0","","","","","","6","","","","","","","","",""
"","","","","","single-stim-button","174","948735","0.0-2.0-25.0-1.0","60a3128cb035414bb4588090","E1","batch5","","3387","tol_toboard","","","","tol_peg_2","3387","3387","0","[[0,0,0],[1,2],[3]]","1","[[1,0,0],[2,3],[0]]","5","0","","","","","","6","","","","","","","","",""
"","","","","","single-stim-button","175","952583","0.0-2.0-25.1-0.1","60a3128cb035414bb4588090","E1","batch5","","3847","tol_tohand","","","","tol_peg_2","3847","3847","0","[[0,0,0],[1,0],[3]]","2","[[1,0,0],[2,3],[0]]","5","0","","","","","","6","","","","","","","","",""
"","","","","","single-stim-button","176","954687","0.0-2.0-25.1-1.1","60a3128cb035414bb4588090","E1","batch5","","2103","tol_toboard","","","","tol_peg_1","2103","2103","0","[[2,0,0],[1,0],[3]]","2","[[1,0,0],[2,3],[0]]","5","0","","","","","","6","","","","","","","","",""
"","","","","","single-stim-button","177","959885","0.0-2.0-25.2-0.2","60a3128cb035414bb4588090","E1","batch5","","5196","tol_tohand","","","","tol_peg_1","5196","5196","0","[[0,0,0],[1,0],[3]]","3","[[1,0,0],[2,3],[0]]","5","0","","","","","","6","","","","","","","","",""
"","","","","","single-stim-button","178","961000","0.0-2.0-25.2-1.2","60a3128cb035414bb4588090","E1","batch5","","1114","tol_toboard","","","","tol_peg_2","1114","1114","0","[[0,0,0],[1,2],[3]]","3","[[1,0,0],[2,3],[0]]","5","0","","","","","","6","","","","","","","","",""
"","","","","","single-stim-button","179","963178","0.0-2.0-25.3-0.3","60a3128cb035414bb4588090","E1","batch5","","2176","tol_tohand","","","","tol_peg_3","2176","2176","0","[[0,0,0],[1,2],[0]]","4","[[1,0,0],[2,3],[0]]","5","0","","","","","","6","","","","","","","","",""
"","","","","","single-stim-button","180","968216","0.0-2.0-25.3-1.3","60a3128cb035414bb4588090","E1","batch5","","5037","tol_toboard","","","","tol_peg_3","5037","5037","0","[[0,0,0],[1,2],[3]]","4","[[1,0,0],[2,3],[0]]","5","0","","","","","","6","","","","","","","","",""
"","","","","","single-stim-button","181","969155","0.0-2.0-25.4-0.4","60a3128cb035414bb4588090","E1","batch5","","937","tol_tohand","","","","tol_peg_2","937","937","0","[[0,0,0],[1,0],[3]]","5","[[1,0,0],[2,3],[0]]","5","0","","","","","","6","","","","","","","","",""
"","","","","","single-stim-button","182","972175","0.0-2.0-25.4-1.4","60a3128cb035414bb4588090","E1","batch5","","3020","tol_toboard","","","","tol_peg_2","3020","3020","0","[[0,0,0],[1,2],[3]]","5","[[1,0,0],[2,3],[0]]","5","0","","","","","","6","","","","","","","","",""
"","","","","","single-stim-button","183","973672","0.0-2.0-25.5-0.5","60a3128cb035414bb4588090","E1","batch5","","1495","tol_tohand","","","","tol_peg_3","1495","1495","0","[[0,0,0],[1,2],[0]]","6","[[1,0,0],[2,3],[0]]","5","0","","","","","","6","","","","","","","","",""
"","","","","","single-stim-button","184","974570","0.0-2.0-25.5-1.5","60a3128cb035414bb4588090","E1","batch5","","898","tol_toboard","","","","tol_peg_1","898","898","0","[[3,0,0],[1,2],[0]]","6","[[1,0,0],[2,3],[0]]","5","0","","","","","","6","","","","","","","","",""
"","","","","","single-stim-button","185","975387","0.0-2.0-25.6-0.6","60a3128cb035414bb4588090","E1","batch5","","815","tol_tohand","","","","tol_peg_2","815","815","0","[[3,0,0],[1,0],[0]]","7","[[1,0,0],[2,3],[0]]","5","0","","","","","","6","","","","","","","","",""
"","","","","","single-stim-button","186","976059","0.0-2.0-25.6-1.6","60a3128cb035414bb4588090","E1","batch5","","671","tol_toboard","","","","tol_peg_3","671","671","0","[[3,0,0],[1,0],[2]]","7","[[1,0,0],[2,3],[0]]","5","0","","","","","","6","","","","","","","","",""
"","","","","","single-stim-button","187","980955","0.0-2.0-25.7-0.7","60a3128cb035414bb4588090","E1","batch5","","4894","tol_tohand","","","","tol_peg_2","4894","4894","0","[[3,0,0],[0,0],[2]]","8","[[1,0,0],[2,3],[0]]","5","0","","","","","","6","","","","","","","","",""
"","","","","","single-stim-button","188","981610","0.0-2.0-25.7-1.7","60a3128cb035414bb4588090","E1","batch5","","655","tol_toboard","","","","tol_peg_1","655","655","0","[[3,1,0],[0,0],[2]]","8","[[1,0,0],[2,3],[0]]","5","0","","","","","","6","","","","","","","","",""
"","","","","","single-stim-button","189","982426","0.0-2.0-25.8-0.8","60a3128cb035414bb4588090","E1","batch5","","815","tol_tohand","","","","tol_peg_1","815","815","0","[[3,0,0],[0,0],[2]]","9","[[1,0,0],[2,3],[0]]","5","0","","","","","","6","","","","","","","","",""
"","","","","","single-stim-button","190","984187","0.0-2.0-25.8-1.8","60a3128cb035414bb4588090","E1","batch5","","1759","tol_toboard","","","","tol_peg_2","1759","1759","0","[[3,0,0],[1,0],[2]]","9","[[1,0,0],[2,3],[0]]","5","0","","","","","","6","","","","","","","","",""
"","","","","","single-stim-button","191","985282","0.0-2.0-25.9-0.9","60a3128cb035414bb4588090","E1","batch5","","1094","tol_tohand","","","","tol_peg_3","1094","1094","0","[[3,0,0],[1,0],[0]]","10","[[1,0,0],[2,3],[0]]","5","0","","","","","","6","","","","","","","","",""
"","","","","","single-stim-button","192","985920","0.0-2.0-25.9-1.9","60a3128cb035414bb4588090","E1","batch5","","638","tol_toboard","","","","tol_peg_2","638","638","0","[[3,0,0],[1,2],[0]]","10","[[1,0,0],[2,3],[0]]","5","0","","","","","","6","","","","","","","","",""
"","","","","","single-stim-button","193","987958","0.0-2.0-25.10-0.10","60a3128cb035414bb4588090","E1","batch5","","2037","tol_tohand","","","","tol_peg_1","2037","2037","0","[[0,0,0],[1,2],[0]]","11","[[1,0,0],[2,3],[0]]","5","0","","","","","","6","","","","","","","","",""
"","","","","","single-stim-button","194","997343","0.0-2.0-25.10-1.10","60a3128cb035414bb4588090","E1","batch5","","9384","tol_toboard","","","","tol_peg_3","9384","9384","0","[[0,0,0],[1,2],[3]]","11","[[1,0,0],[2,3],[0]]","5","0","","","","","","6","","","","","","","","",""
"","","","","","single-stim-button","195","999694","0.0-2.0-25.11-0.11","60a3128cb035414bb4588090","E1","batch5","","2350","tol_tohand","","","","tol_peg_2","2350","2350","0","[[0,0,0],[1,0],[3]]","12","[[1,0,0],[2,3],[0]]","5","0","","","","","","6","","","","","","","","",""
"","","","","","single-stim-button","196","1000549","0.0-2.0-25.11-1.11","60a3128cb035414bb4588090","E1","batch5","","854","tol_toboard","","","","tol_peg_1","854","854","0","[[2,0,0],[1,0],[3]]","12","[[1,0,0],[2,3],[0]]","5","0","","","","","","6","","","","","","","","",""
"","","","","","single-stim-button","197","1001259","0.0-2.0-25.12-0.12","60a3128cb035414bb4588090","E1","batch5","","709","tol_tohand","","","","tol_peg_2","709","709","0","[[2,0,0],[0,0],[3]]","13","[[1,0,0],[2,3],[0]]","5","0","","","","","","6","","","","","","","","",""
"","","","","","single-stim-button","198","1001850","0.0-2.0-25.12-1.12","60a3128cb035414bb4588090","E1","batch5","","589","tol_toboard","","","","tol_peg_1","589","589","0","[[2,1,0],[0,0],[3]]","13","[[1,0,0],[2,3],[0]]","5","0","","","","","","6","","","","","","","","",""
"","","","","","single-stim-button","199","1002610","0.0-2.0-25.13-0.13","60a3128cb035414bb4588090","E1","batch5","","759","tol_tohand","","","","tol_peg_1","759","759","0","[[2,0,0],[0,0],[3]]","14","[[1,0,0],[2,3],[0]]","5","0","","","","","","6","","","","","","","","",""
"","","","","","single-stim-button","200","1003268","0.0-2.0-25.13-1.13","60a3128cb035414bb4588090","E1","batch5","","656","tol_toboard","","","","tol_peg_1","656","656","0","[[2,1,0],[0,0],[3]]","14","[[1,0,0],[2,3],[0]]","5","0","","","","","","6","","","","","","","","",""
"","","","","","single-stim-button","201","1004643","0.0-2.0-25.14-0.14","60a3128cb035414bb4588090","E1","batch5","","1374","tol_tohand","","","","tol_peg_3","1374","1374","0","[[2,1,0],[0,0],[0]]","15","[[1,0,0],[2,3],[0]]","5","0","","","","","","6","","","","","","","","",""
"","","","","","single-stim-button","202","1005372","0.0-2.0-25.14-1.14","60a3128cb035414bb4588090","E1","batch5","","728","tol_toboard","","","","tol_peg_2","728","728","0","[[2,1,0],[3,0],[0]]","15","[[1,0,0],[2,3],[0]]","5","0","","","","","","6","","","","","","","","",""
"","","","","","single-stim-button","203","1008440","0.0-2.0-25.15-0.15","60a3128cb035414bb4588090","E1","batch5","","3066","tol_tohand","","","","tol_peg_1","3066","3066","0","[[2,0,0],[3,0],[0]]","16","[[1,0,0],[2,3],[0]]","5","0","","","","","","6","","","","","","","","",""
"","","","","","single-stim-button","204","1011297","0.0-2.0-25.15-1.15","60a3128cb035414bb4588090","E1","batch5","","2855","tol_toboard","","","","tol_peg_2","2855","2855","0","[[2,0,0],[3,1],[0]]","16","[[1,0,0],[2,3],[0]]","5","0","","","","","","6","","","","","","","","",""
"","","","","","single-stim-button","205","1012256","0.0-2.0-25.16-0.16","60a3128cb035414bb4588090","E1","batch5","","959","tol_tohand","","","","tol_peg_1","959","959","0","[[0,0,0],[3,1],[0]]","17","[[1,0,0],[2,3],[0]]","5","0","","","","","","6","","","","","","","","",""
"","","","","","single-stim-button","206","1013434","0.0-2.0-25.16-1.16","60a3128cb035414bb4588090","E1","batch5","","1177","tol_toboard","","","","tol_peg_3","1177","1177","0","[[0,0,0],[3,1],[2]]","17","[[1,0,0],[2,3],[0]]","5","0","","","","","","6","","","","","","","","",""
"","","","","","single-stim-button","207","1014237","0.0-2.0-25.17-0.17","60a3128cb035414bb4588090","E1","batch5","","801","tol_tohand","","","","tol_peg_2","801","801","0","[[0,0,0],[3,0],[2]]","18","[[1,0,0],[2,3],[0]]","5","0","","","","","","6","","","","","","","","",""
"","","","","","single-stim-button","208","1015113","0.0-2.0-25.17-1.17","60a3128cb035414bb4588090","E1","batch5","","876","tol_toboard","","","","tol_peg_1","876","876","0","[[1,0,0],[3,0],[2]]","18","[[1,0,0],[2,3],[0]]","5","0","","","","","","6","","","","","","","","",""
"","","","","","single-stim-button","209","1018074","0.0-2.0-25.18-0.18","60a3128cb035414bb4588090","E1","batch5","","2959","tol_tohand","","","","tol_peg_2","2959","2959","0","[[1,0,0],[0,0],[2]]","19","[[1,0,0],[2,3],[0]]","5","0","","","","","","6","","","","","","","","",""
"","","","","","single-stim-button","210","1019979","0.0-2.0-25.18-1.18","60a3128cb035414bb4588090","E1","batch5","","1905","tol_toboard","","","","tol_peg_1","1905","1905","0","[[1,3,0],[0,0],[2]]","19","[[1,0,0],[2,3],[0]]","5","0","","","","","","6","","","","","","","","",""
"","","","","","single-stim-button","211","1020808","0.0-2.0-25.19-0.19","60a3128cb035414bb4588090","E1","batch5","","828","tol_tohand","","","","tol_peg_3","828","828","0","[[1,3,0],[0,0],[0]]","20","[[1,0,0],[2,3],[0]]","5","0","","","","","","6","","","","","","","","",""
"","","","","","single-stim-button","212","1021915","0.0-2.0-25.19-1.19","60a3128cb035414bb4588090","E1","batch5","","1106","tol_toboard","","","","tol_peg_2","1106","1106","0","[[1,3,0],[2,0],[0]]","20","[[1,0,0],[2,3],[0]]","5","0","","","","","","6","","","","","","","","",""
"","","","","","single-stim-button","213","1022655","0.0-2.0-25.20-0.20","60a3128cb035414bb4588090","E1","batch5","","738","tol_tohand","","","","tol_peg_1","738","738","0","[[1,0,0],[2,0],[0]]","21","[[1,0,0],[2,3],[0]]","5","0","","","","","","6","","","","","","","","",""
"","","","","","single-stim-button","214","1023593","0.0-2.0-25.20-1.20","60a3128cb035414bb4588090","E1","batch5","","938","tol_toboard","","","","tol_peg_2","938","938","0","[[1,0,0],[2,3],[0]]","21","[[1,0,0],[2,3],[0]]","5","0","","","","","","6","","","","","","","","",""
"","","","","","poldrack-single-stim","215","1024603","0.0-2.0-26.0","60a3128cb035414bb4588090","E1","batch5","","-1","tol_feedback","","","true","","1000","1000","500","","","","","","-1","none","true","3310","41159","","","","","","","","","",""
"","","","","","html-button-response","216","1026367","0.0-2.0-27.0","60a3128cb035414bb4588090","E1","batch5","","1762.2999999970198","tol_trial_num","<div class = centerbox><p class = center-block-text>problem <strong>7</strong> out of 25 problems</p></div>","0","","","","","","","","","","","","","","","","","","","","","","","","",""
"","","","","","single-stim-button","217","1028670","0.0-2.0-28.0-0.0","60a3128cb035414bb4588090","E1","batch5","","2302","tol_tohand","","","","tol_peg_3","2302","2302","0","[[2,1,0],[0,0],[0]]","1","[[1,2,0],[3,0],[0]]","6","0","","","","","","5","","","","","","","","",""
"","","","","","single-stim-button","218","1029987","0.0-2.0-28.0-1.0","60a3128cb035414bb4588090","E1","batch5","","1316","tol_toboard","","","","tol_peg_2","1316","1316","0","[[2,1,0],[3,0],[0]]","1","[[1,2,0],[3,0],[0]]","6","0","","","","","","5","","","","","","","","",""
"","","","","","single-stim-button","219","1032048","0.0-2.0-28.1-0.1","60a3128cb035414bb4588090","E1","batch5","","2060","tol_tohand","","","","tol_peg_1","2060","2060","0","[[2,0,0],[3,0],[0]]","2","[[1,2,0],[3,0],[0]]","6","0","","","","","","5","","","","","","","","",""
"","","","","","single-stim-button","220","1032776","0.0-2.0-28.1-1.1","60a3128cb035414bb4588090","E1","batch5","","727","tol_toboard","","","","tol_peg_3","727","727","0","[[2,0,0],[3,0],[1]]","2","[[1,2,0],[3,0],[0]]","6","0","","","","","","5","","","","","","","","",""
"","","","","","single-stim-button","221","1036346","0.0-2.0-28.2-0.2","60a3128cb035414bb4588090","E1","batch5","","3568","tol_tohand","","","","tol_peg_1","3568","3568","0","[[0,0,0],[3,0],[1]]","3","[[1,2,0],[3,0],[0]]","6","0","","","","","","5","","","","","","","","",""
"","","","","","single-stim-button","222","1037151","0.0-2.0-28.2-1.2","60a3128cb035414bb4588090","E1","batch5","","804","tol_toboard","","","","tol_peg_2","804","804","0","[[0,0,0],[3,2],[1]]","3","[[1,2,0],[3,0],[0]]","6","0","","","","","","5","","","","","","","","",""
"","","","","","single-stim-button","223","1037773","0.0-2.0-28.3-0.3","60a3128cb035414bb4588090","E1","batch5","","620","tol_tohand","","","","tol_peg_3","620","620","0","[[0,0,0],[3,2],[0]]","4","[[1,2,0],[3,0],[0]]","6","0","","","","","","5","","","","","","","","",""
"","","","","","single-stim-button","224","1038659","0.0-2.0-28.3-1.3","60a3128cb035414bb4588090","E1","batch5","","885","tol_toboard","","","","tol_peg_1","885","885","0","[[1,0,0],[3,2],[0]]","4","[[1,2,0],[3,0],[0]]","6","0","","","","","","5","","","","","","","","",""
"","","","","","single-stim-button","225","1039561","0.0-2.0-28.4-0.4","60a3128cb035414bb4588090","E1","batch5","","901","tol_tohand","","","","tol_peg_2","901","901","0","[[1,0,0],[3,0],[0]]","5","[[1,2,0],[3,0],[0]]","6","0","","","","","","5","","","","","","","","",""
"","","","","","single-stim-button","226","1040353","0.0-2.0-28.4-1.4","60a3128cb035414bb4588090","E1","batch5","","790","tol_toboard","","","","tol_peg_1","790","790","0","[[1,2,0],[3,0],[0]]","5","[[1,2,0],[3,0],[0]]","6","0","","","","","","5","","","","","","","","",""
"","","","","","poldrack-single-stim","227","1041363","0.0-2.0-29.0","60a3128cb035414bb4588090","E1","batch5","","-1","tol_feedback","","","true","","1000","1000","500","","","","","","-1","none","true","2302","9451","","","","","","","","","",""
"","","","","","html-button-response","228","1042227","0.0-2.0-30.0","60a3128cb035414bb4588090","E1","batch5","","862.2999999970198","tol_trial_num","<div class = centerbox><p class = center-block-text>problem <strong>8</strong> out of 25 problems</p></div>","0","","","","","","","","","","","","","","","","","","","","","","","","",""
"","","","","","single-stim-button","229","1049902","0.0-2.0-31.0-0.0","60a3128cb035414bb4588090","E1","batch5","","7674","tol_tohand","","","","tol_peg_2","7674","7674","0","[[0,0,0],[2,0],[1]]","1","[[1,2,0],[3,0],[0]]","7","0","","","","","","4","","","","","","","","",""
"","","","","","single-stim-button","230","1051279","0.0-2.0-31.0-1.0","60a3128cb035414bb4588090","E1","batch5","","1375","tol_toboard","","","","tol_peg_1","1375","1375","0","[[3,0,0],[2,0],[1]]","1","[[1,2,0],[3,0],[0]]","7","0","","","","","","4","","","","","","","","",""
"","","","","","single-stim-button","231","1055207","0.0-2.0-31.1-0.1","60a3128cb035414bb4588090","E1","batch5","","3926","tol_tohand","","","","tol_peg_3","3926","3926","0","[[3,0,0],[2,0],[0]]","2","[[1,2,0],[3,0],[0]]","7","0","","","","","","4","","","","","","","","",""
"","","","","","single-stim-button","232","1055975","0.0-2.0-31.1-1.1","60a3128cb035414bb4588090","E1","batch5","","768","tol_toboard","","","","tol_peg_2","768","768","0","[[3,0,0],[2,1],[0]]","2","[[1,2,0],[3,0],[0]]","7","0","","","","","","4","","","","","","","","",""
"","","","","","single-stim-button","233","1056801","0.0-2.0-31.2-0.2","60a3128cb035414bb4588090","E1","batch5","","825","tol_tohand","","","","tol_peg_1","825","825","0","[[0,0,0],[2,1],[0]]","3","[[1,2,0],[3,0],[0]]","7","0","","","","","","4","","","","","","","","",""
"","","","","","single-stim-button","234","1057546","0.0-2.0-31.2-1.2","60a3128cb035414bb4588090","E1","batch5","","743","tol_toboard","","","","tol_peg_3","743","743","0","[[0,0,0],[2,1],[3]]","3","[[1,2,0],[3,0],[0]]","7","0","","","","","","4","","","","","","","","",""
"","","","","","single-stim-button","235","1059357","0.0-2.0-31.3-0.3","60a3128cb035414bb4588090","E1","batch5","","1809","tol_tohand","","","","tol_peg_2","1809","1809","0","[[0,0,0],[2,0],[3]]","4","[[1,2,0],[3,0],[0]]","7","0","","","","","","4","","","","","","","","",""
"","","","","","single-stim-button","236","1060144","0.0-2.0-31.3-1.3","60a3128cb035414bb4588090","E1","batch5","","786","tol_toboard","","","","tol_peg_1","786","786","0","[[1,0,0],[2,0],[3]]","4","[[1,2,0],[3,0],[0]]","7","0","","","","","","4","","","","","","","","",""
"","","","","","single-stim-button","237","1060999","0.0-2.0-31.4-0.4","60a3128cb035414bb4588090","E1","batch5","","854","tol_tohand","","","","tol_peg_2","854","854","0","[[1,0,0],[0,0],[3]]","5","[[1,2,0],[3,0],[0]]","7","0","","","","","","4","","","","","","","","",""
"","","","","","single-stim-button","238","1061677","0.0-2.0-31.4-1.4","60a3128cb035414bb4588090","E1","batch5","","677","tol_toboard","","","","tol_peg_1","677","677","0","[[1,2,0],[0,0],[3]]","5","[[1,2,0],[3,0],[0]]","7","0","","","","","","4","","","","","","","","",""
"","","","","","single-stim-button","239","1062454","0.0-2.0-31.5-0.5","60a3128cb035414bb4588090","E1","batch5","","776","tol_tohand","","","","tol_peg_3","776","776","0","[[1,2,0],[0,0],[0]]","6","[[1,2,0],[3,0],[0]]","7","0","","","","","","4","","","","","","","","",""
"","","","","","single-stim-button","240","1063111","0.0-2.0-31.5-1.5","60a3128cb035414bb4588090","E1","batch5","","655","tol_toboard","","","","tol_peg_2","655","655","0","[[1,2,0],[3,0],[0]]","6","[[1,2,0],[3,0],[0]]","7","0","","","","","","4","","","","","","","","",""
"","","","","","poldrack-single-stim","241","1064113","0.0-2.0-32.0","60a3128cb035414bb4588090","E1","batch5","","-1","tol_feedback","","","true","","1000","1000","500","","","","","","-1","none","true","7674","15864","","","","","","","","","",""
"","","","","","html-button-response","242","1064806","0.0-2.0-33.0","60a3128cb035414bb4588090","E1","batch5","","691.3999999985099","tol_trial_num","<div class = centerbox><p class = center-block-text>problem <strong>9</strong> out of 25 problems</p></div>","0","","","","","","","","","","","","","","","","","","","","","","","","",""
"","","","","","single-stim-button","243","1068629","0.0-2.0-34.0-0.0","60a3128cb035414bb4588090","E1","batch5","","3821","tol_tohand","","","","tol_peg_1","3821","3821","0","[[3,0,0],[0,0],[1]]","1","[[2,1,0],[3,0],[0]]","8","0","","","","","","6","","","","","","","","",""
"","","","","","single-stim-button","244","1070231","0.0-2.0-34.0-1.0","60a3128cb035414bb4588090","E1","batch5","","1601","tol_toboard","","","","tol_peg_2","1601","1601","0","[[3,0,0],[2,0],[1]]","1","[[2,1,0],[3,0],[0]]","8","0","","","","","","6","","","","","","","","",""
"","","","","","single-stim-button","245","1070910","0.0-2.0-34.1-0.1","60a3128cb035414bb4588090","E1","batch5","","678","tol_tohand","","","","tol_peg_1","678","678","0","[[0,0,0],[2,0],[1]]","2","[[2,1,0],[3,0],[0]]","8","0","","","","","","6","","","","","","","","",""
"","","","","","single-stim-button","246","1071771","0.0-2.0-34.1-1.1","60a3128cb035414bb4588090","E1","batch5","","860","tol_toboard","","","","tol_peg_2","860","860","0","[[0,0,0],[2,3],[1]]","2","[[2,1,0],[3,0],[0]]","8","0","","","","","","6","","","","","","","","",""
"","","","","","single-stim-button","247","1076657","0.0-2.0-34.2-0.2","60a3128cb035414bb4588090","E1","batch5","","4885","tol_tohand","","","","tol_peg_2","4885","4885","0","[[0,0,0],[2,0],[1]]","3","[[2,1,0],[3,0],[0]]","8","0","","","","","","6","","","","","","","","",""
"","","","","","single-stim-button","248","1078720","0.0-2.0-34.2-1.2","60a3128cb035414bb4588090","E1","batch5","","2062","tol_toboard","","","","tol_peg_2","2062","2062","0","[[0,0,0],[2,3],[1]]","3","[[2,1,0],[3,0],[0]]","8","0","","","","","","6","","","","","","","","",""
"","","","","","single-stim-button","249","1079572","0.0-2.0-34.3-0.3","60a3128cb035414bb4588090","E1","batch5","","850","tol_tohand","","","","tol_peg_3","850","850","0","[[0,0,0],[2,3],[0]]","4","[[2,1,0],[3,0],[0]]","8","0","","","","","","6","","","","","","","","",""
"","","","","","single-stim-button","250","1080349","0.0-2.0-34.3-1.3","60a3128cb035414bb4588090","E1","batch5","","777","tol_toboard","","","","tol_peg_1","777","777","0","[[1,0,0],[2,3],[0]]","4","[[2,1,0],[3,0],[0]]","8","0","","","","","","6","","","","","","","","",""
"","","","","","single-stim-button","251","1081069","0.0-2.0-34.4-0.4","60a3128cb035414bb4588090","E1","batch5","","718","tol_tohand","","","","tol_peg_2","718","718","0","[[1,0,0],[2,0],[0]]","5","[[2,1,0],[3,0],[0]]","8","0","","","","","","6","","","","","","","","",""
"","","","","","single-stim-button","252","1081750","0.0-2.0-34.4-1.4","60a3128cb035414bb4588090","E1","batch5","","681","tol_toboard","","","","tol_peg_3","681","681","0","[[1,0,0],[2,0],[3]]","5","[[2,1,0],[3,0],[0]]","8","0","","","","","","6","","","","","","","","",""
"","","","","","single-stim-button","253","1082630","0.0-2.0-34.5-0.5","60a3128cb035414bb4588090","E1","batch5","","879","tol_tohand","","","","tol_peg_1","879","879","0","[[0,0,0],[2,0],[3]]","6","[[2,1,0],[3,0],[0]]","8","0","","","","","","6","","","","","","","","",""
"","","","","","single-stim-button","254","1083462","0.0-2.0-34.5-1.5","60a3128cb035414bb4588090","E1","batch5","","831","tol_toboard","","","","tol_peg_2","831","831","0","[[0,0,0],[2,1],[3]]","6","[[2,1,0],[3,0],[0]]","8","0","","","","","","6","","","","","","","","",""
"","","","","","single-stim-button","255","1086603","0.0-2.0-34.6-0.6","60a3128cb035414bb4588090","E1","batch5","","3140","tol_tohand","","","","tol_peg_2","3140","3140","0","[[0,0,0],[2,0],[3]]","7","[[2,1,0],[3,0],[0]]","8","0","","","","","","6","","","","","","","","",""
"","","","","","single-stim-button","256","1087564","0.0-2.0-34.6-1.6","60a3128cb035414bb4588090","E1","batch5","","959","tol_toboard","","","","tol_peg_1","959","959","0","[[1,0,0],[2,0],[3]]","7","[[2,1,0],[3,0],[0]]","8","0","","","","","","6","","","","","","","","",""
"","","","","","single-stim-button","257","1088308","0.0-2.0-34.7-0.7","60a3128cb035414bb4588090","E1","batch5","","743","tol_tohand","","","","tol_peg_2","743","743","0","[[1,0,0],[0,0],[3]]","8","[[2,1,0],[3,0],[0]]","8","0","","","","","","6","","","","","","","","",""
"","","","","","single-stim-button","258","1089138","0.0-2.0-34.7-1.7","60a3128cb035414bb4588090","E1","batch5","","828","tol_toboard","","","","tol_peg_1","828","828","0","[[1,2,0],[0,0],[3]]","8","[[2,1,0],[3,0],[0]]","8","0","","","","","","6","","","","","","","","",""
"","","","","","single-stim-button","259","1090153","0.0-2.0-34.8-0.8","60a3128cb035414bb4588090","E1","batch5","","1015","tol_tohand","","","","tol_peg_1","1015","1015","0","[[1,0,0],[0,0],[3]]","9","[[2,1,0],[3,0],[0]]","8","0","","","","","","6","","","","","","","","",""
"","","","","","single-stim-button","260","1091066","0.0-2.0-34.8-1.8","60a3128cb035414bb4588090","E1","batch5","","912","tol_toboard","","","","tol_peg_2","912","912","0","[[1,0,0],[2,0],[3]]","9","[[2,1,0],[3,0],[0]]","8","0","","","","","","6","","","","","","","","",""
"","","","","","single-stim-button","261","1091629","0.0-2.0-34.9-0.9","60a3128cb035414bb4588090","E1","batch5","","562","tol_tohand","","","","tol_peg_2","562","562","0","[[1,0,0],[0,0],[3]]","10","[[2,1,0],[3,0],[0]]","8","0","","","","","","6","","","","","","","","",""
"","","","","","single-stim-button","262","1092361","0.0-2.0-34.9-1.9","60a3128cb035414bb4588090","E1","batch5","","730","tol_toboard","","","","tol_peg_1","730","730","0","[[1,2,0],[0,0],[3]]","10","[[2,1,0],[3,0],[0]]","8","0","","","","","","6","","","","","","","","",""
"","","","","","single-stim-button","263","1093269","0.0-2.0-34.10-0.10","60a3128cb035414bb4588090","E1","batch5","","901","tol_tohand","","","","tol_peg_3","901","901","0","[[1,2,0],[0,0],[0]]","11","[[2,1,0],[3,0],[0]]","8","0","","","","","","6","","","","","","","","",""
"","","","","","single-stim-button","264","1094424","0.0-2.0-34.10-1.10","60a3128cb035414bb4588090","E1","batch5","","1154","tol_toboard","","","","tol_peg_2","1154","1154","0","[[1,2,0],[3,0],[0]]","11","[[2,1,0],[3,0],[0]]","8","0","","","","","","6","","","","","","","","",""
"","","","","","single-stim-button","265","1095249","0.0-2.0-34.11-0.11","60a3128cb035414bb4588090","E1","batch5","","824","tol_tohand","","","","tol_peg_1","824","824","0","[[1,0,0],[3,0],[0]]","12","[[2,1,0],[3,0],[0]]","8","0","","","","","","6","","","","","","","","",""
"","","","","","single-stim-button","266","1097772","0.0-2.0-34.11-1.11","60a3128cb035414bb4588090","E1","batch5","","2521","tol_toboard","","","","tol_peg_3","2521","2521","0","[[1,0,0],[3,0],[2]]","12","[[2,1,0],[3,0],[0]]","8","0","","","","","","6","","","","","","","","",""
"","","","","","single-stim-button","267","1098433","0.0-2.0-34.12-0.12","60a3128cb035414bb4588090","E1","batch5","","660","tol_tohand","","","","tol_peg_1","660","660","0","[[0,0,0],[3,0],[2]]","13","[[2,1,0],[3,0],[0]]","8","0","","","","","","6","","","","","","","","",""
"","","","","","single-stim-button","268","1099306","0.0-2.0-34.12-1.12","60a3128cb035414bb4588090","E1","batch5","","873","tol_toboard","","","","tol_peg_2","873","873","0","[[0,0,0],[3,1],[2]]","13","[[2,1,0],[3,0],[0]]","8","0","","","","","","6","","","","","","","","",""
"","","","","","single-stim-button","269","1100308","0.0-2.0-34.13-0.13","60a3128cb035414bb4588090","E1","batch5","","1000","tol_tohand","","","","tol_peg_3","1000","1000","0","[[0,0,0],[3,1],[0]]","14","[[2,1,0],[3,0],[0]]","8","0","","","","","","6","","","","","","","","",""
"","","","","","single-stim-button","270","1101021","0.0-2.0-34.13-1.13","60a3128cb035414bb4588090","E1","batch5","","713","tol_toboard","","","","tol_peg_1","713","713","0","[[2,0,0],[3,1],[0]]","14","[[2,1,0],[3,0],[0]]","8","0","","","","","","6","","","","","","","","",""
"","","","","","single-stim-button","271","1101835","0.0-2.0-34.14-0.14","60a3128cb035414bb4588090","E1","batch5","","812","tol_tohand","","","","tol_peg_2","812","812","0","[[2,0,0],[3,0],[0]]","15","[[2,1,0],[3,0],[0]]","8","0","","","","","","6","","","","","","","","",""
"","","","","","single-stim-button","272","1102598","0.0-2.0-34.14-1.14","60a3128cb035414bb4588090","E1","batch5","","762","tol_toboard","","","","tol_peg_1","762","762","0","[[2,1,0],[3,0],[0]]","15","[[2,1,0],[3,0],[0]]","8","0","","","","","","6","","","","","","","","",""
"","","","","","poldrack-single-stim","273","1103603","0.0-2.0-35.0","60a3128cb035414bb4588090","E1","batch5","","-1","tol_feedback","","","true","","1000","1000","500","","","","","","-1","none","true","3821","21488","","","","","","","","","",""
"","","","","","html-button-response","274","1104933","0.0-2.0-36.0","60a3128cb035414bb4588090","E1","batch5","","1328.1999999955297","tol_trial_num","<div class = centerbox><p class = center-block-text>problem <strong>10</strong> out of 25 problems</p></div>","0","","","","","","","","","","","","","","","","","","","","","","","","",""
"","","","","","single-stim-button","275","1114909","0.0-2.0-37.0-0.0","60a3128cb035414bb4588090","E1","batch5","","9974","tol_tohand","","","","tol_peg_2","9974","9974","0","[[3,0,0],[0,0],[2]]","1","[[3,0,0],[2,1],[0]]","9","0","","","","","","3","","","","","","","","",""
"","","","","","single-stim-button","276","1115689","0.0-2.0-37.0-1.0","60a3128cb035414bb4588090","E1","batch5","","778","tol_toboard","","","","tol_peg_1","778","778","0","[[3,1,0],[0,0],[2]]","1","[[3,0,0],[2,1],[0]]","9","0","","","","","","3","","","","","","","","",""
"","","","","","single-stim-button","277","1116465","0.0-2.0-37.1-0.1","60a3128cb035414bb4588090","E1","batch5","","775","tol_tohand","","","","tol_peg_3","775","775","0","[[3,1,0],[0,0],[0]]","2","[[3,0,0],[2,1],[0]]","9","0","","","","","","3","","","","","","","","",""
"","","","","","single-stim-button","278","1117182","0.0-2.0-37.1-1.1","60a3128cb035414bb4588090","E1","batch5","","717","tol_toboard","","","","tol_peg_2","717","717","0","[[3,1,0],[2,0],[0]]","2","[[3,0,0],[2,1],[0]]","9","0","","","","","","3","","","","","","","","",""
"","","","","","single-stim-button","279","1117792","0.0-2.0-37.2-0.2","60a3128cb035414bb4588090","E1","batch5","","608","tol_tohand","","","","tol_peg_1","608","608","0","[[3,0,0],[2,0],[0]]","3","[[3,0,0],[2,1],[0]]","9","0","","","","","","3","","","","","","","","",""
"","","","","","single-stim-button","280","1118482","0.0-2.0-37.2-1.2","60a3128cb035414bb4588090","E1","batch5","","690","tol_toboard","","","","tol_peg_2","690","690","0","[[3,0,0],[2,1],[0]]","3","[[3,0,0],[2,1],[0]]","9","0","","","","","","3","","","","","","","","",""
"","","","","","poldrack-single-stim","281","1119491","0.0-2.0-38.0","60a3128cb035414bb4588090","E1","batch5","","-1","tol_feedback","","","true","","1000","1000","500","","","","","","-1","none","true","9974","11357","","","","","","","","","",""
"","","","","","html-button-response","282","1120694","0.0-2.0-39.0","60a3128cb035414bb4588090","E1","batch5","","1200.7000000029802","tol_trial_num","<div class = centerbox><p class = center-block-text>problem <strong>11</strong> out of 25 problems</p></div>","0","","","","","","","","","","","","","","","","","","","","","","","","",""
"","","","","","single-stim-button","283","1126100","0.0-2.0-40.0-0.0","60a3128cb035414bb4588090","E1","batch5","","5404","tol_tohand","","","","tol_peg_2","5404","5404","0","[[1,2,0],[0,0],[0]]","1","[[2,0,0],[1,3],[0]]","10","0","","","","","","6","","","","","","","","",""
"","","","","","single-stim-button","284","1126745","0.0-2.0-40.0-1.0","60a3128cb035414bb4588090","E1","batch5","","644","tol_toboard","","","","tol_peg_3","644","644","0","[[1,2,0],[0,0],[3]]","1","[[2,0,0],[1,3],[0]]","10","0","","","","","","6","","","","","","","","",""
"","","","","","single-stim-button","285","1130035","0.0-2.0-40.1-0.1","60a3128cb035414bb4588090","E1","batch5","","3288","tol_tohand","","","","tol_peg_3","3288","3288","0","[[1,2,0],[0,0],[0]]","2","[[2,0,0],[1,3],[0]]","10","0","","","","","","6","","","","","","","","",""
"","","","","","single-stim-button","286","1130840","0.0-2.0-40.1-1.1","60a3128cb035414bb4588090","E1","batch5","","804","tol_toboard","","","","tol_peg_2","804","804","0","[[1,2,0],[3,0],[0]]","2","[[2,0,0],[1,3],[0]]","10","0","","","","","","6","","","","","","","","",""
"","","","","","single-stim-button","287","1131829","0.0-2.0-40.2-0.2","60a3128cb035414bb4588090","E1","batch5","","988","tol_tohand","","","","tol_peg_1","988","988","0","[[1,0,0],[3,0],[0]]","3","[[2,0,0],[1,3],[0]]","10","0","","","","","","6","","","","","","","","",""
"","","","","","single-stim-button","288","1132522","0.0-2.0-40.2-1.2","60a3128cb035414bb4588090","E1","batch5","","692","tol_toboard","","","","tol_peg_3","692","692","0","[[1,0,0],[3,0],[2]]","3","[[2,0,0],[1,3],[0]]","10","0","","","","","","6","","","","","","","","",""
"","","","","","single-stim-button","289","1135323","0.0-2.0-40.3-0.3","60a3128cb035414bb4588090","E1","batch5","","2800","tol_tohand","","","","tol_peg_2","2800","2800","0","[[1,0,0],[0,0],[2]]","4","[[2,0,0],[1,3],[0]]","10","0","","","","","","6","","","","","","","","",""
"","","","","","single-stim-button","290","1138376","0.0-2.0-40.3-1.3","60a3128cb035414bb4588090","E1","batch5","","3052","tol_toboard","","","","tol_peg_1","3052","3052","0","[[1,3,0],[0,0],[2]]","4","[[2,0,0],[1,3],[0]]","10","0","","","","","","6","","","","","","","","",""
"","","","","","single-stim-button","291","1141463","0.0-2.0-40.4-0.4","60a3128cb035414bb4588090","E1","batch5","","3085","tol_tohand","","","","tol_peg_1","3085","3085","0","[[1,0,0],[0,0],[2]]","5","[[2,0,0],[1,3],[0]]","10","0","","","","","","6","","","","","","","","",""
"","","","","","single-stim-button","292","1142658","0.0-2.0-40.4-1.4","60a3128cb035414bb4588090","E1","batch5","","1194","tol_toboard","","","","tol_peg_2","1194","1194","0","[[1,0,0],[3,0],[2]]","5","[[2,0,0],[1,3],[0]]","10","0","","","","","","6","","","","","","","","",""
"","","","","","single-stim-button","293","1145973","0.0-2.0-40.5-0.5","60a3128cb035414bb4588090","E1","batch5","","3314","tol_tohand","","","","tol_peg_1","3314","3314","0","[[0,0,0],[3,0],[2]]","6","[[2,0,0],[1,3],[0]]","10","0","","","","","","6","","","","","","","","",""
"","","","","","single-stim-button","294","1146750","0.0-2.0-40.5-1.5","60a3128cb035414bb4588090","E1","batch5","","777","tol_toboard","","","","tol_peg_2","777","777","0","[[0,0,0],[3,1],[2]]","6","[[2,0,0],[1,3],[0]]","10","0","","","","","","6","","","","","","","","",""
"","","","","","single-stim-button","295","1147635","0.0-2.0-40.6-0.6","60a3128cb035414bb4588090","E1","batch5","","883","tol_tohand","","","","tol_peg_3","883","883","0","[[0,0,0],[3,1],[0]]","7","[[2,0,0],[1,3],[0]]","10","0","","","","","","6","","","","","","","","",""
"","","","","","single-stim-button","296","1148536","0.0-2.0-40.6-1.6","60a3128cb035414bb4588090","E1","batch5","","900","tol_toboard","","","","tol_peg_1","900","900","0","[[2,0,0],[3,1],[0]]","7","[[2,0,0],[1,3],[0]]","10","0","","","","","","6","","","","","","","","",""
"","","","","","single-stim-button","297","1151507","0.0-2.0-40.7-0.7","60a3128cb035414bb4588090","E1","batch5","","2970","tol_tohand","","","","tol_peg_2","2970","2970","0","[[2,0,0],[3,0],[0]]","8","[[2,0,0],[1,3],[0]]","10","0","","","","","","6","","","","","","","","",""
"","","","","","single-stim-button","298","1152143","0.0-2.0-40.7-1.7","60a3128cb035414bb4588090","E1","batch5","","634","tol_toboard","","","","tol_peg_3","634","634","0","[[2,0,0],[3,0],[1]]","8","[[2,0,0],[1,3],[0]]","10","0","","","","","","6","","","","","","","","",""
"","","","","","single-stim-button","299","1153764","0.0-2.0-40.8-0.8","60a3128cb035414bb4588090","E1","batch5","","1619","tol_tohand","","","","tol_peg_3","1619","1619","0","[[2,0,0],[3,0],[0]]","9","[[2,0,0],[1,3],[0]]","10","0","","","","","","6","","","","","","","","",""
"","","","","","single-stim-button","300","1154923","0.0-2.0-40.8-1.8","60a3128cb035414bb4588090","E1","batch5","","1157","tol_toboard","","","","tol_peg_2","1157","1157","0","[[2,0,0],[3,1],[0]]","9","[[2,0,0],[1,3],[0]]","10","0","","","","","","6","","","","","","","","",""
"","","","","","single-stim-button","301","1157286","0.0-2.0-40.9-0.9","60a3128cb035414bb4588090","E1","batch5","","2362","tol_tohand","","","","tol_peg_2","2362","2362","0","[[2,0,0],[3,0],[0]]","10","[[2,0,0],[1,3],[0]]","10","0","","","","","","6","","","","","","","","",""
"","","","","","single-stim-button","302","1158340","0.0-2.0-40.9-1.9","60a3128cb035414bb4588090","E1","batch5","","1052","tol_toboard","","","","tol_peg_1","1052","1052","0","[[2,1,0],[3,0],[0]]","10","[[2,0,0],[1,3],[0]]","10","0","","","","","","6","","","","","","","","",""
"","","","","","single-stim-button","303","1160245","0.0-2.0-40.10-0.10","60a3128cb035414bb4588090","E1","batch5","","1904","tol_tohand","","","","tol_peg_2","1904","1904","0","[[2,1,0],[0,0],[0]]","11","[[2,0,0],[1,3],[0]]","10","0","","","","","","6","","","","","","","","",""
"","","","","","single-stim-button","304","1161130","0.0-2.0-40.10-1.10","60a3128cb035414bb4588090","E1","batch5","","884","tol_toboard","","","","tol_peg_3","884","884","0","[[2,1,0],[0,0],[3]]","11","[[2,0,0],[1,3],[0]]","10","0","","","","","","6","","","","","","","","",""
"","","","","","single-stim-button","305","1161843","0.0-2.0-40.11-0.11","60a3128cb035414bb4588090","E1","batch5","","712","tol_tohand","","","","tol_peg_1","712","712","0","[[2,0,0],[0,0],[3]]","12","[[2,0,0],[1,3],[0]]","10","0","","","","","","6","","","","","","","","",""
"","","","","","single-stim-button","306","1162655","0.0-2.0-40.11-1.11","60a3128cb035414bb4588090","E1","batch5","","810","tol_toboard","","","","tol_peg_2","810","810","0","[[2,0,0],[1,0],[3]]","12","[[2,0,0],[1,3],[0]]","10","0","","","","","","6","","","","","","","","",""
"","","","","","single-stim-button","307","1163490","0.0-2.0-40.12-0.12","60a3128cb035414bb4588090","E1","batch5","","834","tol_tohand","","","","tol_peg_3","834","834","0","[[2,0,0],[1,0],[0]]","13","[[2,0,0],[1,3],[0]]","10","0","","","","","","6","","","","","","","","",""
"","","","","","single-stim-button","308","1164216","0.0-2.0-40.12-1.12","60a3128cb035414bb4588090","E1","batch5","","726","tol_toboard","","","","tol_peg_2","726","726","0","[[2,0,0],[1,3],[0]]","13","[[2,0,0],[1,3],[0]]","10","0","","","","","","6","","","","","","","","",""
"","","","","","poldrack-single-stim","309","1165220","0.0-2.0-41.0","60a3128cb035414bb4588090","E1","batch5","","-1","tol_feedback","","","true","","1000","1000","500","","","","","","-1","none","true","5404","30163","","","","","","","","","",""
"","","","","","html-button-response","310","1166891","0.0-2.0-42.0","60a3128cb035414bb4588090","E1","batch5","","1670","tol_trial_num","<div class = centerbox><p class = center-block-text>problem <strong>12</strong> out of 25 problems</p></div>","0","","","","","","","","","","","","","","","","","","","","","","","","",""
"","","","","","single-stim-button","311","1172713","0.0-2.0-43.0-0.0","60a3128cb035414bb4588090","E1","batch5","","5819","tol_tohand","","","","tol_peg_2","5819","5819","0","[[1,2,0],[0,0],[0]]","1","[[2,3,0],[0,0],[1]]","11","0","","","","","","4","","","","","","","","",""
"","","","","","single-stim-button","312","1173554","0.0-2.0-43.0-1.0","60a3128cb035414bb4588090","E1","batch5","","839","tol_toboard","","","","tol_peg_3","839","839","0","[[1,2,0],[0,0],[3]]","1","[[2,3,0],[0,0],[1]]","11","0","","","","","","4","","","","","","","","",""
"","","","","","single-stim-button","313","1175457","0.0-2.0-43.1-0.1","60a3128cb035414bb4588090","E1","batch5","","1902","tol_tohand","","","","tol_peg_3","1902","1902","0","[[1,2,0],[0,0],[0]]","2","[[2,3,0],[0,0],[1]]","11","0","","","","","","4","","","","","","","","",""
"","","","","","single-stim-button","314","1176254","0.0-2.0-43.1-1.1","60a3128cb035414bb4588090","E1","batch5","","795","tol_toboard","","","","tol_peg_2","795","795","0","[[1,2,0],[3,0],[0]]","2","[[2,3,0],[0,0],[1]]","11","0","","","","","","4","","","","","","","","",""
"","","","","","single-stim-button","315","1176987","0.0-2.0-43.2-0.2","60a3128cb035414bb4588090","E1","batch5","","732","tol_tohand","","","","tol_peg_1","732","732","0","[[1,0,0],[3,0],[0]]","3","[[2,3,0],[0,0],[1]]","11","0","","","","","","4","","","","","","","","",""
"","","","","","single-stim-button","316","1177705","0.0-2.0-43.2-1.2","60a3128cb035414bb4588090","E1","batch5","","717","tol_toboard","","","","tol_peg_2","717","717","0","[[1,0,0],[3,2],[0]]","3","[[2,3,0],[0,0],[1]]","11","0","","","","","","4","","","","","","","","",""
"","","","","","single-stim-button","317","1178334","0.0-2.0-43.3-0.3","60a3128cb035414bb4588090","E1","batch5","","628","tol_tohand","","","","tol_peg_1","628","628","0","[[0,0,0],[3,2],[0]]","4","[[2,3,0],[0,0],[1]]","11","0","","","","","","4","","","","","","","","",""
"","","","","","single-stim-button","318","1183621","0.0-2.0-43.3-1.3","60a3128cb035414bb4588090","E1","batch5","","5286","tol_toboard","","","","tol_peg_1","5286","5286","0","[[1,0,0],[3,2],[0]]","4","[[2,3,0],[0,0],[1]]","11","0","","","","","","4","","","","","","","","",""
"","","","","","single-stim-button","319","1186864","0.0-2.0-43.4-0.4","60a3128cb035414bb4588090","E1","batch5","","3241","tol_tohand","","","","tol_peg_2","3241","3241","0","[[1,0,0],[3,0],[0]]","5","[[2,3,0],[0,0],[1]]","11","0","","","","","","4","","","","","","","","",""
"","","","","","single-stim-button","320","1189177","0.0-2.0-43.4-1.4","60a3128cb035414bb4588090","E1","batch5","","2313","tol_toboard","","","","tol_peg_1","2313","2313","0","[[1,2,0],[3,0],[0]]","5","[[2,3,0],[0,0],[1]]","11","0","","","","","","4","","","","","","","","",""
"","","","","","single-stim-button","321","1189764","0.0-2.0-43.5-0.5","60a3128cb035414bb4588090","E1","batch5","","585","tol_tohand","","","","tol_peg_2","585","585","0","[[1,2,0],[0,0],[0]]","6","[[2,3,0],[0,0],[1]]","11","0","","","","","","4","","","","","","","","",""
"","","","","","single-stim-button","322","1190384","0.0-2.0-43.5-1.5","60a3128cb035414bb4588090","E1","batch5","","620","tol_toboard","","","","tol_peg_3","620","620","0","[[1,2,0],[0,0],[3]]","6","[[2,3,0],[0,0],[1]]","11","0","","","","","","4","","","","","","","","",""
"","","","","","single-stim-button","323","1191219","0.0-2.0-43.6-0.6","60a3128cb035414bb4588090","E1","batch5","","834","tol_tohand","","","","tol_peg_1","834","834","0","[[1,0,0],[0,0],[3]]","7","[[2,3,0],[0,0],[1]]","11","0","","","","","","4","","","","","","","","",""
"","","","","","single-stim-button","324","1192059","0.0-2.0-43.6-1.6","60a3128cb035414bb4588090","E1","batch5","","839","tol_toboard","","","","tol_peg_2","839","839","0","[[1,0,0],[2,0],[3]]","7","[[2,3,0],[0,0],[1]]","11","0","","","","","","4","","","","","","","","",""
"","","","","","single-stim-button","325","1193163","0.0-2.0-43.7-0.7","60a3128cb035414bb4588090","E1","batch5","","1102","tol_tohand","","","","tol_peg_3","1102","1102","0","[[1,0,0],[2,0],[0]]","8","[[2,3,0],[0,0],[1]]","11","0","","","","","","4","","","","","","","","",""
"","","","","","single-stim-button","326","1195174","0.0-2.0-43.7-1.7","60a3128cb035414bb4588090","E1","batch5","","2009","tol_toboard","","","","tol_peg_3","2009","2009","0","[[1,0,0],[2,0],[3]]","8","[[2,3,0],[0,0],[1]]","11","0","","","","","","4","","","","","","","","",""
"","","","","","single-stim-button","327","1198303","0.0-2.0-43.8-0.8","60a3128cb035414bb4588090","E1","batch5","","3127","tol_tohand","","","","tol_peg_3","3127","3127","0","[[1,0,0],[2,0],[0]]","9","[[2,3,0],[0,0],[1]]","11","0","","","","","","4","","","","","","","","",""
"","","","","","single-stim-button","328","1199154","0.0-2.0-43.8-1.8","60a3128cb035414bb4588090","E1","batch5","","850","tol_toboard","","","","tol_peg_2","850","850","0","[[1,0,0],[2,3],[0]]","9","[[2,3,0],[0,0],[1]]","11","0","","","","","","4","","","","","","","","",""
"","","","","","single-stim-button","329","1200161","0.0-2.0-43.9-0.9","60a3128cb035414bb4588090","E1","batch5","","1006","tol_tohand","","","","tol_peg_1","1006","1006","0","[[0,0,0],[2,3],[0]]","10","[[2,3,0],[0,0],[1]]","11","0","","","","","","4","","","","","","","","",""
"","","","","","single-stim-button","330","1201255","0.0-2.0-43.9-1.9","60a3128cb035414bb4588090","E1","batch5","","1094","tol_toboard","","","","tol_peg_3","1094","1094","0","[[0,0,0],[2,3],[1]]","10","[[2,3,0],[0,0],[1]]","11","0","","","","","","4","","","","","","","","",""
"","","","","","single-stim-button","331","1206140","0.0-2.0-43.10-0.10","60a3128cb035414bb4588090","E1","batch5","","4883","tol_tohand","","","","tol_peg_3","4883","4883","0","[[0,0,0],[2,3],[0]]","11","[[2,3,0],[0,0],[1]]","11","0","","","","","","4","","","","","","","","",""
"","","","","","single-stim-button","332","1207565","0.0-2.0-43.10-1.10","60a3128cb035414bb4588090","E1","batch5","","1425","tol_toboard","","","","tol_peg_1","1425","1425","0","[[1,0,0],[2,3],[0]]","11","[[2,3,0],[0,0],[1]]","11","0","","","","","","4","","","","","","","","",""
"","","","","","single-stim-button","333","1208336","0.0-2.0-43.11-0.11","60a3128cb035414bb4588090","E1","batch5","","770","tol_tohand","","","","tol_peg_2","770","770","0","[[1,0,0],[2,0],[0]]","12","[[2,3,0],[0,0],[1]]","11","0","","","","","","4","","","","","","","","",""
"","","","","","single-stim-button","334","1209162","0.0-2.0-43.11-1.11","60a3128cb035414bb4588090","E1","batch5","","824","tol_toboard","","","","tol_peg_3","824","824","0","[[1,0,0],[2,0],[3]]","12","[[2,3,0],[0,0],[1]]","11","0","","","","","","4","","","","","","","","",""
"","","","","","single-stim-button","335","1211527","0.0-2.0-43.12-0.12","60a3128cb035414bb4588090","E1","batch5","","2363","tol_tohand","","","","tol_peg_1","2363","2363","0","[[0,0,0],[2,0],[3]]","13","[[2,3,0],[0,0],[1]]","11","0","","","","","","4","","","","","","","","",""
"","","","","","single-stim-button","336","1212646","0.0-2.0-43.12-1.12","60a3128cb035414bb4588090","E1","batch5","","1118","tol_toboard","","","","tol_peg_2","1118","1118","0","[[0,0,0],[2,1],[3]]","13","[[2,3,0],[0,0],[1]]","11","0","","","","","","4","","","","","","","","",""
"","","","","","single-stim-button","337","1214425","0.0-2.0-43.13-0.13","60a3128cb035414bb4588090","E1","batch5","","1777","tol_tohand","","","","tol_peg_2","1777","1777","0","[[0,0,0],[2,0],[3]]","14","[[2,3,0],[0,0],[1]]","11","0","","","","","","4","","","","","","","","",""
"","","","","","single-stim-button","338","1215248","0.0-2.0-43.13-1.13","60a3128cb035414bb4588090","E1","batch5","","822","tol_toboard","","","","tol_peg_1","822","822","0","[[1,0,0],[2,0],[3]]","14","[[2,3,0],[0,0],[1]]","11","0","","","","","","4","","","","","","","","",""
"","","","","","single-stim-button","339","1216049","0.0-2.0-43.14-0.14","60a3128cb035414bb4588090","E1","batch5","","800","tol_tohand","","","","tol_peg_2","800","800","0","[[1,0,0],[0,0],[3]]","15","[[2,3,0],[0,0],[1]]","11","0","","","","","","4","","","","","","","","",""
"","","","","","single-stim-button","340","1217405","0.0-2.0-43.14-1.14","60a3128cb035414bb4588090","E1","batch5","","1355","tol_toboard","","","","tol_peg_2","1355","1355","0","[[1,0,0],[2,0],[3]]","15","[[2,3,0],[0,0],[1]]","11","0","","","","","","4","","","","","","","","",""
"","","","","","single-stim-button","341","1218240","0.0-2.0-43.15-0.15","60a3128cb035414bb4588090","E1","batch5","","834","tol_tohand","","","","tol_peg_3","834","834","0","[[1,0,0],[2,0],[0]]","16","[[2,3,0],[0,0],[1]]","11","0","","","","","","4","","","","","","","","",""
"","","","","","single-stim-button","342","1220772","0.0-2.0-43.15-1.15","60a3128cb035414bb4588090","E1","batch5","","2531","tol_toboard","","","","tol_peg_2","2531","2531","0","[[1,0,0],[2,3],[0]]","16","[[2,3,0],[0,0],[1]]","11","0","","","","","","4","","","","","","","","",""
"","","","","","single-stim-button","343","1221539","0.0-2.0-43.16-0.16","60a3128cb035414bb4588090","E1","batch5","","765","tol_tohand","","","","tol_peg_1","765","765","0","[[0,0,0],[2,3],[0]]","17","[[2,3,0],[0,0],[1]]","11","0","","","","","","4","","","","","","","","",""
"","","","","","single-stim-button","344","1222331","0.0-2.0-43.16-1.16","60a3128cb035414bb4588090","E1","batch5","","792","tol_toboard","","","","tol_peg_3","792","792","0","[[0,0,0],[2,3],[1]]","17","[[2,3,0],[0,0],[1]]","11","0","","","","","","4","","","","","","","","",""
"","","","","","single-stim-button","345","1226512","0.0-2.0-43.17-0.17","60a3128cb035414bb4588090","E1","batch5","","4179","tol_tohand","","","","tol_peg_3","4179","4179","0","[[0,0,0],[2,3],[0]]","18","[[2,3,0],[0,0],[1]]","11","0","","","","","","4","","","","","","","","",""
"","","","","","single-stim-button","346","1227983","0.0-2.0-43.17-1.17","60a3128cb035414bb4588090","E1","batch5","","1471","tol_toboard","","","","tol_peg_3","1471","1471","0","[[0,0,0],[2,3],[1]]","18","[[2,3,0],[0,0],[1]]","11","0","","","","","","4","","","","","","","","",""
"","","","","","single-stim-button","347","1229107","0.0-2.0-43.18-0.18","60a3128cb035414bb4588090","E1","batch5","","1122","tol_tohand","","","","tol_peg_2","1122","1122","0","[[0,0,0],[2,0],[1]]","19","[[2,3,0],[0,0],[1]]","11","0","","","","","","4","","","","","","","","",""
"","","","","","single-stim-button","348","1230217","0.0-2.0-43.18-1.18","60a3128cb035414bb4588090","E1","batch5","","1110","tol_toboard","","","","tol_peg_1","1110","1110","0","[[3,0,0],[2,0],[1]]","19","[[2,3,0],[0,0],[1]]","11","0","","","","","","4","","","","","","","","",""
"","","","","","single-stim-button","349","1233596","0.0-2.0-43.19-0.19","60a3128cb035414bb4588090","E1","batch5","","3378","tol_tohand","","","","tol_peg_3","3378","3378","0","[[3,0,0],[2,0],[0]]","20","[[2,3,0],[0,0],[1]]","11","0","","","","","","4","","","","","","","","",""
"","","","","","single-stim-button","350","1234440","0.0-2.0-43.19-1.19","60a3128cb035414bb4588090","E1","batch5","","843","tol_toboard","","","","tol_peg_2","843","843","0","[[3,0,0],[2,1],[0]]","20","[[2,3,0],[0,0],[1]]","11","0","","","","","","4","","","","","","","","",""
"","","","","","single-stim-button","351","1235280","0.0-2.0-43.20-0.20","60a3128cb035414bb4588090","E1","batch5","","839","tol_tohand","","","","tol_peg_2","839","839","0","[[3,0,0],[2,0],[0]]","21","[[2,3,0],[0,0],[1]]","11","0","","","","","","4","","","","","","","","",""
"","","","","","single-stim-button","352","1235945","0.0-2.0-43.20-1.20","60a3128cb035414bb4588090","E1","batch5","","663","tol_toboard","","","","tol_peg_3","663","663","0","[[3,0,0],[2,0],[1]]","21","[[2,3,0],[0,0],[1]]","11","0","","","","","","4","","","","","","","","",""
"","","","","","single-stim-button","353","1238535","0.0-2.0-43.21-0.21","60a3128cb035414bb4588090","E1","batch5","","2589","tol_tohand","","","","tol_peg_3","2589","2589","0","[[3,0,0],[2,0],[0]]","22","[[2,3,0],[0,0],[1]]","11","0","","","","","","4","","","","","","","","",""
