"success","timeout","failed_images","failed_audio","failed_video","trial_type","trial_index","time_elapsed","internal_node_id","subject_id","study_id","session_id","view_history","rt","task","stimulus","response","correct","mouse_click","stim_duration","block_duration","timing_post_trial","current_position","tol_num_moves_made","tol_target","tol_problem_id","tol_rt","key_press","possible_responses","tol_correct","preplanning","tol_rt_per_trial","tol_min_moves","item","answer","spm_correct","spm_rt","fiar_detect_rt","fiar_detect_correct","total_correct_fiar_detect","post_trial_gap","choices"
"true","false","[]","[]","[]","preload","0","33166","0.0-0.0","60b5141acdfeaaf91d9dc145","C3","batch3","","","","","","","","","","","","","","","","","","","","","","","","","","","","","",""
"true","","","","","fullscreen","1","44451","0.0-1.0-0.0","60b5141acdfeaaf91d9dc145","C3","batch3","","","","","","","","","","","","","","","","","","","","","","","","","","","","","",""
"true","","","","","fullscreen","2","48129","0.0-2.0-0.0","60b5141acdfeaaf91d9dc145","C3","batch3","","","","","","","","","","","","","","","","","","","","","","","","","","","","","",""
"","","","","","instructions","3","110369","0.0-2.0-1.0-0.0-0.0","60b5141acdfeaaf91d9dc145","C3","batch3","[{""page_index"":0,""viewing_time"":10854.5},{""page_index"":1,""viewing_time"":5672.100000023842},{""page_index"":2,""viewing_time"":8447.899999976158},{""page_index"":3,""viewing_time"":10800},{""page_index"":4,""viewing_time"":5223.900000095367},{""page_index"":5,""viewing_time"":17208},{""page_index"":6,""viewing_time"":4032}]","62238.60000002384","tol-instructions","","","","","","","","","","","","","","","","","","","","","","","","","","",""
"","","","","","html-button-response","4","111337","0.0-2.0-1.0-1.0-0.0","60b5141acdfeaaf91d9dc145","C3","batch3","","967.3999999761581","tol_enter_quiz","<p class=block-text> Let's answer a few questions <br>","0","","","","","","","","","","","","","","","","","","","","","","","","",""
"","","","","","html-button-response","5","115721","0.0-2.0-1.0-1.0-1.0","60b5141acdfeaaf91d9dc145","C3","batch3","","4382.799999952316","tol_quiz","<p class = block-text>True or False: You can only move the ball on top of a peg. <br></p>","1","false","","","","","","","","","","","","","","","","","","","","","","","",""
"","","","","","html-button-response","6","118049","0.0-2.0-1.0-1.0-2.0","60b5141acdfeaaf91d9dc145","C3","batch3","","2326.899999976158","tol_quiz_feedback","<p class = block-text>Incorrect. Remember, you can only move the ball on top of a peg.</p>","0","","","","","","","","","","","","","","","","","","","","","","","","",""
"","","","","","html-button-response","7","121025","0.0-2.0-1.0-1.0-3.0","60b5141acdfeaaf91d9dc145","C3","batch3","","2975.5","tol_quiz","<p class = block-text>True or False: You should try to match your board with the target board with fewest moves possible. <br></p>","0","true","","","","","","","","","","","","","","","","","","","","","","","",""
"","","","","","html-button-response","8","122009","0.0-2.0-1.0-1.0-4.0","60b5141acdfeaaf91d9dc145","C3","batch3","","983.0999999046326","tol_quiz_feedback","<p class = block-text>Correct! </p>","0","","","","","","","","","","","","","","","","","","","","","","","","",""
"","","","","","html-button-response","9","124817","0.0-2.0-1.0-2.0-0.0","60b5141acdfeaaf91d9dc145","C3","batch3","","2807.0999999046326","","<p class = block-text>You made too many incorrect choices.</p><p class = block-text>You will now repeat the instructions and quiz</p>","0","","","","","","","","","","","","","","","","","","","","","","","","",""
"","","","","","instructions","10","142441","0.0-2.0-1.1-0.1-0.1","60b5141acdfeaaf91d9dc145","C3","batch3","[{""page_index"":0,""viewing_time"":2975.1999999284744},{""page_index"":1,""viewing_time"":1239.8000000715256},{""page_index"":2,""viewing_time"":2712.1999999284744},{""page_index"":3,""viewing_time"":3880},{""page_index"":4,""viewing_time"":1375.9000000953674},{""page_index"":5,""viewing_time"":1295.8999999761581},{""page_index"":6,""viewing_time"":4144}]","17623.199999928474","tol-instructions","","","","","","","","","","","","","","","","","","","","","","","","","","",""
"","","","","","html-button-response","11","143385","0.0-2.0-1.1-1.1-0.1","60b5141acdfeaaf91d9dc145","C3","batch3","","943.5","tol_enter_quiz","<p class=block-text> Let's answer a few questions <br>","0","","","","","","","","","","","","","","","","","","","","","","","","",""
"","","","","","html-button-response","12","146113","0.0-2.0-1.1-1.1-1.1","60b5141acdfeaaf91d9dc145","C3","batch3","","2727.5","tol_quiz","<p class = block-text>True or False: You can only move the ball on top of a peg. <br></p>","0","true","","","","","","","","","","","","","","","","","","","","","","","",""
"","","","","","html-button-response","13","147457","0.0-2.0-1.1-1.1-2.1","60b5141acdfeaaf91d9dc145","C3","batch3","","1343.2999999523163","tol_quiz_feedback","<p class = block-text>Correct! You can only move the ball on top of a peg.</p>","0","","","","","","","","","","","","","","","","","","","","","","","","",""
"","","","","","html-button-response","14","150665","0.0-2.0-1.1-1.1-3.1","60b5141acdfeaaf91d9dc145","C3","batch3","","3207.3000000715256","tol_quiz","<p class = block-text>True or False: You should try to match your board with the target board with fewest moves possible. <br></p>","0","true","","","","","","","","","","","","","","","","","","","","","","","",""
"","","","","","html-button-response","15","151337","0.0-2.0-1.1-1.1-4.1","60b5141acdfeaaf91d9dc145","C3","batch3","","671.4000000953674","tol_quiz_feedback","<p class = block-text>Correct! </p>","0","","","","","","","","","","","","","","","","","","","","","","","","",""
"","","","","","html-button-response","16","165993","0.0-2.0-2.0","60b5141acdfeaaf91d9dc145","C3","batch3","","14655.700000047684","","<p class=block-text> Now that you've understood the game, let's practice a few easier examples before we start!<br> <br>","0","","","","","","","","","","","","","","","","","","","","","","","","",""
"","","","","","single-stim-button","17","168554","0.0-2.0-3.0-0.0","60b5141acdfeaaf91d9dc145","C3","batch3","","2559","tol_practice","","","","tol_peg_2","2559","2559","0","[[1,2,0],[0,0],[0]]","1","[[1,2,0],[0,0],[3]]","practice","2559","","","","","","","","","","","","","","",""
"","","","","","single-stim-button","18","170505","0.0-2.0-3.0-1.0","60b5141acdfeaaf91d9dc145","C3","batch3","","1949","tol_practice","","","","tol_peg_3","1949","1949","0","[[1,2,0],[0,0],[3]]","1","[[1,2,0],[0,0],[3]]","practice","1949","","","","","","","","","","","","","","",""
"","","","","","poldrack-single-stim","19","171507","0.0-2.0-4.0","60b5141acdfeaaf91d9dc145","C3","batch3","","-1","tol_feedback","","","true","","1000","1000","500","","","","","","-1","none","true","","0","","","","","","","","","",""
"","","","","","single-stim-button","20","175985","0.0-2.0-5.0-0.0","60b5141acdfeaaf91d9dc145","C3","batch3","","4478","tol_practice","","","","tol_peg_1","4478","4478","0","[[1,0,0],[3,0],[0]]","2","[[0,0,0],[3,1],[2]]","practice","4478","","","","","","","","","","","","","","",""
"","","","","","single-stim-button","21","177433","0.0-2.0-5.0-1.0","60b5141acdfeaaf91d9dc145","C3","batch3","","1448","tol_practice","","","","tol_peg_3","1448","1448","0","[[1,0,0],[3,0],[2]]","2","[[0,0,0],[3,1],[2]]","practice","1448","","","","","","","","","","","","","","",""
"","","","","","single-stim-button","22","178809","0.0-2.0-5.1-0.1","60b5141acdfeaaf91d9dc145","C3","batch3","","1376","tol_practice","","","","tol_peg_1","1376","1376","0","[[0,0,0],[3,0],[2]]","3","[[0,0,0],[3,1],[2]]","practice","1376","","","","","","","","","","","","","","",""
"","","","","","single-stim-button","23","179833","0.0-2.0-5.1-1.1","60b5141acdfeaaf91d9dc145","C3","batch3","","1024","tol_practice","","","","tol_peg_2","1024","1024","0","[[0,0,0],[3,1],[2]]","3","[[0,0,0],[3,1],[2]]","practice","1024","","","","","","","","","","","","","","",""
"","","","","","poldrack-single-stim","24","180836","0.0-2.0-6.0","60b5141acdfeaaf91d9dc145","C3","batch3","","-1","tol_feedback","","","true","","1000","1000","500","","","","","","-1","none","true","","0","","","","","","","","","",""
"","","","","","single-stim-button","25","184969","0.0-2.0-7.0-0.0","60b5141acdfeaaf91d9dc145","C3","batch3","","4132","tol_practice","","","","tol_peg_2","4132","4132","0","[[1,2,0],[0,0],[0]]","4","[[1,0,0],[2,0],[3]]","practice","4132","","","","","","","","","","","","","","",""
"","","","","","single-stim-button","26","186009","0.0-2.0-7.0-1.0","60b5141acdfeaaf91d9dc145","C3","batch3","","1040","tol_practice","","","","tol_peg_3","1040","1040","0","[[1,2,0],[0,0],[3]]","4","[[1,0,0],[2,0],[3]]","practice","1040","","","","","","","","","","","","","","",""
"","","","","","single-stim-button","27","186793","0.0-2.0-7.1-0.1","60b5141acdfeaaf91d9dc145","C3","batch3","","784","tol_practice","","","","tol_peg_1","784","784","0","[[1,0,0],[0,0],[3]]","5","[[1,0,0],[2,0],[3]]","practice","784","","","","","","","","","","","","","","",""
"","","","","","single-stim-button","28","187689","0.0-2.0-7.1-1.1","60b5141acdfeaaf91d9dc145","C3","batch3","","896","tol_practice","","","","tol_peg_2","896","896","0","[[1,0,0],[2,0],[3]]","5","[[1,0,0],[2,0],[3]]","practice","896","","","","","","","","","","","","","","",""
"","","","","","poldrack-single-stim","29","188700","0.0-2.0-8.0","60b5141acdfeaaf91d9dc145","C3","batch3","","-1","tol_feedback","","","true","","1000","1000","500","","","","","","-1","none","true","","0","","","","","","","","","",""
"","","","","","html-button-response","30","194073","0.0-2.0-9.0","60b5141acdfeaaf91d9dc145","C3","batch3","","5371.800000071526","tol_instruction","<div class = centerbox><p class = center-block-text>Great job! You are done with practice trials<br>You are about to start official trials.<br> <br> Problem <strong>1</strong> out of 25 problems</p></div>","0","","","","","","","","","","","","","","","","","","","","","","","","",""
"","","","","","single-stim-button","31","199657","0.0-2.0-10.0-0.0","60b5141acdfeaaf91d9dc145","C3","batch3","","4581","tol_tohand","","","","tol_peg_2","4581","4581","0","[[1,2,0],[0,0],[0]]","1","[[1,3,0],[2,0],[0]]","0","0","","","","","","3","","","","","","","","",""
"","","","","","single-stim-button","32","200785","0.0-2.0-10.0-1.0","60b5141acdfeaaf91d9dc145","C3","batch3","","1127","tol_toboard","","","","tol_peg_3","1127","1127","0","[[1,2,0],[0,0],[3]]","1","[[1,3,0],[2,0],[0]]","0","0","","","","","","3","","","","","","","","",""
"","","","","","single-stim-button","33","201873","0.0-2.0-10.1-0.1","60b5141acdfeaaf91d9dc145","C3","batch3","","1088","tol_tohand","","","","tol_peg_1","1088","1088","0","[[1,0,0],[0,0],[3]]","2","[[1,3,0],[2,0],[0]]","0","0","","","","","","3","","","","","","","","",""
"","","","","","single-stim-button","34","202889","0.0-2.0-10.1-1.1","60b5141acdfeaaf91d9dc145","C3","batch3","","1016","tol_toboard","","","","tol_peg_2","1016","1016","0","[[1,0,0],[2,0],[3]]","2","[[1,3,0],[2,0],[0]]","0","0","","","","","","3","","","","","","","","",""
"","","","","","single-stim-button","35","203673","0.0-2.0-10.2-0.2","60b5141acdfeaaf91d9dc145","C3","batch3","","784","tol_tohand","","","","tol_peg_3","784","784","0","[[1,0,0],[2,0],[0]]","3","[[1,3,0],[2,0],[0]]","0","0","","","","","","3","","","","","","","","",""
"","","","","","single-stim-button","36","204777","0.0-2.0-10.2-1.2","60b5141acdfeaaf91d9dc145","C3","batch3","","1104","tol_toboard","","","","tol_peg_1","1104","1104","0","[[1,3,0],[2,0],[0]]","3","[[1,3,0],[2,0],[0]]","0","0","","","","","","3","","","","","","","","",""
"","","","","","poldrack-single-stim","37","205790","0.0-2.0-11.0","60b5141acdfeaaf91d9dc145","C3","batch3","","-1","tol_feedback","","","true","","1000","1000","500","","","","","","-1","none","true","4581","6453","","","","","","","","","",""
"","","","","","html-button-response","38","207097","0.0-2.0-12.0","60b5141acdfeaaf91d9dc145","C3","batch3","","1305.2000000476837","tol_trial_num","<div class = centerbox><p class = center-block-text>problem <strong>2</strong> out of 25 problems</p></div>","0","","","","","","","","","","","","","","","","","","","","","","","","",""
"","","","","","single-stim-button","39","215065","0.0-2.0-13.0-0.0","60b5141acdfeaaf91d9dc145","C3","batch3","","7968","tol_tohand","","","","tol_peg_1","7968","7968","0","[[1,0,0],[3,0],[0]]","1","[[2,1,3],[0,0],[0]]","1","0","","","","","","5","","","","","","","","",""
"","","","","","single-stim-button","40","216745","0.0-2.0-13.0-1.0","60b5141acdfeaaf91d9dc145","C3","batch3","","1679","tol_toboard","","","","tol_peg_3","1679","1679","0","[[1,0,0],[3,0],[2]]","1","[[2,1,3],[0,0],[0]]","1","0","","","","","","5","","","","","","","","",""
"","","","","","single-stim-button","41","218337","0.0-2.0-13.1-0.1","60b5141acdfeaaf91d9dc145","C3","batch3","","1592","tol_tohand","","","","tol_peg_1","1592","1592","0","[[0,0,0],[3,0],[2]]","2","[[2,1,3],[0,0],[0]]","1","0","","","","","","5","","","","","","","","",""
"","","","","","single-stim-button","42","219017","0.0-2.0-13.1-1.1","60b5141acdfeaaf91d9dc145","C3","batch3","","679","tol_toboard","","","","tol_peg_2","679","679","0","[[0,0,0],[3,1],[2]]","2","[[2,1,3],[0,0],[0]]","1","0","","","","","","5","","","","","","","","",""
"","","","","","single-stim-button","43","220409","0.0-2.0-13.2-0.2","60b5141acdfeaaf91d9dc145","C3","batch3","","1392","tol_tohand","","","","tol_peg_3","1392","1392","0","[[0,0,0],[3,1],[0]]","3","[[2,1,3],[0,0],[0]]","1","0","","","","","","5","","","","","","","","",""
"","","","","","single-stim-button","44","221497","0.0-2.0-13.2-1.2","60b5141acdfeaaf91d9dc145","C3","batch3","","1088","tol_toboard","","","","tol_peg_1","1088","1088","0","[[2,0,0],[3,1],[0]]","3","[[2,1,3],[0,0],[0]]","1","0","","","","","","5","","","","","","","","",""
"","","","","","single-stim-button","45","222641","0.0-2.0-13.3-0.3","60b5141acdfeaaf91d9dc145","C3","batch3","","1144","tol_tohand","","","","tol_peg_2","1144","1144","0","[[2,0,0],[3,0],[0]]","4","[[2,1,3],[0,0],[0]]","1","0","","","","","","5","","","","","","","","",""
"","","","","","single-stim-button","46","223633","0.0-2.0-13.3-1.3","60b5141acdfeaaf91d9dc145","C3","batch3","","992","tol_toboard","","","","tol_peg_1","992","992","0","[[2,1,0],[3,0],[0]]","4","[[2,1,3],[0,0],[0]]","1","0","","","","","","5","","","","","","","","",""
"","","","","","single-stim-button","47","224417","0.0-2.0-13.4-0.4","60b5141acdfeaaf91d9dc145","C3","batch3","","783","tol_tohand","","","","tol_peg_2","783","783","0","[[2,1,0],[0,0],[0]]","5","[[2,1,3],[0,0],[0]]","1","0","","","","","","5","","","","","","","","",""
"","","","","","single-stim-button","48","225433","0.0-2.0-13.4-1.4","60b5141acdfeaaf91d9dc145","C3","batch3","","1015","tol_toboard","","","","tol_peg_1","1015","1015","0","[[2,1,3],[0,0],[0]]","5","[[2,1,3],[0,0],[0]]","1","0","","","","","","5","","","","","","","","",""
"","","","","","poldrack-single-stim","49","226434","0.0-2.0-14.0","60b5141acdfeaaf91d9dc145","C3","batch3","","-1","tol_feedback","","","true","","1000","1000","500","","","","","","-1","none","true","7968","12879","","","","","","","","","",""
"","","","","","html-button-response","50","227561","0.0-2.0-15.0","60b5141acdfeaaf91d9dc145","C3","batch3","","1125.6000000238419","tol_trial_num","<div class = centerbox><p class = center-block-text>problem <strong>3</strong> out of 25 problems</p></div>","0","","","","","","","","","","","","","","","","","","","","","","","","",""
"","","","","","single-stim-button","51","234289","0.0-2.0-16.0-0.0","60b5141acdfeaaf91d9dc145","C3","batch3","","6728","tol_tohand","","","","tol_peg_1","6728","6728","0","[[2,0,0],[0,0],[1]]","1","[[1,2,0],[3,0],[0]]","2","0","","","","","","4","","","","","","","","",""
"","","","","","single-stim-button","52","235241","0.0-2.0-16.0-1.0","60b5141acdfeaaf91d9dc145","C3","batch3","","952","tol_toboard","","","","tol_peg_2","952","952","0","[[2,0,0],[3,0],[1]]","1","[[1,2,0],[3,0],[0]]","2","0","","","","","","4","","","","","","","","",""
"","","","","","single-stim-button","53","236129","0.0-2.0-16.1-0.1","60b5141acdfeaaf91d9dc145","C3","batch3","","888","tol_tohand","","","","tol_peg_1","888","888","0","[[0,0,0],[3,0],[1]]","2","[[1,2,0],[3,0],[0]]","2","0","","","","","","4","","","","","","","","",""
"","","","","","single-stim-button","54","236977","0.0-2.0-16.1-1.1","60b5141acdfeaaf91d9dc145","C3","batch3","","847","tol_toboard","","","","tol_peg_2","847","847","0","[[0,0,0],[3,2],[1]]","2","[[1,2,0],[3,0],[0]]","2","0","","","","","","4","","","","","","","","",""
"","","","","","single-stim-button","55","237880","0.0-2.0-16.2-0.2","60b5141acdfeaaf91d9dc145","C3","batch3","","903","tol_tohand","","","","tol_peg_3","903","903","0","[[0,0,0],[3,2],[0]]","3","[[1,2,0],[3,0],[0]]","2","0","","","","","","4","","","","","","","","",""
"","","","","","single-stim-button","56","239344","0.0-2.0-16.2-1.2","60b5141acdfeaaf91d9dc145","C3","batch3","","1463","tol_toboard","","","","tol_peg_1","1463","1463","0","[[1,0,0],[3,2],[0]]","3","[[1,2,0],[3,0],[0]]","2","0","","","","","","4","","","","","","","","",""
"","","","","","single-stim-button","57","240217","0.0-2.0-16.3-0.3","60b5141acdfeaaf91d9dc145","C3","batch3","","871","tol_tohand","","","","tol_peg_2","871","871","0","[[1,0,0],[3,0],[0]]","4","[[1,2,0],[3,0],[0]]","2","0","","","","","","4","","","","","","","","",""
"","","","","","single-stim-button","58","240896","0.0-2.0-16.3-1.3","60b5141acdfeaaf91d9dc145","C3","batch3","","679","tol_toboard","","","","tol_peg_1","679","679","0","[[1,2,0],[3,0],[0]]","4","[[1,2,0],[3,0],[0]]","2","0","","","","","","4","","","","","","","","",""
"","","","","","poldrack-single-stim","59","241901","0.0-2.0-17.0","60b5141acdfeaaf91d9dc145","C3","batch3","","-1","tol_feedback","","","true","","1000","1000","500","","","","","","-1","none","true","6728","9390","","","","","","","","","",""
"","","","","","html-button-response","60","242904","0.0-2.0-18.0","60b5141acdfeaaf91d9dc145","C3","batch3","","1002.6000000238419","tol_trial_num","<div class = centerbox><p class = center-block-text>problem <strong>4</strong> out of 25 problems</p></div>","0","","","","","","","","","","","","","","","","","","","","","","","","",""
"","","","","","single-stim-button","61","248792","0.0-2.0-19.0-0.0","60b5141acdfeaaf91d9dc145","C3","batch3","","5887","tol_tohand","","","","tol_peg_2","5887","5887","0","[[3,0,0],[2,0],[0]]","1","[[3,0,0],[1,0],[2]]","3","0","","","","","","3","","","","","","","","",""
"","","","","","single-stim-button","62","249984","0.0-2.0-19.0-1.0","60b5141acdfeaaf91d9dc145","C3","batch3","","1191","tol_toboard","","","","tol_peg_1","1191","1191","0","[[3,1,0],[2,0],[0]]","1","[[3,0,0],[1,0],[2]]","3","0","","","","","","3","","","","","","","","",""
"","","","","","single-stim-button","63","250712","0.0-2.0-19.1-0.1","60b5141acdfeaaf91d9dc145","C3","batch3","","727","tol_tohand","","","","tol_peg_2","727","727","0","[[3,1,0],[0,0],[0]]","2","[[3,0,0],[1,0],[2]]","3","0","","","","","","3","","","","","","","","",""
"","","","","","single-stim-button","64","251593","0.0-2.0-19.1-1.1","60b5141acdfeaaf91d9dc145","C3","batch3","","879","tol_toboard","","","","tol_peg_3","879","879","0","[[3,1,0],[0,0],[2]]","2","[[3,0,0],[1,0],[2]]","3","0","","","","","","3","","","","","","","","",""
"","","","","","single-stim-button","65","252681","0.0-2.0-19.2-0.2","60b5141acdfeaaf91d9dc145","C3","batch3","","1087","tol_tohand","","","","tol_peg_1","1087","1087","0","[[3,0,0],[0,0],[2]]","3","[[3,0,0],[1,0],[2]]","3","0","","","","","","3","","","","","","","","",""
"","","","","","single-stim-button","66","253688","0.0-2.0-19.2-1.2","60b5141acdfeaaf91d9dc145","C3","batch3","","1007","tol_toboard","","","","tol_peg_2","1007","1007","0","[[3,0,0],[1,0],[2]]","3","[[3,0,0],[1,0],[2]]","3","0","","","","","","3","","","","","","","","",""
"","","","","","poldrack-single-stim","67","254703","0.0-2.0-20.0","60b5141acdfeaaf91d9dc145","C3","batch3","","-1","tol_feedback","","","true","","1000","1000","500","","","","","","-1","none","true","5887","7701","","","","","","","","","",""
"","","","","","html-button-response","68","255856","0.0-2.0-21.0","60b5141acdfeaaf91d9dc145","C3","batch3","","1151.7999999523163","tol_trial_num","<div class = centerbox><p class = center-block-text>problem <strong>5</strong> out of 25 problems</p></div>","0","","","","","","","","","","","","","","","","","","","","","","","","",""
"","","","","","single-stim-button","69","261848","0.0-2.0-22.0-0.0","60b5141acdfeaaf91d9dc145","C3","batch3","","5991","tol_tohand","","","","tol_peg_2","5991","5991","0","[[1,0,0],[0,0],[3]]","1","[[0,0,0],[1,2],[3]]","4","0","","","","","","7","","","","","","","","",""
"","","","","","single-stim-button","70","266792","0.0-2.0-22.0-1.0","60b5141acdfeaaf91d9dc145","C3","batch3","","4943","tol_toboard","","","","tol_peg_2","4943","4943","0","[[1,0,0],[2,0],[3]]","1","[[0,0,0],[1,2],[3]]","4","0","","","","","","7","","","","","","","","",""
"","","","","","single-stim-button","71","310088","0.0-2.0-22.1-0.1","60b5141acdfeaaf91d9dc145","C3","batch3","","43295","tol_tohand","","","","tol_peg_3","43295","43295","0","[[1,0,0],[2,0],[0]]","2","[[0,0,0],[1,2],[3]]","4","0","","","","","","7","","","","","","","","",""
"","","","","","single-stim-button","72","311440","0.0-2.0-22.1-1.1","60b5141acdfeaaf91d9dc145","C3","batch3","","1351","tol_toboard","","","","tol_peg_1","1351","1351","0","[[1,3,0],[2,0],[0]]","2","[[0,0,0],[1,2],[3]]","4","0","","","","","","7","","","","","","","","",""
"","","","","","single-stim-button","73","312304","0.0-2.0-22.2-0.2","60b5141acdfeaaf91d9dc145","C3","batch3","","863","tol_tohand","","","","tol_peg_2","863","863","0","[[1,3,0],[0,0],[0]]","3","[[0,0,0],[1,2],[3]]","4","0","","","","","","7","","","","","","","","",""
"","","","","","single-stim-button","74","313480","0.0-2.0-22.2-1.2","60b5141acdfeaaf91d9dc145","C3","batch3","","1175","tol_toboard","","","","tol_peg_3","1175","1175","0","[[1,3,0],[0,0],[2]]","3","[[0,0,0],[1,2],[3]]","4","0","","","","","","7","","","","","","","","",""
"","","","","","single-stim-button","75","320073","0.0-2.0-22.3-0.3","60b5141acdfeaaf91d9dc145","C3","batch3","","6591","tol_tohand","","","","tol_peg_1","6591","6591","0","[[1,0,0],[0,0],[2]]","4","[[0,0,0],[1,2],[3]]","4","0","","","","","","7","","","","","","","","",""
"","","","","","single-stim-button","76","320984","0.0-2.0-22.3-1.3","60b5141acdfeaaf91d9dc145","C3","batch3","","911","tol_toboard","","","","tol_peg_2","911","911","0","[[1,0,0],[3,0],[2]]","4","[[0,0,0],[1,2],[3]]","4","0","","","","","","7","","","","","","","","",""
"","","","","","single-stim-button","77","322136","0.0-2.0-22.4-0.4","60b5141acdfeaaf91d9dc145","C3","batch3","","1152","tol_tohand","","","","tol_peg_1","1152","1152","0","[[0,0,0],[3,0],[2]]","5","[[0,0,0],[1,2],[3]]","4","0","","","","","","7","","","","","","","","",""
"","","","","","single-stim-button","78","323456","0.0-2.0-22.4-1.4","60b5141acdfeaaf91d9dc145","C3","batch3","","1319","tol_toboard","","","","tol_peg_2","1319","1319","0","[[0,0,0],[3,1],[2]]","5","[[0,0,0],[1,2],[3]]","4","0","","","","","","7","","","","","","","","",""
"","","","","","single-stim-button","79","324576","0.0-2.0-22.5-0.5","60b5141acdfeaaf91d9dc145","C3","batch3","","1119","tol_tohand","","","","tol_peg_3","1119","1119","0","[[0,0,0],[3,1],[0]]","6","[[0,0,0],[1,2],[3]]","4","0","","","","","","7","","","","","","","","",""
"","","","","","single-stim-button","80","325800","0.0-2.0-22.5-1.5","60b5141acdfeaaf91d9dc145","C3","batch3","","1223","tol_toboard","","","","tol_peg_1","1223","1223","0","[[2,0,0],[3,1],[0]]","6","[[0,0,0],[1,2],[3]]","4","0","","","","","","7","","","","","","","","",""
"","","","","","single-stim-button","81","327120","0.0-2.0-22.6-0.6","60b5141acdfeaaf91d9dc145","C3","batch3","","1319","tol_tohand","","","","tol_peg_2","1319","1319","0","[[2,0,0],[3,0],[0]]","7","[[0,0,0],[1,2],[3]]","4","0","","","","","","7","","","","","","","","",""
"","","","","","single-stim-button","82","327840","0.0-2.0-22.6-1.6","60b5141acdfeaaf91d9dc145","C3","batch3","","719","tol_toboard","","","","tol_peg_1","719","719","0","[[2,1,0],[3,0],[0]]","7","[[0,0,0],[1,2],[3]]","4","0","","","","","","7","","","","","","","","",""
"","","","","","single-stim-button","83","329008","0.0-2.0-22.7-0.7","60b5141acdfeaaf91d9dc145","C3","batch3","","1167","tol_tohand","","","","tol_peg_2","1167","1167","0","[[2,1,0],[0,0],[0]]","8","[[0,0,0],[1,2],[3]]","4","0","","","","","","7","","","","","","","","",""
"","","","","","single-stim-button","84","330072","0.0-2.0-22.7-1.7","60b5141acdfeaaf91d9dc145","C3","batch3","","1063","tol_toboard","","","","tol_peg_3","1063","1063","0","[[2,1,0],[0,0],[3]]","8","[[0,0,0],[1,2],[3]]","4","0","","","","","","7","","","","","","","","",""
"","","","","","single-stim-button","85","331344","0.0-2.0-22.8-0.8","60b5141acdfeaaf91d9dc145","C3","batch3","","1271","tol_tohand","","","","tol_peg_1","1271","1271","0","[[2,0,0],[0,0],[3]]","9","[[0,0,0],[1,2],[3]]","4","0","","","","","","7","","","","","","","","",""
"","","","","","single-stim-button","86","332160","0.0-2.0-22.8-1.8","60b5141acdfeaaf91d9dc145","C3","batch3","","815","tol_toboard","","","","tol_peg_2","815","815","0","[[2,0,0],[1,0],[3]]","9","[[0,0,0],[1,2],[3]]","4","0","","","","","","7","","","","","","","","",""
"","","","","","single-stim-button","87","332920","0.0-2.0-22.9-0.9","60b5141acdfeaaf91d9dc145","C3","batch3","","759","tol_tohand","","","","tol_peg_1","759","759","0","[[0,0,0],[1,0],[3]]","10","[[0,0,0],[1,2],[3]]","4","0","","","","","","7","","","","","","","","",""
"","","","","","single-stim-button","88","333864","0.0-2.0-22.9-1.9","60b5141acdfeaaf91d9dc145","C3","batch3","","943","tol_toboard","","","","tol_peg_2","943","943","0","[[0,0,0],[1,2],[3]]","10","[[0,0,0],[1,2],[3]]","4","0","","","","","","7","","","","","","","","",""
"","","","","","poldrack-single-stim","89","334871","0.0-2.0-23.0","60b5141acdfeaaf91d9dc145","C3","batch3","","-1","tol_feedback","","","true","","1000","1000","500","","","","","","-1","none","true","5991","63527","","","","","","","","","",""
"","","","","","html-button-response","90","336096","0.0-2.0-24.0","60b5141acdfeaaf91d9dc145","C3","batch3","","1223.6000000238419","tol_trial_num","<div class = centerbox><p class = center-block-text>problem <strong>6</strong> out of 25 problems</p></div>","0","","","","","","","","","","","","","","","","","","","","","","","","",""
"","","","","","single-stim-button","91","355065","0.0-2.0-25.0-0.0","60b5141acdfeaaf91d9dc145","C3","batch3","","18968","tol_tohand","","","","tol_peg_3","18968","18968","0","[[0,0,0],[1,2],[0]]","1","[[1,0,0],[2,3],[0]]","5","0","","","","","","6","","","","","","","","",""
"","","","","","single-stim-button","92","356680","0.0-2.0-25.0-1.0","60b5141acdfeaaf91d9dc145","C3","batch3","","1615","tol_toboard","","","","tol_peg_1","1615","1615","0","[[3,0,0],[1,2],[0]]","1","[[1,0,0],[2,3],[0]]","5","0","","","","","","6","","","","","","","","",""
"","","","","","single-stim-button","93","376481","0.0-2.0-25.1-0.1","60b5141acdfeaaf91d9dc145","C3","batch3","","19800","tol_tohand","","","","tol_peg_2","19800","19800","0","[[3,0,0],[1,0],[0]]","2","[[1,0,0],[2,3],[0]]","5","0","","","","","","6","","","","","","","","",""
"","","","","","single-stim-button","94","382961","0.0-2.0-25.1-1.1","60b5141acdfeaaf91d9dc145","C3","batch3","","6479","tol_toboard","","","","tol_peg_1","6479","6479","0","[[3,2,0],[1,0],[0]]","2","[[1,0,0],[2,3],[0]]","5","0","","","","","","6","","","","","","","","",""
"","","","","","single-stim-button","95","385680","0.0-2.0-25.2-0.2","60b5141acdfeaaf91d9dc145","C3","batch3","","2719","tol_tohand","","","","tol_peg_2","2719","2719","0","[[3,2,0],[0,0],[0]]","3","[[1,0,0],[2,3],[0]]","5","0","","","","","","6","","","","","","","","",""
"","","","","","single-stim-button","96","386936","0.0-2.0-25.2-1.2","60b5141acdfeaaf91d9dc145","C3","batch3","","1255","tol_toboard","","","","tol_peg_3","1255","1255","0","[[3,2,0],[0,0],[1]]","3","[[1,0,0],[2,3],[0]]","5","0","","","","","","6","","","","","","","","",""
"","","","","","single-stim-button","97","388681","0.0-2.0-25.3-0.3","60b5141acdfeaaf91d9dc145","C3","batch3","","1744","tol_tohand","","","","tol_peg_1","1744","1744","0","[[3,0,0],[0,0],[1]]","4","[[1,0,0],[2,3],[0]]","5","0","","","","","","6","","","","","","","","",""
"","","","","","single-stim-button","98","389920","0.0-2.0-25.3-1.3","60b5141acdfeaaf91d9dc145","C3","batch3","","1239","tol_toboard","","","","tol_peg_2","1239","1239","0","[[3,0,0],[2,0],[1]]","4","[[1,0,0],[2,3],[0]]","5","0","","","","","","6","","","","","","","","",""
"","","","","","single-stim-button","99","390969","0.0-2.0-25.4-0.4","60b5141acdfeaaf91d9dc145","C3","batch3","","1047","tol_tohand","","","","tol_peg_1","1047","1047","0","[[0,0,0],[2,0],[1]]","5","[[1,0,0],[2,3],[0]]","5","0","","","","","","6","","","","","","","","",""
"","","","","","single-stim-button","100","391928","0.0-2.0-25.4-1.4","60b5141acdfeaaf91d9dc145","C3","batch3","","959","tol_toboard","","","","tol_peg_2","959","959","0","[[0,0,0],[2,3],[1]]","5","[[1,0,0],[2,3],[0]]","5","0","","","","","","6","","","","","","","","",""
"","","","","","single-stim-button","101","392688","0.0-2.0-25.5-0.5","60b5141acdfeaaf91d9dc145","C3","batch3","","759","tol_tohand","","","","tol_peg_3","759","759","0","[[0,0,0],[2,3],[0]]","6","[[1,0,0],[2,3],[0]]","5","0","","","","","","6","","","","","","","","",""
"","","","","","single-stim-button","102","393664","0.0-2.0-25.5-1.5","60b5141acdfeaaf91d9dc145","C3","batch3","","975","tol_toboard","","","","tol_peg_1","975","975","0","[[1,0,0],[2,3],[0]]","6","[[1,0,0],[2,3],[0]]","5","0","","","","","","6","","","","","","","","",""
"","","","","","poldrack-single-stim","103","394667","0.0-2.0-26.0","60b5141acdfeaaf91d9dc145","C3","batch3","","-1","tol_feedback","","","true","","1000","1000","500","","","","","","-1","none","true","18968","45037","","","","","","","","","",""
"","","","","","html-button-response","104","395736","0.0-2.0-27.0","60b5141acdfeaaf91d9dc145","C3","batch3","","1067.8999999761581","tol_trial_num","<div class = centerbox><p class = center-block-text>problem <strong>7</strong> out of 25 problems</p></div>","0","","","","","","","","","","","","","","","","","","","","","","","","",""
"","","","","","single-stim-button","105","403137","0.0-2.0-28.0-0.0","60b5141acdfeaaf91d9dc145","C3","batch3","","7399","tol_tohand","","","","tol_peg_3","7399","7399","0","[[2,1,0],[0,0],[0]]","1","[[1,2,0],[3,0],[0]]","6","0","","","","","","5","","","","","","","","",""
"","","","","","single-stim-button","106","404728","0.0-2.0-28.0-1.0","60b5141acdfeaaf91d9dc145","C3","batch3","","1591","tol_toboard","","","","tol_peg_2","1591","1591","0","[[2,1,0],[3,0],[0]]","1","[[1,2,0],[3,0],[0]]","6","0","","","","","","5","","","","","","","","",""
"","","","","","single-stim-button","107","406457","0.0-2.0-28.1-0.1","60b5141acdfeaaf91d9dc145","C3","batch3","","1727","tol_tohand","","","","tol_peg_1","1727","1727","0","[[2,0,0],[3,0],[0]]","2","[[1,2,0],[3,0],[0]]","6","0","","","","","","5","","","","","","","","",""
"","","","","","single-stim-button","108","407672","0.0-2.0-28.1-1.1","60b5141acdfeaaf91d9dc145","C3","batch3","","1215","tol_toboard","","","","tol_peg_3","1215","1215","0","[[2,0,0],[3,0],[1]]","2","[[1,2,0],[3,0],[0]]","6","0","","","","","","5","","","","","","","","",""
"","","","","","single-stim-button","109","408897","0.0-2.0-28.2-0.2","60b5141acdfeaaf91d9dc145","C3","batch3","","1223","tol_tohand","","","","tol_peg_1","1223","1223","0","[[0,0,0],[3,0],[1]]","3","[[1,2,0],[3,0],[0]]","6","0","","","","","","5","","","","","","","","",""
"","","","","","single-stim-button","110","409888","0.0-2.0-28.2-1.2","60b5141acdfeaaf91d9dc145","C3","batch3","","991","tol_toboard","","","","tol_peg_2","991","991","0","[[0,0,0],[3,2],[1]]","3","[[1,2,0],[3,0],[0]]","6","0","","","","","","5","","","","","","","","",""
"","","","","","single-stim-button","111","410616","0.0-2.0-28.3-0.3","60b5141acdfeaaf91d9dc145","C3","batch3","","727","tol_tohand","","","","tol_peg_3","727","727","0","[[0,0,0],[3,2],[0]]","4","[[1,2,0],[3,0],[0]]","6","0","","","","","","5","","","","","","","","",""
"","","","","","single-stim-button","112","411600","0.0-2.0-28.3-1.3","60b5141acdfeaaf91d9dc145","C3","batch3","","983","tol_toboard","","","","tol_peg_1","983","983","0","[[1,0,0],[3,2],[0]]","4","[[1,2,0],[3,0],[0]]","6","0","","","","","","5","","","","","","","","",""
"","","","","","single-stim-button","113","412440","0.0-2.0-28.4-0.4","60b5141acdfeaaf91d9dc145","C3","batch3","","839","tol_tohand","","","","tol_peg_2","839","839","0","[[1,0,0],[3,0],[0]]","5","[[1,2,0],[3,0],[0]]","6","0","","","","","","5","","","","","","","","",""
"","","","","","single-stim-button","114","413224","0.0-2.0-28.4-1.4","60b5141acdfeaaf91d9dc145","C3","batch3","","783","tol_toboard","","","","tol_peg_1","783","783","0","[[1,2,0],[3,0],[0]]","5","[[1,2,0],[3,0],[0]]","6","0","","","","","","5","","","","","","","","",""
"","","","","","poldrack-single-stim","115","414226","0.0-2.0-29.0","60b5141acdfeaaf91d9dc145","C3","batch3","","-1","tol_feedback","","","true","","1000","1000","500","","","","","","-1","none","true","7399","11915","","","","","","","","","",""
"","","","","","html-button-response","116","415248","0.0-2.0-30.0","60b5141acdfeaaf91d9dc145","C3","batch3","","1020.6999999284744","tol_trial_num","<div class = centerbox><p class = center-block-text>problem <strong>8</strong> out of 25 problems</p></div>","0","","","","","","","","","","","","","","","","","","","","","","","","",""
"","","","","","single-stim-button","117","420609","0.0-2.0-31.0-0.0","60b5141acdfeaaf91d9dc145","C3","batch3","","5359","tol_tohand","","","","tol_peg_3","5359","5359","0","[[0,0,0],[2,3],[0]]","1","[[1,2,0],[3,0],[0]]","7","0","","","","","","4","","","","","","","","",""
"","","","","","single-stim-button","118","421832","0.0-2.0-31.0-1.0","60b5141acdfeaaf91d9dc145","C3","batch3","","1223","tol_toboard","","","","tol_peg_1","1223","1223","0","[[1,0,0],[2,3],[0]]","1","[[1,2,0],[3,0],[0]]","7","0","","","","","","4","","","","","","","","",""
"","","","","","single-stim-button","119","423472","0.0-2.0-31.1-0.1","60b5141acdfeaaf91d9dc145","C3","batch3","","1639","tol_tohand","","","","tol_peg_2","1639","1639","0","[[1,0,0],[2,0],[0]]","2","[[1,2,0],[3,0],[0]]","7","0","","","","","","4","","","","","","","","",""
"","","","","","single-stim-button","120","424800","0.0-2.0-31.1-1.1","60b5141acdfeaaf91d9dc145","C3","batch3","","1328","tol_toboard","","","","tol_peg_3","1328","1328","0","[[1,0,0],[2,0],[3]]","2","[[1,2,0],[3,0],[0]]","7","0","","","","","","4","","","","","","","","",""
"","","","","","single-stim-button","121","425544","0.0-2.0-31.2-0.2","60b5141acdfeaaf91d9dc145","C3","batch3","","744","tol_tohand","","","","tol_peg_2","744","744","0","[[1,0,0],[0,0],[3]]","3","[[1,2,0],[3,0],[0]]","7","0","","","","","","4","","","","","","","","",""
"","","","","","single-stim-button","122","426456","0.0-2.0-31.2-1.2","60b5141acdfeaaf91d9dc145","C3","batch3","","912","tol_toboard","","","","tol_peg_1","912","912","0","[[1,2,0],[0,0],[3]]","3","[[1,2,0],[3,0],[0]]","7","0","","","","","","4","","","","","","","","",""
"","","","","","single-stim-button","123","427464","0.0-2.0-31.3-0.3","60b5141acdfeaaf91d9dc145","C3","batch3","","1007","tol_tohand","","","","tol_peg_3","1007","1007","0","[[1,2,0],[0,0],[0]]","4","[[1,2,0],[3,0],[0]]","7","0","","","","","","4","","","","","","","","",""
"","","","","","single-stim-button","124","428536","0.0-2.0-31.3-1.3","60b5141acdfeaaf91d9dc145","C3","batch3","","1071","tol_toboard","","","","tol_peg_2","1071","1071","0","[[1,2,0],[3,0],[0]]","4","[[1,2,0],[3,0],[0]]","7","0","","","","","","4","","","","","","","","",""
"","","","","","poldrack-single-stim","125","429539","0.0-2.0-32.0","60b5141acdfeaaf91d9dc145","C3","batch3","","-1","tol_feedback","","","true","","1000","1000","500","","","","","","-1","none","true","5359","8749","","","","","","","","","",""
"","","","","","html-button-response","126","430840","0.0-2.0-33.0","60b5141acdfeaaf91d9dc145","C3","batch3","","1300.1999999284744","tol_trial_num","<div class = centerbox><p class = center-block-text>problem <strong>9</strong> out of 25 problems</p></div>","0","","","","","","","","","","","","","","","","","","","","","","","","",""
"","","","","","single-stim-button","127","443392","0.0-2.0-34.0-0.0","60b5141acdfeaaf91d9dc145","C3","batch3","","12552","tol_tohand","","","","tol_peg_1","12552","12552","0","[[3,0,0],[0,0],[1]]","1","[[2,1,0],[3,0],[0]]","8","0","","","","","","6","","","","","","","","",""
"","","","","","single-stim-button","128","457184","0.0-2.0-34.0-1.0","60b5141acdfeaaf91d9dc145","C3","batch3","","13791","tol_toboard","","","","tol_peg_1","13791","13791","0","[[3,2,0],[0,0],[1]]","1","[[2,1,0],[3,0],[0]]","8","0","","","","","","6","","","","","","","","",""
"","","","","","single-stim-button","129","458928","0.0-2.0-34.1-0.1","60b5141acdfeaaf91d9dc145","C3","batch3","","1743","tol_tohand","","","","tol_peg_3","1743","1743","0","[[3,2,0],[0,0],[0]]","2","[[2,1,0],[3,0],[0]]","8","0","","","","","","6","","","","","","","","",""
"","","","","","single-stim-button","130","459664","0.0-2.0-34.1-1.1","60b5141acdfeaaf91d9dc145","C3","batch3","","736","tol_toboard","","","","tol_peg_2","736","736","0","[[3,2,0],[1,0],[0]]","2","[[2,1,0],[3,0],[0]]","8","0","","","","","","6","","","","","","","","",""
"","","","","","single-stim-button","131","461544","0.0-2.0-34.2-0.2","60b5141acdfeaaf91d9dc145","C3","batch3","","1880","tol_tohand","","","","tol_peg_1","1880","1880","0","[[3,0,0],[1,0],[0]]","3","[[2,1,0],[3,0],[0]]","8","0","","","","","","6","","","","","","","","",""
"","","","","","single-stim-button","132","463248","0.0-2.0-34.2-1.2","60b5141acdfeaaf91d9dc145","C3","batch3","","1703","tol_toboard","","","","tol_peg_3","1703","1703","0","[[3,0,0],[1,0],[2]]","3","[[2,1,0],[3,0],[0]]","8","0","","","","","","6","","","","","","","","",""
"","","","","","single-stim-button","133","467192","0.0-2.0-34.3-0.3","60b5141acdfeaaf91d9dc145","C3","batch3","","3943","tol_tohand","","","","tol_peg_1","3943","3943","0","[[0,0,0],[1,0],[2]]","4","[[2,1,0],[3,0],[0]]","8","0","","","","","","6","","","","","","","","",""
"","","","","","single-stim-button","134","468392","0.0-2.0-34.3-1.3","60b5141acdfeaaf91d9dc145","C3","batch3","","1200","tol_toboard","","","","tol_peg_2","1200","1200","0","[[0,0,0],[1,3],[2]]","4","[[2,1,0],[3,0],[0]]","8","0","","","","","","6","","","","","","","","",""
"","","","","","single-stim-button","135","470400","0.0-2.0-34.4-0.4","60b5141acdfeaaf91d9dc145","C3","batch3","","2007","tol_tohand","","","","tol_peg_3","2007","2007","0","[[0,0,0],[1,3],[0]]","5","[[2,1,0],[3,0],[0]]","8","0","","","","","","6","","","","","","","","",""
"","","","","","single-stim-button","136","471664","0.0-2.0-34.4-1.4","60b5141acdfeaaf91d9dc145","C3","batch3","","1263","tol_toboard","","","","tol_peg_1","1263","1263","0","[[2,0,0],[1,3],[0]]","5","[[2,1,0],[3,0],[0]]","8","0","","","","","","6","","","","","","","","",""
"","","","","","single-stim-button","137","472680","0.0-2.0-34.5-0.5","60b5141acdfeaaf91d9dc145","C3","batch3","","1016","tol_tohand","","","","tol_peg_2","1016","1016","0","[[2,0,0],[1,0],[0]]","6","[[2,1,0],[3,0],[0]]","8","0","","","","","","6","","","","","","","","",""
"","","","","","single-stim-button","138","473504","0.0-2.0-34.5-1.5","60b5141acdfeaaf91d9dc145","C3","batch3","","824","tol_toboard","","","","tol_peg_3","824","824","0","[[2,0,0],[1,0],[3]]","6","[[2,1,0],[3,0],[0]]","8","0","","","","","","6","","","","","","","","",""
"","","","","","single-stim-button","139","474392","0.0-2.0-34.6-0.6","60b5141acdfeaaf91d9dc145","C3","batch3","","888","tol_tohand","","","","tol_peg_2","888","888","0","[[2,0,0],[0,0],[3]]","7","[[2,1,0],[3,0],[0]]","8","0","","","","","","6","","","","","","","","",""
"","","","","","single-stim-button","140","475472","0.0-2.0-34.6-1.6","60b5141acdfeaaf91d9dc145","C3","batch3","","1079","tol_toboard","","","","tol_peg_1","1079","1079","0","[[2,1,0],[0,0],[3]]","7","[[2,1,0],[3,0],[0]]","8","0","","","","","","6","","","","","","","","",""
"","","","","","single-stim-button","141","478824","0.0-2.0-34.7-0.7","60b5141acdfeaaf91d9dc145","C3","batch3","","3351","tol_tohand","","","","tol_peg_3","3351","3351","0","[[2,1,0],[0,0],[0]]","8","[[2,1,0],[3,0],[0]]","8","0","","","","","","6","","","","","","","","",""
"","","","","","single-stim-button","142","479872","0.0-2.0-34.7-1.7","60b5141acdfeaaf91d9dc145","C3","batch3","","1048","tol_toboard","","","","tol_peg_2","1048","1048","0","[[2,1,0],[3,0],[0]]","8","[[2,1,0],[3,0],[0]]","8","0","","","","","","6","","","","","","","","",""
"","","","","","poldrack-single-stim","143","480876","0.0-2.0-35.0","60b5141acdfeaaf91d9dc145","C3","batch3","","-1","tol_feedback","","","true","","1000","1000","500","","","","","","-1","none","true","12552","27380","","","","","","","","","",""
"","","","","","html-button-response","144","482096","0.0-2.0-36.0","60b5141acdfeaaf91d9dc145","C3","batch3","","1219.1000000238419","tol_trial_num","<div class = centerbox><p class = center-block-text>problem <strong>10</strong> out of 25 problems</p></div>","0","","","","","","","","","","","","","","","","","","","","","","","","",""
"","","","","","single-stim-button","145","488352","0.0-2.0-37.0-0.0","60b5141acdfeaaf91d9dc145","C3","batch3","","6255","tol_tohand","","","","tol_peg_2","6255","6255","0","[[3,0,0],[0,0],[2]]","1","[[3,0,0],[2,1],[0]]","9","0","","","","","","3","","","","","","","","",""
"","","","","","single-stim-button","146","489200","0.0-2.0-37.0-1.0","60b5141acdfeaaf91d9dc145","C3","batch3","","847","tol_toboard","","","","tol_peg_1","847","847","0","[[3,1,0],[0,0],[2]]","1","[[3,0,0],[2,1],[0]]","9","0","","","","","","3","","","","","","","","",""
"","","","","","single-stim-button","147","490096","0.0-2.0-37.1-0.1","60b5141acdfeaaf91d9dc145","C3","batch3","","896","tol_tohand","","","","tol_peg_3","896","896","0","[[3,1,0],[0,0],[0]]","2","[[3,0,0],[2,1],[0]]","9","0","","","","","","3","","","","","","","","",""
"","","","","","single-stim-button","148","490776","0.0-2.0-37.1-1.1","60b5141acdfeaaf91d9dc145","C3","batch3","","680","tol_toboard","","","","tol_peg_2","680","680","0","[[3,1,0],[2,0],[0]]","2","[[3,0,0],[2,1],[0]]","9","0","","","","","","3","","","","","","","","",""
"","","","","","single-stim-button","149","491640","0.0-2.0-37.2-0.2","60b5141acdfeaaf91d9dc145","C3","batch3","","864","tol_tohand","","","","tol_peg_1","864","864","0","[[3,0,0],[2,0],[0]]","3","[[3,0,0],[2,1],[0]]","9","0","","","","","","3","","","","","","","","",""
"","","","","","single-stim-button","150","492696","0.0-2.0-37.2-1.2","60b5141acdfeaaf91d9dc145","C3","batch3","","1056","tol_toboard","","","","tol_peg_2","1056","1056","0","[[3,0,0],[2,1],[0]]","3","[[3,0,0],[2,1],[0]]","9","0","","","","","","3","","","","","","","","",""
"","","","","","poldrack-single-stim","151","493698","0.0-2.0-38.0","60b5141acdfeaaf91d9dc145","C3","batch3","","-1","tol_feedback","","","true","","1000","1000","500","","","","","","-1","none","true","6255","8015","","","","","","","","","",""
"","","","","","html-button-response","152","494568","0.0-2.0-39.0","60b5141acdfeaaf91d9dc145","C3","batch3","","869.6000000238419","tol_trial_num","<div class = centerbox><p class = center-block-text>problem <strong>11</strong> out of 25 problems</p></div>","0","","","","","","","","","","","","","","","","","","","","","","","","",""
"","","","","","single-stim-button","153","507968","0.0-2.0-40.0-0.0","60b5141acdfeaaf91d9dc145","C3","batch3","","13399","tol_tohand","","","","tol_peg_2","13399","13399","0","[[1,2,0],[0,0],[0]]","1","[[2,0,0],[1,3],[0]]","10","0","","","","","","6","","","","","","","","",""
"","","","","","single-stim-button","154","508920","0.0-2.0-40.0-1.0","60b5141acdfeaaf91d9dc145","C3","batch3","","951","tol_toboard","","","","tol_peg_3","951","951","0","[[1,2,0],[0,0],[3]]","1","[[2,0,0],[1,3],[0]]","10","0","","","","","","6","","","","","","","","",""
"","","","","","single-stim-button","155","518104","0.0-2.0-40.1-0.1","60b5141acdfeaaf91d9dc145","C3","batch3","","9184","tol_tohand","","","","tol_peg_1","9184","9184","0","[[1,0,0],[0,0],[3]]","2","[[2,0,0],[1,3],[0]]","10","0","","","","","","6","","","","","","","","",""
"","","","","","single-stim-button","156","519416","0.0-2.0-40.1-1.1","60b5141acdfeaaf91d9dc145","C3","batch3","","1312","tol_toboard","","","","tol_peg_2","1312","1312","0","[[1,0,0],[2,0],[3]]","2","[[2,0,0],[1,3],[0]]","10","0","","","","","","6","","","","","","","","",""
"","","","","","single-stim-button","157","522512","0.0-2.0-40.2-0.2","60b5141acdfeaaf91d9dc145","C3","batch3","","3096","tol_tohand","","","","tol_peg_1","3096","3096","0","[[0,0,0],[2,0],[3]]","3","[[2,0,0],[1,3],[0]]","10","0","","","","","","6","","","","","","","","",""
"","","","","","single-stim-button","158","523576","0.0-2.0-40.2-1.2","60b5141acdfeaaf91d9dc145","C3","batch3","","1064","tol_toboard","","","","tol_peg_2","1064","1064","0","[[0,0,0],[2,1],[3]]","3","[[2,0,0],[1,3],[0]]","10","0","","","","","","6","","","","","","","","",""
"","","","","","single-stim-button","159","531280","0.0-2.0-40.3-0.3","60b5141acdfeaaf91d9dc145","C3","batch3","","7704","tol_tohand","","","","tol_peg_3","7704","7704","0","[[0,0,0],[2,1],[0]]","4","[[2,0,0],[1,3],[0]]","10","0","","","","","","6","","","","","","","","",""
"","","","","","single-stim-button","160","532728","0.0-2.0-40.3-1.3","60b5141acdfeaaf91d9dc145","C3","batch3","","1447","tol_toboard","","","","tol_peg_1","1447","1447","0","[[3,0,0],[2,1],[0]]","4","[[2,0,0],[1,3],[0]]","10","0","","","","","","6","","","","","","","","",""
"","","","","","single-stim-button","161","534208","0.0-2.0-40.4-0.4","60b5141acdfeaaf91d9dc145","C3","batch3","","1480","tol_tohand","","","","tol_peg_2","1480","1480","0","[[3,0,0],[2,0],[0]]","5","[[2,0,0],[1,3],[0]]","10","0","","","","","","6","","","","","","","","",""
"","","","","","single-stim-button","162","535672","0.0-2.0-40.4-1.4","60b5141acdfeaaf91d9dc145","C3","batch3","","1464","tol_toboard","","","","tol_peg_3","1464","1464","0","[[3,0,0],[2,0],[1]]","5","[[2,0,0],[1,3],[0]]","10","0","","","","","","6","","","","","","","","",""
"","","","","","single-stim-button","163","542608","0.0-2.0-40.5-0.5","60b5141acdfeaaf91d9dc145","C3","batch3","","6936","tol_tohand","","","","tol_peg_2","6936","6936","0","[[3,0,0],[0,0],[1]]","6","[[2,0,0],[1,3],[0]]","10","0","","","","","","6","","","","","","","","",""
"","","","","","single-stim-button","164","544552","0.0-2.0-40.5-1.5","60b5141acdfeaaf91d9dc145","C3","batch3","","1943","tol_toboard","","","","tol_peg_1","1943","1943","0","[[3,2,0],[0,0],[1]]","6","[[2,0,0],[1,3],[0]]","10","0","","","","","","6","","","","","","","","",""
"","","","","","single-stim-button","165","545688","0.0-2.0-40.6-0.6","60b5141acdfeaaf91d9dc145","C3","batch3","","1135","tol_tohand","","","","tol_peg_3","1135","1135","0","[[3,2,0],[0,0],[0]]","7","[[2,0,0],[1,3],[0]]","10","0","","","","","","6","","","","","","","","",""
"","","","","","single-stim-button","166","546984","0.0-2.0-40.6-1.6","60b5141acdfeaaf91d9dc145","C3","batch3","","1295","tol_toboard","","","","tol_peg_2","1295","1295","0","[[3,2,0],[1,0],[0]]","7","[[2,0,0],[1,3],[0]]","10","0","","","","","","6","","","","","","","","",""
"","","","","","single-stim-button","167","549056","0.0-2.0-40.7-0.7","60b5141acdfeaaf91d9dc145","C3","batch3","","2071","tol_tohand","","","","tol_peg_1","2071","2071","0","[[3,0,0],[1,0],[0]]","8","[[2,0,0],[1,3],[0]]","10","0","","","","","","6","","","","","","","","",""
"","","","","","single-stim-button","168","550056","0.0-2.0-40.7-1.7","60b5141acdfeaaf91d9dc145","C3","batch3","","999","tol_toboard","","","","tol_peg_3","999","999","0","[[3,0,0],[1,0],[2]]","8","[[2,0,0],[1,3],[0]]","10","0","","","","","","6","","","","","","","","",""
"","","","","","single-stim-button","169","550992","0.0-2.0-40.8-0.8","60b5141acdfeaaf91d9dc145","C3","batch3","","935","tol_tohand","","","","tol_peg_1","935","935","0","[[0,0,0],[1,0],[2]]","9","[[2,0,0],[1,3],[0]]","10","0","","","","","","6","","","","","","","","",""
"","","","","","single-stim-button","170","551968","0.0-2.0-40.8-1.8","60b5141acdfeaaf91d9dc145","C3","batch3","","975","tol_toboard","","","","tol_peg_2","975","975","0","[[0,0,0],[1,3],[2]]","9","[[2,0,0],[1,3],[0]]","10","0","","","","","","6","","","","","","","","",""
"","","","","","single-stim-button","171","552904","0.0-2.0-40.9-0.9","60b5141acdfeaaf91d9dc145","C3","batch3","","935","tol_tohand","","","","tol_peg_3","935","935","0","[[0,0,0],[1,3],[0]]","10","[[2,0,0],[1,3],[0]]","10","0","","","","","","6","","","","","","","","",""
"","","","","","single-stim-button","172","553936","0.0-2.0-40.9-1.9","60b5141acdfeaaf91d9dc145","C3","batch3","","1031","tol_toboard","","","","tol_peg_1","1031","1031","0","[[2,0,0],[1,3],[0]]","10","[[2,0,0],[1,3],[0]]","10","0","","","","","","6","","","","","","","","",""
"","","","","","poldrack-single-stim","173","554939","0.0-2.0-41.0","60b5141acdfeaaf91d9dc145","C3","batch3","","-1","tol_feedback","","","true","","1000","1000","500","","","","","","-1","none","true","13399","46875","","","","","","","","","",""
"","","","","","html-button-response","174","555976","0.0-2.0-42.0","60b5141acdfeaaf91d9dc145","C3","batch3","","1036","tol_trial_num","<div class = centerbox><p class = center-block-text>problem <strong>12</strong> out of 25 problems</p></div>","0","","","","","","","","","","","","","","","","","","","","","","","","",""
"","","","","","single-stim-button","175","565240","0.0-2.0-43.0-0.0","60b5141acdfeaaf91d9dc145","C3","batch3","","9263","tol_tohand","","","","tol_peg_1","9263","9263","0","[[1,0,0],[3,0],[0]]","1","[[2,3,0],[0,0],[1]]","11","0","","","","","","4","","","","","","","","",""
"","","","","","single-stim-button","176","566184","0.0-2.0-43.0-1.0","60b5141acdfeaaf91d9dc145","C3","batch3","","943","tol_toboard","","","","tol_peg_2","943","943","0","[[1,0,0],[3,2],[0]]","1","[[2,3,0],[0,0],[1]]","11","0","","","","","","4","","","","","","","","",""
"","","","","","single-stim-button","177","566888","0.0-2.0-43.1-0.1","60b5141acdfeaaf91d9dc145","C3","batch3","","703","tol_tohand","","","","tol_peg_1","703","703","0","[[0,0,0],[3,2],[0]]","2","[[2,3,0],[0,0],[1]]","11","0","","","","","","4","","","","","","","","",""
"","","","","","single-stim-button","178","567800","0.0-2.0-43.1-1.1","60b5141acdfeaaf91d9dc145","C3","batch3","","912","tol_toboard","","","","tol_peg_3","912","912","0","[[0,0,0],[3,2],[1]]","2","[[2,3,0],[0,0],[1]]","11","0","","","","","","4","","","","","","","","",""
"","","","","","single-stim-button","179","568744","0.0-2.0-43.2-0.2","60b5141acdfeaaf91d9dc145","C3","batch3","","943","tol_tohand","","","","tol_peg_2","943","943","0","[[0,0,0],[3,0],[1]]","3","[[2,3,0],[0,0],[1]]","11","0","","","","","","4","","","","","","","","",""
"","","","","","single-stim-button","180","569664","0.0-2.0-43.2-1.2","60b5141acdfeaaf91d9dc145","C3","batch3","","919","tol_toboard","","","","tol_peg_1","919","919","0","[[2,0,0],[3,0],[1]]","3","[[2,3,0],[0,0],[1]]","11","0","","","","","","4","","","","","","","","",""
"","","","","","single-stim-button","181","570488","0.0-2.0-43.3-0.3","60b5141acdfeaaf91d9dc145","C3","batch3","","823","tol_tohand","","","","tol_peg_2","823","823","0","[[2,0,0],[0,0],[1]]","4","[[2,3,0],[0,0],[1]]","11","0","","","","","","4","","","","","","","","",""
"","","","","","single-stim-button","182","571377","0.0-2.0-43.3-1.3","60b5141acdfeaaf91d9dc145","C3","batch3","","887","tol_toboard","","","","tol_peg_1","887","887","0","[[2,3,0],[0,0],[1]]","4","[[2,3,0],[0,0],[1]]","11","0","","","","","","4","","","","","","","","",""
"","","","","","poldrack-single-stim","183","572378","0.0-2.0-44.0","60b5141acdfeaaf91d9dc145","C3","batch3","","-1","tol_feedback","","","true","","1000","1000","500","","","","","","-1","none","true","9263","11732","","","","","","","","","",""
"","","","","","html-button-response","184","573432","0.0-2.0-45.0","60b5141acdfeaaf91d9dc145","C3","batch3","","1052.6000000238419","tol_trial_num","<div class = centerbox><p class = center-block-text>problem <strong>13</strong> out of 25 problems</p></div>","0","","","","","","","","","","","","","","","","","","","","","","","","",""
"","","","","","single-stim-button","185","583448","0.0-2.0-46.0-0.0","60b5141acdfeaaf91d9dc145","C3","batch3","","10015","tol_tohand","","","","tol_peg_2","10015","10015","0","[[1,2,0],[0,0],[0]]","1","[[0,0,0],[2,3],[1]]","12","0","","","","","","4","","","","","","","","",""
"","","","","","single-stim-button","186","584368","0.0-2.0-46.0-1.0","60b5141acdfeaaf91d9dc145","C3","batch3","","919","tol_toboard","","","","tol_peg_3","919","919","0","[[1,2,0],[0,0],[3]]","1","[[0,0,0],[2,3],[1]]","12","0","","","","","","4","","","","","","","","",""
"","","","","","single-stim-button","187","585280","0.0-2.0-46.1-0.1","60b5141acdfeaaf91d9dc145","C3","batch3","","911","tol_tohand","","","","tol_peg_1","911","911","0","[[1,0,0],[0,0],[3]]","2","[[0,0,0],[2,3],[1]]","12","0","","","","","","4","","","","","","","","",""
"","","","","","single-stim-button","188","586304","0.0-2.0-46.1-1.1","60b5141acdfeaaf91d9dc145","C3","batch3","","1024","tol_toboard","","","","tol_peg_2","1024","1024","0","[[1,0,0],[2,0],[3]]","2","[[0,0,0],[2,3],[1]]","12","0","","","","","","4","","","","","","","","",""
"","","","","","single-stim-button","189","587200","0.0-2.0-46.2-0.2","60b5141acdfeaaf91d9dc145","C3","batch3","","895","tol_tohand","","","","tol_peg_3","895","895","0","[[1,0,0],[2,0],[0]]","3","[[0,0,0],[2,3],[1]]","12","0","","","","","","4","","","","","","","","",""
"","","","","","single-stim-button","190","588072","0.0-2.0-46.2-1.2","60b5141acdfeaaf91d9dc145","C3","batch3","","871","tol_toboard","","","","tol_peg_2","871","871","0","[[1,0,0],[2,3],[0]]","3","[[0,0,0],[2,3],[1]]","12","0","","","","","","4","","","","","","","","",""
"","","","","","single-stim-button","191","588856","0.0-2.0-46.3-0.3","60b5141acdfeaaf91d9dc145","C3","batch3","","783","tol_tohand","","","","tol_peg_1","783","783","0","[[0,0,0],[2,3],[0]]","4","[[0,0,0],[2,3],[1]]","12","0","","","","","","4","","","","","","","","",""
"","","","","","single-stim-button","192","589784","0.0-2.0-46.3-1.3","60b5141acdfeaaf91d9dc145","C3","batch3","","927","tol_toboard","","","","tol_peg_3","927","927","0","[[0,0,0],[2,3],[1]]","4","[[0,0,0],[2,3],[1]]","12","0","","","","","","4","","","","","","","","",""
"","","","","","poldrack-single-stim","193","590786","0.0-2.0-47.0","60b5141acdfeaaf91d9dc145","C3","batch3","","-1","tol_feedback","","","true","","1000","1000","500","","","","","","-1","none","true","10015","12604","","","","","","","","","",""
"","","","","","html-button-response","194","593832","0.0-2.0-48.0","60b5141acdfeaaf91d9dc145","C3","batch3","","3045.7000000476837","attention_check","<p class = block-text>How many balls are in your board<br></p>","1","true","","","","","","","","","","","","","","","","","","","","","","","",""
"","","","","","html-button-response","195","594904","0.0-2.0-49.0","60b5141acdfeaaf91d9dc145","C3","batch3","","1071.1000000238419","tol_trial_num","<div class = centerbox><p class = center-block-text>problem <strong>14</strong> out of 25 problems</p></div>","0","","","","","","","","","","","","","","","","","","","","","","","","",""
"","","","","","single-stim-button","196","605200","0.0-2.0-50.0-0.0","60b5141acdfeaaf91d9dc145","C3","batch3","","10295","tol_tohand","","","","tol_peg_1","10295","10295","0","[[2,0,0],[3,0],[0]]","1","[[1,2,0],[3,0],[0]]","13","0","","","","","","4","","","","","","","","",""
"","","","","","single-stim-button","197","606296","0.0-2.0-50.0-1.0","60b5141acdfeaaf91d9dc145","C3","batch3","","1095","tol_toboard","","","","tol_peg_2","1095","1095","0","[[2,0,0],[3,1],[0]]","1","[[1,2,0],[3,0],[0]]","13","0","","","","","","4","","","","","","","","",""
"","","","","","single-stim-button","198","607208","0.0-2.0-50.1-0.1","60b5141acdfeaaf91d9dc145","C3","batch3","","912","tol_tohand","","","","tol_peg_1","912","912","0","[[0,0,0],[3,1],[0]]","2","[[1,2,0],[3,0],[0]]","13","0","","","","","","4","","","","","","","","",""
"","","","","","single-stim-button","199","608112","0.0-2.0-50.1-1.1","60b5141acdfeaaf91d9dc145","C3","batch3","","904","tol_toboard","","","","tol_peg_3","904","904","0","[[0,0,0],[3,1],[2]]","2","[[1,2,0],[3,0],[0]]","13","0","","","","","","4","","","","","","","","",""
"","","","","","single-stim-button","200","608888","0.0-2.0-50.2-0.2","60b5141acdfeaaf91d9dc145","C3","batch3","","776","tol_tohand","","","","tol_peg_2","776","776","0","[[0,0,0],[3,0],[2]]","3","[[1,2,0],[3,0],[0]]","13","0","","","","","","4","","","","","","","","",""
"","","","","","single-stim-button","201","609960","0.0-2.0-50.2-1.2","60b5141acdfeaaf91d9dc145","C3","batch3","","1072","tol_toboard","","","","tol_peg_1","1072","1072","0","[[1,0,0],[3,0],[2]]","3","[[1,2,0],[3,0],[0]]","13","0","","","","","","4","","","","","","","","",""
"","","","","","single-stim-button","202","610760","0.0-2.0-50.3-0.3","60b5141acdfeaaf91d9dc145","C3","batch3","","799","tol_tohand","","","","tol_peg_3","799","799","0","[[1,0,0],[3,0],[0]]","4","[[1,2,0],[3,0],[0]]","13","0","","","","","","4","","","","","","","","",""
"","","","","","single-stim-button","203","611680","0.0-2.0-50.3-1.3","60b5141acdfeaaf91d9dc145","C3","batch3","","920","tol_toboard","","","","tol_peg_1","920","920","0","[[1,2,0],[3,0],[0]]","4","[[1,2,0],[3,0],[0]]","13","0","","","","","","4","","","","","","","","",""
"","","","","","poldrack-single-stim","204","612683","0.0-2.0-51.0","60b5141acdfeaaf91d9dc145","C3","batch3","","-1","tol_feedback","","","true","","1000","1000","500","","","","","","-1","none","true","10295","12782","","","","","","","","","",""
"","","","","","html-button-response","205","613720","0.0-2.0-52.0","60b5141acdfeaaf91d9dc145","C3","batch3","","1036.2999999523163","tol_trial_num","<div class = centerbox><p class = center-block-text>problem <strong>15</strong> out of 25 problems</p></div>","0","","","","","","","","","","","","","","","","","","","","","","","","",""
"","","","","","single-stim-button","206","622944","0.0-2.0-53.0-0.0","60b5141acdfeaaf91d9dc145","C3","batch3","","9224","tol_tohand","","","","tol_peg_1","9224","9224","0","[[1,0,0],[3,0],[0]]","1","[[2,0,0],[3,0],[1]]","14","0","","","","","","3","","","","","","","","",""
"","","","","","single-stim-button","207","623736","0.0-2.0-53.0-1.0","60b5141acdfeaaf91d9dc145","C3","batch3","","791","tol_toboard","","","","tol_peg_2","791","791","0","[[1,0,0],[3,2],[0]]","1","[[2,0,0],[3,0],[1]]","14","0","","","","","","3","","","","","","","","",""
"","","","","","single-stim-button","208","624672","0.0-2.0-53.1-0.1","60b5141acdfeaaf91d9dc145","C3","batch3","","936","tol_tohand","","","","tol_peg_1","936","936","0","[[0,0,0],[3,2],[0]]","2","[[2,0,0],[3,0],[1]]","14","0","","","","","","3","","","","","","","","",""
"","","","","","single-stim-button","209","625592","0.0-2.0-53.1-1.1","60b5141acdfeaaf91d9dc145","C3","batch3","","919","tol_toboard","","","","tol_peg_3","919","919","0","[[0,0,0],[3,2],[1]]","2","[[2,0,0],[3,0],[1]]","14","0","","","","","","3","","","","","","","","",""
"","","","","","single-stim-button","210","626368","0.0-2.0-53.2-0.2","60b5141acdfeaaf91d9dc145","C3","batch3","","775","tol_tohand","","","","tol_peg_2","775","775","0","[[0,0,0],[3,0],[1]]","3","[[2,0,0],[3,0],[1]]","14","0","","","","","","3","","","","","","","","",""
"","","","","","single-stim-button","211","627128","0.0-2.0-53.2-1.2","60b5141acdfeaaf91d9dc145","C3","batch3","","759","tol_toboard","","","","tol_peg_1","759","759","0","[[2,0,0],[3,0],[1]]","3","[[2,0,0],[3,0],[1]]","14","0","","","","","","3","","","","","","","","",""
"","","","","","poldrack-single-stim","212","628136","0.0-2.0-54.0","60b5141acdfeaaf91d9dc145","C3","batch3","","-1","tol_feedback","","","true","","1000","1000","500","","","","","","-1","none","true","9224","10935","","","","","","","","","",""
"","","","","","html-button-response","213","629208","0.0-2.0-55.0","60b5141acdfeaaf91d9dc145","C3","batch3","","1070.8999999761581","tol_trial_num","<div class = centerbox><p class = center-block-text>problem <strong>16</strong> out of 25 problems</p></div>","0","","","","","","","","","","","","","","","","","","","","","","","","",""
"","","","","","single-stim-button","214","639640","0.0-2.0-56.0-0.0","60b5141acdfeaaf91d9dc145","C3","batch3","","10432","tol_tohand","","","","tol_peg_2","10432","10432","0","[[0,0,0],[2,0],[1]]","1","[[2,3,0],[1,0],[0]]","15","0","","","","","","7","","","","","","","","",""
"","","","","","single-stim-button","215","640592","0.0-2.0-56.0-1.0","60b5141acdfeaaf91d9dc145","C3","batch3","","951","tol_toboard","","","","tol_peg_1","951","951","0","[[3,0,0],[2,0],[1]]","1","[[2,3,0],[1,0],[0]]","15","0","","","","","","7","","","","","","","","",""
"","","","","","single-stim-button","216","641552","0.0-2.0-56.1-0.1","60b5141acdfeaaf91d9dc145","C3","batch3","","960","tol_tohand","","","","tol_peg_2","960","960","0","[[3,0,0],[0,0],[1]]","2","[[2,3,0],[1,0],[0]]","15","0","","","","","","7","","","","","","","","",""
"","","","","","single-stim-button","217","642464","0.0-2.0-56.1-1.1","60b5141acdfeaaf91d9dc145","C3","batch3","","912","tol_toboard","","","","tol_peg_1","912","912","0","[[3,2,0],[0,0],[1]]","2","[[2,3,0],[1,0],[0]]","15","0","","","","","","7","","","","","","","","",""
"","","","","","single-stim-button","218","643584","0.0-2.0-56.2-0.2","60b5141acdfeaaf91d9dc145","C3","batch3","","1120","tol_tohand","","","","tol_peg_3","1120","1120","0","[[3,2,0],[0,0],[0]]","3","[[2,3,0],[1,0],[0]]","15","0","","","","","","7","","","","","","","","",""
"","","","","","single-stim-button","219","644736","0.0-2.0-56.2-1.2","60b5141acdfeaaf91d9dc145","C3","batch3","","1152","tol_toboard","","","","tol_peg_2","1152","1152","0","[[3,2,0],[1,0],[0]]","3","[[2,3,0],[1,0],[0]]","15","0","","","","","","7","","","","","","","","",""
"","","","","","single-stim-button","220","650256","0.0-2.0-56.3-0.3","60b5141acdfeaaf91d9dc145","C3","batch3","","5520","tol_tohand","","","","tol_peg_1","5520","5520","0","[[3,0,0],[1,0],[0]]","4","[[2,3,0],[1,0],[0]]","15","0","","","","","","7","","","","","","","","",""
"","","","","","single-stim-button","221","651136","0.0-2.0-56.3-1.3","60b5141acdfeaaf91d9dc145","C3","batch3","","880","tol_toboard","","","","tol_peg_2","880","880","0","[[3,0,0],[1,2],[0]]","4","[[2,3,0],[1,0],[0]]","15","0","","","","","","7","","","","","","","","",""
"","","","","","single-stim-button","222","651880","0.0-2.0-56.4-0.4","60b5141acdfeaaf91d9dc145","C3","batch3","","744","tol_tohand","","","","tol_peg_1","744","744","0","[[0,0,0],[1,2],[0]]","5","[[2,3,0],[1,0],[0]]","15","0","","","","","","7","","","","","","","","",""
"","","","","","single-stim-button","223","652784","0.0-2.0-56.4-1.4","60b5141acdfeaaf91d9dc145","C3","batch3","","903","tol_toboard","","","","tol_peg_3","903","903","0","[[0,0,0],[1,2],[3]]","5","[[2,3,0],[1,0],[0]]","15","0","","","","","","7","","","","","","","","",""
"","","","","","single-stim-button","224","653504","0.0-2.0-56.5-0.5","60b5141acdfeaaf91d9dc145","C3","batch3","","720","tol_tohand","","","","tol_peg_2","720","720","0","[[0,0,0],[1,0],[3]]","6","[[2,3,0],[1,0],[0]]","15","0","","","","","","7","","","","","","","","",""
"","","","","","single-stim-button","225","654592","0.0-2.0-56.5-1.5","60b5141acdfeaaf91d9dc145","C3","batch3","","1088","tol_toboard","","","","tol_peg_1","1088","1088","0","[[2,0,0],[1,0],[3]]","6","[[2,3,0],[1,0],[0]]","15","0","","","","","","7","","","","","","","","",""
"","","","","","single-stim-button","226","655512","0.0-2.0-56.6-0.6","60b5141acdfeaaf91d9dc145","C3","batch3","","920","tol_tohand","","","","tol_peg_3","920","920","0","[[2,0,0],[1,0],[0]]","7","[[2,3,0],[1,0],[0]]","15","0","","","","","","7","","","","","","","","",""
"","","","","","single-stim-button","227","656624","0.0-2.0-56.6-1.6","60b5141acdfeaaf91d9dc145","C3","batch3","","1112","tol_toboard","","","","tol_peg_1","1112","1112","0","[[2,3,0],[1,0],[0]]","7","[[2,3,0],[1,0],[0]]","15","0","","","","","","7","","","","","","","","",""
"","","","","","poldrack-single-stim","228","657627","0.0-2.0-57.0","60b5141acdfeaaf91d9dc145","C3","batch3","","-1","tol_feedback","","","true","","1000","1000","500","","","","","","-1","none","true","10432","20416","","","","","","","","","",""
"","","","","","html-button-response","229","658496","0.0-2.0-58.0","60b5141acdfeaaf91d9dc145","C3","batch3","","868","tol_trial_num","<div class = centerbox><p class = center-block-text>problem <strong>17</strong> out of 25 problems</p></div>","0","","","","","","","","","","","","","","","","","","","","","","","","",""
"","","","","","single-stim-button","230","668224","0.0-2.0-59.0-0.0","60b5141acdfeaaf91d9dc145","C3","batch3","","9728","tol_tohand","","","","tol_peg_2","9728","9728","0","[[1,2,0],[0,0],[0]]","1","[[3,1,0],[2,0],[0]]","16","0","","","","","","5","","","","","","","","",""
"","","","","","single-stim-button","231","670368","0.0-2.0-59.0-1.0","60b5141acdfeaaf91d9dc145","C3","batch3","","2144","tol_toboard","","","","tol_peg_3","2144","2144","0","[[1,2,0],[0,0],[3]]","1","[[3,1,0],[2,0],[0]]","16","0","","","","","","5","","","","","","","","",""
"","","","","","single-stim-button","232","671456","0.0-2.0-59.1-0.1","60b5141acdfeaaf91d9dc145","C3","batch3","","1088","tol_tohand","","","","tol_peg_1","1088","1088","0","[[1,0,0],[0,0],[3]]","2","[[3,1,0],[2,0],[0]]","16","0","","","","","","5","","","","","","","","",""
"","","","","","single-stim-button","233","672296","0.0-2.0-59.1-1.1","60b5141acdfeaaf91d9dc145","C3","batch3","","840","tol_toboard","","","","tol_peg_2","840","840","0","[[1,0,0],[2,0],[3]]","2","[[3,1,0],[2,0],[0]]","16","0","","","","","","5","","","","","","","","",""
"","","","","","single-stim-button","234","673056","0.0-2.0-59.2-0.2","60b5141acdfeaaf91d9dc145","C3","batch3","","760","tol_tohand","","","","tol_peg_1","760","760","0","[[0,0,0],[2,0],[3]]","3","[[3,1,0],[2,0],[0]]","16","0","","","","","","5","","","","","","","","",""
"","","","","","single-stim-button","235","674048","0.0-2.0-59.2-1.2","60b5141acdfeaaf91d9dc145","C3","batch3","","992","tol_toboard","","","","tol_peg_2","992","992","0","[[0,0,0],[2,1],[3]]","3","[[3,1,0],[2,0],[0]]","16","0","","","","","","5","","","","","","","","",""
"","","","","","single-stim-button","236","674752","0.0-2.0-59.3-0.3","60b5141acdfeaaf91d9dc145","C3","batch3","","704","tol_tohand","","","","tol_peg_3","704","704","0","[[0,0,0],[2,1],[0]]","4","[[3,1,0],[2,0],[0]]","16","0","","","","","","5","","","","","","","","",""
"","","","","","single-stim-button","237","675608","0.0-2.0-59.3-1.3","60b5141acdfeaaf91d9dc145","C3","batch3","","856","tol_toboard","","","","tol_peg_1","856","856","0","[[3,0,0],[2,1],[0]]","4","[[3,1,0],[2,0],[0]]","16","0","","","","","","5","","","","","","","","",""
"","","","","","single-stim-button","238","676184","0.0-2.0-59.4-0.4","60b5141acdfeaaf91d9dc145","C3","batch3","","576","tol_tohand","","","","tol_peg_2","576","576","0","[[3,0,0],[2,0],[0]]","5","[[3,1,0],[2,0],[0]]","16","0","","","","","","5","","","","","","","","",""
"","","","","","single-stim-button","239","676976","0.0-2.0-59.4-1.4","60b5141acdfeaaf91d9dc145","C3","batch3","","792","tol_toboard","","","","tol_peg_1","792","792","0","[[3,1,0],[2,0],[0]]","5","[[3,1,0],[2,0],[0]]","16","0","","","","","","5","","","","","","","","",""
"","","","","","poldrack-single-stim","240","677977","0.0-2.0-60.0","60b5141acdfeaaf91d9dc145","C3","batch3","","-1","tol_feedback","","","true","","1000","1000","500","","","","","","-1","none","true","9728","12856","","","","","","","","","",""
"","","","","","html-button-response","241","679024","0.0-2.0-61.0","60b5141acdfeaaf91d9dc145","C3","batch3","","1045.6000000238419","tol_trial_num","<div class = centerbox><p class = center-block-text>problem <strong>18</strong> out of 25 problems</p></div>","0","","","","","","","","","","","","","","","","","","","","","","","","",""
"","","","","","single-stim-button","242","715088","0.0-2.0-62.0-0.0","60b5141acdfeaaf91d9dc145","C3","batch3","","36064","tol_tohand","","","","tol_peg_2","36064","36064","0","[[1,2,0],[0,0],[0]]","1","[[3,0,0],[2,0],[1]]","17","0","","","","","","5","","","","","","","","",""
"","","","","","single-stim-button","243","716248","0.0-2.0-62.0-1.0","60b5141acdfeaaf91d9dc145","C3","batch3","","1160","tol_toboard","","","","tol_peg_3","1160","1160","0","[[1,2,0],[0,0],[3]]","1","[[3,0,0],[2,0],[1]]","17","0","","","","","","5","","","","","","","","",""
"","","","","","single-stim-button","244","717320","0.0-2.0-62.1-0.1","60b5141acdfeaaf91d9dc145","C3","batch3","","1072","tol_tohand","","","","tol_peg_1","1072","1072","0","[[1,0,0],[0,0],[3]]","2","[[3,0,0],[2,0],[1]]","17","0","","","","","","5","","","","","","","","",""
"","","","","","single-stim-button","245","718280","0.0-2.0-62.1-1.1","60b5141acdfeaaf91d9dc145","C3","batch3","","959","tol_toboard","","","","tol_peg_2","959","959","0","[[1,0,0],[2,0],[3]]","2","[[3,0,0],[2,0],[1]]","17","0","","","","","","5","","","","","","","","",""
"","","","","","single-stim-button","246","720792","0.0-2.0-62.2-0.2","60b5141acdfeaaf91d9dc145","C3","batch3","","2511","tol_tohand","","","","tol_peg_1","2511","2511","0","[[0,0,0],[2,0],[3]]","3","[[3,0,0],[2,0],[1]]","17","0","","","","","","5","","","","","","","","",""
"","","","","","single-stim-button","247","721568","0.0-2.0-62.2-1.2","60b5141acdfeaaf91d9dc145","C3","batch3","","775","tol_toboard","","","","tol_peg_2","775","775","0","[[0,0,0],[2,1],[3]]","3","[[3,0,0],[2,0],[1]]","17","0","","","","","","5","","","","","","","","",""
"","","","","","single-stim-button","248","722400","0.0-2.0-62.3-0.3","60b5141acdfeaaf91d9dc145","C3","batch3","","832","tol_tohand","","","","tol_peg_3","832","832","0","[[0,0,0],[2,1],[0]]","4","[[3,0,0],[2,0],[1]]","17","0","","","","","","5","","","","","","","","",""
"","","","","","single-stim-button","249","723552","0.0-2.0-62.3-1.3","60b5141acdfeaaf91d9dc145","C3","batch3","","1152","tol_toboard","","","","tol_peg_1","1152","1152","0","[[3,0,0],[2,1],[0]]","4","[[3,0,0],[2,0],[1]]","17","0","","","","","","5","","","","","","","","",""
"","","","","","single-stim-button","250","724424","0.0-2.0-62.4-0.4","60b5141acdfeaaf91d9dc145","C3","batch3","","872","tol_tohand","","","","tol_peg_2","872","872","0","[[3,0,0],[2,0],[0]]","5","[[3,0,0],[2,0],[1]]","17","0","","","","","","5","","","","","","","","",""
"","","","","","single-stim-button","251","725544","0.0-2.0-62.4-1.4","60b5141acdfeaaf91d9dc145","C3","batch3","","1119","tol_toboard","","","","tol_peg_3","1119","1119","0","[[3,0,0],[2,0],[1]]","5","[[3,0,0],[2,0],[1]]","17","0","","","","","","5","","","","","","","","",""
"","","","","","poldrack-single-stim","252","726560","0.0-2.0-63.0","60b5141acdfeaaf91d9dc145","C3","batch3","","-1","tol_feedback","","","true","","1000","1000","500","","","","","","-1","none","true","36064","41351","","","","","","","","","",""
"","","","","","html-button-response","253","727768","0.0-2.0-64.0","60b5141acdfeaaf91d9dc145","C3","batch3","","1206.3999999761581","tol_trial_num","<div class = centerbox><p class = center-block-text>problem <strong>19</strong> out of 25 problems</p></div>","0","","","","","","","","","","","","","","","","","","","","","","","","",""
"","","","","","single-stim-button","254","775808","0.0-2.0-65.0-0.0","60b5141acdfeaaf91d9dc145","C3","batch3","","48040","tol_tohand","","","","tol_peg_1","48040","48040","0","[[1,0,0],[3,0],[0]]","1","[[0,0,0],[1,2],[3]]","18","0","","","","","","7","","","","","","","","",""
"","","","","","single-stim-button","255","776840","0.0-2.0-65.0-1.0","60b5141acdfeaaf91d9dc145","C3","batch3","","1031","tol_toboard","","","","tol_peg_3","1031","1031","0","[[1,0,0],[3,0],[2]]","1","[[0,0,0],[1,2],[3]]","18","0","","","","","","7","","","","","","","","",""
"","","","","","single-stim-button","256","778208","0.0-2.0-65.1-0.1","60b5141acdfeaaf91d9dc145","C3","batch3","","1368","tol_tohand","","","","tol_peg_1","1368","1368","0","[[0,0,0],[3,0],[2]]","2","[[0,0,0],[1,2],[3]]","18","0","","","","","","7","","","","","","","","",""
"","","","","","single-stim-button","257","779072","0.0-2.0-65.1-1.1","60b5141acdfeaaf91d9dc145","C3","batch3","","864","tol_toboard","","","","tol_peg_2","864","864","0","[[0,0,0],[3,1],[2]]","2","[[0,0,0],[1,2],[3]]","18","0","","","","","","7","","","","","","","","",""
"","","","","","single-stim-button","258","779976","0.0-2.0-65.2-0.2","60b5141acdfeaaf91d9dc145","C3","batch3","","904","tol_tohand","","","","tol_peg_3","904","904","0","[[0,0,0],[3,1],[0]]","3","[[0,0,0],[1,2],[3]]","18","0","","","","","","7","","","","","","","","",""
"","","","","","single-stim-button","259","781080","0.0-2.0-65.2-1.2","60b5141acdfeaaf91d9dc145","C3","batch3","","1104","tol_toboard","","","","tol_peg_1","1104","1104","0","[[2,0,0],[3,1],[0]]","3","[[0,0,0],[1,2],[3]]","18","0","","","","","","7","","","","","","","","",""
"","","","","","single-stim-button","260","782152","0.0-2.0-65.3-0.3","60b5141acdfeaaf91d9dc145","C3","batch3","","1072","tol_tohand","","","","tol_peg_2","1072","1072","0","[[2,0,0],[3,0],[0]]","4","[[0,0,0],[1,2],[3]]","18","0","","","","","","7","","","","","","","","",""
"","","","","","single-stim-button","261","783232","0.0-2.0-65.3-1.3","60b5141acdfeaaf91d9dc145","C3","batch3","","1080","tol_toboard","","","","tol_peg_1","1080","1080","0","[[2,1,0],[3,0],[0]]","4","[[0,0,0],[1,2],[3]]","18","0","","","","","","7","","","","","","","","",""
"","","","","","single-stim-button","262","783904","0.0-2.0-65.4-0.4","60b5141acdfeaaf91d9dc145","C3","batch3","","672","tol_tohand","","","","tol_peg_2","672","672","0","[[2,1,0],[0,0],[0]]","5","[[0,0,0],[1,2],[3]]","18","0","","","","","","7","","","","","","","","",""
"","","","","","single-stim-button","263","785080","0.0-2.0-65.4-1.4","60b5141acdfeaaf91d9dc145","C3","batch3","","1176","tol_toboard","","","","tol_peg_3","1176","1176","0","[[2,1,0],[0,0],[3]]","5","[[0,0,0],[1,2],[3]]","18","0","","","","","","7","","","","","","","","",""
"","","","","","single-stim-button","264","786032","0.0-2.0-65.5-0.5","60b5141acdfeaaf91d9dc145","C3","batch3","","952","tol_tohand","","","","tol_peg_1","952","952","0","[[2,0,0],[0,0],[3]]","6","[[0,0,0],[1,2],[3]]","18","0","","","","","","7","","","","","","","","",""
"","","","","","single-stim-button","265","786688","0.0-2.0-65.5-1.5","60b5141acdfeaaf91d9dc145","C3","batch3","","656","tol_toboard","","","","tol_peg_2","656","656","0","[[2,0,0],[1,0],[3]]","6","[[0,0,0],[1,2],[3]]","18","0","","","","","","7","","","","","","","","",""
"","","","","","single-stim-button","266","787440","0.0-2.0-65.6-0.6","60b5141acdfeaaf91d9dc145","C3","batch3","","752","tol_tohand","","","","tol_peg_1","752","752","0","[[0,0,0],[1,0],[3]]","7","[[0,0,0],[1,2],[3]]","18","0","","","","","","7","","","","","","","","",""
"","","","","","single-stim-button","267","788224","0.0-2.0-65.6-1.6","60b5141acdfeaaf91d9dc145","C3","batch3","","783","tol_toboard","","","","tol_peg_2","783","783","0","[[0,0,0],[1,2],[3]]","7","[[0,0,0],[1,2],[3]]","18","0","","","","","","7","","","","","","","","",""
"","","","","","poldrack-single-stim","268","789227","0.0-2.0-66.0","60b5141acdfeaaf91d9dc145","C3","batch3","","-1","tol_feedback","","","true","","1000","1000","500","","","","","","-1","none","true","48040","53760","","","","","","","","","",""
"","","","","","html-button-response","269","790320","0.0-2.0-67.0","60b5141acdfeaaf91d9dc145","C3","batch3","","1091.6999999284744","tol_trial_num","<div class = centerbox><p class = center-block-text>problem <strong>20</strong> out of 25 problems</p></div>","0","","","","","","","","","","","","","","","","","","","","","","","","",""
"","","","","","single-stim-button","270","796320","0.0-2.0-68.0-0.0","60b5141acdfeaaf91d9dc145","C3","batch3","","6000","tol_tohand","","","","tol_peg_1","6000","6000","0","[[1,0,0],[3,0],[0]]","1","[[2,1,0],[0,0],[3]]","19","0","","","","","","5","","","","","","","","",""
"","","","","","single-stim-button","271","797184","0.0-2.0-68.0-1.0","60b5141acdfeaaf91d9dc145","C3","batch3","","864","tol_toboard","","","","tol_peg_3","864","864","0","[[1,0,0],[3,0],[2]]","1","[[2,1,0],[0,0],[3]]","19","0","","","","","","5","","","","","","","","",""
"","","","","","single-stim-button","272","798080","0.0-2.0-68.1-0.1","60b5141acdfeaaf91d9dc145","C3","batch3","","896","tol_tohand","","","","tol_peg_1","896","896","0","[[0,0,0],[3,0],[2]]","2","[[2,1,0],[0,0],[3]]","19","0","","","","","","5","","","","","","","","",""
"","","","","","single-stim-button","273","798992","0.0-2.0-68.1-1.1","60b5141acdfeaaf91d9dc145","C3","batch3","","912","tol_toboard","","","","tol_peg_2","912","912","0","[[0,0,0],[3,1],[2]]","2","[[2,1,0],[0,0],[3]]","19","0","","","","","","5","","","","","","","","",""
"","","","","","single-stim-button","274","799616","0.0-2.0-68.2-0.2","60b5141acdfeaaf91d9dc145","C3","batch3","","624","tol_tohand","","","","tol_peg_3","624","624","0","[[0,0,0],[3,1],[0]]","3","[[2,1,0],[0,0],[3]]","19","0","","","","","","5","","","","","","","","",""
"","","","","","single-stim-button","275","800616","0.0-2.0-68.2-1.2","60b5141acdfeaaf91d9dc145","C3","batch3","","1000","tol_toboard","","","","tol_peg_1","1000","1000","0","[[2,0,0],[3,1],[0]]","3","[[2,1,0],[0,0],[3]]","19","0","","","","","","5","","","","","","","","",""
"","","","","","single-stim-button","276","801304","0.0-2.0-68.3-0.3","60b5141acdfeaaf91d9dc145","C3","batch3","","688","tol_tohand","","","","tol_peg_2","688","688","0","[[2,0,0],[3,0],[0]]","4","[[2,1,0],[0,0],[3]]","19","0","","","","","","5","","","","","","","","",""
"","","","","","single-stim-button","277","802088","0.0-2.0-68.3-1.3","60b5141acdfeaaf91d9dc145","C3","batch3","","784","tol_toboard","","","","tol_peg_1","784","784","0","[[2,1,0],[3,0],[0]]","4","[[2,1,0],[0,0],[3]]","19","0","","","","","","5","","","","","","","","",""
"","","","","","single-stim-button","278","802736","0.0-2.0-68.4-0.4","60b5141acdfeaaf91d9dc145","C3","batch3","","648","tol_tohand","","","","tol_peg_2","648","648","0","[[2,1,0],[0,0],[0]]","5","[[2,1,0],[0,0],[3]]","19","0","","","","","","5","","","","","","","","",""
"","","","","","single-stim-button","279","803752","0.0-2.0-68.4-1.4","60b5141acdfeaaf91d9dc145","C3","batch3","","1016","tol_toboard","","","","tol_peg_3","1016","1016","0","[[2,1,0],[0,0],[3]]","5","[[2,1,0],[0,0],[3]]","19","0","","","","","","5","","","","","","","","",""
"","","","","","poldrack-single-stim","280","804754","0.0-2.0-69.0","60b5141acdfeaaf91d9dc145","C3","batch3","","-1","tol_feedback","","","true","","1000","1000","500","","","","","","-1","none","true","6000","8856","","","","","","","","","",""
"","","","","","html-button-response","281","805736","0.0-2.0-70.0","60b5141acdfeaaf91d9dc145","C3","batch3","","980.8000000715256","tol_trial_num","<div class = centerbox><p class = center-block-text>problem <strong>21</strong> out of 25 problems</p></div>","0","","","","","","","","","","","","","","","","","","","","","","","","",""
"","","","","","single-stim-button","282","826520","0.0-2.0-71.0-0.0","60b5141acdfeaaf91d9dc145","C3","batch3","","20784","tol_tohand","","","","tol_peg_1","20784","20784","0","[[1,0,0],[3,0],[0]]","1","[[3,2,0],[0,0],[1]]","20","0","","","","","","6","","","","","","","","",""
"","","","","","single-stim-button","283","827560","0.0-2.0-71.0-1.0","60b5141acdfeaaf91d9dc145","C3","batch3","","1039","tol_toboard","","","","tol_peg_3","1039","1039","0","[[1,0,0],[3,0],[2]]","1","[[3,2,0],[0,0],[1]]","20","0","","","","","","6","","","","","","","","",""
"","","","","","single-stim-button","284","834336","0.0-2.0-71.1-0.1","60b5141acdfeaaf91d9dc145","C3","batch3","","6776","tol_tohand","","","","tol_peg_1","6776","6776","0","[[0,0,0],[3,0],[2]]","2","[[3,2,0],[0,0],[1]]","20","0","","","","","","6","","","","","","","","",""
"","","","","","single-stim-button","285","835208","0.0-2.0-71.1-1.1","60b5141acdfeaaf91d9dc145","C3","batch3","","872","tol_toboard","","","","tol_peg_2","872","872","0","[[0,0,0],[3,1],[2]]","2","[[3,2,0],[0,0],[1]]","20","0","","","","","","6","","","","","","","","",""
"","","","","","single-stim-button","286","836392","0.0-2.0-71.2-0.2","60b5141acdfeaaf91d9dc145","C3","batch3","","1183","tol_tohand","","","","tol_peg_3","1183","1183","0","[[0,0,0],[3,1],[0]]","3","[[3,2,0],[0,0],[1]]","20","0","","","","","","6","","","","","","","","",""
"","","","","","single-stim-button","287","837688","0.0-2.0-71.2-1.2","60b5141acdfeaaf91d9dc145","C3","batch3","","1296","tol_toboard","","","","tol_peg_1","1296","1296","0","[[2,0,0],[3,1],[0]]","3","[[3,2,0],[0,0],[1]]","20","0","","","","","","6","","","","","","","","",""
"","","","","","single-stim-button","288","846608","0.0-2.0-71.3-0.3","60b5141acdfeaaf91d9dc145","C3","batch3","","8919","tol_tohand","","","","tol_peg_2","8919","8919","0","[[2,0,0],[3,0],[0]]","4","[[3,2,0],[0,0],[1]]","20","0","","","","","","6","","","","","","","","",""
"","","","","","single-stim-button","289","852504","0.0-2.0-71.3-1.3","60b5141acdfeaaf91d9dc145","C3","batch3","","5895","tol_toboard","","","","tol_peg_1","5895","5895","0","[[2,1,0],[3,0],[0]]","4","[[3,2,0],[0,0],[1]]","20","0","","","","","","6","","","","","","","","",""
"","","","","","single-stim-button","290","854272","0.0-2.0-71.4-0.4","60b5141acdfeaaf91d9dc145","C3","batch3","","1767","tol_tohand","","","","tol_peg_2","1767","1767","0","[[2,1,0],[0,0],[0]]","5","[[3,2,0],[0,0],[1]]","20","0","","","","","","6","","","","","","","","",""
"","","","","","single-stim-button","291","855168","0.0-2.0-71.4-1.4","60b5141acdfeaaf91d9dc145","C3","batch3","","895","tol_toboard","","","","tol_peg_3","895","895","0","[[2,1,0],[0,0],[3]]","5","[[3,2,0],[0,0],[1]]","20","0","","","","","","6","","","","","","","","",""
"","","","","","single-stim-button","292","859568","0.0-2.0-71.5-0.5","60b5141acdfeaaf91d9dc145","C3","batch3","","4399","tol_tohand","","","","tol_peg_1","4399","4399","0","[[2,0,0],[0,0],[3]]","6","[[3,2,0],[0,0],[1]]","20","0","","","","","","6","","","","","","","","",""
"","","","","","single-stim-button","293","860576","0.0-2.0-71.5-1.5","60b5141acdfeaaf91d9dc145","C3","batch3","","1007","tol_toboard","","","","tol_peg_2","1007","1007","0","[[2,0,0],[1,0],[3]]","6","[[3,2,0],[0,0],[1]]","20","0","","","","","","6","","","","","","","","",""
"","","","","","single-stim-button","294","863895","0.0-2.0-71.6-0.6","60b5141acdfeaaf91d9dc145","C3","batch3","","3319","tol_tohand","","","","tol_peg_1","3319","3319","0","[[0,0,0],[1,0],[3]]","7","[[3,2,0],[0,0],[1]]","20","0","","","","","","6","","","","","","","","",""
"","","","","","single-stim-button","295","864879","0.0-2.0-71.6-1.6","60b5141acdfeaaf91d9dc145","C3","batch3","","983","tol_toboard","","","","tol_peg_2","983","983","0","[[0,0,0],[1,2],[3]]","7","[[3,2,0],[0,0],[1]]","20","0","","","","","","6","","","","","","","","",""
"","","","","","single-stim-button","296","865584","0.0-2.0-71.7-0.7","60b5141acdfeaaf91d9dc145","C3","batch3","","703","tol_tohand","","","","tol_peg_3","703","703","0","[[0,0,0],[1,2],[0]]","8","[[3,2,0],[0,0],[1]]","20","0","","","","","","6","","","","","","","","",""
"","","","","","single-stim-button","297","866735","0.0-2.0-71.7-1.7","60b5141acdfeaaf91d9dc145","C3","batch3","","1151","tol_toboard","","","","tol_peg_1","1151","1151","0","[[3,0,0],[1,2],[0]]","8","[[3,2,0],[0,0],[1]]","20","0","","","","","","6","","","","","","","","",""
"","","","","","single-stim-button","298","867584","0.0-2.0-71.8-0.8","60b5141acdfeaaf91d9dc145","C3","batch3","","847","tol_tohand","","","","tol_peg_2","847","847","0","[[3,0,0],[1,0],[0]]","9","[[3,2,0],[0,0],[1]]","20","0","","","","","","6","","","","","","","","",""
"","","","","","single-stim-button","299","868232","0.0-2.0-71.8-1.8","60b5141acdfeaaf91d9dc145","C3","batch3","","647","tol_toboard","","","","tol_peg_1","647","647","0","[[3,2,0],[1,0],[0]]","9","[[3,2,0],[0,0],[1]]","20","0","","","","","","6","","","","","","","","",""
"","","","","","single-stim-button","300","868927","0.0-2.0-71.9-0.9","60b5141acdfeaaf91d9dc145","C3","batch3","","695","tol_tohand","","","","tol_peg_2","695","695","0","[[3,2,0],[0,0],[0]]","10","[[3,2,0],[0,0],[1]]","20","0","","","","","","6","","","","","","","","",""
"","","","","","single-stim-button","301","869719","0.0-2.0-71.9-1.9","60b5141acdfeaaf91d9dc145","C3","batch3","","791","tol_toboard","","","","tol_peg_3","791","791","0","[[3,2,0],[0,0],[1]]","10","[[3,2,0],[0,0],[1]]","20","0","","","","","","6","","","","","","","","",""
"","","","","","poldrack-single-stim","302","870722","0.0-2.0-72.0","60b5141acdfeaaf91d9dc145","C3","batch3","","-1","tol_feedback","","","true","","1000","1000","500","","","","","","-1","none","true","20784","49392","","","","","","","","","",""
"","","","","","html-button-response","303","871863","0.0-2.0-73.0","60b5141acdfeaaf91d9dc145","C3","batch3","","1140.1000000238419","tol_trial_num","<div class = centerbox><p class = center-block-text>problem <strong>22</strong> out of 25 problems</p></div>","0","","","","","","","","","","","","","","","","","","","","","","","","",""
"","","","","","single-stim-button","304","889376","0.0-2.0-74.0-0.0","60b5141acdfeaaf91d9dc145","C3","batch3","","17511","tol_tohand","","","","tol_peg_2","17511","17511","0","[[1,0,0],[2,0],[0]]","1","[[0,0,0],[1,2],[3]]","21","0","","","","","","6","","","","","","","","",""
"","","","","","single-stim-button","305","896847","0.0-2.0-74.0-1.0","60b5141acdfeaaf91d9dc145","C3","batch3","","7471","tol_toboard","","","","tol_peg_1","7471","7471","0","[[1,3,0],[2,0],[0]]","1","[[0,0,0],[1,2],[3]]","21","0","","","","","","6","","","","","","","","",""
"","","","","","single-stim-button","306","897935","0.0-2.0-74.1-0.1","60b5141acdfeaaf91d9dc145","C3","batch3","","1087","tol_tohand","","","","tol_peg_2","1087","1087","0","[[1,3,0],[0,0],[0]]","2","[[0,0,0],[1,2],[3]]","21","0","","","","","","6","","","","","","","","",""
"","","","","","single-stim-button","307","899111","0.0-2.0-74.1-1.1","60b5141acdfeaaf91d9dc145","C3","batch3","","1175","tol_toboard","","","","tol_peg_3","1175","1175","0","[[1,3,0],[0,0],[2]]","2","[[0,0,0],[1,2],[3]]","21","0","","","","","","6","","","","","","","","",""
"","","","","","single-stim-button","308","907448","0.0-2.0-74.2-0.2","60b5141acdfeaaf91d9dc145","C3","batch3","","8336","tol_tohand","","","","tol_peg_1","8336","8336","0","[[1,0,0],[0,0],[2]]","3","[[0,0,0],[1,2],[3]]","21","0","","","","","","6","","","","","","","","",""
"","","","","","single-stim-button","309","908239","0.0-2.0-74.2-1.2","60b5141acdfeaaf91d9dc145","C3","batch3","","791","tol_toboard","","","","tol_peg_2","791","791","0","[[1,0,0],[3,0],[2]]","3","[[0,0,0],[1,2],[3]]","21","0","","","","","","6","","","","","","","","",""
"","","","","","single-stim-button","310","909048","0.0-2.0-74.3-0.3","60b5141acdfeaaf91d9dc145","C3","batch3","","808","tol_tohand","","","","tol_peg_1","808","808","0","[[0,0,0],[3,0],[2]]","4","[[0,0,0],[1,2],[3]]","21","0","","","","","","6","","","","","","","","",""
"","","","","","single-stim-button","311","909864","0.0-2.0-74.3-1.3","60b5141acdfeaaf91d9dc145","C3","batch3","","816","tol_toboard","","","","tol_peg_2","816","816","0","[[0,0,0],[3,1],[2]]","4","[[0,0,0],[1,2],[3]]","21","0","","","","","","6","","","","","","","","",""
"","","","","","single-stim-button","312","910560","0.0-2.0-74.4-0.4","60b5141acdfeaaf91d9dc145","C3","batch3","","695","tol_tohand","","","","tol_peg_3","695","695","0","[[0,0,0],[3,1],[0]]","5","[[0,0,0],[1,2],[3]]","21","0","","","","","","6","","","","","","","","",""
"","","","","","single-stim-button","313","911784","0.0-2.0-74.4-1.4","60b5141acdfeaaf91d9dc145","C3","batch3","","1224","tol_toboard","","","","tol_peg_1","1224","1224","0","[[2,0,0],[3,1],[0]]","5","[[0,0,0],[1,2],[3]]","21","0","","","","","","6","","","","","","","","",""
"","","","","","single-stim-button","314","916488","0.0-2.0-74.5-0.5","60b5141acdfeaaf91d9dc145","C3","batch3","","4703","tol_tohand","","","","tol_peg_2","4703","4703","0","[[2,0,0],[3,0],[0]]","6","[[0,0,0],[1,2],[3]]","21","0","","","","","","6","","","","","","","","",""
"","","","","","single-stim-button","315","917360","0.0-2.0-74.5-1.5","60b5141acdfeaaf91d9dc145","C3","batch3","","871","tol_toboard","","","","tol_peg_1","871","871","0","[[2,1,0],[3,0],[0]]","6","[[0,0,0],[1,2],[3]]","21","0","","","","","","6","","","","","","","","",""
"","","","","","single-stim-button","316","918064","0.0-2.0-74.6-0.6","60b5141acdfeaaf91d9dc145","C3","batch3","","703","tol_tohand","","","","tol_peg_2","703","703","0","[[2,1,0],[0,0],[0]]","7","[[0,0,0],[1,2],[3]]","21","0","","","","","","6","","","","","","","","",""
"","","","","","single-stim-button","317","919024","0.0-2.0-74.6-1.6","60b5141acdfeaaf91d9dc145","C3","batch3","","959","tol_toboard","","","","tol_peg_3","959","959","0","[[2,1,0],[0,0],[3]]","7","[[0,0,0],[1,2],[3]]","21","0","","","","","","6","","","","","","","","",""
"","","","","","single-stim-button","318","921256","0.0-2.0-74.7-0.7","60b5141acdfeaaf91d9dc145","C3","batch3","","2232","tol_tohand","","","","tol_peg_1","2232","2232","0","[[2,0,0],[0,0],[3]]","8","[[0,0,0],[1,2],[3]]","21","0","","","","","","6","","","","","","","","",""
"","","","","","single-stim-button","319","921952","0.0-2.0-74.7-1.7","60b5141acdfeaaf91d9dc145","C3","batch3","","696","tol_toboard","","","","tol_peg_2","696","696","0","[[2,0,0],[1,0],[3]]","8","[[0,0,0],[1,2],[3]]","21","0","","","","","","6","","","","","","","","",""
"","","","","","single-stim-button","320","922944","0.0-2.0-74.8-0.8","60b5141acdfeaaf91d9dc145","C3","batch3","","992","tol_tohand","","","","tol_peg_1","992","992","0","[[0,0,0],[1,0],[3]]","9","[[0,0,0],[1,2],[3]]","21","0","","","","","","6","","","","","","","","",""
"","","","","","single-stim-button","321","923776","0.0-2.0-74.8-1.8","60b5141acdfeaaf91d9dc145","C3","batch3","","832","tol_toboard","","","","tol_peg_2","832","832","0","[[0,0,0],[1,2],[3]]","9","[[0,0,0],[1,2],[3]]","21","0","","","","","","6","","","","","","","","",""
"","","","","","poldrack-single-stim","322","924778","0.0-2.0-75.0","60b5141acdfeaaf91d9dc145","C3","batch3","","-1","tol_feedback","","","true","","1000","1000","500","","","","","","-1","none","true","17511","37067","","","","","","","","","",""
"","","","","","html-button-response","323","925896","0.0-2.0-76.0","60b5141acdfeaaf91d9dc145","C3","batch3","","1116.5","tol_trial_num","<div class = centerbox><p class = center-block-text>problem <strong>23</strong> out of 25 problems</p></div>","0","","","","","","","","","","","","","","","","","","","","","","","","",""
"","","","","","single-stim-button","324","937920","0.0-2.0-77.0-0.0","60b5141acdfeaaf91d9dc145","C3","batch3","","12024","tol_tohand","","","","tol_peg_1","12024","12024","0","[[1,0,0],[3,0],[0]]","1","[[1,3,2],[0,0],[0]]","22","0","","","","","","3","","","","","","","","",""
"","","","","","single-stim-button","325","938880","0.0-2.0-77.0-1.0","60b5141acdfeaaf91d9dc145","C3","batch3","","960","tol_toboard","","","","tol_peg_3","960","960","0","[[1,0,0],[3,0],[2]]","1","[[1,3,2],[0,0],[0]]","22","0","","","","","","3","","","","","","","","",""
"","","","","","single-stim-button","326","939512","0.0-2.0-77.1-0.1","60b5141acdfeaaf91d9dc145","C3","batch3","","631","tol_tohand","","","","tol_peg_2","631","631","0","[[1,0,0],[0,0],[2]]","2","[[1,3,2],[0,0],[0]]","22","0","","","","","","3","","","","","","","","",""
"","","","","","single-stim-button","327","940424","0.0-2.0-77.1-1.1","60b5141acdfeaaf91d9dc145","C3","batch3","","911","tol_toboard","","","","tol_peg_1","911","911","0","[[1,3,0],[0,0],[2]]","2","[[1,3,2],[0,0],[0]]","22","0","","","","","","3","","","","","","","","",""
"","","","","","single-stim-button","328","941360","0.0-2.0-77.2-0.2","60b5141acdfeaaf91d9dc145","C3","batch3","","935","tol_tohand","","","","tol_peg_3","935","935","0","[[1,3,0],[0,0],[0]]","3","[[1,3,2],[0,0],[0]]","22","0","","","","","","3","","","","","","","","",""
"","","","","","single-stim-button","329","942560","0.0-2.0-77.2-1.2","60b5141acdfeaaf91d9dc145","C3","batch3","","1200","tol_toboard","","","","tol_peg_1","1200","1200","0","[[1,3,2],[0,0],[0]]","3","[[1,3,2],[0,0],[0]]","22","0","","","","","","3","","","","","","","","",""
"","","","","","poldrack-single-stim","330","943567","0.0-2.0-78.0","60b5141acdfeaaf91d9dc145","C3","batch3","","-1","tol_feedback","","","true","","1000","1000","500","","","","","","-1","none","true","12024","13590","","","","","","","","","",""
"","","","","","html-button-response","331","945128","0.0-2.0-79.0","60b5141acdfeaaf91d9dc145","C3","batch3","","1559.5","tol_trial_num","<div class = centerbox><p class = center-block-text>problem <strong>24</strong> out of 25 problems</p></div>","0","","","","","","","","","","","","","","","","","","","","","","","","",""
"","","","","","single-stim-button","332","953712","0.0-2.0-80.0-0.0","60b5141acdfeaaf91d9dc145","C3","batch3","","8583","tol_tohand","","","","tol_peg_3","8583","8583","0","[[0,0,0],[2,3],[0]]","1","[[2,0,0],[3,0],[1]]","23","0","","","","","","7","","","","","","","","",""
"","","","","","single-stim-button","333","955048","0.0-2.0-80.0-1.0","60b5141acdfeaaf91d9dc145","C3","batch3","","1336","tol_toboard","","","","tol_peg_1","1336","1336","0","[[1,0,0],[2,3],[0]]","1","[[2,0,0],[3,0],[1]]","23","0","","","","","","7","","","","","","","","",""
"","","","","","single-stim-button","334","963856","0.0-2.0-80.1-0.1","60b5141acdfeaaf91d9dc145","C3","batch3","","8807","tol_tohand","","","","tol_peg_2","8807","8807","0","[[1,0,0],[2,0],[0]]","2","[[2,0,0],[3,0],[1]]","23","0","","","","","","7","","","","","","","","",""
"","","","","","single-stim-button","335","964568","0.0-2.0-80.1-1.1","60b5141acdfeaaf91d9dc145","C3","batch3","","711","tol_toboard","","","","tol_peg_1","711","711","0","[[1,3,0],[2,0],[0]]","2","[[2,0,0],[3,0],[1]]","23","0","","","","","","7","","","","","","","","",""
"","","","","","single-stim-button","336","966032","0.0-2.0-80.2-0.2","60b5141acdfeaaf91d9dc145","C3","batch3","","1464","tol_tohand","","","","tol_peg_2","1464","1464","0","[[1,3,0],[0,0],[0]]","3","[[2,0,0],[3,0],[1]]","23","0","","","","","","7","","","","","","","","",""
"","","","","","single-stim-button","337","972480","0.0-2.0-80.2-1.2","60b5141acdfeaaf91d9dc145","C3","batch3","","6448","tol_toboard","","","","tol_peg_2","6448","6448","0","[[1,3,0],[2,0],[0]]","3","[[2,0,0],[3,0],[1]]","23","0","","","","","","7","","","","","","","","",""
"","","","","","single-stim-button","338","981392","0.0-2.0-80.3-0.3","60b5141acdfeaaf91d9dc145","C3","batch3","","8911","tol_tohand","","","","tol_peg_1","8911","8911","0","[[1,0,0],[2,0],[0]]","4","[[2,0,0],[3,0],[1]]","23","0","","","","","","7","","","","","","","","",""
"","","","","","single-stim-button","339","982384","0.0-2.0-80.3-1.3","60b5141acdfeaaf91d9dc145","C3","batch3","","991","tol_toboard","","","","tol_peg_2","991","991","0","[[1,0,0],[2,3],[0]]","4","[[2,0,0],[3,0],[1]]","23","0","","","","","","7","","","","","","","","",""
"","","","","","single-stim-button","340","983399","0.0-2.0-80.4-0.4","60b5141acdfeaaf91d9dc145","C3","batch3","","1015","tol_tohand","","","","tol_peg_1","1015","1015","0","[[0,0,0],[2,3],[0]]","5","[[2,0,0],[3,0],[1]]","23","0","","","","","","7","","","","","","","","",""
"","","","","","single-stim-button","341","985327","0.0-2.0-80.4-1.4","60b5141acdfeaaf91d9dc145","C3","batch3","","1927","tol_toboard","","","","tol_peg_3","1927","1927","0","[[0,0,0],[2,3],[1]]","5","[[2,0,0],[3,0],[1]]","23","0","","","","","","7","","","","","","","","",""
"","","","","","single-stim-button","342","996248","0.0-2.0-80.5-0.5","60b5141acdfeaaf91d9dc145","C3","batch3","","10919","tol_tohand","","","","tol_peg_3","10919","10919","0","[[0,0,0],[2,3],[0]]","6","[[2,0,0],[3,0],[1]]","23","0","","","","","","7","","","","","","","","",""
"","","","","","single-stim-button","343","997503","0.0-2.0-80.5-1.5","60b5141acdfeaaf91d9dc145","C3","batch3","","1255","tol_toboard","","","","tol_peg_1","1255","1255","0","[[1,0,0],[2,3],[0]]","6","[[2,0,0],[3,0],[1]]","23","0","","","","","","7","","","","","","","","",""
"","","","","","single-stim-button","344","1006192","0.0-2.0-80.6-0.6","60b5141acdfeaaf91d9dc145","C3","batch3","","8687","tol_tohand","","","","tol_peg_2","8687","8687","0","[[1,0,0],[2,0],[0]]","7","[[2,0,0],[3,0],[1]]","23","0","","","","","","7","","","","","","","","",""
"","","","","","single-stim-button","345","1011591","0.0-2.0-80.6-1.6","60b5141acdfeaaf91d9dc145","C3","batch3","","5399","tol_toboard","","","","tol_peg_1","5399","5399","0","[[1,3,0],[2,0],[0]]","7","[[2,0,0],[3,0],[1]]","23","0","","","","","","7","","","","","","","","",""
"","","","","","single-stim-button","346","1012271","0.0-2.0-80.7-0.7","60b5141acdfeaaf91d9dc145","C3","batch3","","679","tol_tohand","","","","tol_peg_2","679","679","0","[[1,3,0],[0,0],[0]]","8","[[2,0,0],[3,0],[1]]","23","0","","","","","","7","","","","","","","","",""
"","","","","","single-stim-button","347","1013167","0.0-2.0-80.7-1.7","60b5141acdfeaaf91d9dc145","C3","batch3","","895","tol_toboard","","","","tol_peg_3","895","895","0","[[1,3,0],[0,0],[2]]","8","[[2,0,0],[3,0],[1]]","23","0","","","","","","7","","","","","","","","",""
"","","","","","single-stim-button","348","1014119","0.0-2.0-80.8-0.8","60b5141acdfeaaf91d9dc145","C3","batch3","","951","tol_tohand","","","","tol_peg_1","951","951","0","[[1,0,0],[0,0],[2]]","9","[[2,0,0],[3,0],[1]]","23","0","","","","","","7","","","","","","","","",""
"","","","","","single-stim-button","349","1015136","0.0-2.0-80.8-1.8","60b5141acdfeaaf91d9dc145","C3","batch3","","1015","tol_toboard","","","","tol_peg_2","1015","1015","0","[[1,0,0],[3,0],[2]]","9","[[2,0,0],[3,0],[1]]","23","0","","","","","","7","","","","","","","","",""
"","","","","","single-stim-button","350","1015856","0.0-2.0-80.9-0.9","60b5141acdfeaaf91d9dc145","C3","batch3","","719","tol_tohand","","","","tol_peg_1","719","719","0","[[0,0,0],[3,0],[2]]","10","[[2,0,0],[3,0],[1]]","23","0","","","","","","7","","","","","","","","",""
"","","","","","single-stim-button","351","1016567","0.0-2.0-80.9-1.9","60b5141acdfeaaf91d9dc145","C3","batch3","","711","tol_toboard","","","","tol_peg_2","711","711","0","[[0,0,0],[3,1],[2]]","10","[[2,0,0],[3,0],[1]]","23","0","","","","","","7","","","","","","","","",""
"","","","","","single-stim-button","352","1017479","0.0-2.0-80.10-0.10","60b5141acdfeaaf91d9dc145","C3","batch3","","911","tol_tohand","","","","tol_peg_3","911","911","0","[[0,0,0],[3,1],[0]]","11","[[2,0,0],[3,0],[1]]","23","0","","","","","","7","","","","","","","","",""
