"success","timeout","failed_images","failed_audio","failed_video","trial_type","trial_index","time_elapsed","internal_node_id","subject_id","study_id","session_id","view_history","rt","task","stimulus","response","correct","mouse_click","stim_duration","block_duration","timing_post_trial","current_position","tol_num_moves_made","tol_target","tol_problem_id","tol_rt","key_press","possible_responses","tol_correct","preplanning","tol_rt_per_trial","tol_min_moves","item","answer","spm_correct","spm_rt","fiar_detect_rt","fiar_detect_correct","total_correct_fiar_detect","post_trial_gap","choices"
"true","false","[]","[]","[]","preload","0","15367","0.0-0.0","60bd88b8fc436774352f53b9","C3","batch3","","","","","","","","","","","","","","","","","","","","","","","","","","","","","",""
"true","","","","","fullscreen","1","39353","0.0-1.0-0.0","60bd88b8fc436774352f53b9","C3","batch3","","","","","","","","","","","","","","","","","","","","","","","","","","","","","",""
"true","","","","","fullscreen","2","41345","0.0-2.0-0.0","60bd88b8fc436774352f53b9","C3","batch3","","","","","","","","","","","","","","","","","","","","","","","","","","","","","",""
"","","","","","instructions","3","87014","0.0-2.0-1.0-0.0-0.0","60bd88b8fc436774352f53b9","C3","batch3","[{""page_index"":0,""viewing_time"":7122.20000000298},{""page_index"":1,""viewing_time"":21263.5},{""page_index"":2,""viewing_time"":3670.5},{""page_index"":3,""viewing_time"":5656.100000008941},{""page_index"":4,""viewing_time"":4754.899999991059},{""page_index"":5,""viewing_time"":1769.7000000029802},{""page_index"":6,""viewing_time"":1431.0999999940395}]","45668.30000001192","tol-instructions","","","","","","","","","","","","","","","","","","","","","","","","","","",""
"","","","","","html-button-response","4","87899","0.0-2.0-1.0-1.0-0.0","60bd88b8fc436774352f53b9","C3","batch3","","884","tol_enter_quiz","<p class=block-text> Let's answer a few questions <br>","0","","","","","","","","","","","","","","","","","","","","","","","","",""
"","","","","","html-button-response","5","90090","0.0-2.0-1.0-1.0-1.0","60bd88b8fc436774352f53b9","C3","batch3","","2189","tol_quiz","<p class = block-text>True or False: You can only move the ball on top of a peg. <br></p>","0","true","","","","","","","","","","","","","","","","","","","","","","","",""
"","","","","","html-button-response","6","90749","0.0-2.0-1.0-1.0-2.0","60bd88b8fc436774352f53b9","C3","batch3","","657.7000000029802","tol_quiz_feedback","<p class = block-text>Correct! You can only move the ball on top of a peg.</p>","0","","","","","","","","","","","","","","","","","","","","","","","","",""
"","","","","","html-button-response","7","92222","0.0-2.0-1.0-1.0-3.0","60bd88b8fc436774352f53b9","C3","batch3","","1472.5","tol_quiz","<p class = block-text>True or False: You should try to match your board with the target board with fewest moves possible. <br></p>","0","true","","","","","","","","","","","","","","","","","","","","","","","",""
"","","","","","html-button-response","8","92689","0.0-2.0-1.0-1.0-4.0","60bd88b8fc436774352f53b9","C3","batch3","","465.8999999910593","tol_quiz_feedback","<p class = block-text>Correct! </p>","0","","","","","","","","","","","","","","","","","","","","","","","","",""
"","","","","","html-button-response","9","93831","0.0-2.0-2.0","60bd88b8fc436774352f53b9","C3","batch3","","1141.0999999940395","","<p class=block-text> Now that you've understood the game, let's practice a few easier examples before we start!<br> <br>","0","","","","","","","","","","","","","","","","","","","","","","","","",""
"","","","","","single-stim-button","10","96534","0.0-2.0-3.0-0.0","60bd88b8fc436774352f53b9","C3","batch3","","2702","tol_practice","","","","tol_peg_2","2702","2702","0","[[1,2,0],[0,0],[0]]","1","[[1,2,0],[0,0],[3]]","practice","2702","","","","","","","","","","","","","","",""
"","","","","","single-stim-button","11","97915","0.0-2.0-3.0-1.0","60bd88b8fc436774352f53b9","C3","batch3","","1378","tol_practice","","","","tol_peg_3","1378","1378","0","[[1,2,0],[0,0],[3]]","1","[[1,2,0],[0,0],[3]]","practice","1378","","","","","","","","","","","","","","",""
"","","","","","poldrack-single-stim","12","98916","0.0-2.0-4.0","60bd88b8fc436774352f53b9","C3","batch3","","-1","tol_feedback","","","true","","1000","1000","500","","","","","","-1","none","true","","0","","","","","","","","","",""
"","","","","","single-stim-button","13","103416","0.0-2.0-5.0-0.0","60bd88b8fc436774352f53b9","C3","batch3","","4499","tol_practice","","","","tol_peg_1","4499","4499","0","[[1,0,0],[3,0],[0]]","2","[[0,0,0],[3,1],[2]]","practice","4499","","","","","","","","","","","","","","",""
"","","","","","single-stim-button","14","104406","0.0-2.0-5.0-1.0","60bd88b8fc436774352f53b9","C3","batch3","","988","tol_practice","","","","tol_peg_3","988","988","0","[[1,0,0],[3,0],[2]]","2","[[0,0,0],[3,1],[2]]","practice","988","","","","","","","","","","","","","","",""
"","","","","","single-stim-button","15","105063","0.0-2.0-5.1-0.1","60bd88b8fc436774352f53b9","C3","batch3","","656","tol_practice","","","","tol_peg_1","656","656","0","[[0,0,0],[3,0],[2]]","3","[[0,0,0],[3,1],[2]]","practice","656","","","","","","","","","","","","","","",""
"","","","","","single-stim-button","16","105669","0.0-2.0-5.1-1.1","60bd88b8fc436774352f53b9","C3","batch3","","604","tol_practice","","","","tol_peg_2","604","604","0","[[0,0,0],[3,1],[2]]","3","[[0,0,0],[3,1],[2]]","practice","604","","","","","","","","","","","","","","",""
"","","","","","poldrack-single-stim","17","106670","0.0-2.0-6.0","60bd88b8fc436774352f53b9","C3","batch3","","-1","tol_feedback","","","true","","1000","1000","500","","","","","","-1","none","true","","0","","","","","","","","","",""
"","","","","","single-stim-button","18","109272","0.0-2.0-7.0-0.0","60bd88b8fc436774352f53b9","C3","batch3","","2601","tol_practice","","","","tol_peg_2","2601","2601","0","[[1,2,0],[0,0],[0]]","4","[[1,0,0],[2,0],[3]]","practice","2601","","","","","","","","","","","","","","",""
"","","","","","single-stim-button","19","109780","0.0-2.0-7.0-1.0","60bd88b8fc436774352f53b9","C3","batch3","","506","tol_practice","","","","tol_peg_3","506","506","0","[[1,2,0],[0,0],[3]]","4","[[1,0,0],[2,0],[3]]","practice","506","","","","","","","","","","","","","","",""
"","","","","","single-stim-button","20","110488","0.0-2.0-7.1-0.1","60bd88b8fc436774352f53b9","C3","batch3","","708","tol_practice","","","","tol_peg_1","708","708","0","[[1,0,0],[0,0],[3]]","5","[[1,0,0],[2,0],[3]]","practice","708","","","","","","","","","","","","","","",""
"","","","","","single-stim-button","21","111070","0.0-2.0-7.1-1.1","60bd88b8fc436774352f53b9","C3","batch3","","580","tol_practice","","","","tol_peg_2","580","580","0","[[1,0,0],[2,0],[3]]","5","[[1,0,0],[2,0],[3]]","practice","580","","","","","","","","","","","","","","",""
"","","","","","poldrack-single-stim","22","112072","0.0-2.0-8.0","60bd88b8fc436774352f53b9","C3","batch3","","-1","tol_feedback","","","true","","1000","1000","500","","","","","","-1","none","true","","0","","","","","","","","","",""
"","","","","","html-button-response","23","114085","0.0-2.0-9.0","60bd88b8fc436774352f53b9","C3","batch3","","2012.3999999910593","tol_instruction","<div class = centerbox><p class = center-block-text>Great job! You are done with practice trials<br>You are about to start official trials.<br> <br> Problem <strong>1</strong> out of 25 problems</p></div>","0","","","","","","","","","","","","","","","","","","","","","","","","",""
"","","","","","single-stim-button","24","123415","0.0-2.0-10.0-0.0","60bd88b8fc436774352f53b9","C3","batch3","","8328","tol_tohand","","","","tol_peg_2","8328","8328","0","[[1,2,0],[0,0],[0]]","1","[[1,3,0],[2,0],[0]]","0","0","","","","","","3","","","","","","","","",""
"","","","","","single-stim-button","25","124519","0.0-2.0-10.0-1.0","60bd88b8fc436774352f53b9","C3","batch3","","1102","tol_toboard","","","","tol_peg_3","1102","1102","0","[[1,2,0],[0,0],[3]]","1","[[1,3,0],[2,0],[0]]","0","0","","","","","","3","","","","","","","","",""
"","","","","","single-stim-button","26","125293","0.0-2.0-10.1-0.1","60bd88b8fc436774352f53b9","C3","batch3","","774","tol_tohand","","","","tol_peg_1","774","774","0","[[1,0,0],[0,0],[3]]","2","[[1,3,0],[2,0],[0]]","0","0","","","","","","3","","","","","","","","",""
"","","","","","single-stim-button","27","125928","0.0-2.0-10.1-1.1","60bd88b8fc436774352f53b9","C3","batch3","","635","tol_toboard","","","","tol_peg_2","635","635","0","[[1,0,0],[2,0],[3]]","2","[[1,3,0],[2,0],[0]]","0","0","","","","","","3","","","","","","","","",""
"","","","","","single-stim-button","28","127310","0.0-2.0-10.2-0.2","60bd88b8fc436774352f53b9","C3","batch3","","1382","tol_tohand","","","","tol_peg_3","1382","1382","0","[[1,0,0],[2,0],[0]]","3","[[1,3,0],[2,0],[0]]","0","0","","","","","","3","","","","","","","","",""
"","","","","","single-stim-button","29","128053","0.0-2.0-10.2-1.2","60bd88b8fc436774352f53b9","C3","batch3","","742","tol_toboard","","","","tol_peg_1","742","742","0","[[1,3,0],[2,0],[0]]","3","[[1,3,0],[2,0],[0]]","0","0","","","","","","3","","","","","","","","",""
"","","","","","poldrack-single-stim","30","129054","0.0-2.0-11.0","60bd88b8fc436774352f53b9","C3","batch3","","-1","tol_feedback","","","true","","1000","1000","500","","","","","","-1","none","true","8328","10484","","","","","","","","","",""
"","","","","","html-button-response","31","130031","0.0-2.0-12.0","60bd88b8fc436774352f53b9","C3","batch3","","975.3999999910593","tol_trial_num","<div class = centerbox><p class = center-block-text>problem <strong>2</strong> out of 25 problems</p></div>","0","","","","","","","","","","","","","","","","","","","","","","","","",""
"","","","","","single-stim-button","32","133442","0.0-2.0-13.0-0.0","60bd88b8fc436774352f53b9","C3","batch3","","3410","tol_tohand","","","","tol_peg_1","3410","3410","0","[[1,0,0],[3,0],[0]]","1","[[2,1,3],[0,0],[0]]","1","0","","","","","","5","","","","","","","","",""
"","","","","","single-stim-button","33","135089","0.0-2.0-13.0-1.0","60bd88b8fc436774352f53b9","C3","batch3","","1645","tol_toboard","","","","tol_peg_3","1645","1645","0","[[1,0,0],[3,0],[2]]","1","[[2,1,3],[0,0],[0]]","1","0","","","","","","5","","","","","","","","",""
"","","","","","single-stim-button","34","140788","0.0-2.0-13.1-0.1","60bd88b8fc436774352f53b9","C3","batch3","","5698","tol_tohand","","","","tol_peg_1","5698","5698","0","[[0,0,0],[3,0],[2]]","2","[[2,1,3],[0,0],[0]]","1","0","","","","","","5","","","","","","","","",""
"","","","","","single-stim-button","35","141713","0.0-2.0-13.1-1.1","60bd88b8fc436774352f53b9","C3","batch3","","925","tol_toboard","","","","tol_peg_2","925","925","0","[[0,0,0],[3,1],[2]]","2","[[2,1,3],[0,0],[0]]","1","0","","","","","","5","","","","","","","","",""
"","","","","","single-stim-button","36","142260","0.0-2.0-13.2-0.2","60bd88b8fc436774352f53b9","C3","batch3","","546","tol_tohand","","","","tol_peg_3","546","546","0","[[0,0,0],[3,1],[0]]","3","[[2,1,3],[0,0],[0]]","1","0","","","","","","5","","","","","","","","",""
"","","","","","single-stim-button","37","142909","0.0-2.0-13.2-1.2","60bd88b8fc436774352f53b9","C3","batch3","","648","tol_toboard","","","","tol_peg_1","648","648","0","[[2,0,0],[3,1],[0]]","3","[[2,1,3],[0,0],[0]]","1","0","","","","","","5","","","","","","","","",""
"","","","","","single-stim-button","38","143384","0.0-2.0-13.3-0.3","60bd88b8fc436774352f53b9","C3","batch3","","474","tol_tohand","","","","tol_peg_2","474","474","0","[[2,0,0],[3,0],[0]]","4","[[2,1,3],[0,0],[0]]","1","0","","","","","","5","","","","","","","","",""
"","","","","","single-stim-button","39","143877","0.0-2.0-13.3-1.3","60bd88b8fc436774352f53b9","C3","batch3","","492","tol_toboard","","","","tol_peg_1","492","492","0","[[2,1,0],[3,0],[0]]","4","[[2,1,3],[0,0],[0]]","1","0","","","","","","5","","","","","","","","",""
"","","","","","single-stim-button","40","144343","0.0-2.0-13.4-0.4","60bd88b8fc436774352f53b9","C3","batch3","","465","tol_tohand","","","","tol_peg_2","465","465","0","[[2,1,0],[0,0],[0]]","5","[[2,1,3],[0,0],[0]]","1","0","","","","","","5","","","","","","","","",""
"","","","","","single-stim-button","41","144819","0.0-2.0-13.4-1.4","60bd88b8fc436774352f53b9","C3","batch3","","476","tol_toboard","","","","tol_peg_1","476","476","0","[[2,1,3],[0,0],[0]]","5","[[2,1,3],[0,0],[0]]","1","0","","","","","","5","","","","","","","","",""
"","","","","","poldrack-single-stim","42","145821","0.0-2.0-14.0","60bd88b8fc436774352f53b9","C3","batch3","","-1","tol_feedback","","","true","","1000","1000","500","","","","","","-1","none","true","3410","10593","","","","","","","","","",""
"","","","","","html-button-response","43","146769","0.0-2.0-15.0","60bd88b8fc436774352f53b9","C3","batch3","","946.7999999970198","tol_trial_num","<div class = centerbox><p class = center-block-text>problem <strong>3</strong> out of 25 problems</p></div>","0","","","","","","","","","","","","","","","","","","","","","","","","",""
"","","","","","single-stim-button","44","150680","0.0-2.0-16.0-0.0","60bd88b8fc436774352f53b9","C3","batch3","","3910","tol_tohand","","","","tol_peg_1","3910","3910","0","[[2,0,0],[0,0],[1]]","1","[[1,2,0],[3,0],[0]]","2","0","","","","","","4","","","","","","","","",""
"","","","","","single-stim-button","45","151445","0.0-2.0-16.0-1.0","60bd88b8fc436774352f53b9","C3","batch3","","764","tol_toboard","","","","tol_peg_2","764","764","0","[[2,0,0],[3,0],[1]]","1","[[1,2,0],[3,0],[0]]","2","0","","","","","","4","","","","","","","","",""
"","","","","","single-stim-button","46","154651","0.0-2.0-16.1-0.1","60bd88b8fc436774352f53b9","C3","batch3","","3205","tol_tohand","","","","tol_peg_1","3205","3205","0","[[0,0,0],[3,0],[1]]","2","[[1,2,0],[3,0],[0]]","2","0","","","","","","4","","","","","","","","",""
"","","","","","single-stim-button","47","155181","0.0-2.0-16.1-1.1","60bd88b8fc436774352f53b9","C3","batch3","","530","tol_toboard","","","","tol_peg_2","530","530","0","[[0,0,0],[3,2],[1]]","2","[[1,2,0],[3,0],[0]]","2","0","","","","","","4","","","","","","","","",""
"","","","","","single-stim-button","48","155662","0.0-2.0-16.2-0.2","60bd88b8fc436774352f53b9","C3","batch3","","479","tol_tohand","","","","tol_peg_3","479","479","0","[[0,0,0],[3,2],[0]]","3","[[1,2,0],[3,0],[0]]","2","0","","","","","","4","","","","","","","","",""
"","","","","","single-stim-button","49","156217","0.0-2.0-16.2-1.2","60bd88b8fc436774352f53b9","C3","batch3","","554","tol_toboard","","","","tol_peg_1","554","554","0","[[1,0,0],[3,2],[0]]","3","[[1,2,0],[3,0],[0]]","2","0","","","","","","4","","","","","","","","",""
"","","","","","single-stim-button","50","156696","0.0-2.0-16.3-0.3","60bd88b8fc436774352f53b9","C3","batch3","","479","tol_tohand","","","","tol_peg_2","479","479","0","[[1,0,0],[3,0],[0]]","4","[[1,2,0],[3,0],[0]]","2","0","","","","","","4","","","","","","","","",""
"","","","","","single-stim-button","51","157113","0.0-2.0-16.3-1.3","60bd88b8fc436774352f53b9","C3","batch3","","416","tol_toboard","","","","tol_peg_1","416","416","0","[[1,2,0],[3,0],[0]]","4","[[1,2,0],[3,0],[0]]","2","0","","","","","","4","","","","","","","","",""
"","","","","","poldrack-single-stim","52","158115","0.0-2.0-17.0","60bd88b8fc436774352f53b9","C3","batch3","","-1","tol_feedback","","","true","","1000","1000","500","","","","","","-1","none","true","3910","8073","","","","","","","","","",""
"","","","","","html-button-response","53","158900","0.0-2.0-18.0","60bd88b8fc436774352f53b9","C3","batch3","","784.2999999970198","tol_trial_num","<div class = centerbox><p class = center-block-text>problem <strong>4</strong> out of 25 problems</p></div>","0","","","","","","","","","","","","","","","","","","","","","","","","",""
"","","","","","single-stim-button","54","163943","0.0-2.0-19.0-0.0","60bd88b8fc436774352f53b9","C3","batch3","","5042","tol_tohand","","","","tol_peg_2","5042","5042","0","[[3,0,0],[2,0],[0]]","1","[[3,0,0],[1,0],[2]]","3","0","","","","","","3","","","","","","","","",""
"","","","","","single-stim-button","55","164369","0.0-2.0-19.0-1.0","60bd88b8fc436774352f53b9","C3","batch3","","425","tol_toboard","","","","tol_peg_1","425","425","0","[[3,1,0],[2,0],[0]]","1","[[3,0,0],[1,0],[2]]","3","0","","","","","","3","","","","","","","","",""
"","","","","","single-stim-button","56","164893","0.0-2.0-19.1-0.1","60bd88b8fc436774352f53b9","C3","batch3","","524","tol_tohand","","","","tol_peg_2","524","524","0","[[3,1,0],[0,0],[0]]","2","[[3,0,0],[1,0],[2]]","3","0","","","","","","3","","","","","","","","",""
"","","","","","single-stim-button","57","165403","0.0-2.0-19.1-1.1","60bd88b8fc436774352f53b9","C3","batch3","","509","tol_toboard","","","","tol_peg_3","509","509","0","[[3,1,0],[0,0],[2]]","2","[[3,0,0],[1,0],[2]]","3","0","","","","","","3","","","","","","","","",""
"","","","","","single-stim-button","58","165972","0.0-2.0-19.2-0.2","60bd88b8fc436774352f53b9","C3","batch3","","568","tol_tohand","","","","tol_peg_1","568","568","0","[[3,0,0],[0,0],[2]]","3","[[3,0,0],[1,0],[2]]","3","0","","","","","","3","","","","","","","","",""
"","","","","","single-stim-button","59","166392","0.0-2.0-19.2-1.2","60bd88b8fc436774352f53b9","C3","batch3","","419","tol_toboard","","","","tol_peg_2","419","419","0","[[3,0,0],[1,0],[2]]","3","[[3,0,0],[1,0],[2]]","3","0","","","","","","3","","","","","","","","",""
"","","","","","poldrack-single-stim","60","167397","0.0-2.0-20.0","60bd88b8fc436774352f53b9","C3","batch3","","-1","tol_feedback","","","true","","1000","1000","500","","","","","","-1","none","true","5042","6134","","","","","","","","","",""
"","","","","","html-button-response","61","168117","0.0-2.0-21.0","60bd88b8fc436774352f53b9","C3","batch3","","718.7000000029802","tol_trial_num","<div class = centerbox><p class = center-block-text>problem <strong>5</strong> out of 25 problems</p></div>","0","","","","","","","","","","","","","","","","","","","","","","","","",""
"","","","","","single-stim-button","62","201083","0.0-2.0-22.0-0.0","60bd88b8fc436774352f53b9","C3","batch3","","32965","tol_tohand","","","","tol_peg_3","32965","32965","0","[[1,0,0],[2,0],[0]]","1","[[0,0,0],[1,2],[3]]","4","0","","","","","","7","","","","","","","","",""
"","","","","","single-stim-button","63","201613","0.0-2.0-22.0-1.0","60bd88b8fc436774352f53b9","C3","batch3","","530","tol_toboard","","","","tol_peg_1","530","530","0","[[1,3,0],[2,0],[0]]","1","[[0,0,0],[1,2],[3]]","4","0","","","","","","7","","","","","","","","",""
"","","","","","single-stim-button","64","202002","0.0-2.0-22.1-0.1","60bd88b8fc436774352f53b9","C3","batch3","","388","tol_tohand","","","","tol_peg_2","388","388","0","[[1,3,0],[0,0],[0]]","2","[[0,0,0],[1,2],[3]]","4","0","","","","","","7","","","","","","","","",""
"","","","","","single-stim-button","65","202456","0.0-2.0-22.1-1.1","60bd88b8fc436774352f53b9","C3","batch3","","453","tol_toboard","","","","tol_peg_3","453","453","0","[[1,3,0],[0,0],[2]]","2","[[0,0,0],[1,2],[3]]","4","0","","","","","","7","","","","","","","","",""
"","","","","","single-stim-button","66","207959","0.0-2.0-22.2-0.2","60bd88b8fc436774352f53b9","C3","batch3","","5502","tol_tohand","","","","tol_peg_1","5502","5502","0","[[1,0,0],[0,0],[2]]","3","[[0,0,0],[1,2],[3]]","4","0","","","","","","7","","","","","","","","",""
"","","","","","single-stim-button","67","211294","0.0-2.0-22.2-1.2","60bd88b8fc436774352f53b9","C3","batch3","","3334","tol_toboard","","","","tol_peg_2","3334","3334","0","[[1,0,0],[3,0],[2]]","3","[[0,0,0],[1,2],[3]]","4","0","","","","","","7","","","","","","","","",""
"","","","","","single-stim-button","68","213095","0.0-2.0-22.3-0.3","60bd88b8fc436774352f53b9","C3","batch3","","1800","tol_tohand","","","","tol_peg_3","1800","1800","0","[[1,0,0],[3,0],[0]]","4","[[0,0,0],[1,2],[3]]","4","0","","","","","","7","","","","","","","","",""
"","","","","","single-stim-button","69","215514","0.0-2.0-22.3-1.3","60bd88b8fc436774352f53b9","C3","batch3","","2419","tol_toboard","","","","tol_peg_2","2419","2419","0","[[1,0,0],[3,2],[0]]","4","[[0,0,0],[1,2],[3]]","4","0","","","","","","7","","","","","","","","",""
"","","","","","single-stim-button","70","215989","0.0-2.0-22.4-0.4","60bd88b8fc436774352f53b9","C3","batch3","","473","tol_tohand","","","","tol_peg_1","473","473","0","[[0,0,0],[3,2],[0]]","5","[[0,0,0],[1,2],[3]]","4","0","","","","","","7","","","","","","","","",""
"","","","","","single-stim-button","71","216514","0.0-2.0-22.4-1.4","60bd88b8fc436774352f53b9","C3","batch3","","524","tol_toboard","","","","tol_peg_3","524","524","0","[[0,0,0],[3,2],[1]]","5","[[0,0,0],[1,2],[3]]","4","0","","","","","","7","","","","","","","","",""
"","","","","","single-stim-button","72","217975","0.0-2.0-22.5-0.5","60bd88b8fc436774352f53b9","C3","batch3","","1460","tol_tohand","","","","tol_peg_2","1460","1460","0","[[0,0,0],[3,0],[1]]","6","[[0,0,0],[1,2],[3]]","4","0","","","","","","7","","","","","","","","",""
"","","","","","single-stim-button","73","218762","0.0-2.0-22.5-1.5","60bd88b8fc436774352f53b9","C3","batch3","","787","tol_toboard","","","","tol_peg_1","787","787","0","[[2,0,0],[3,0],[1]]","6","[[0,0,0],[1,2],[3]]","4","0","","","","","","7","","","","","","","","",""
"","","","","","single-stim-button","74","219578","0.0-2.0-22.6-0.6","60bd88b8fc436774352f53b9","C3","batch3","","816","tol_tohand","","","","tol_peg_2","816","816","0","[[2,0,0],[0,0],[1]]","7","[[0,0,0],[1,2],[3]]","4","0","","","","","","7","","","","","","","","",""
"","","","","","single-stim-button","75","220097","0.0-2.0-22.6-1.6","60bd88b8fc436774352f53b9","C3","batch3","","519","tol_toboard","","","","tol_peg_1","519","519","0","[[2,3,0],[0,0],[1]]","7","[[0,0,0],[1,2],[3]]","4","0","","","","","","7","","","","","","","","",""
"","","","","","single-stim-button","76","220646","0.0-2.0-22.7-0.7","60bd88b8fc436774352f53b9","C3","batch3","","549","tol_tohand","","","","tol_peg_3","549","549","0","[[2,3,0],[0,0],[0]]","8","[[0,0,0],[1,2],[3]]","4","0","","","","","","7","","","","","","","","",""
"","","","","","single-stim-button","77","221085","0.0-2.0-22.7-1.7","60bd88b8fc436774352f53b9","C3","batch3","","439","tol_toboard","","","","tol_peg_2","439","439","0","[[2,3,0],[1,0],[0]]","8","[[0,0,0],[1,2],[3]]","4","0","","","","","","7","","","","","","","","",""
"","","","","","single-stim-button","78","222126","0.0-2.0-22.8-0.8","60bd88b8fc436774352f53b9","C3","batch3","","1039","tol_tohand","","","","tol_peg_1","1039","1039","0","[[2,0,0],[1,0],[0]]","9","[[0,0,0],[1,2],[3]]","4","0","","","","","","7","","","","","","","","",""
"","","","","","single-stim-button","79","222702","0.0-2.0-22.8-1.8","60bd88b8fc436774352f53b9","C3","batch3","","576","tol_toboard","","","","tol_peg_3","576","576","0","[[2,0,0],[1,0],[3]]","9","[[0,0,0],[1,2],[3]]","4","0","","","","","","7","","","","","","","","",""
"","","","","","single-stim-button","80","223264","0.0-2.0-22.9-0.9","60bd88b8fc436774352f53b9","C3","batch3","","562","tol_tohand","","","","tol_peg_1","562","562","0","[[0,0,0],[1,0],[3]]","10","[[0,0,0],[1,2],[3]]","4","0","","","","","","7","","","","","","","","",""
"","","","","","single-stim-button","81","223573","0.0-2.0-22.9-1.9","60bd88b8fc436774352f53b9","C3","batch3","","309","tol_toboard","","","","tol_peg_2","309","309","0","[[0,0,0],[1,2],[3]]","10","[[0,0,0],[1,2],[3]]","4","0","","","","","","7","","","","","","","","",""
"","","","","","poldrack-single-stim","82","224575","0.0-2.0-23.0","60bd88b8fc436774352f53b9","C3","batch3","","-1","tol_feedback","","","true","","1000","1000","500","","","","","","-1","none","true","32965","45554","","","","","","","","","",""
"","","","","","html-button-response","83","225396","0.0-2.0-24.0","60bd88b8fc436774352f53b9","C3","batch3","","819.7000000029802","tol_trial_num","<div class = centerbox><p class = center-block-text>problem <strong>6</strong> out of 25 problems</p></div>","0","","","","","","","","","","","","","","","","","","","","","","","","",""
"","","","","","single-stim-button","84","229595","0.0-2.0-25.0-0.0","60bd88b8fc436774352f53b9","C3","batch3","","4198","tol_tohand","","","","tol_peg_3","4198","4198","0","[[0,0,0],[1,2],[0]]","1","[[1,0,0],[2,3],[0]]","5","0","","","","","","6","","","","","","","","",""
"","","","","","single-stim-button","85","230375","0.0-2.0-25.0-1.0","60bd88b8fc436774352f53b9","C3","batch3","","779","tol_toboard","","","","tol_peg_1","779","779","0","[[3,0,0],[1,2],[0]]","1","[[1,0,0],[2,3],[0]]","5","0","","","","","","6","","","","","","","","",""
"","","","","","single-stim-button","86","230858","0.0-2.0-25.1-0.1","60bd88b8fc436774352f53b9","C3","batch3","","483","tol_tohand","","","","tol_peg_2","483","483","0","[[3,0,0],[1,0],[0]]","2","[[1,0,0],[2,3],[0]]","5","0","","","","","","6","","","","","","","","",""
"","","","","","single-stim-button","87","231481","0.0-2.0-25.1-1.1","60bd88b8fc436774352f53b9","C3","batch3","","623","tol_toboard","","","","tol_peg_3","623","623","0","[[3,0,0],[1,0],[2]]","2","[[1,0,0],[2,3],[0]]","5","0","","","","","","6","","","","","","","","",""
"","","","","","single-stim-button","88","243256","0.0-2.0-25.2-0.2","60bd88b8fc436774352f53b9","C3","batch3","","11775","tol_tohand","","","","tol_peg_2","11775","11775","0","[[3,0,0],[0,0],[2]]","3","[[1,0,0],[2,3],[0]]","5","0","","","","","","6","","","","","","","","",""
"","","","","","single-stim-button","89","243933","0.0-2.0-25.2-1.2","60bd88b8fc436774352f53b9","C3","batch3","","676","tol_toboard","","","","tol_peg_1","676","676","0","[[3,1,0],[0,0],[2]]","3","[[1,0,0],[2,3],[0]]","5","0","","","","","","6","","","","","","","","",""
"","","","","","single-stim-button","90","244585","0.0-2.0-25.3-0.3","60bd88b8fc436774352f53b9","C3","batch3","","651","tol_tohand","","","","tol_peg_3","651","651","0","[[3,1,0],[0,0],[0]]","4","[[1,0,0],[2,3],[0]]","5","0","","","","","","6","","","","","","","","",""
"","","","","","single-stim-button","91","245182","0.0-2.0-25.3-1.3","60bd88b8fc436774352f53b9","C3","batch3","","597","tol_toboard","","","","tol_peg_2","597","597","0","[[3,1,0],[2,0],[0]]","4","[[1,0,0],[2,3],[0]]","5","0","","","","","","6","","","","","","","","",""
"","","","","","single-stim-button","92","246148","0.0-2.0-25.4-0.4","60bd88b8fc436774352f53b9","C3","batch3","","965","tol_tohand","","","","tol_peg_1","965","965","0","[[3,0,0],[2,0],[0]]","5","[[1,0,0],[2,3],[0]]","5","0","","","","","","6","","","","","","","","",""
"","","","","","single-stim-button","93","246710","0.0-2.0-25.4-1.4","60bd88b8fc436774352f53b9","C3","batch3","","561","tol_toboard","","","","tol_peg_3","561","561","0","[[3,0,0],[2,0],[1]]","5","[[1,0,0],[2,3],[0]]","5","0","","","","","","6","","","","","","","","",""
"","","","","","single-stim-button","94","247297","0.0-2.0-25.5-0.5","60bd88b8fc436774352f53b9","C3","batch3","","587","tol_tohand","","","","tol_peg_1","587","587","0","[[0,0,0],[2,0],[1]]","6","[[1,0,0],[2,3],[0]]","5","0","","","","","","6","","","","","","","","",""
"","","","","","single-stim-button","95","247753","0.0-2.0-25.5-1.5","60bd88b8fc436774352f53b9","C3","batch3","","456","tol_toboard","","","","tol_peg_2","456","456","0","[[0,0,0],[2,3],[1]]","6","[[1,0,0],[2,3],[0]]","5","0","","","","","","6","","","","","","","","",""
"","","","","","single-stim-button","96","248144","0.0-2.0-25.6-0.6","60bd88b8fc436774352f53b9","C3","batch3","","390","tol_tohand","","","","tol_peg_3","390","390","0","[[0,0,0],[2,3],[0]]","7","[[1,0,0],[2,3],[0]]","5","0","","","","","","6","","","","","","","","",""
"","","","","","single-stim-button","97","248600","0.0-2.0-25.6-1.6","60bd88b8fc436774352f53b9","C3","batch3","","455","tol_toboard","","","","tol_peg_1","455","455","0","[[1,0,0],[2,3],[0]]","7","[[1,0,0],[2,3],[0]]","5","0","","","","","","6","","","","","","","","",""
"","","","","","poldrack-single-stim","98","249602","0.0-2.0-26.0","60bd88b8fc436774352f53b9","C3","batch3","","-1","tol_feedback","","","true","","1000","1000","500","","","","","","-1","none","true","4198","19049","","","","","","","","","",""
"","","","","","html-button-response","99","250434","0.0-2.0-27.0","60bd88b8fc436774352f53b9","C3","batch3","","832.1000000089407","tol_trial_num","<div class = centerbox><p class = center-block-text>problem <strong>7</strong> out of 25 problems</p></div>","0","","","","","","","","","","","","","","","","","","","","","","","","",""
"","","","","","single-stim-button","100","258176","0.0-2.0-28.0-0.0","60bd88b8fc436774352f53b9","C3","batch3","","7740","tol_tohand","","","","tol_peg_1","7740","7740","0","[[2,0,0],[0,0],[3]]","1","[[1,2,0],[3,0],[0]]","6","0","","","","","","5","","","","","","","","",""
"","","","","","single-stim-button","101","258844","0.0-2.0-28.0-1.0","60bd88b8fc436774352f53b9","C3","batch3","","668","tol_toboard","","","","tol_peg_2","668","668","0","[[2,0,0],[1,0],[3]]","1","[[1,2,0],[3,0],[0]]","6","0","","","","","","5","","","","","","","","",""
"","","","","","single-stim-button","102","259451","0.0-2.0-28.1-0.1","60bd88b8fc436774352f53b9","C3","batch3","","606","tol_tohand","","","","tol_peg_1","606","606","0","[[0,0,0],[1,0],[3]]","2","[[1,2,0],[3,0],[0]]","6","0","","","","","","5","","","","","","","","",""
"","","","","","single-stim-button","103","265056","0.0-2.0-28.1-1.1","60bd88b8fc436774352f53b9","C3","batch3","","5604","tol_toboard","","","","tol_peg_1","5604","5604","0","[[2,0,0],[1,0],[3]]","2","[[1,2,0],[3,0],[0]]","6","0","","","","","","5","","","","","","","","",""
"","","","","","single-stim-button","104","267553","0.0-2.0-28.2-0.2","60bd88b8fc436774352f53b9","C3","batch3","","2497","tol_tohand","","","","tol_peg_1","2497","2497","0","[[0,0,0],[1,0],[3]]","3","[[1,2,0],[3,0],[0]]","6","0","","","","","","5","","","","","","","","",""
"","","","","","single-stim-button","105","268311","0.0-2.0-28.2-1.2","60bd88b8fc436774352f53b9","C3","batch3","","757","tol_toboard","","","","tol_peg_1","757","757","0","[[2,0,0],[1,0],[3]]","3","[[1,2,0],[3,0],[0]]","6","0","","","","","","5","","","","","","","","",""
"","","","","","single-stim-button","106","268877","0.0-2.0-28.3-0.3","60bd88b8fc436774352f53b9","C3","batch3","","566","tol_tohand","","","","tol_peg_3","566","566","0","[[2,0,0],[1,0],[0]]","4","[[1,2,0],[3,0],[0]]","6","0","","","","","","5","","","","","","","","",""
"","","","","","single-stim-button","107","269625","0.0-2.0-28.3-1.3","60bd88b8fc436774352f53b9","C3","batch3","","748","tol_toboard","","","","tol_peg_1","748","748","0","[[2,3,0],[1,0],[0]]","4","[[1,2,0],[3,0],[0]]","6","0","","","","","","5","","","","","","","","",""
"","","","","","single-stim-button","108","270179","0.0-2.0-28.4-0.4","60bd88b8fc436774352f53b9","C3","batch3","","554","tol_tohand","","","","tol_peg_2","554","554","0","[[2,3,0],[0,0],[0]]","5","[[1,2,0],[3,0],[0]]","6","0","","","","","","5","","","","","","","","",""
"","","","","","single-stim-button","109","270589","0.0-2.0-28.4-1.4","60bd88b8fc436774352f53b9","C3","batch3","","410","tol_toboard","","","","tol_peg_3","410","410","0","[[2,3,0],[0,0],[1]]","5","[[1,2,0],[3,0],[0]]","6","0","","","","","","5","","","","","","","","",""
"","","","","","single-stim-button","110","271715","0.0-2.0-28.5-0.5","60bd88b8fc436774352f53b9","C3","batch3","","1126","tol_tohand","","","","tol_peg_1","1126","1126","0","[[2,0,0],[0,0],[1]]","6","[[1,2,0],[3,0],[0]]","6","0","","","","","","5","","","","","","","","",""
"","","","","","single-stim-button","111","272282","0.0-2.0-28.5-1.5","60bd88b8fc436774352f53b9","C3","batch3","","566","tol_toboard","","","","tol_peg_2","566","566","0","[[2,0,0],[3,0],[1]]","6","[[1,2,0],[3,0],[0]]","6","0","","","","","","5","","","","","","","","",""
"","","","","","single-stim-button","112","273972","0.0-2.0-28.6-0.6","60bd88b8fc436774352f53b9","C3","batch3","","1689","tol_tohand","","","","tol_peg_1","1689","1689","0","[[0,0,0],[3,0],[1]]","7","[[1,2,0],[3,0],[0]]","6","0","","","","","","5","","","","","","","","",""
"","","","","","single-stim-button","113","274296","0.0-2.0-28.6-1.6","60bd88b8fc436774352f53b9","C3","batch3","","323","tol_toboard","","","","tol_peg_2","323","323","0","[[0,0,0],[3,2],[1]]","7","[[1,2,0],[3,0],[0]]","6","0","","","","","","5","","","","","","","","",""
"","","","","","single-stim-button","114","274712","0.0-2.0-28.7-0.7","60bd88b8fc436774352f53b9","C3","batch3","","416","tol_tohand","","","","tol_peg_3","416","416","0","[[0,0,0],[3,2],[0]]","8","[[1,2,0],[3,0],[0]]","6","0","","","","","","5","","","","","","","","",""
"","","","","","single-stim-button","115","275124","0.0-2.0-28.7-1.7","60bd88b8fc436774352f53b9","C3","batch3","","412","tol_toboard","","","","tol_peg_1","412","412","0","[[1,0,0],[3,2],[0]]","8","[[1,2,0],[3,0],[0]]","6","0","","","","","","5","","","","","","","","",""
"","","","","","single-stim-button","116","275535","0.0-2.0-28.8-0.8","60bd88b8fc436774352f53b9","C3","batch3","","410","tol_tohand","","","","tol_peg_2","410","410","0","[[1,0,0],[3,0],[0]]","9","[[1,2,0],[3,0],[0]]","6","0","","","","","","5","","","","","","","","",""
"","","","","","single-stim-button","117","275848","0.0-2.0-28.8-1.8","60bd88b8fc436774352f53b9","C3","batch3","","311","tol_toboard","","","","tol_peg_1","311","311","0","[[1,2,0],[3,0],[0]]","9","[[1,2,0],[3,0],[0]]","6","0","","","","","","5","","","","","","","","",""
"","","","","","poldrack-single-stim","118","276851","0.0-2.0-29.0","60bd88b8fc436774352f53b9","C3","batch3","","-1","tol_feedback","","","true","","1000","1000","500","","","","","","-1","none","true","7740","15604","","","","","","","","","",""
"","","","","","html-button-response","119","277723","0.0-2.0-30.0","60bd88b8fc436774352f53b9","C3","batch3","","871.6999999880791","tol_trial_num","<div class = centerbox><p class = center-block-text>problem <strong>8</strong> out of 25 problems</p></div>","0","","","","","","","","","","","","","","","","","","","","","","","","",""
"","","","","","single-stim-button","120","289034","0.0-2.0-31.0-0.0","60bd88b8fc436774352f53b9","C3","batch3","","11311","tol_tohand","","","","tol_peg_2","11311","11311","0","[[0,0,0],[2,0],[1]]","1","[[1,2,0],[3,0],[0]]","7","0","","","","","","4","","","","","","","","",""
"","","","","","single-stim-button","121","290889","0.0-2.0-31.0-1.0","60bd88b8fc436774352f53b9","C3","batch3","","1853","tol_toboard","","","","tol_peg_1","1853","1853","0","[[3,0,0],[2,0],[1]]","1","[[1,2,0],[3,0],[0]]","7","0","","","","","","4","","","","","","","","",""
"","","","","","single-stim-button","122","291694","0.0-2.0-31.1-0.1","60bd88b8fc436774352f53b9","C3","batch3","","804","tol_tohand","","","","tol_peg_3","804","804","0","[[3,0,0],[2,0],[0]]","2","[[1,2,0],[3,0],[0]]","7","0","","","","","","4","","","","","","","","",""
"","","","","","single-stim-button","123","292136","0.0-2.0-31.1-1.1","60bd88b8fc436774352f53b9","C3","batch3","","442","tol_toboard","","","","tol_peg_2","442","442","0","[[3,0,0],[2,1],[0]]","2","[[1,2,0],[3,0],[0]]","7","0","","","","","","4","","","","","","","","",""
"","","","","","single-stim-button","124","292586","0.0-2.0-31.2-0.2","60bd88b8fc436774352f53b9","C3","batch3","","450","tol_tohand","","","","tol_peg_1","450","450","0","[[0,0,0],[2,1],[0]]","3","[[1,2,0],[3,0],[0]]","7","0","","","","","","4","","","","","","","","",""
"","","","","","single-stim-button","125","293143","0.0-2.0-31.2-1.2","60bd88b8fc436774352f53b9","C3","batch3","","556","tol_toboard","","","","tol_peg_3","556","556","0","[[0,0,0],[2,1],[3]]","3","[[1,2,0],[3,0],[0]]","7","0","","","","","","4","","","","","","","","",""
"","","","","","single-stim-button","126","293650","0.0-2.0-31.3-0.3","60bd88b8fc436774352f53b9","C3","batch3","","507","tol_tohand","","","","tol_peg_2","507","507","0","[[0,0,0],[2,0],[3]]","4","[[1,2,0],[3,0],[0]]","7","0","","","","","","4","","","","","","","","",""
"","","","","","single-stim-button","127","294078","0.0-2.0-31.3-1.3","60bd88b8fc436774352f53b9","C3","batch3","","428","tol_toboard","","","","tol_peg_1","428","428","0","[[1,0,0],[2,0],[3]]","4","[[1,2,0],[3,0],[0]]","7","0","","","","","","4","","","","","","","","",""
"","","","","","single-stim-button","128","294543","0.0-2.0-31.4-0.4","60bd88b8fc436774352f53b9","C3","batch3","","464","tol_tohand","","","","tol_peg_2","464","464","0","[[1,0,0],[0,0],[3]]","5","[[1,2,0],[3,0],[0]]","7","0","","","","","","4","","","","","","","","",""
"","","","","","single-stim-button","129","294927","0.0-2.0-31.4-1.4","60bd88b8fc436774352f53b9","C3","batch3","","384","tol_toboard","","","","tol_peg_1","384","384","0","[[1,2,0],[0,0],[3]]","5","[[1,2,0],[3,0],[0]]","7","0","","","","","","4","","","","","","","","",""
"","","","","","single-stim-button","130","295355","0.0-2.0-31.5-0.5","60bd88b8fc436774352f53b9","C3","batch3","","428","tol_tohand","","","","tol_peg_3","428","428","0","[[1,2,0],[0,0],[0]]","6","[[1,2,0],[3,0],[0]]","7","0","","","","","","4","","","","","","","","",""
"","","","","","single-stim-button","131","295700","0.0-2.0-31.5-1.5","60bd88b8fc436774352f53b9","C3","batch3","","345","tol_toboard","","","","tol_peg_2","345","345","0","[[1,2,0],[3,0],[0]]","6","[[1,2,0],[3,0],[0]]","7","0","","","","","","4","","","","","","","","",""
"","","","","","poldrack-single-stim","132","296703","0.0-2.0-32.0","60bd88b8fc436774352f53b9","C3","batch3","","-1","tol_feedback","","","true","","1000","1000","500","","","","","","-1","none","true","11311","13964","","","","","","","","","",""
"","","","","","html-button-response","133","297440","0.0-2.0-33.0","60bd88b8fc436774352f53b9","C3","batch3","","736","tol_trial_num","<div class = centerbox><p class = center-block-text>problem <strong>9</strong> out of 25 problems</p></div>","0","","","","","","","","","","","","","","","","","","","","","","","","",""
"","","","","","single-stim-button","134","305404","0.0-2.0-34.0-0.0","60bd88b8fc436774352f53b9","C3","batch3","","7964","tol_tohand","","","","tol_peg_3","7964","7964","0","[[3,2,0],[0,0],[0]]","1","[[2,1,0],[3,0],[0]]","8","0","","","","","","6","","","","","","","","",""
"","","","","","single-stim-button","135","306116","0.0-2.0-34.0-1.0","60bd88b8fc436774352f53b9","C3","batch3","","710","tol_toboard","","","","tol_peg_2","710","710","0","[[3,2,0],[1,0],[0]]","1","[[2,1,0],[3,0],[0]]","8","0","","","","","","6","","","","","","","","",""
"","","","","","single-stim-button","136","307640","0.0-2.0-34.1-0.1","60bd88b8fc436774352f53b9","C3","batch3","","1524","tol_tohand","","","","tol_peg_1","1524","1524","0","[[3,0,0],[1,0],[0]]","2","[[2,1,0],[3,0],[0]]","8","0","","","","","","6","","","","","","","","",""
"","","","","","single-stim-button","137","308281","0.0-2.0-34.1-1.1","60bd88b8fc436774352f53b9","C3","batch3","","641","tol_toboard","","","","tol_peg_3","641","641","0","[[3,0,0],[1,0],[2]]","2","[[2,1,0],[3,0],[0]]","8","0","","","","","","6","","","","","","","","",""
"","","","","","single-stim-button","138","309120","0.0-2.0-34.2-0.2","60bd88b8fc436774352f53b9","C3","batch3","","838","tol_tohand","","","","tol_peg_1","838","838","0","[[0,0,0],[1,0],[2]]","3","[[2,1,0],[3,0],[0]]","8","0","","","","","","6","","","","","","","","",""
"","","","","","single-stim-button","139","309737","0.0-2.0-34.2-1.2","60bd88b8fc436774352f53b9","C3","batch3","","616","tol_toboard","","","","tol_peg_2","616","616","0","[[0,0,0],[1,3],[2]]","3","[[2,1,0],[3,0],[0]]","8","0","","","","","","6","","","","","","","","",""
"","","","","","single-stim-button","140","310190","0.0-2.0-34.3-0.3","60bd88b8fc436774352f53b9","C3","batch3","","453","tol_tohand","","","","tol_peg_3","453","453","0","[[0,0,0],[1,3],[0]]","4","[[2,1,0],[3,0],[0]]","8","0","","","","","","6","","","","","","","","",""
"","","","","","single-stim-button","141","311055","0.0-2.0-34.3-1.3","60bd88b8fc436774352f53b9","C3","batch3","","864","tol_toboard","","","","tol_peg_1","864","864","0","[[2,0,0],[1,3],[0]]","4","[[2,1,0],[3,0],[0]]","8","0","","","","","","6","","","","","","","","",""
"","","","","","single-stim-button","142","311668","0.0-2.0-34.4-0.4","60bd88b8fc436774352f53b9","C3","batch3","","613","tol_tohand","","","","tol_peg_2","613","613","0","[[2,0,0],[1,0],[0]]","5","[[2,1,0],[3,0],[0]]","8","0","","","","","","6","","","","","","","","",""
"","","","","","single-stim-button","143","312024","0.0-2.0-34.4-1.4","60bd88b8fc436774352f53b9","C3","batch3","","356","tol_toboard","","","","tol_peg_3","356","356","0","[[2,0,0],[1,0],[3]]","5","[[2,1,0],[3,0],[0]]","8","0","","","","","","6","","","","","","","","",""
"","","","","","single-stim-button","144","312527","0.0-2.0-34.5-0.5","60bd88b8fc436774352f53b9","C3","batch3","","503","tol_tohand","","","","tol_peg_2","503","503","0","[[2,0,0],[0,0],[3]]","6","[[2,1,0],[3,0],[0]]","8","0","","","","","","6","","","","","","","","",""
"","","","","","single-stim-button","145","312966","0.0-2.0-34.5-1.5","60bd88b8fc436774352f53b9","C3","batch3","","438","tol_toboard","","","","tol_peg_1","438","438","0","[[2,1,0],[0,0],[3]]","6","[[2,1,0],[3,0],[0]]","8","0","","","","","","6","","","","","","","","",""
"","","","","","single-stim-button","146","313371","0.0-2.0-34.6-0.6","60bd88b8fc436774352f53b9","C3","batch3","","403","tol_tohand","","","","tol_peg_3","403","403","0","[[2,1,0],[0,0],[0]]","7","[[2,1,0],[3,0],[0]]","8","0","","","","","","6","","","","","","","","",""
"","","","","","single-stim-button","147","313756","0.0-2.0-34.6-1.6","60bd88b8fc436774352f53b9","C3","batch3","","385","tol_toboard","","","","tol_peg_2","385","385","0","[[2,1,0],[3,0],[0]]","7","[[2,1,0],[3,0],[0]]","8","0","","","","","","6","","","","","","","","",""
"","","","","","poldrack-single-stim","148","314757","0.0-2.0-35.0","60bd88b8fc436774352f53b9","C3","batch3","","-1","tol_feedback","","","true","","1000","1000","500","","","","","","-1","none","true","7964","12298","","","","","","","","","",""
"","","","","","html-button-response","149","315404","0.0-2.0-36.0","60bd88b8fc436774352f53b9","C3","batch3","","645.2000000029802","tol_trial_num","<div class = centerbox><p class = center-block-text>problem <strong>10</strong> out of 25 problems</p></div>","0","","","","","","","","","","","","","","","","","","","","","","","","",""
"","","","","","single-stim-button","150","319125","0.0-2.0-37.0-0.0","60bd88b8fc436774352f53b9","C3","batch3","","3721","tol_tohand","","","","tol_peg_2","3721","3721","0","[[3,0,0],[0,0],[2]]","1","[[3,0,0],[2,1],[0]]","9","0","","","","","","3","","","","","","","","",""
"","","","","","single-stim-button","151","319803","0.0-2.0-37.0-1.0","60bd88b8fc436774352f53b9","C3","batch3","","677","tol_toboard","","","","tol_peg_1","677","677","0","[[3,1,0],[0,0],[2]]","1","[[3,0,0],[2,1],[0]]","9","0","","","","","","3","","","","","","","","",""
"","","","","","single-stim-button","152","320316","0.0-2.0-37.1-0.1","60bd88b8fc436774352f53b9","C3","batch3","","513","tol_tohand","","","","tol_peg_3","513","513","0","[[3,1,0],[0,0],[0]]","2","[[3,0,0],[2,1],[0]]","9","0","","","","","","3","","","","","","","","",""
"","","","","","single-stim-button","153","321030","0.0-2.0-37.1-1.1","60bd88b8fc436774352f53b9","C3","batch3","","713","tol_toboard","","","","tol_peg_2","713","713","0","[[3,1,0],[2,0],[0]]","2","[[3,0,0],[2,1],[0]]","9","0","","","","","","3","","","","","","","","",""
"","","","","","single-stim-button","154","321551","0.0-2.0-37.2-0.2","60bd88b8fc436774352f53b9","C3","batch3","","521","tol_tohand","","","","tol_peg_1","521","521","0","[[3,0,0],[2,0],[0]]","3","[[3,0,0],[2,1],[0]]","9","0","","","","","","3","","","","","","","","",""
"","","","","","single-stim-button","155","321930","0.0-2.0-37.2-1.2","60bd88b8fc436774352f53b9","C3","batch3","","379","tol_toboard","","","","tol_peg_2","379","379","0","[[3,0,0],[2,1],[0]]","3","[[3,0,0],[2,1],[0]]","9","0","","","","","","3","","","","","","","","",""
"","","","","","poldrack-single-stim","156","322942","0.0-2.0-38.0","60bd88b8fc436774352f53b9","C3","batch3","","-1","tol_feedback","","","true","","1000","1000","500","","","","","","-1","none","true","3721","4755","","","","","","","","","",""
"","","","","","html-button-response","157","323881","0.0-2.0-39.0","60bd88b8fc436774352f53b9","C3","batch3","","937.9000000059605","tol_trial_num","<div class = centerbox><p class = center-block-text>problem <strong>11</strong> out of 25 problems</p></div>","0","","","","","","","","","","","","","","","","","","","","","","","","",""
"","","","","","single-stim-button","158","348871","0.0-2.0-40.0-0.0","60bd88b8fc436774352f53b9","C3","batch3","","24989","tol_tohand","","","","tol_peg_1","24989","24989","0","[[1,0,0],[3,0],[0]]","1","[[2,0,0],[1,3],[0]]","10","0","","","","","","6","","","","","","","","",""
"","","","","","single-stim-button","159","349603","0.0-2.0-40.0-1.0","60bd88b8fc436774352f53b9","C3","batch3","","731","tol_toboard","","","","tol_peg_3","731","731","0","[[1,0,0],[3,0],[2]]","1","[[2,0,0],[1,3],[0]]","10","0","","","","","","6","","","","","","","","",""
"","","","","","single-stim-button","160","356164","0.0-2.0-40.1-0.1","60bd88b8fc436774352f53b9","C3","batch3","","6560","tol_tohand","","","","tol_peg_1","6560","6560","0","[[0,0,0],[3,0],[2]]","2","[[2,0,0],[1,3],[0]]","10","0","","","","","","6","","","","","","","","",""
"","","","","","single-stim-button","161","356660","0.0-2.0-40.1-1.1","60bd88b8fc436774352f53b9","C3","batch3","","496","tol_toboard","","","","tol_peg_2","496","496","0","[[0,0,0],[3,1],[2]]","2","[[2,0,0],[1,3],[0]]","10","0","","","","","","6","","","","","","","","",""
"","","","","","single-stim-button","162","357075","0.0-2.0-40.2-0.2","60bd88b8fc436774352f53b9","C3","batch3","","413","tol_tohand","","","","tol_peg_3","413","413","0","[[0,0,0],[3,1],[0]]","3","[[2,0,0],[1,3],[0]]","10","0","","","","","","6","","","","","","","","",""
"","","","","","single-stim-button","163","357649","0.0-2.0-40.2-1.2","60bd88b8fc436774352f53b9","C3","batch3","","573","tol_toboard","","","","tol_peg_1","573","573","0","[[2,0,0],[3,1],[0]]","3","[[2,0,0],[1,3],[0]]","10","0","","","","","","6","","","","","","","","",""
"","","","","","single-stim-button","164","358111","0.0-2.0-40.3-0.3","60bd88b8fc436774352f53b9","C3","batch3","","462","tol_tohand","","","","tol_peg_2","462","462","0","[[2,0,0],[3,0],[0]]","4","[[2,0,0],[1,3],[0]]","10","0","","","","","","6","","","","","","","","",""
"","","","","","single-stim-button","165","358578","0.0-2.0-40.3-1.3","60bd88b8fc436774352f53b9","C3","batch3","","467","tol_toboard","","","","tol_peg_3","467","467","0","[[2,0,0],[3,0],[1]]","4","[[2,0,0],[1,3],[0]]","10","0","","","","","","6","","","","","","","","",""
"","","","","","single-stim-button","166","359104","0.0-2.0-40.4-0.4","60bd88b8fc436774352f53b9","C3","batch3","","526","tol_tohand","","","","tol_peg_2","526","526","0","[[2,0,0],[0,0],[1]]","5","[[2,0,0],[1,3],[0]]","10","0","","","","","","6","","","","","","","","",""
"","","","","","single-stim-button","167","361213","0.0-2.0-40.4-1.4","60bd88b8fc436774352f53b9","C3","batch3","","2109","tol_toboard","","","","tol_peg_1","2109","2109","0","[[2,3,0],[0,0],[1]]","5","[[2,0,0],[1,3],[0]]","10","0","","","","","","6","","","","","","","","",""
"","","","","","single-stim-button","168","361774","0.0-2.0-40.5-0.5","60bd88b8fc436774352f53b9","C3","batch3","","561","tol_tohand","","","","tol_peg_3","561","561","0","[[2,3,0],[0,0],[0]]","6","[[2,0,0],[1,3],[0]]","10","0","","","","","","6","","","","","","","","",""
"","","","","","single-stim-button","169","362039","0.0-2.0-40.5-1.5","60bd88b8fc436774352f53b9","C3","batch3","","264","tol_toboard","","","","tol_peg_2","264","264","0","[[2,3,0],[1,0],[0]]","6","[[2,0,0],[1,3],[0]]","10","0","","","","","","6","","","","","","","","",""
"","","","","","single-stim-button","170","362493","0.0-2.0-40.6-0.6","60bd88b8fc436774352f53b9","C3","batch3","","454","tol_tohand","","","","tol_peg_1","454","454","0","[[2,0,0],[1,0],[0]]","7","[[2,0,0],[1,3],[0]]","10","0","","","","","","6","","","","","","","","",""
"","","","","","single-stim-button","171","362790","0.0-2.0-40.6-1.6","60bd88b8fc436774352f53b9","C3","batch3","","297","tol_toboard","","","","tol_peg_2","297","297","0","[[2,0,0],[1,3],[0]]","7","[[2,0,0],[1,3],[0]]","10","0","","","","","","6","","","","","","","","",""
"","","","","","poldrack-single-stim","172","363793","0.0-2.0-41.0","60bd88b8fc436774352f53b9","C3","batch3","","-1","tol_feedback","","","true","","1000","1000","500","","","","","","-1","none","true","24989","33965","","","","","","","","","",""
"","","","","","html-button-response","173","364456","0.0-2.0-42.0","60bd88b8fc436774352f53b9","C3","batch3","","661.7999999970198","tol_trial_num","<div class = centerbox><p class = center-block-text>problem <strong>12</strong> out of 25 problems</p></div>","0","","","","","","","","","","","","","","","","","","","","","","","","",""
"","","","","","single-stim-button","174","367762","0.0-2.0-43.0-0.0","60bd88b8fc436774352f53b9","C3","batch3","","3305","tol_tohand","","","","tol_peg_1","3305","3305","0","[[1,0,0],[3,0],[0]]","1","[[2,3,0],[0,0],[1]]","11","0","","","","","","4","","","","","","","","",""
"","","","","","single-stim-button","175","368177","0.0-2.0-43.0-1.0","60bd88b8fc436774352f53b9","C3","batch3","","415","tol_toboard","","","","tol_peg_2","415","415","0","[[1,0,0],[3,2],[0]]","1","[[2,3,0],[0,0],[1]]","11","0","","","","","","4","","","","","","","","",""
"","","","","","single-stim-button","176","368538","0.0-2.0-43.1-0.1","60bd88b8fc436774352f53b9","C3","batch3","","360","tol_tohand","","","","tol_peg_1","360","360","0","[[0,0,0],[3,2],[0]]","2","[[2,3,0],[0,0],[1]]","11","0","","","","","","4","","","","","","","","",""
"","","","","","single-stim-button","177","368909","0.0-2.0-43.1-1.1","60bd88b8fc436774352f53b9","C3","batch3","","370","tol_toboard","","","","tol_peg_3","370","370","0","[[0,0,0],[3,2],[1]]","2","[[2,3,0],[0,0],[1]]","11","0","","","","","","4","","","","","","","","",""
"","","","","","single-stim-button","178","369396","0.0-2.0-43.2-0.2","60bd88b8fc436774352f53b9","C3","batch3","","487","tol_tohand","","","","tol_peg_2","487","487","0","[[0,0,0],[3,0],[1]]","3","[[2,3,0],[0,0],[1]]","11","0","","","","","","4","","","","","","","","",""
"","","","","","single-stim-button","179","369832","0.0-2.0-43.2-1.2","60bd88b8fc436774352f53b9","C3","batch3","","435","tol_toboard","","","","tol_peg_1","435","435","0","[[2,0,0],[3,0],[1]]","3","[[2,3,0],[0,0],[1]]","11","0","","","","","","4","","","","","","","","",""
"","","","","","single-stim-button","180","370302","0.0-2.0-43.3-0.3","60bd88b8fc436774352f53b9","C3","batch3","","469","tol_tohand","","","","tol_peg_2","469","469","0","[[2,0,0],[0,0],[1]]","4","[[2,3,0],[0,0],[1]]","11","0","","","","","","4","","","","","","","","",""
"","","","","","single-stim-button","181","370667","0.0-2.0-43.3-1.3","60bd88b8fc436774352f53b9","C3","batch3","","364","tol_toboard","","","","tol_peg_1","364","364","0","[[2,3,0],[0,0],[1]]","4","[[2,3,0],[0,0],[1]]","11","0","","","","","","4","","","","","","","","",""
"","","","","","poldrack-single-stim","182","371668","0.0-2.0-44.0","60bd88b8fc436774352f53b9","C3","batch3","","-1","tol_feedback","","","true","","1000","1000","500","","","","","","-1","none","true","3305","4621","","","","","","","","","",""
"","","","","","html-button-response","183","372262","0.0-2.0-45.0","60bd88b8fc436774352f53b9","C3","batch3","","592.2999999970198","tol_trial_num","<div class = centerbox><p class = center-block-text>problem <strong>13</strong> out of 25 problems</p></div>","0","","","","","","","","","","","","","","","","","","","","","","","","",""
"","","","","","single-stim-button","184","389161","0.0-2.0-46.0-0.0","60bd88b8fc436774352f53b9","C3","batch3","","16898","tol_tohand","","","","tol_peg_2","16898","16898","0","[[1,2,0],[0,0],[0]]","1","[[0,0,0],[2,3],[1]]","12","0","","","","","","4","","","","","","","","",""
"","","","","","single-stim-button","185","389742","0.0-2.0-46.0-1.0","60bd88b8fc436774352f53b9","C3","batch3","","581","tol_toboard","","","","tol_peg_3","581","581","0","[[1,2,0],[0,0],[3]]","1","[[0,0,0],[2,3],[1]]","12","0","","","","","","4","","","","","","","","",""
"","","","","","single-stim-button","186","390317","0.0-2.0-46.1-0.1","60bd88b8fc436774352f53b9","C3","batch3","","574","tol_tohand","","","","tol_peg_1","574","574","0","[[1,0,0],[0,0],[3]]","2","[[0,0,0],[2,3],[1]]","12","0","","","","","","4","","","","","","","","",""
"","","","","","single-stim-button","187","390910","0.0-2.0-46.1-1.1","60bd88b8fc436774352f53b9","C3","batch3","","592","tol_toboard","","","","tol_peg_2","592","592","0","[[1,0,0],[2,0],[3]]","2","[[0,0,0],[2,3],[1]]","12","0","","","","","","4","","","","","","","","",""
"","","","","","single-stim-button","188","391622","0.0-2.0-46.2-0.2","60bd88b8fc436774352f53b9","C3","batch3","","711","tol_tohand","","","","tol_peg_3","711","711","0","[[1,0,0],[2,0],[0]]","3","[[0,0,0],[2,3],[1]]","12","0","","","","","","4","","","","","","","","",""
"","","","","","single-stim-button","189","392029","0.0-2.0-46.2-1.2","60bd88b8fc436774352f53b9","C3","batch3","","406","tol_toboard","","","","tol_peg_2","406","406","0","[[1,0,0],[2,3],[0]]","3","[[0,0,0],[2,3],[1]]","12","0","","","","","","4","","","","","","","","",""
"","","","","","single-stim-button","190","392487","0.0-2.0-46.3-0.3","60bd88b8fc436774352f53b9","C3","batch3","","457","tol_tohand","","","","tol_peg_1","457","457","0","[[0,0,0],[2,3],[0]]","4","[[0,0,0],[2,3],[1]]","12","0","","","","","","4","","","","","","","","",""
"","","","","","single-stim-button","191","392855","0.0-2.0-46.3-1.3","60bd88b8fc436774352f53b9","C3","batch3","","368","tol_toboard","","","","tol_peg_3","368","368","0","[[0,0,0],[2,3],[1]]","4","[[0,0,0],[2,3],[1]]","12","0","","","","","","4","","","","","","","","",""
"","","","","","poldrack-single-stim","192","393858","0.0-2.0-47.0","60bd88b8fc436774352f53b9","C3","batch3","","-1","tol_feedback","","","true","","1000","1000","500","","","","","","-1","none","true","16898","18640","","","","","","","","","",""
"","","","","","html-button-response","193","396177","0.0-2.0-48.0","60bd88b8fc436774352f53b9","C3","batch3","","2317.5","attention_check","<p class = block-text>How many balls are in your board<br></p>","1","true","","","","","","","","","","","","","","","","","","","","","","","",""
"","","","","","html-button-response","194","396750","0.0-2.0-49.0","60bd88b8fc436774352f53b9","C3","batch3","","572.2999999970198","tol_trial_num","<div class = centerbox><p class = center-block-text>problem <strong>14</strong> out of 25 problems</p></div>","0","","","","","","","","","","","","","","","","","","","","","","","","",""
"","","","","","single-stim-button","195","400967","0.0-2.0-50.0-0.0","60bd88b8fc436774352f53b9","C3","batch3","","4216","tol_tohand","","","","tol_peg_1","4216","4216","0","[[2,0,0],[3,0],[0]]","1","[[1,2,0],[3,0],[0]]","13","0","","","","","","4","","","","","","","","",""
"","","","","","single-stim-button","196","402257","0.0-2.0-50.0-1.0","60bd88b8fc436774352f53b9","C3","batch3","","1290","tol_toboard","","","","tol_peg_2","1290","1290","0","[[2,0,0],[3,1],[0]]","1","[[1,2,0],[3,0],[0]]","13","0","","","","","","4","","","","","","","","",""
"","","","","","single-stim-button","197","402886","0.0-2.0-50.1-0.1","60bd88b8fc436774352f53b9","C3","batch3","","628","tol_tohand","","","","tol_peg_1","628","628","0","[[0,0,0],[3,1],[0]]","2","[[1,2,0],[3,0],[0]]","13","0","","","","","","4","","","","","","","","",""
"","","","","","single-stim-button","198","403235","0.0-2.0-50.1-1.1","60bd88b8fc436774352f53b9","C3","batch3","","348","tol_toboard","","","","tol_peg_3","348","348","0","[[0,0,0],[3,1],[2]]","2","[[1,2,0],[3,0],[0]]","13","0","","","","","","4","","","","","","","","",""
"","","","","","single-stim-button","199","403919","0.0-2.0-50.2-0.2","60bd88b8fc436774352f53b9","C3","batch3","","684","tol_tohand","","","","tol_peg_2","684","684","0","[[0,0,0],[3,0],[2]]","3","[[1,2,0],[3,0],[0]]","13","0","","","","","","4","","","","","","","","",""
"","","","","","single-stim-button","200","404221","0.0-2.0-50.2-1.2","60bd88b8fc436774352f53b9","C3","batch3","","301","tol_toboard","","","","tol_peg_1","301","301","0","[[1,0,0],[3,0],[2]]","3","[[1,2,0],[3,0],[0]]","13","0","","","","","","4","","","","","","","","",""
"","","","","","single-stim-button","201","404613","0.0-2.0-50.3-0.3","60bd88b8fc436774352f53b9","C3","batch3","","392","tol_tohand","","","","tol_peg_3","392","392","0","[[1,0,0],[3,0],[0]]","4","[[1,2,0],[3,0],[0]]","13","0","","","","","","4","","","","","","","","",""
"","","","","","single-stim-button","202","404999","0.0-2.0-50.3-1.3","60bd88b8fc436774352f53b9","C3","batch3","","386","tol_toboard","","","","tol_peg_1","386","386","0","[[1,2,0],[3,0],[0]]","4","[[1,2,0],[3,0],[0]]","13","0","","","","","","4","","","","","","","","",""
"","","","","","poldrack-single-stim","203","406001","0.0-2.0-51.0","60bd88b8fc436774352f53b9","C3","batch3","","-1","tol_feedback","","","true","","1000","1000","500","","","","","","-1","none","true","4216","5920","","","","","","","","","",""
"","","","","","html-button-response","204","406576","0.0-2.0-52.0","60bd88b8fc436774352f53b9","C3","batch3","","573.9000000059605","tol_trial_num","<div class = centerbox><p class = center-block-text>problem <strong>15</strong> out of 25 problems</p></div>","0","","","","","","","","","","","","","","","","","","","","","","","","",""
"","","","","","single-stim-button","205","409391","0.0-2.0-53.0-0.0","60bd88b8fc436774352f53b9","C3","batch3","","2815","tol_tohand","","","","tol_peg_1","2815","2815","0","[[1,0,0],[3,0],[0]]","1","[[2,0,0],[3,0],[1]]","14","0","","","","","","3","","","","","","","","",""
"","","","","","single-stim-button","206","409685","0.0-2.0-53.0-1.0","60bd88b8fc436774352f53b9","C3","batch3","","293","tol_toboard","","","","tol_peg_2","293","293","0","[[1,0,0],[3,2],[0]]","1","[[2,0,0],[3,0],[1]]","14","0","","","","","","3","","","","","","","","",""
"","","","","","single-stim-button","207","410045","0.0-2.0-53.1-0.1","60bd88b8fc436774352f53b9","C3","batch3","","359","tol_tohand","","","","tol_peg_1","359","359","0","[[0,0,0],[3,2],[0]]","2","[[2,0,0],[3,0],[1]]","14","0","","","","","","3","","","","","","","","",""
"","","","","","single-stim-button","208","410387","0.0-2.0-53.1-1.1","60bd88b8fc436774352f53b9","C3","batch3","","341","tol_toboard","","","","tol_peg_3","341","341","0","[[0,0,0],[3,2],[1]]","2","[[2,0,0],[3,0],[1]]","14","0","","","","","","3","","","","","","","","",""
"","","","","","single-stim-button","209","410820","0.0-2.0-53.2-0.2","60bd88b8fc436774352f53b9","C3","batch3","","433","tol_tohand","","","","tol_peg_2","433","433","0","[[0,0,0],[3,0],[1]]","3","[[2,0,0],[3,0],[1]]","14","0","","","","","","3","","","","","","","","",""
"","","","","","single-stim-button","210","411234","0.0-2.0-53.2-1.2","60bd88b8fc436774352f53b9","C3","batch3","","413","tol_toboard","","","","tol_peg_1","413","413","0","[[2,0,0],[3,0],[1]]","3","[[2,0,0],[3,0],[1]]","14","0","","","","","","3","","","","","","","","",""
"","","","","","poldrack-single-stim","211","412237","0.0-2.0-54.0","60bd88b8fc436774352f53b9","C3","batch3","","-1","tol_feedback","","","true","","1000","1000","500","","","","","","-1","none","true","2815","3607","","","","","","","","","",""
"","","","","","html-button-response","212","412765","0.0-2.0-55.0","60bd88b8fc436774352f53b9","C3","batch3","","527.8000000119209","tol_trial_num","<div class = centerbox><p class = center-block-text>problem <strong>16</strong> out of 25 problems</p></div>","0","","","","","","","","","","","","","","","","","","","","","","","","",""
"","","","","","single-stim-button","213","421198","0.0-2.0-56.0-0.0","60bd88b8fc436774352f53b9","C3","batch3","","8431","tol_tohand","","","","tol_peg_3","8431","8431","0","[[0,0,0],[2,3],[0]]","1","[[2,3,0],[1,0],[0]]","15","0","","","","","","7","","","","","","","","",""
"","","","","","single-stim-button","214","421734","0.0-2.0-56.0-1.0","60bd88b8fc436774352f53b9","C3","batch3","","536","tol_toboard","","","","tol_peg_1","536","536","0","[[1,0,0],[2,3],[0]]","1","[[2,3,0],[1,0],[0]]","15","0","","","","","","7","","","","","","","","",""
"","","","","","single-stim-button","215","422201","0.0-2.0-56.1-0.1","60bd88b8fc436774352f53b9","C3","batch3","","466","tol_tohand","","","","tol_peg_2","466","466","0","[[1,0,0],[2,0],[0]]","2","[[2,3,0],[1,0],[0]]","15","0","","","","","","7","","","","","","","","",""
"","","","","","single-stim-button","216","440079","0.0-2.0-56.1-1.1","60bd88b8fc436774352f53b9","C3","batch3","","17877","tol_toboard","","","","tol_peg_1","17877","17877","0","[[1,3,0],[2,0],[0]]","2","[[2,3,0],[1,0],[0]]","15","0","","","","","","7","","","","","","","","",""
"","","","","","single-stim-button","217","440738","0.0-2.0-56.2-0.2","60bd88b8fc436774352f53b9","C3","batch3","","658","tol_tohand","","","","tol_peg_2","658","658","0","[[1,3,0],[0,0],[0]]","3","[[2,3,0],[1,0],[0]]","15","0","","","","","","7","","","","","","","","",""
"","","","","","single-stim-button","218","441057","0.0-2.0-56.2-1.2","60bd88b8fc436774352f53b9","C3","batch3","","319","tol_toboard","","","","tol_peg_3","319","319","0","[[1,3,0],[0,0],[2]]","3","[[2,3,0],[1,0],[0]]","15","0","","","","","","7","","","","","","","","",""
"","","","","","single-stim-button","219","442316","0.0-2.0-56.3-0.3","60bd88b8fc436774352f53b9","C3","batch3","","1258","tol_tohand","","","","tol_peg_1","1258","1258","0","[[1,0,0],[0,0],[2]]","4","[[2,3,0],[1,0],[0]]","15","0","","","","","","7","","","","","","","","",""
"","","","","","single-stim-button","220","444725","0.0-2.0-56.3-1.3","60bd88b8fc436774352f53b9","C3","batch3","","2409","tol_toboard","","","","tol_peg_2","2409","2409","0","[[1,0,0],[3,0],[2]]","4","[[2,3,0],[1,0],[0]]","15","0","","","","","","7","","","","","","","","",""
"","","","","","single-stim-button","221","445342","0.0-2.0-56.4-0.4","60bd88b8fc436774352f53b9","C3","batch3","","615","tol_tohand","","","","tol_peg_1","615","615","0","[[0,0,0],[3,0],[2]]","5","[[2,3,0],[1,0],[0]]","15","0","","","","","","7","","","","","","","","",""
"","","","","","single-stim-button","222","445641","0.0-2.0-56.4-1.4","60bd88b8fc436774352f53b9","C3","batch3","","298","tol_toboard","","","","tol_peg_2","298","298","0","[[0,0,0],[3,1],[2]]","5","[[2,3,0],[1,0],[0]]","15","0","","","","","","7","","","","","","","","",""
"","","","","","single-stim-button","223","446722","0.0-2.0-56.5-0.5","60bd88b8fc436774352f53b9","C3","batch3","","1080","tol_tohand","","","","tol_peg_3","1080","1080","0","[[0,0,0],[3,1],[0]]","6","[[2,3,0],[1,0],[0]]","15","0","","","","","","7","","","","","","","","",""
"","","","","","single-stim-button","224","447182","0.0-2.0-56.5-1.5","60bd88b8fc436774352f53b9","C3","batch3","","459","tol_toboard","","","","tol_peg_1","459","459","0","[[2,0,0],[3,1],[0]]","6","[[2,3,0],[1,0],[0]]","15","0","","","","","","7","","","","","","","","",""
"","","","","","single-stim-button","225","447742","0.0-2.0-56.6-0.6","60bd88b8fc436774352f53b9","C3","batch3","","560","tol_tohand","","","","tol_peg_2","560","560","0","[[2,0,0],[3,0],[0]]","7","[[2,3,0],[1,0],[0]]","15","0","","","","","","7","","","","","","","","",""
"","","","","","single-stim-button","226","448304","0.0-2.0-56.6-1.6","60bd88b8fc436774352f53b9","C3","batch3","","562","tol_toboard","","","","tol_peg_3","562","562","0","[[2,0,0],[3,0],[1]]","7","[[2,3,0],[1,0],[0]]","15","0","","","","","","7","","","","","","","","",""
"","","","","","single-stim-button","227","448718","0.0-2.0-56.7-0.7","60bd88b8fc436774352f53b9","C3","batch3","","414","tol_tohand","","","","tol_peg_2","414","414","0","[[2,0,0],[0,0],[1]]","8","[[2,3,0],[1,0],[0]]","15","0","","","","","","7","","","","","","","","",""
"","","","","","single-stim-button","228","448982","0.0-2.0-56.7-1.7","60bd88b8fc436774352f53b9","C3","batch3","","262","tol_toboard","","","","tol_peg_1","262","262","0","[[2,3,0],[0,0],[1]]","8","[[2,3,0],[1,0],[0]]","15","0","","","","","","7","","","","","","","","",""
"","","","","","single-stim-button","229","449976","0.0-2.0-56.8-0.8","60bd88b8fc436774352f53b9","C3","batch3","","994","tol_tohand","","","","tol_peg_3","994","994","0","[[2,3,0],[0,0],[0]]","9","[[2,3,0],[1,0],[0]]","15","0","","","","","","7","","","","","","","","",""
"","","","","","single-stim-button","230","450248","0.0-2.0-56.8-1.8","60bd88b8fc436774352f53b9","C3","batch3","","270","tol_toboard","","","","tol_peg_2","270","270","0","[[2,3,0],[1,0],[0]]","9","[[2,3,0],[1,0],[0]]","15","0","","","","","","7","","","","","","","","",""
"","","","","","poldrack-single-stim","231","451249","0.0-2.0-57.0","60bd88b8fc436774352f53b9","C3","batch3","","-1","tol_feedback","","","true","","1000","1000","500","","","","","","-1","none","true","8431","14476","","","","","","","","","",""
"","","","","","html-button-response","232","451871","0.0-2.0-58.0","60bd88b8fc436774352f53b9","C3","batch3","","620.8999999910593","tol_trial_num","<div class = centerbox><p class = center-block-text>problem <strong>17</strong> out of 25 problems</p></div>","0","","","","","","","","","","","","","","","","","","","","","","","","",""
"","","","","","single-stim-button","233","459351","0.0-2.0-59.0-0.0","60bd88b8fc436774352f53b9","C3","batch3","","7479","tol_tohand","","","","tol_peg_1","7479","7479","0","[[1,0,0],[3,0],[0]]","1","[[3,1,0],[2,0],[0]]","16","0","","","","","","5","","","","","","","","",""
"","","","","","single-stim-button","234","466256","0.0-2.0-59.0-1.0","60bd88b8fc436774352f53b9","C3","batch3","","6904","tol_toboard","","","","tol_peg_2","6904","6904","0","[[1,0,0],[3,2],[0]]","1","[[3,1,0],[2,0],[0]]","16","0","","","","","","5","","","","","","","","",""
"","","","","","single-stim-button","235","467461","0.0-2.0-59.1-0.1","60bd88b8fc436774352f53b9","C3","batch3","","1204","tol_tohand","","","","tol_peg_1","1204","1204","0","[[0,0,0],[3,2],[0]]","2","[[3,1,0],[2,0],[0]]","16","0","","","","","","5","","","","","","","","",""
"","","","","","single-stim-button","236","468944","0.0-2.0-59.1-1.1","60bd88b8fc436774352f53b9","C3","batch3","","1483","tol_toboard","","","","tol_peg_3","1483","1483","0","[[0,0,0],[3,2],[1]]","2","[[3,1,0],[2,0],[0]]","16","0","","","","","","5","","","","","","","","",""
"","","","","","single-stim-button","237","471107","0.0-2.0-59.2-0.2","60bd88b8fc436774352f53b9","C3","batch3","","2161","tol_tohand","","","","tol_peg_2","2161","2161","0","[[0,0,0],[3,0],[1]]","3","[[3,1,0],[2,0],[0]]","16","0","","","","","","5","","","","","","","","",""
"","","","","","single-stim-button","238","472466","0.0-2.0-59.2-1.2","60bd88b8fc436774352f53b9","C3","batch3","","1359","tol_toboard","","","","tol_peg_1","1359","1359","0","[[2,0,0],[3,0],[1]]","3","[[3,1,0],[2,0],[0]]","16","0","","","","","","5","","","","","","","","",""
"","","","","","single-stim-button","239","474063","0.0-2.0-59.3-0.3","60bd88b8fc436774352f53b9","C3","batch3","","1595","tol_tohand","","","","tol_peg_3","1595","1595","0","[[2,0,0],[3,0],[0]]","4","[[3,1,0],[2,0],[0]]","16","0","","","","","","5","","","","","","","","",""
"","","","","","single-stim-button","240","474882","0.0-2.0-59.3-1.3","60bd88b8fc436774352f53b9","C3","batch3","","819","tol_toboard","","","","tol_peg_2","819","819","0","[[2,0,0],[3,1],[0]]","4","[[3,1,0],[2,0],[0]]","16","0","","","","","","5","","","","","","","","",""
"","","","","","single-stim-button","241","475405","0.0-2.0-59.4-0.4","60bd88b8fc436774352f53b9","C3","batch3","","522","tol_tohand","","","","tol_peg_1","522","522","0","[[0,0,0],[3,1],[0]]","5","[[3,1,0],[2,0],[0]]","16","0","","","","","","5","","","","","","","","",""
"","","","","","single-stim-button","242","475898","0.0-2.0-59.4-1.4","60bd88b8fc436774352f53b9","C3","batch3","","493","tol_toboard","","","","tol_peg_3","493","493","0","[[0,0,0],[3,1],[2]]","5","[[3,1,0],[2,0],[0]]","16","0","","","","","","5","","","","","","","","",""
"","","","","","single-stim-button","243","482055","0.0-2.0-59.5-0.5","60bd88b8fc436774352f53b9","C3","batch3","","6156","tol_tohand","","","","tol_peg_2","6156","6156","0","[[0,0,0],[3,0],[2]]","6","[[3,1,0],[2,0],[0]]","16","0","","","","","","5","","","","","","","","",""
"","","","","","single-stim-button","244","483726","0.0-2.0-59.5-1.5","60bd88b8fc436774352f53b9","C3","batch3","","1670","tol_toboard","","","","tol_peg_2","1670","1670","0","[[0,0,0],[3,1],[2]]","6","[[3,1,0],[2,0],[0]]","16","0","","","","","","5","","","","","","","","",""
"","","","","","single-stim-button","245","484353","0.0-2.0-59.6-0.6","60bd88b8fc436774352f53b9","C3","batch3","","626","tol_tohand","","","","tol_peg_3","626","626","0","[[0,0,0],[3,1],[0]]","7","[[3,1,0],[2,0],[0]]","16","0","","","","","","5","","","","","","","","",""
"","","","","","single-stim-button","246","485073","0.0-2.0-59.6-1.6","60bd88b8fc436774352f53b9","C3","batch3","","720","tol_toboard","","","","tol_peg_1","720","720","0","[[2,0,0],[3,1],[0]]","7","[[3,1,0],[2,0],[0]]","16","0","","","","","","5","","","","","","","","",""
"","","","","","single-stim-button","247","489390","0.0-2.0-59.7-0.7","60bd88b8fc436774352f53b9","C3","batch3","","4316","tol_tohand","","","","tol_peg_2","4316","4316","0","[[2,0,0],[3,0],[0]]","8","[[3,1,0],[2,0],[0]]","16","0","","","","","","5","","","","","","","","",""
"","","","","","single-stim-button","248","490644","0.0-2.0-59.7-1.7","60bd88b8fc436774352f53b9","C3","batch3","","1254","tol_toboard","","","","tol_peg_1","1254","1254","0","[[2,1,0],[3,0],[0]]","8","[[3,1,0],[2,0],[0]]","16","0","","","","","","5","","","","","","","","",""
"","","","","","single-stim-button","249","491198","0.0-2.0-59.8-0.8","60bd88b8fc436774352f53b9","C3","batch3","","553","tol_tohand","","","","tol_peg_2","553","553","0","[[2,1,0],[0,0],[0]]","9","[[3,1,0],[2,0],[0]]","16","0","","","","","","5","","","","","","","","",""
"","","","","","single-stim-button","250","491602","0.0-2.0-59.8-1.8","60bd88b8fc436774352f53b9","C3","batch3","","402","tol_toboard","","","","tol_peg_3","402","402","0","[[2,1,0],[0,0],[3]]","9","[[3,1,0],[2,0],[0]]","16","0","","","","","","5","","","","","","","","",""
"","","","","","single-stim-button","251","492336","0.0-2.0-59.9-0.9","60bd88b8fc436774352f53b9","C3","batch3","","734","tol_tohand","","","","tol_peg_1","734","734","0","[[2,0,0],[0,0],[3]]","10","[[3,1,0],[2,0],[0]]","16","0","","","","","","5","","","","","","","","",""
"","","","","","single-stim-button","252","494412","0.0-2.0-59.9-1.9","60bd88b8fc436774352f53b9","C3","batch3","","2076","tol_toboard","","","","tol_peg_2","2076","2076","0","[[2,0,0],[1,0],[3]]","10","[[3,1,0],[2,0],[0]]","16","0","","","","","","5","","","","","","","","",""
"","","","","","single-stim-button","253","495566","0.0-2.0-59.10-0.10","60bd88b8fc436774352f53b9","C3","batch3","","1154","tol_tohand","","","","tol_peg_1","1154","1154","0","[[0,0,0],[1,0],[3]]","11","[[3,1,0],[2,0],[0]]","16","0","","","","","","5","","","","","","","","",""
"","","","","","single-stim-button","254","495951","0.0-2.0-59.10-1.10","60bd88b8fc436774352f53b9","C3","batch3","","384","tol_toboard","","","","tol_peg_2","384","384","0","[[0,0,0],[1,2],[3]]","11","[[3,1,0],[2,0],[0]]","16","0","","","","","","5","","","","","","","","",""
"","","","","","single-stim-button","255","496379","0.0-2.0-59.11-0.11","60bd88b8fc436774352f53b9","C3","batch3","","428","tol_tohand","","","","tol_peg_3","428","428","0","[[0,0,0],[1,2],[0]]","12","[[3,1,0],[2,0],[0]]","16","0","","","","","","5","","","","","","","","",""
"","","","","","single-stim-button","256","496886","0.0-2.0-59.11-1.11","60bd88b8fc436774352f53b9","C3","batch3","","506","tol_toboard","","","","tol_peg_1","506","506","0","[[3,0,0],[1,2],[0]]","12","[[3,1,0],[2,0],[0]]","16","0","","","","","","5","","","","","","","","",""
"","","","","","single-stim-button","257","497357","0.0-2.0-59.12-0.12","60bd88b8fc436774352f53b9","C3","batch3","","469","tol_tohand","","","","tol_peg_2","469","469","0","[[3,0,0],[1,0],[0]]","13","[[3,1,0],[2,0],[0]]","16","0","","","","","","5","","","","","","","","",""
"","","","","","single-stim-button","258","497823","0.0-2.0-59.12-1.12","60bd88b8fc436774352f53b9","C3","batch3","","466","tol_toboard","","","","tol_peg_3","466","466","0","[[3,0,0],[1,0],[2]]","13","[[3,1,0],[2,0],[0]]","16","0","","","","","","5","","","","","","","","",""
"","","","","","single-stim-button","259","498173","0.0-2.0-59.13-0.13","60bd88b8fc436774352f53b9","C3","batch3","","349","tol_tohand","","","","tol_peg_2","349","349","0","[[3,0,0],[0,0],[2]]","14","[[3,1,0],[2,0],[0]]","16","0","","","","","","5","","","","","","","","",""
"","","","","","single-stim-button","260","498469","0.0-2.0-59.13-1.13","60bd88b8fc436774352f53b9","C3","batch3","","296","tol_toboard","","","","tol_peg_1","296","296","0","[[3,1,0],[0,0],[2]]","14","[[3,1,0],[2,0],[0]]","16","0","","","","","","5","","","","","","","","",""
"","","","","","single-stim-button","261","498897","0.0-2.0-59.14-0.14","60bd88b8fc436774352f53b9","C3","batch3","","427","tol_tohand","","","","tol_peg_3","427","427","0","[[3,1,0],[0,0],[0]]","15","[[3,1,0],[2,0],[0]]","16","0","","","","","","5","","","","","","","","",""
"","","","","","single-stim-button","262","499167","0.0-2.0-59.14-1.14","60bd88b8fc436774352f53b9","C3","batch3","","270","tol_toboard","","","","tol_peg_2","270","270","0","[[3,1,0],[2,0],[0]]","15","[[3,1,0],[2,0],[0]]","16","0","","","","","","5","","","","","","","","",""
"","","","","","poldrack-single-stim","263","500181","0.0-2.0-60.0","60bd88b8fc436774352f53b9","C3","batch3","","-1","tol_feedback","","","true","","1000","1000","500","","","","","","-1","none","true","7479","28173","","","","","","","","","",""
"","","","","","html-button-response","264","500758","0.0-2.0-61.0","60bd88b8fc436774352f53b9","C3","batch3","","575.5999999940395","tol_trial_num","<div class = centerbox><p class = center-block-text>problem <strong>18</strong> out of 25 problems</p></div>","0","","","","","","","","","","","","","","","","","","","","","","","","",""
"","","","","","single-stim-button","265","504935","0.0-2.0-62.0-0.0","60bd88b8fc436774352f53b9","C3","batch3","","4176","tol_tohand","","","","tol_peg_1","4176","4176","0","[[1,0,0],[3,0],[0]]","1","[[3,0,0],[2,0],[1]]","17","0","","","","","","5","","","","","","","","",""
"","","","","","single-stim-button","266","506096","0.0-2.0-62.0-1.0","60bd88b8fc436774352f53b9","C3","batch3","","1159","tol_toboard","","","","tol_peg_2","1159","1159","0","[[1,0,0],[3,2],[0]]","1","[[3,0,0],[2,0],[1]]","17","0","","","","","","5","","","","","","","","",""
"","","","","","single-stim-button","267","506470","0.0-2.0-62.1-0.1","60bd88b8fc436774352f53b9","C3","batch3","","373","tol_tohand","","","","tol_peg_1","373","373","0","[[0,0,0],[3,2],[0]]","2","[[3,0,0],[2,0],[1]]","17","0","","","","","","5","","","","","","","","",""
"","","","","","single-stim-button","268","506925","0.0-2.0-62.1-1.1","60bd88b8fc436774352f53b9","C3","batch3","","455","tol_toboard","","","","tol_peg_3","455","455","0","[[0,0,0],[3,2],[1]]","2","[[3,0,0],[2,0],[1]]","17","0","","","","","","5","","","","","","","","",""
"","","","","","single-stim-button","269","508419","0.0-2.0-62.2-0.2","60bd88b8fc436774352f53b9","C3","batch3","","1492","tol_tohand","","","","tol_peg_3","1492","1492","0","[[0,0,0],[3,2],[0]]","3","[[3,0,0],[2,0],[1]]","17","0","","","","","","5","","","","","","","","",""
"","","","","","single-stim-button","270","511049","0.0-2.0-62.2-1.2","60bd88b8fc436774352f53b9","C3","batch3","","2630","tol_toboard","","","","tol_peg_1","2630","2630","0","[[1,0,0],[3,2],[0]]","3","[[3,0,0],[2,0],[1]]","17","0","","","","","","5","","","","","","","","",""
"","","","","","single-stim-button","271","511514","0.0-2.0-62.3-0.3","60bd88b8fc436774352f53b9","C3","batch3","","464","tol_tohand","","","","tol_peg_2","464","464","0","[[1,0,0],[3,0],[0]]","4","[[3,0,0],[2,0],[1]]","17","0","","","","","","5","","","","","","","","",""
"","","","","","single-stim-button","272","511867","0.0-2.0-62.3-1.3","60bd88b8fc436774352f53b9","C3","batch3","","353","tol_toboard","","","","tol_peg_3","353","353","0","[[1,0,0],[3,0],[2]]","4","[[3,0,0],[2,0],[1]]","17","0","","","","","","5","","","","","","","","",""
"","","","","","single-stim-button","273","512584","0.0-2.0-62.4-0.4","60bd88b8fc436774352f53b9","C3","batch3","","716","tol_tohand","","","","tol_peg_2","716","716","0","[[1,0,0],[0,0],[2]]","5","[[3,0,0],[2,0],[1]]","17","0","","","","","","5","","","","","","","","",""
"","","","","","single-stim-button","274","513700","0.0-2.0-62.4-1.4","60bd88b8fc436774352f53b9","C3","batch3","","1115","tol_toboard","","","","tol_peg_1","1115","1115","0","[[1,3,0],[0,0],[2]]","5","[[3,0,0],[2,0],[1]]","17","0","","","","","","5","","","","","","","","",""
"","","","","","single-stim-button","275","514303","0.0-2.0-62.5-0.5","60bd88b8fc436774352f53b9","C3","batch3","","602","tol_tohand","","","","tol_peg_3","602","602","0","[[1,3,0],[0,0],[0]]","6","[[3,0,0],[2,0],[1]]","17","0","","","","","","5","","","","","","","","",""
"","","","","","single-stim-button","276","514703","0.0-2.0-62.5-1.5","60bd88b8fc436774352f53b9","C3","batch3","","399","tol_toboard","","","","tol_peg_2","399","399","0","[[1,3,0],[2,0],[0]]","6","[[3,0,0],[2,0],[1]]","17","0","","","","","","5","","","","","","","","",""
"","","","","","single-stim-button","277","515330","0.0-2.0-62.6-0.6","60bd88b8fc436774352f53b9","C3","batch3","","627","tol_tohand","","","","tol_peg_1","627","627","0","[[1,0,0],[2,0],[0]]","7","[[3,0,0],[2,0],[1]]","17","0","","","","","","5","","","","","","","","",""
"","","","","","single-stim-button","278","516032","0.0-2.0-62.6-1.6","60bd88b8fc436774352f53b9","C3","batch3","","701","tol_toboard","","","","tol_peg_2","701","701","0","[[1,0,0],[2,3],[0]]","7","[[3,0,0],[2,0],[1]]","17","0","","","","","","5","","","","","","","","",""
"","","","","","single-stim-button","279","516572","0.0-2.0-62.7-0.7","60bd88b8fc436774352f53b9","C3","batch3","","538","tol_tohand","","","","tol_peg_1","538","538","0","[[0,0,0],[2,3],[0]]","8","[[3,0,0],[2,0],[1]]","17","0","","","","","","5","","","","","","","","",""
"","","","","","single-stim-button","280","517804","0.0-2.0-62.7-1.7","60bd88b8fc436774352f53b9","C3","batch3","","1231","tol_toboard","","","","tol_peg_3","1231","1231","0","[[0,0,0],[2,3],[1]]","8","[[3,0,0],[2,0],[1]]","17","0","","","","","","5","","","","","","","","",""
"","","","","","single-stim-button","281","518214","0.0-2.0-62.8-0.8","60bd88b8fc436774352f53b9","C3","batch3","","410","tol_tohand","","","","tol_peg_2","410","410","0","[[0,0,0],[2,0],[1]]","9","[[3,0,0],[2,0],[1]]","17","0","","","","","","5","","","","","","","","",""
"","","","","","single-stim-button","282","518543","0.0-2.0-62.8-1.8","60bd88b8fc436774352f53b9","C3","batch3","","327","tol_toboard","","","","tol_peg_1","327","327","0","[[3,0,0],[2,0],[1]]","9","[[3,0,0],[2,0],[1]]","17","0","","","","","","5","","","","","","","","",""
"","","","","","poldrack-single-stim","283","519544","0.0-2.0-63.0","60bd88b8fc436774352f53b9","C3","batch3","","-1","tol_feedback","","","true","","1000","1000","500","","","","","","-1","none","true","4176","9398","","","","","","","","","",""
"","","","","","html-button-response","284","520041","0.0-2.0-64.0","60bd88b8fc436774352f53b9","C3","batch3","","496","tol_trial_num","<div class = centerbox><p class = center-block-text>problem <strong>19</strong> out of 25 problems</p></div>","0","","","","","","","","","","","","","","","","","","","","","","","","",""
"","","","","","single-stim-button","285","571846","0.0-2.0-65.0-0.0","60bd88b8fc436774352f53b9","C3","batch3","","51803","tol_tohand","","","","tol_peg_1","51803","51803","0","[[1,0,0],[3,0],[0]]","1","[[0,0,0],[1,2],[3]]","18","0","","","","","","7","","","","","","","","",""
"","","","","","single-stim-button","286","572317","0.0-2.0-65.0-1.0","60bd88b8fc436774352f53b9","C3","batch3","","470","tol_toboard","","","","tol_peg_2","470","470","0","[[1,0,0],[3,2],[0]]","1","[[0,0,0],[1,2],[3]]","18","0","","","","","","7","","","","","","","","",""
"","","","","","single-stim-button","287","572967","0.0-2.0-65.1-0.1","60bd88b8fc436774352f53b9","C3","batch3","","650","tol_tohand","","","","tol_peg_1","650","650","0","[[0,0,0],[3,2],[0]]","2","[[0,0,0],[1,2],[3]]","18","0","","","","","","7","","","","","","","","",""
"","","","","","single-stim-button","288","573535","0.0-2.0-65.1-1.1","60bd88b8fc436774352f53b9","C3","batch3","","567","tol_toboard","","","","tol_peg_3","567","567","0","[[0,0,0],[3,2],[1]]","2","[[0,0,0],[1,2],[3]]","18","0","","","","","","7","","","","","","","","",""
"","","","","","single-stim-button","289","579193","0.0-2.0-65.2-0.2","60bd88b8fc436774352f53b9","C3","batch3","","5656","tol_tohand","","","","tol_peg_2","5656","5656","0","[[0,0,0],[3,0],[1]]","3","[[0,0,0],[1,2],[3]]","18","0","","","","","","7","","","","","","","","",""
"","","","","","single-stim-button","290","582431","0.0-2.0-65.2-1.2","60bd88b8fc436774352f53b9","C3","batch3","","3238","tol_toboard","","","","tol_peg_1","3238","3238","0","[[2,0,0],[3,0],[1]]","3","[[0,0,0],[1,2],[3]]","18","0","","","","","","7","","","","","","","","",""
"","","","","","single-stim-button","291","583144","0.0-2.0-65.3-0.3","60bd88b8fc436774352f53b9","C3","batch3","","712","tol_tohand","","","","tol_peg_3","712","712","0","[[2,0,0],[3,0],[0]]","4","[[0,0,0],[1,2],[3]]","18","0","","","","","","7","","","","","","","","",""
"","","","","","single-stim-button","292","583584","0.0-2.0-65.3-1.3","60bd88b8fc436774352f53b9","C3","batch3","","439","tol_toboard","","","","tol_peg_1","439","439","0","[[2,1,0],[3,0],[0]]","4","[[0,0,0],[1,2],[3]]","18","0","","","","","","7","","","","","","","","",""
"","","","","","single-stim-button","293","584013","0.0-2.0-65.4-0.4","60bd88b8fc436774352f53b9","C3","batch3","","429","tol_tohand","","","","tol_peg_2","429","429","0","[[2,1,0],[0,0],[0]]","5","[[0,0,0],[1,2],[3]]","18","0","","","","","","7","","","","","","","","",""
"","","","","","single-stim-button","294","584454","0.0-2.0-65.4-1.4","60bd88b8fc436774352f53b9","C3","batch3","","441","tol_toboard","","","","tol_peg_3","441","441","0","[[2,1,0],[0,0],[3]]","5","[[0,0,0],[1,2],[3]]","18","0","","","","","","7","","","","","","","","",""
"","","","","","single-stim-button","295","585321","0.0-2.0-65.5-0.5","60bd88b8fc436774352f53b9","C3","batch3","","867","tol_tohand","","","","tol_peg_1","867","867","0","[[2,0,0],[0,0],[3]]","6","[[0,0,0],[1,2],[3]]","18","0","","","","","","7","","","","","","","","",""
"","","","","","single-stim-button","296","585880","0.0-2.0-65.5-1.5","60bd88b8fc436774352f53b9","C3","batch3","","559","tol_toboard","","","","tol_peg_2","559","559","0","[[2,0,0],[1,0],[3]]","6","[[0,0,0],[1,2],[3]]","18","0","","","","","","7","","","","","","","","",""
"","","","","","single-stim-button","297","586218","0.0-2.0-65.6-0.6","60bd88b8fc436774352f53b9","C3","batch3","","338","tol_tohand","","","","tol_peg_1","338","338","0","[[0,0,0],[1,0],[3]]","7","[[0,0,0],[1,2],[3]]","18","0","","","","","","7","","","","","","","","",""
"","","","","","single-stim-button","298","586508","0.0-2.0-65.6-1.6","60bd88b8fc436774352f53b9","C3","batch3","","289","tol_toboard","","","","tol_peg_2","289","289","0","[[0,0,0],[1,2],[3]]","7","[[0,0,0],[1,2],[3]]","18","0","","","","","","7","","","","","","","","",""
"","","","","","poldrack-single-stim","299","587509","0.0-2.0-66.0","60bd88b8fc436774352f53b9","C3","batch3","","-1","tol_feedback","","","true","","1000","1000","500","","","","","","-1","none","true","51803","60455","","","","","","","","","",""
"","","","","","html-button-response","300","588206","0.0-2.0-67.0","60bd88b8fc436774352f53b9","C3","batch3","","695.8999999910593","tol_trial_num","<div class = centerbox><p class = center-block-text>problem <strong>20</strong> out of 25 problems</p></div>","0","","","","","","","","","","","","","","","","","","","","","","","","",""
"","","","","","single-stim-button","301","594815","0.0-2.0-68.0-0.0","60bd88b8fc436774352f53b9","C3","batch3","","6608","tol_tohand","","","","tol_peg_2","6608","6608","0","[[1,2,0],[0,0],[0]]","1","[[2,1,0],[0,0],[3]]","19","0","","","","","","5","","","","","","","","",""
"","","","","","single-stim-button","302","597191","0.0-2.0-68.0-1.0","60bd88b8fc436774352f53b9","C3","batch3","","2375","tol_toboard","","","","tol_peg_3","2375","2375","0","[[1,2,0],[0,0],[3]]","1","[[2,1,0],[0,0],[3]]","19","0","","","","","","5","","","","","","","","",""
"","","","","","single-stim-button","303","597687","0.0-2.0-68.1-0.1","60bd88b8fc436774352f53b9","C3","batch3","","495","tol_tohand","","","","tol_peg_1","495","495","0","[[1,0,0],[0,0],[3]]","2","[[2,1,0],[0,0],[3]]","19","0","","","","","","5","","","","","","","","",""
"","","","","","single-stim-button","304","603685","0.0-2.0-68.1-1.1","60bd88b8fc436774352f53b9","C3","batch3","","5998","tol_toboard","","","","tol_peg_1","5998","5998","0","[[1,2,0],[0,0],[3]]","2","[[2,1,0],[0,0],[3]]","19","0","","","","","","5","","","","","","","","",""
"","","","","","single-stim-button","305","604856","0.0-2.0-68.2-0.2","60bd88b8fc436774352f53b9","C3","batch3","","1170","tol_tohand","","","","tol_peg_3","1170","1170","0","[[1,2,0],[0,0],[0]]","3","[[2,1,0],[0,0],[3]]","19","0","","","","","","5","","","","","","","","",""
"","","","","","single-stim-button","306","605292","0.0-2.0-68.2-1.2","60bd88b8fc436774352f53b9","C3","batch3","","435","tol_toboard","","","","tol_peg_2","435","435","0","[[1,2,0],[3,0],[0]]","3","[[2,1,0],[0,0],[3]]","19","0","","","","","","5","","","","","","","","",""
"","","","","","single-stim-button","307","605762","0.0-2.0-68.3-0.3","60bd88b8fc436774352f53b9","C3","batch3","","470","tol_tohand","","","","tol_peg_1","470","470","0","[[1,0,0],[3,0],[0]]","4","[[2,1,0],[0,0],[3]]","19","0","","","","","","5","","","","","","","","",""
"","","","","","single-stim-button","308","606165","0.0-2.0-68.3-1.3","60bd88b8fc436774352f53b9","C3","batch3","","402","tol_toboard","","","","tol_peg_2","402","402","0","[[1,0,0],[3,2],[0]]","4","[[2,1,0],[0,0],[3]]","19","0","","","","","","5","","","","","","","","",""
"","","","","","single-stim-button","309","606859","0.0-2.0-68.4-0.4","60bd88b8fc436774352f53b9","C3","batch3","","693","tol_tohand","","","","tol_peg_1","693","693","0","[[0,0,0],[3,2],[0]]","5","[[2,1,0],[0,0],[3]]","19","0","","","","","","5","","","","","","","","",""
"","","","","","single-stim-button","310","607654","0.0-2.0-68.4-1.4","60bd88b8fc436774352f53b9","C3","batch3","","795","tol_toboard","","","","tol_peg_3","795","795","0","[[0,0,0],[3,2],[1]]","5","[[2,1,0],[0,0],[3]]","19","0","","","","","","5","","","","","","","","",""
"","","","","","single-stim-button","311","608027","0.0-2.0-68.5-0.5","60bd88b8fc436774352f53b9","C3","batch3","","372","tol_tohand","","","","tol_peg_2","372","372","0","[[0,0,0],[3,0],[1]]","6","[[2,1,0],[0,0],[3]]","19","0","","","","","","5","","","","","","","","",""
"","","","","","single-stim-button","312","608435","0.0-2.0-68.5-1.5","60bd88b8fc436774352f53b9","C3","batch3","","407","tol_toboard","","","","tol_peg_1","407","407","0","[[2,0,0],[3,0],[1]]","6","[[2,1,0],[0,0],[3]]","19","0","","","","","","5","","","","","","","","",""
"","","","","","single-stim-button","313","608922","0.0-2.0-68.6-0.6","60bd88b8fc436774352f53b9","C3","batch3","","486","tol_tohand","","","","tol_peg_2","486","486","0","[[2,0,0],[0,0],[1]]","7","[[2,1,0],[0,0],[3]]","19","0","","","","","","5","","","","","","","","",""
"","","","","","single-stim-button","314","609671","0.0-2.0-68.6-1.6","60bd88b8fc436774352f53b9","C3","batch3","","749","tol_toboard","","","","tol_peg_2","749","749","0","[[2,0,0],[3,0],[1]]","7","[[2,1,0],[0,0],[3]]","19","0","","","","","","5","","","","","","","","",""
"","","","","","single-stim-button","315","610456","0.0-2.0-68.7-0.7","60bd88b8fc436774352f53b9","C3","batch3","","785","tol_tohand","","","","tol_peg_3","785","785","0","[[2,0,0],[3,0],[0]]","8","[[2,1,0],[0,0],[3]]","19","0","","","","","","5","","","","","","","","",""
"","","","","","single-stim-button","316","610970","0.0-2.0-68.7-1.7","60bd88b8fc436774352f53b9","C3","batch3","","514","tol_toboard","","","","tol_peg_1","514","514","0","[[2,1,0],[3,0],[0]]","8","[[2,1,0],[0,0],[3]]","19","0","","","","","","5","","","","","","","","",""
"","","","","","single-stim-button","317","611308","0.0-2.0-68.8-0.8","60bd88b8fc436774352f53b9","C3","batch3","","337","tol_tohand","","","","tol_peg_2","337","337","0","[[2,1,0],[0,0],[0]]","9","[[2,1,0],[0,0],[3]]","19","0","","","","","","5","","","","","","","","",""
"","","","","","single-stim-button","318","611684","0.0-2.0-68.8-1.8","60bd88b8fc436774352f53b9","C3","batch3","","375","tol_toboard","","","","tol_peg_3","375","375","0","[[2,1,0],[0,0],[3]]","9","[[2,1,0],[0,0],[3]]","19","0","","","","","","5","","","","","","","","",""
"","","","","","poldrack-single-stim","319","612687","0.0-2.0-69.0","60bd88b8fc436774352f53b9","C3","batch3","","-1","tol_feedback","","","true","","1000","1000","500","","","","","","-1","none","true","6608","11416","","","","","","","","","",""
"","","","","","html-button-response","320","613465","0.0-2.0-70.0","60bd88b8fc436774352f53b9","C3","batch3","","777","tol_trial_num","<div class = centerbox><p class = center-block-text>problem <strong>21</strong> out of 25 problems</p></div>","0","","","","","","","","","","","","","","","","","","","","","","","","",""
"","","","","","single-stim-button","321","620091","0.0-2.0-71.0-0.0","60bd88b8fc436774352f53b9","C3","batch3","","6626","tol_tohand","","","","tol_peg_1","6626","6626","0","[[1,0,0],[3,0],[0]]","1","[[3,2,0],[0,0],[1]]","20","0","","","","","","6","","","","","","","","",""
"","","","","","single-stim-button","322","630168","0.0-2.0-71.0-1.0","60bd88b8fc436774352f53b9","C3","batch3","","10076","tol_toboard","","","","tol_peg_1","10076","10076","0","[[1,2,0],[3,0],[0]]","1","[[3,2,0],[0,0],[1]]","20","0","","","","","","6","","","","","","","","",""
"","","","","","single-stim-button","323","630949","0.0-2.0-71.1-0.1","60bd88b8fc436774352f53b9","C3","batch3","","781","tol_tohand","","","","tol_peg_2","781","781","0","[[1,2,0],[0,0],[0]]","2","[[3,2,0],[0,0],[1]]","20","0","","","","","","6","","","","","","","","",""
"","","","","","single-stim-button","324","631339","0.0-2.0-71.1-1.1","60bd88b8fc436774352f53b9","C3","batch3","","389","tol_toboard","","","","tol_peg_3","389","389","0","[[1,2,0],[0,0],[3]]","2","[[3,2,0],[0,0],[1]]","20","0","","","","","","6","","","","","","","","",""
"","","","","","single-stim-button","325","631824","0.0-2.0-71.2-0.2","60bd88b8fc436774352f53b9","C3","batch3","","484","tol_tohand","","","","tol_peg_1","484","484","0","[[1,0,0],[0,0],[3]]","3","[[3,2,0],[0,0],[1]]","20","0","","","","","","6","","","","","","","","",""
"","","","","","single-stim-button","326","632150","0.0-2.0-71.2-1.2","60bd88b8fc436774352f53b9","C3","batch3","","325","tol_toboard","","","","tol_peg_2","325","325","0","[[1,0,0],[2,0],[3]]","3","[[3,2,0],[0,0],[1]]","20","0","","","","","","6","","","","","","","","",""
"","","","","","single-stim-button","327","632486","0.0-2.0-71.3-0.3","60bd88b8fc436774352f53b9","C3","batch3","","335","tol_tohand","","","","tol_peg_1","335","335","0","[[0,0,0],[2,0],[3]]","4","[[3,2,0],[0,0],[1]]","20","0","","","","","","6","","","","","","","","",""
"","","","","","single-stim-button","328","632780","0.0-2.0-71.3-1.3","60bd88b8fc436774352f53b9","C3","batch3","","293","tol_toboard","","","","tol_peg_2","293","293","0","[[0,0,0],[2,1],[3]]","4","[[3,2,0],[0,0],[1]]","20","0","","","","","","6","","","","","","","","",""
"","","","","","single-stim-button","329","633482","0.0-2.0-71.4-0.4","60bd88b8fc436774352f53b9","C3","batch3","","702","tol_tohand","","","","tol_peg_3","702","702","0","[[0,0,0],[2,1],[0]]","5","[[3,2,0],[0,0],[1]]","20","0","","","","","","6","","","","","","","","",""
"","","","","","single-stim-button","330","633954","0.0-2.0-71.4-1.4","60bd88b8fc436774352f53b9","C3","batch3","","470","tol_toboard","","","","tol_peg_1","470","470","0","[[3,0,0],[2,1],[0]]","5","[[3,2,0],[0,0],[1]]","20","0","","","","","","6","","","","","","","","",""
"","","","","","single-stim-button","331","634453","0.0-2.0-71.5-0.5","60bd88b8fc436774352f53b9","C3","batch3","","499","tol_tohand","","","","tol_peg_2","499","499","0","[[3,0,0],[2,0],[0]]","6","[[3,2,0],[0,0],[1]]","20","0","","","","","","6","","","","","","","","",""
"","","","","","single-stim-button","332","635276","0.0-2.0-71.5-1.5","60bd88b8fc436774352f53b9","C3","batch3","","823","tol_toboard","","","","tol_peg_3","823","823","0","[[3,0,0],[2,0],[1]]","6","[[3,2,0],[0,0],[1]]","20","0","","","","","","6","","","","","","","","",""
"","","","","","single-stim-button","333","635628","0.0-2.0-71.6-0.6","60bd88b8fc436774352f53b9","C3","batch3","","351","tol_tohand","","","","tol_peg_2","351","351","0","[[3,0,0],[0,0],[1]]","7","[[3,2,0],[0,0],[1]]","20","0","","","","","","6","","","","","","","","",""
"","","","","","single-stim-button","334","635993","0.0-2.0-71.6-1.6","60bd88b8fc436774352f53b9","C3","batch3","","365","tol_toboard","","","","tol_peg_1","365","365","0","[[3,2,0],[0,0],[1]]","7","[[3,2,0],[0,0],[1]]","20","0","","","","","","6","","","","","","","","",""
"","","","","","poldrack-single-stim","335","637000","0.0-2.0-72.0","60bd88b8fc436774352f53b9","C3","batch3","","-1","tol_feedback","","","true","","1000","1000","500","","","","","","-1","none","true","6626","9778","","","","","","","","","",""
"","","","","","html-button-response","336","637581","0.0-2.0-73.0","60bd88b8fc436774352f53b9","C3","batch3","","579.3000000119209","tol_trial_num","<div class = centerbox><p class = center-block-text>problem <strong>22</strong> out of 25 problems</p></div>","0","","","","","","","","","","","","","","","","","","","","","","","","",""
"","","","","","single-stim-button","337","653793","0.0-2.0-74.0-0.0","60bd88b8fc436774352f53b9","C3","batch3","","16211","tol_tohand","","","","tol_peg_2","16211","16211","0","[[1,0,0],[2,0],[0]]","1","[[0,0,0],[1,2],[3]]","21","0","","","","","","6","","","","","","","","",""
"","","","","","single-stim-button","338","655959","0.0-2.0-74.0-1.0","60bd88b8fc436774352f53b9","C3","batch3","","2165","tol_toboard","","","","tol_peg_3","2165","2165","0","[[1,0,0],[2,0],[3]]","1","[[0,0,0],[1,2],[3]]","21","0","","","","","","6","","","","","","","","",""
"","","","","","single-stim-button","339","656468","0.0-2.0-74.1-0.1","60bd88b8fc436774352f53b9","C3","batch3","","509","tol_tohand","","","","tol_peg_2","509","509","0","[[1,0,0],[0,0],[3]]","2","[[0,0,0],[1,2],[3]]","21","0","","","","","","6","","","","","","","","",""
"","","","","","single-stim-button","340","660626","0.0-2.0-74.1-1.1","60bd88b8fc436774352f53b9","C3","batch3","","4158","tol_toboard","","","","tol_peg_2","4158","4158","0","[[1,0,0],[2,0],[3]]","2","[[0,0,0],[1,2],[3]]","21","0","","","","","","6","","","","","","","","",""
"","","","","","single-stim-button","341","661455","0.0-2.0-74.2-0.2","60bd88b8fc436774352f53b9","C3","batch3","","828","tol_tohand","","","","tol_peg_3","828","828","0","[[1,0,0],[2,0],[0]]","3","[[0,0,0],[1,2],[3]]","21","0","","","","","","6","","","","","","","","",""
"","","","","","single-stim-button","342","662086","0.0-2.0-74.2-1.2","60bd88b8fc436774352f53b9","C3","batch3","","631","tol_toboard","","","","tol_peg_2","631","631","0","[[1,0,0],[2,3],[0]]","3","[[0,0,0],[1,2],[3]]","21","0","","","","","","6","","","","","","","","",""
"","","","","","single-stim-button","343","663055","0.0-2.0-74.3-0.3","60bd88b8fc436774352f53b9","C3","batch3","","968","tol_tohand","","","","tol_peg_2","968","968","0","[[1,0,0],[2,0],[0]]","4","[[0,0,0],[1,2],[3]]","21","0","","","","","","6","","","","","","","","",""
"","","","","","single-stim-button","344","663644","0.0-2.0-74.3-1.3","60bd88b8fc436774352f53b9","C3","batch3","","588","tol_toboard","","","","tol_peg_1","588","588","0","[[1,3,0],[2,0],[0]]","4","[[0,0,0],[1,2],[3]]","21","0","","","","","","6","","","","","","","","",""
"","","","","","single-stim-button","345","664386","0.0-2.0-74.4-0.4","60bd88b8fc436774352f53b9","C3","batch3","","741","tol_tohand","","","","tol_peg_2","741","741","0","[[1,3,0],[0,0],[0]]","5","[[0,0,0],[1,2],[3]]","21","0","","","","","","6","","","","","","","","",""
"","","","","","single-stim-button","346","664826","0.0-2.0-74.4-1.4","60bd88b8fc436774352f53b9","C3","batch3","","439","tol_toboard","","","","tol_peg_3","439","439","0","[[1,3,0],[0,0],[2]]","5","[[0,0,0],[1,2],[3]]","21","0","","","","","","6","","","","","","","","",""
"","","","","","single-stim-button","347","666345","0.0-2.0-74.5-0.5","60bd88b8fc436774352f53b9","C3","batch3","","1519","tol_tohand","","","","tol_peg_1","1519","1519","0","[[1,0,0],[0,0],[2]]","6","[[0,0,0],[1,2],[3]]","21","0","","","","","","6","","","","","","","","",""
"","","","","","single-stim-button","348","667783","0.0-2.0-74.5-1.5","60bd88b8fc436774352f53b9","C3","batch3","","1437","tol_toboard","","","","tol_peg_2","1437","1437","0","[[1,0,0],[3,0],[2]]","6","[[0,0,0],[1,2],[3]]","21","0","","","","","","6","","","","","","","","",""
"","","","","","single-stim-button","349","669731","0.0-2.0-74.6-0.6","60bd88b8fc436774352f53b9","C3","batch3","","1948","tol_tohand","","","","tol_peg_2","1948","1948","0","[[1,0,0],[0,0],[2]]","7","[[0,0,0],[1,2],[3]]","21","0","","","","","","6","","","","","","","","",""
"","","","","","single-stim-button","350","672105","0.0-2.0-74.6-1.6","60bd88b8fc436774352f53b9","C3","batch3","","2373","tol_toboard","","","","tol_peg_1","2373","2373","0","[[1,3,0],[0,0],[2]]","7","[[0,0,0],[1,2],[3]]","21","0","","","","","","6","","","","","","","","",""
"","","","","","single-stim-button","351","673125","0.0-2.0-74.7-0.7","60bd88b8fc436774352f53b9","C3","batch3","","1018","tol_tohand","","","","tol_peg_1","1018","1018","0","[[1,0,0],[0,0],[2]]","8","[[0,0,0],[1,2],[3]]","21","0","","","","","","6","","","","","","","","",""
"","","","","","single-stim-button","352","673763","0.0-2.0-74.7-1.7","60bd88b8fc436774352f53b9","C3","batch3","","638","tol_toboard","","","","tol_peg_2","638","638","0","[[1,0,0],[3,0],[2]]","8","[[0,0,0],[1,2],[3]]","21","0","","","","","","6","","","","","","","","",""
"","","","","","single-stim-button","353","674205","0.0-2.0-74.8-0.8","60bd88b8fc436774352f53b9","C3","batch3","","442","tol_tohand","","","","tol_peg_3","442","442","0","[[1,0,0],[3,0],[0]]","9","[[0,0,0],[1,2],[3]]","21","0","","","","","","6","","","","","","","","",""
"","","","","","single-stim-button","354","674567","0.0-2.0-74.8-1.8","60bd88b8fc436774352f53b9","C3","batch3","","361","tol_toboard","","","","tol_peg_2","361","361","0","[[1,0,0],[3,2],[0]]","9","[[0,0,0],[1,2],[3]]","21","0","","","","","","6","","","","","","","","",""
"","","","","","single-stim-button","355","675001","0.0-2.0-74.9-0.9","60bd88b8fc436774352f53b9","C3","batch3","","433","tol_tohand","","","","tol_peg_1","433","433","0","[[0,0,0],[3,2],[0]]","10","[[0,0,0],[1,2],[3]]","21","0","","","","","","6","","","","","","","","",""
"","","","","","single-stim-button","356","675417","0.0-2.0-74.9-1.9","60bd88b8fc436774352f53b9","C3","batch3","","416","tol_toboard","","","","tol_peg_3","416","416","0","[[0,0,0],[3,2],[1]]","10","[[0,0,0],[1,2],[3]]","21","0","","","","","","6","","","","","","","","",""
