"success","timeout","failed_images","failed_audio","failed_video","trial_type","trial_index","time_elapsed","internal_node_id","subject_id","study_id","session_id","view_history","rt","task","stimulus","response","correct","mouse_click","stim_duration","block_duration","timing_post_trial","current_position","tol_num_moves_made","tol_target","tol_problem_id","tol_rt","key_press","possible_responses","tol_correct","preplanning","tol_rt_per_trial","tol_min_moves","item","answer","spm_correct","spm_rt","fiar_detect_rt","fiar_detect_correct","total_correct_fiar_detect","post_trial_gap","choices"
"true","false","[]","[]","[]","preload","0","4851","0.0-0.0","60bd3949b6f6d9c3453e8def","D2","batch4","","","","","","","","","","","","","","","","","","","","","","","","","","","","","",""
"true","","","","","fullscreen","1","29521","0.0-1.0-0.0","60bd3949b6f6d9c3453e8def","D2","batch4","","","","","","","","","","","","","","","","","","","","","","","","","","","","","",""
"true","","","","","fullscreen","2","33797","0.0-2.0-0.0","60bd3949b6f6d9c3453e8def","D2","batch4","","","","","","","","","","","","","","","","","","","","","","","","","","","","","",""
"","","","","","instructions","3","125320","0.0-2.0-1.0-0.0-0.0","60bd3949b6f6d9c3453e8def","D2","batch4","[{""page_index"":0,""viewing_time"":19015.899999976158},{""page_index"":1,""viewing_time"":11392},{""page_index"":2,""viewing_time"":8243.600000023842},{""page_index"":3,""viewing_time"":19942.59999999404},{""page_index"":4,""viewing_time"":7969.5999999940395},{""page_index"":5,""viewing_time"":14937.59999999404},{""page_index"":6,""viewing_time"":10019.5}]","91521.59999999404","tol-instructions","","","","","","","","","","","","","","","","","","","","","","","","","","",""
"","","","","","html-button-response","4","127113","0.0-2.0-1.0-1.0-0.0","60bd3949b6f6d9c3453e8def","D2","batch4","","1787.7999999821186","tol_enter_quiz","<p class=block-text> Let's answer a few questions <br>","0","","","","","","","","","","","","","","","","","","","","","","","","",""
"","","","","","html-button-response","5","130718","0.0-2.0-1.0-1.0-1.0","60bd3949b6f6d9c3453e8def","D2","batch4","","3599.5999999940395","tol_quiz","<p class = block-text>True or False: You can only move the ball on top of a peg. <br></p>","1","false","","","","","","","","","","","","","","","","","","","","","","","",""
"","","","","","html-button-response","6","134029","0.0-2.0-1.0-1.0-2.0","60bd3949b6f6d9c3453e8def","D2","batch4","","3304.9000000059605","tol_quiz_feedback","<p class = block-text>Incorrect. Remember, you can only move the ball on top of a peg.</p>","0","","","","","","","","","","","","","","","","","","","","","","","","",""
"","","","","","html-button-response","7","138728","0.0-2.0-1.0-1.0-3.0","60bd3949b6f6d9c3453e8def","D2","batch4","","4694.5999999940395","tol_quiz","<p class = block-text>True or False: You should try to match your board with the target board with fewest moves possible. <br></p>","0","true","","","","","","","","","","","","","","","","","","","","","","","",""
"","","","","","html-button-response","8","140185","0.0-2.0-1.0-1.0-4.0","60bd3949b6f6d9c3453e8def","D2","batch4","","1452.9000000059605","tol_quiz_feedback","<p class = block-text>Correct! </p>","0","","","","","","","","","","","","","","","","","","","","","","","","",""
"","","","","","html-button-response","9","145881","0.0-2.0-1.0-2.0-0.0","60bd3949b6f6d9c3453e8def","D2","batch4","","5690.199999988079","","<p class = block-text>You made too many incorrect choices.</p><p class = block-text>You will now repeat the instructions and quiz</p>","0","","","","","","","","","","","","","","","","","","","","","","","","",""
"","","","","","instructions","10","199224","0.0-2.0-1.1-0.1-0.1","60bd3949b6f6d9c3453e8def","D2","batch4","[{""page_index"":0,""viewing_time"":8054.200000017881},{""page_index"":1,""viewing_time"":4208.0999999940395},{""page_index"":2,""viewing_time"":4265.199999988079},{""page_index"":3,""viewing_time"":11283.300000011921},{""page_index"":4,""viewing_time"":5254.9000000059605},{""page_index"":5,""viewing_time"":16438.19999998808},{""page_index"":6,""viewing_time"":3828.4000000059605}]","53335.40000000596","tol-instructions","","","","","","","","","","","","","","","","","","","","","","","","","","",""
"","","","","","html-button-response","11","200825","0.0-2.0-1.1-1.1-0.1","60bd3949b6f6d9c3453e8def","D2","batch4","","1595.5","tol_enter_quiz","<p class=block-text> Let's answer a few questions <br>","0","","","","","","","","","","","","","","","","","","","","","","","","",""
"","","","","","html-button-response","12","206023","0.0-2.0-1.1-1.1-1.1","60bd3949b6f6d9c3453e8def","D2","batch4","","5192.899999976158","tol_quiz","<p class = block-text>True or False: You can only move the ball on top of a peg. <br></p>","0","true","","","","","","","","","","","","","","","","","","","","","","","",""
"","","","","","html-button-response","13","207327","0.0-2.0-1.1-1.1-2.1","60bd3949b6f6d9c3453e8def","D2","batch4","","1298.7000000178814","tol_quiz_feedback","<p class = block-text>Correct! You can only move the ball on top of a peg.</p>","0","","","","","","","","","","","","","","","","","","","","","","","","",""
"","","","","","html-button-response","14","211729","0.0-2.0-1.1-1.1-3.1","60bd3949b6f6d9c3453e8def","D2","batch4","","4396.300000011921","tol_quiz","<p class = block-text>True or False: You should try to match your board with the target board with fewest moves possible. <br></p>","0","true","","","","","","","","","","","","","","","","","","","","","","","",""
"","","","","","html-button-response","15","213043","0.0-2.0-1.1-1.1-4.1","60bd3949b6f6d9c3453e8def","D2","batch4","","1310.0999999940395","tol_quiz_feedback","<p class = block-text>Correct! </p>","0","","","","","","","","","","","","","","","","","","","","","","","","",""
"","","","","","html-button-response","16","217739","0.0-2.0-2.0","60bd3949b6f6d9c3453e8def","D2","batch4","","4691.299999982119","","<p class=block-text> Now that you've understood the game, let's practice a few easier examples before we start!<br> <br>","0","","","","","","","","","","","","","","","","","","","","","","","","",""
"","","","","","single-stim-button","17","222270","0.0-2.0-3.0-0.0","60bd3949b6f6d9c3453e8def","D2","batch4","","4523","tol_practice","","","","tol_peg_2","4523","4523","0","[[1,2,0],[0,0],[0]]","1","[[1,2,0],[0,0],[3]]","practice","4523","","","","","","","","","","","","","","",""
"","","","","","single-stim-button","18","224781","0.0-2.0-3.0-1.0","60bd3949b6f6d9c3453e8def","D2","batch4","","2506","tol_practice","","","","tol_peg_3","2506","2506","0","[[1,2,0],[0,0],[3]]","1","[[1,2,0],[0,0],[3]]","practice","2506","","","","","","","","","","","","","","",""
"","","","","","poldrack-single-stim","19","225803","0.0-2.0-4.0","60bd3949b6f6d9c3453e8def","D2","batch4","","-1","tol_feedback","","","true","","1000","1000","500","","","","","","-1","none","true","","0","","","","","","","","","",""
"","","","","","single-stim-button","20","238477","0.0-2.0-5.0-0.0","60bd3949b6f6d9c3453e8def","D2","batch4","","12672","tol_practice","","","","tol_peg_1","12672","12672","0","[[1,0,0],[3,0],[0]]","2","[[0,0,0],[3,1],[2]]","practice","12672","","","","","","","","","","","","","","",""
"","","","","","single-stim-button","21","241044","0.0-2.0-5.0-1.0","60bd3949b6f6d9c3453e8def","D2","batch4","","2563","tol_practice","","","","tol_peg_1","2563","2563","0","[[1,2,0],[3,0],[0]]","2","[[0,0,0],[3,1],[2]]","practice","2563","","","","","","","","","","","","","","",""
"","","","","","single-stim-button","22","242613","0.0-2.0-5.1-0.1","60bd3949b6f6d9c3453e8def","D2","batch4","","1566","tol_practice","","","","tol_peg_1","1566","1566","0","[[1,0,0],[3,0],[0]]","3","[[0,0,0],[3,1],[2]]","practice","1566","","","","","","","","","","","","","","",""
"","","","","","single-stim-button","23","244844","0.0-2.0-5.1-1.1","60bd3949b6f6d9c3453e8def","D2","batch4","","2228","tol_practice","","","","tol_peg_2","2228","2228","0","[[1,0,0],[3,2],[0]]","3","[[0,0,0],[3,1],[2]]","practice","2228","","","","","","","","","","","","","","",""
"","","","","","single-stim-button","24","245924","0.0-2.0-5.2-0.2","60bd3949b6f6d9c3453e8def","D2","batch4","","1077","tol_practice","","","","tol_peg_2","1077","1077","0","[[1,0,0],[3,0],[0]]","4","[[0,0,0],[3,1],[2]]","practice","1077","","","","","","","","","","","","","","",""
"","","","","","single-stim-button","25","248279","0.0-2.0-5.2-1.2","60bd3949b6f6d9c3453e8def","D2","batch4","","2352","tol_practice","","","","tol_peg_1","2352","2352","0","[[1,2,0],[3,0],[0]]","4","[[0,0,0],[3,1],[2]]","practice","2352","","","","","","","","","","","","","","",""
"","","","","","single-stim-button","26","250611","0.0-2.0-5.3-0.3","60bd3949b6f6d9c3453e8def","D2","batch4","","2329","tol_practice","","","","tol_peg_1","2329","2329","0","[[1,0,0],[3,0],[0]]","5","[[0,0,0],[3,1],[2]]","practice","2329","","","","","","","","","","","","","","",""
"","","","","","single-stim-button","27","252811","0.0-2.0-5.3-1.3","60bd3949b6f6d9c3453e8def","D2","batch4","","2197","tol_practice","","","","tol_peg_3","2197","2197","0","[[1,0,0],[3,0],[2]]","5","[[0,0,0],[3,1],[2]]","practice","2197","","","","","","","","","","","","","","",""
"","","","","","single-stim-button","28","254898","0.0-2.0-5.4-0.4","60bd3949b6f6d9c3453e8def","D2","batch4","","2083","tol_practice","","","","tol_peg_1","2083","2083","0","[[0,0,0],[3,0],[2]]","6","[[0,0,0],[3,1],[2]]","practice","2083","","","","","","","","","","","","","","",""
"","","","","","single-stim-button","29","259925","0.0-2.0-5.4-1.4","60bd3949b6f6d9c3453e8def","D2","batch4","","5023","tol_practice","","","","tol_peg_2","5023","5023","0","[[0,0,0],[3,1],[2]]","6","[[0,0,0],[3,1],[2]]","practice","5023","","","","","","","","","","","","","","",""
"","","","","","poldrack-single-stim","30","260944","0.0-2.0-6.0","60bd3949b6f6d9c3453e8def","D2","batch4","","-1","tol_feedback","","","true","","1000","1000","500","","","","","","-1","none","true","","0","","","","","","","","","",""
"","","","","","single-stim-button","31","266545","0.0-2.0-7.0-0.0","60bd3949b6f6d9c3453e8def","D2","batch4","","5597","tol_practice","","","","tol_peg_2","5597","5597","0","[[1,2,0],[0,0],[0]]","7","[[1,0,0],[2,0],[3]]","practice","5597","","","","","","","","","","","","","","",""
"","","","","","single-stim-button","32","268491","0.0-2.0-7.0-1.0","60bd3949b6f6d9c3453e8def","D2","batch4","","1943","tol_practice","","","","tol_peg_3","1943","1943","0","[[1,2,0],[0,0],[3]]","7","[[1,0,0],[2,0],[3]]","practice","1943","","","","","","","","","","","","","","",""
"","","","","","single-stim-button","33","271047","0.0-2.0-7.1-0.1","60bd3949b6f6d9c3453e8def","D2","batch4","","2553","tol_practice","","","","tol_peg_1","2553","2553","0","[[1,0,0],[0,0],[3]]","8","[[1,0,0],[2,0],[3]]","practice","2553","","","","","","","","","","","","","","",""
"","","","","","single-stim-button","34","272657","0.0-2.0-7.1-1.1","60bd3949b6f6d9c3453e8def","D2","batch4","","1606","tol_practice","","","","tol_peg_2","1606","1606","0","[[1,0,0],[2,0],[3]]","8","[[1,0,0],[2,0],[3]]","practice","1606","","","","","","","","","","","","","","",""
"","","","","","poldrack-single-stim","35","273664","0.0-2.0-8.0","60bd3949b6f6d9c3453e8def","D2","batch4","","-1","tol_feedback","","","true","","1000","1000","500","","","","","","-1","none","true","","0","","","","","","","","","",""
"","","","","","html-button-response","36","280797","0.0-2.0-9.0","60bd3949b6f6d9c3453e8def","D2","batch4","","7129.399999976158","tol_instruction","<div class = centerbox><p class = center-block-text>Great job! You are done with practice trials<br>You are about to start official trials.<br> <br> Problem <strong>1</strong> out of 25 problems</p></div>","0","","","","","","","","","","","","","","","","","","","","","","","","",""
"","","","","","single-stim-button","37","288602","0.0-2.0-10.0-0.0","60bd3949b6f6d9c3453e8def","D2","batch4","","6779","tol_tohand","","","","tol_peg_1","6779","6779","0","[[1,0,0],[3,0],[0]]","1","[[1,3,0],[2,0],[0]]","0","0","","","","","","3","","","","","","","","",""
"","","","","","single-stim-button","38","301606","0.0-2.0-10.0-1.0","60bd3949b6f6d9c3453e8def","D2","batch4","","13000","tol_toboard","","","","tol_peg_2","13000","13000","0","[[1,0,0],[3,2],[0]]","1","[[1,3,0],[2,0],[0]]","0","0","","","","","","3","","","","","","","","",""
"","","","","","single-stim-button","39","303155","0.0-2.0-10.1-0.1","60bd3949b6f6d9c3453e8def","D2","batch4","","1546","tol_tohand","","","","tol_peg_2","1546","1546","0","[[1,0,0],[3,0],[0]]","2","[[1,3,0],[2,0],[0]]","0","0","","","","","","3","","","","","","","","",""
"","","","","","single-stim-button","40","306346","0.0-2.0-10.1-1.1","60bd3949b6f6d9c3453e8def","D2","batch4","","3188","tol_toboard","","","","tol_peg_3","3188","3188","0","[[1,0,0],[3,0],[2]]","2","[[1,3,0],[2,0],[0]]","0","0","","","","","","3","","","","","","","","",""
"","","","","","single-stim-button","41","308645","0.0-2.0-10.2-0.2","60bd3949b6f6d9c3453e8def","D2","batch4","","2295","tol_tohand","","","","tol_peg_2","2295","2295","0","[[1,0,0],[0,0],[2]]","3","[[1,3,0],[2,0],[0]]","0","0","","","","","","3","","","","","","","","",""
"","","","","","single-stim-button","42","310908","0.0-2.0-10.2-1.2","60bd3949b6f6d9c3453e8def","D2","batch4","","2260","tol_toboard","","","","tol_peg_1","2260","2260","0","[[1,3,0],[0,0],[2]]","3","[[1,3,0],[2,0],[0]]","0","0","","","","","","3","","","","","","","","",""
"","","","","","single-stim-button","43","313486","0.0-2.0-10.3-0.3","60bd3949b6f6d9c3453e8def","D2","batch4","","2576","tol_tohand","","","","tol_peg_3","2576","2576","0","[[1,3,0],[0,0],[0]]","4","[[1,3,0],[2,0],[0]]","0","0","","","","","","3","","","","","","","","",""
"","","","","","single-stim-button","44","314480","0.0-2.0-10.3-1.3","60bd3949b6f6d9c3453e8def","D2","batch4","","992","tol_toboard","","","","tol_peg_2","992","992","0","[[1,3,0],[2,0],[0]]","4","[[1,3,0],[2,0],[0]]","0","0","","","","","","3","","","","","","","","",""
"","","","","","poldrack-single-stim","45","315490","0.0-2.0-11.0","60bd3949b6f6d9c3453e8def","D2","batch4","","-1","tol_feedback","","","true","","1000","1000","500","","","","","","-1","none","true","6779","13196","","","","","","","","","",""
"","","","","","html-button-response","46","317357","0.0-2.0-12.0","60bd3949b6f6d9c3453e8def","D2","batch4","","1862.4000000059605","tol_trial_num","<div class = centerbox><p class = center-block-text>problem <strong>2</strong> out of 25 problems</p></div>","0","","","","","","","","","","","","","","","","","","","","","","","","",""
"","","","","","single-stim-button","47","324083","0.0-2.0-13.0-0.0","60bd3949b6f6d9c3453e8def","D2","batch4","","6722","tol_tohand","","","","tol_peg_2","6722","6722","0","[[1,2,0],[0,0],[0]]","1","[[2,1,3],[0,0],[0]]","1","0","","","","","","5","","","","","","","","",""
"","","","","","single-stim-button","48","325438","0.0-2.0-13.0-1.0","60bd3949b6f6d9c3453e8def","D2","batch4","","1352","tol_toboard","","","","tol_peg_1","1352","1352","0","[[1,2,3],[0,0],[0]]","1","[[2,1,3],[0,0],[0]]","1","0","","","","","","5","","","","","","","","",""
"","","","","","single-stim-button","49","327617","0.0-2.0-13.1-0.1","60bd3949b6f6d9c3453e8def","D2","batch4","","2176","tol_tohand","","","","tol_peg_1","2176","2176","0","[[1,2,0],[0,0],[0]]","2","[[2,1,3],[0,0],[0]]","1","0","","","","","","5","","","","","","","","",""
"","","","","","single-stim-button","50","332806","0.0-2.0-13.1-1.1","60bd3949b6f6d9c3453e8def","D2","batch4","","5187","tol_toboard","","","","tol_peg_1","5187","5187","0","[[1,2,3],[0,0],[0]]","2","[[2,1,3],[0,0],[0]]","1","0","","","","","","5","","","","","","","","",""
"","","","","","single-stim-button","51","334018","0.0-2.0-13.2-0.2","60bd3949b6f6d9c3453e8def","D2","batch4","","1209","tol_tohand","","","","tol_peg_1","1209","1209","0","[[1,2,0],[0,0],[0]]","3","[[2,1,3],[0,0],[0]]","1","0","","","","","","5","","","","","","","","",""
"","","","","","single-stim-button","52","337789","0.0-2.0-13.2-1.2","60bd3949b6f6d9c3453e8def","D2","batch4","","3768","tol_toboard","","","","tol_peg_3","3768","3768","0","[[1,2,0],[0,0],[3]]","3","[[2,1,3],[0,0],[0]]","1","0","","","","","","5","","","","","","","","",""
"","","","","","single-stim-button","53","339804","0.0-2.0-13.3-0.3","60bd3949b6f6d9c3453e8def","D2","batch4","","2013","tol_tohand","","","","tol_peg_1","2013","2013","0","[[1,0,0],[0,0],[3]]","4","[[2,1,3],[0,0],[0]]","1","0","","","","","","5","","","","","","","","",""
"","","","","","single-stim-button","54","341181","0.0-2.0-13.3-1.3","60bd3949b6f6d9c3453e8def","D2","batch4","","1373","tol_toboard","","","","tol_peg_2","1373","1373","0","[[1,0,0],[2,0],[3]]","4","[[2,1,3],[0,0],[0]]","1","0","","","","","","5","","","","","","","","",""
"","","","","","single-stim-button","55","344501","0.0-2.0-13.4-0.4","60bd3949b6f6d9c3453e8def","D2","batch4","","3318","tol_tohand","","","","tol_peg_1","3318","3318","0","[[0,0,0],[2,0],[3]]","5","[[2,1,3],[0,0],[0]]","1","0","","","","","","5","","","","","","","","",""
"","","","","","single-stim-button","56","351807","0.0-2.0-13.4-1.4","60bd3949b6f6d9c3453e8def","D2","batch4","","7302","tol_toboard","","","","tol_peg_2","7302","7302","0","[[0,0,0],[2,1],[3]]","5","[[2,1,3],[0,0],[0]]","1","0","","","","","","5","","","","","","","","",""
"","","","","","single-stim-button","57","357714","0.0-2.0-13.5-0.5","60bd3949b6f6d9c3453e8def","D2","batch4","","5903","tol_tohand","","","","tol_peg_2","5903","5903","0","[[0,0,0],[2,0],[3]]","6","[[2,1,3],[0,0],[0]]","1","0","","","","","","5","","","","","","","","",""
"","","","","","single-stim-button","58","359836","0.0-2.0-13.5-1.5","60bd3949b6f6d9c3453e8def","D2","batch4","","2119","tol_toboard","","","","tol_peg_1","2119","2119","0","[[1,0,0],[2,0],[3]]","6","[[2,1,3],[0,0],[0]]","1","0","","","","","","5","","","","","","","","",""
"","","","","","single-stim-button","59","361280","0.0-2.0-13.6-0.6","60bd3949b6f6d9c3453e8def","D2","batch4","","1441","tol_tohand","","","","tol_peg_2","1441","1441","0","[[1,0,0],[0,0],[3]]","7","[[2,1,3],[0,0],[0]]","1","0","","","","","","5","","","","","","","","",""
"","","","","","single-stim-button","60","369002","0.0-2.0-13.6-1.6","60bd3949b6f6d9c3453e8def","D2","batch4","","7719","tol_toboard","","","","tol_peg_2","7719","7719","0","[[1,0,0],[2,0],[3]]","7","[[2,1,3],[0,0],[0]]","1","0","","","","","","5","","","","","","","","",""
"","","","","","single-stim-button","61","381423","0.0-2.0-13.7-0.7","60bd3949b6f6d9c3453e8def","D2","batch4","","12414","tol_tohand","","","","tol_peg_1","12414","12414","0","[[0,0,0],[2,0],[3]]","8","[[2,1,3],[0,0],[0]]","1","0","","","","","","5","","","","","","","","",""
"","","","","","single-stim-button","62","383356","0.0-2.0-13.7-1.7","60bd3949b6f6d9c3453e8def","D2","batch4","","1931","tol_toboard","","","","tol_peg_2","1931","1931","0","[[0,0,0],[2,1],[3]]","8","[[2,1,3],[0,0],[0]]","1","0","","","","","","5","","","","","","","","",""
"","","","","","single-stim-button","63","385121","0.0-2.0-13.8-0.8","60bd3949b6f6d9c3453e8def","D2","batch4","","1763","tol_tohand","","","","tol_peg_2","1763","1763","0","[[0,0,0],[2,0],[3]]","9","[[2,1,3],[0,0],[0]]","1","0","","","","","","5","","","","","","","","",""
"","","","","","single-stim-button","64","387658","0.0-2.0-13.8-1.8","60bd3949b6f6d9c3453e8def","D2","batch4","","2535","tol_toboard","","","","tol_peg_2","2535","2535","0","[[0,0,0],[2,1],[3]]","9","[[2,1,3],[0,0],[0]]","1","0","","","","","","5","","","","","","","","",""
"","","","","","single-stim-button","65","398040","0.0-2.0-13.9-0.9","60bd3949b6f6d9c3453e8def","D2","batch4","","10379","tol_tohand","","","","tol_peg_3","10379","10379","0","[[0,0,0],[2,1],[0]]","10","[[2,1,3],[0,0],[0]]","1","0","","","","","","5","","","","","","","","",""
"","","","","","single-stim-button","66","406730","0.0-2.0-13.9-1.9","60bd3949b6f6d9c3453e8def","D2","batch4","","8687","tol_toboard","","","","tol_peg_3","8687","8687","0","[[0,0,0],[2,1],[3]]","10","[[2,1,3],[0,0],[0]]","1","0","","","","","","5","","","","","","","","",""
"","","","","","single-stim-button","67","410277","0.0-2.0-13.10-0.10","60bd3949b6f6d9c3453e8def","D2","batch4","","3543","tol_tohand","","","","tol_peg_2","3543","3543","0","[[0,0,0],[2,0],[3]]","11","[[2,1,3],[0,0],[0]]","1","0","","","","","","5","","","","","","","","",""
"","","","","","single-stim-button","68","412844","0.0-2.0-13.10-1.10","60bd3949b6f6d9c3453e8def","D2","batch4","","2565","tol_toboard","","","","tol_peg_1","2565","2565","0","[[1,0,0],[2,0],[3]]","11","[[2,1,3],[0,0],[0]]","1","0","","","","","","5","","","","","","","","",""
"","","","","","single-stim-button","69","413975","0.0-2.0-13.11-0.11","60bd3949b6f6d9c3453e8def","D2","batch4","","1128","tol_tohand","","","","tol_peg_2","1128","1128","0","[[1,0,0],[0,0],[3]]","12","[[2,1,3],[0,0],[0]]","1","0","","","","","","5","","","","","","","","",""
"","","","","","single-stim-button","70","415194","0.0-2.0-13.11-1.11","60bd3949b6f6d9c3453e8def","D2","batch4","","1218","tol_toboard","","","","tol_peg_1","1218","1218","0","[[1,2,0],[0,0],[3]]","12","[[2,1,3],[0,0],[0]]","1","0","","","","","","5","","","","","","","","",""
"","","","","","single-stim-button","71","421855","0.0-2.0-13.12-0.12","60bd3949b6f6d9c3453e8def","D2","batch4","","6659","tol_tohand","","","","tol_peg_1","6659","6659","0","[[1,0,0],[0,0],[3]]","13","[[2,1,3],[0,0],[0]]","1","0","","","","","","5","","","","","","","","",""
"","","","","","single-stim-button","72","424658","0.0-2.0-13.12-1.12","60bd3949b6f6d9c3453e8def","D2","batch4","","2801","tol_toboard","","","","tol_peg_1","2801","2801","0","[[1,2,0],[0,0],[3]]","13","[[2,1,3],[0,0],[0]]","1","0","","","","","","5","","","","","","","","",""
"","","","","","single-stim-button","73","425930","0.0-2.0-13.13-0.13","60bd3949b6f6d9c3453e8def","D2","batch4","","1269","tol_tohand","","","","tol_peg_1","1269","1269","0","[[1,0,0],[0,0],[3]]","14","[[2,1,3],[0,0],[0]]","1","0","","","","","","5","","","","","","","","",""
"","","","","","single-stim-button","74","432461","0.0-2.0-13.13-1.13","60bd3949b6f6d9c3453e8def","D2","batch4","","6529","tol_toboard","","","","tol_peg_1","6529","6529","0","[[1,2,0],[0,0],[3]]","14","[[2,1,3],[0,0],[0]]","1","0","","","","","","5","","","","","","","","",""
"","","","","","single-stim-button","75","435263","0.0-2.0-13.14-0.14","60bd3949b6f6d9c3453e8def","D2","batch4","","2798","tol_tohand","","","","tol_peg_3","2798","2798","0","[[1,2,0],[0,0],[0]]","15","[[2,1,3],[0,0],[0]]","1","0","","","","","","5","","","","","","","","",""
"","","","","","single-stim-button","76","438249","0.0-2.0-13.14-1.14","60bd3949b6f6d9c3453e8def","D2","batch4","","2983","tol_toboard","","","","tol_peg_2","2983","2983","0","[[1,2,0],[3,0],[0]]","15","[[2,1,3],[0,0],[0]]","1","0","","","","","","5","","","","","","","","",""
"","","","","","single-stim-button","77","443148","0.0-2.0-13.15-0.15","60bd3949b6f6d9c3453e8def","D2","batch4","","4896","tol_tohand","","","","tol_peg_1","4896","4896","0","[[1,0,0],[3,0],[0]]","16","[[2,1,3],[0,0],[0]]","1","0","","","","","","5","","","","","","","","",""
"","","","","","single-stim-button","78","444982","0.0-2.0-13.15-1.15","60bd3949b6f6d9c3453e8def","D2","batch4","","1832","tol_toboard","","","","tol_peg_3","1832","1832","0","[[1,0,0],[3,0],[2]]","16","[[2,1,3],[0,0],[0]]","1","0","","","","","","5","","","","","","","","",""
"","","","","","single-stim-button","79","448264","0.0-2.0-13.16-0.16","60bd3949b6f6d9c3453e8def","D2","batch4","","3278","tol_tohand","","","","tol_peg_1","3278","3278","0","[[0,0,0],[3,0],[2]]","17","[[2,1,3],[0,0],[0]]","1","0","","","","","","5","","","","","","","","",""
"","","","","","single-stim-button","80","456244","0.0-2.0-13.16-1.16","60bd3949b6f6d9c3453e8def","D2","batch4","","7977","tol_toboard","","","","tol_peg_2","7977","7977","0","[[0,0,0],[3,1],[2]]","17","[[2,1,3],[0,0],[0]]","1","0","","","","","","5","","","","","","","","",""
"","","","","","single-stim-button","81","457323","0.0-2.0-13.17-0.17","60bd3949b6f6d9c3453e8def","D2","batch4","","1076","tol_tohand","","","","tol_peg_3","1076","1076","0","[[0,0,0],[3,1],[0]]","18","[[2,1,3],[0,0],[0]]","1","0","","","","","","5","","","","","","","","",""
"","","","","","single-stim-button","82","459524","0.0-2.0-13.17-1.17","60bd3949b6f6d9c3453e8def","D2","batch4","","2198","tol_toboard","","","","tol_peg_1","2198","2198","0","[[2,0,0],[3,1],[0]]","18","[[2,1,3],[0,0],[0]]","1","0","","","","","","5","","","","","","","","",""
"","","","","","single-stim-button","83","462265","0.0-2.0-13.18-0.18","60bd3949b6f6d9c3453e8def","D2","batch4","","2738","tol_tohand","","","","tol_peg_2","2738","2738","0","[[2,0,0],[3,0],[0]]","19","[[2,1,3],[0,0],[0]]","1","0","","","","","","5","","","","","","","","",""
"","","","","","single-stim-button","84","463518","0.0-2.0-13.18-1.18","60bd3949b6f6d9c3453e8def","D2","batch4","","1250","tol_toboard","","","","tol_peg_1","1250","1250","0","[[2,1,0],[3,0],[0]]","19","[[2,1,3],[0,0],[0]]","1","0","","","","","","5","","","","","","","","",""
"","","","","","single-stim-button","85","464842","0.0-2.0-13.19-0.19","60bd3949b6f6d9c3453e8def","D2","batch4","","1320","tol_tohand","","","","tol_peg_2","1320","1320","0","[[2,1,0],[0,0],[0]]","20","[[2,1,3],[0,0],[0]]","1","0","","","","","","5","","","","","","","","",""
"","","","","","single-stim-button","86","466899","0.0-2.0-13.19-1.19","60bd3949b6f6d9c3453e8def","D2","batch4","","2053","tol_toboard","","","","tol_peg_1","2053","2053","0","[[2,1,3],[0,0],[0]]","20","[[2,1,3],[0,0],[0]]","1","0","","","","","","5","","","","","","","","",""
"","","","","","poldrack-single-stim","87","467917","0.0-2.0-14.0","60bd3949b6f6d9c3453e8def","D2","batch4","","-1","tol_feedback","","","true","","1000","1000","500","","","","","","-1","none","true","6722","76043","","","","","","","","","",""
"","","","","","html-button-response","88","469746","0.0-2.0-15.0","60bd3949b6f6d9c3453e8def","D2","batch4","","1826.2999999821186","tol_trial_num","<div class = centerbox><p class = center-block-text>problem <strong>3</strong> out of 25 problems</p></div>","0","","","","","","","","","","","","","","","","","","","","","","","","",""
"","","","","","single-stim-button","89","478908","0.0-2.0-16.0-0.0","60bd3949b6f6d9c3453e8def","D2","batch4","","9157","tol_tohand","","","","tol_peg_1","9157","9157","0","[[2,0,0],[0,0],[1]]","1","[[1,2,0],[3,0],[0]]","2","0","","","","","","4","","","","","","","","",""
"","","","","","single-stim-button","90","481104","0.0-2.0-16.0-1.0","60bd3949b6f6d9c3453e8def","D2","batch4","","2193","tol_toboard","","","","tol_peg_2","2193","2193","0","[[2,0,0],[3,0],[1]]","1","[[1,2,0],[3,0],[0]]","2","0","","","","","","4","","","","","","","","",""
"","","","","","single-stim-button","91","484907","0.0-2.0-16.1-0.1","60bd3949b6f6d9c3453e8def","D2","batch4","","3800","tol_tohand","","","","tol_peg_1","3800","3800","0","[[0,0,0],[3,0],[1]]","2","[[1,2,0],[3,0],[0]]","2","0","","","","","","4","","","","","","","","",""
"","","","","","single-stim-button","92","487616","0.0-2.0-16.1-1.1","60bd3949b6f6d9c3453e8def","D2","batch4","","2707","tol_toboard","","","","tol_peg_2","2707","2707","0","[[0,0,0],[3,2],[1]]","2","[[1,2,0],[3,0],[0]]","2","0","","","","","","4","","","","","","","","",""
"","","","","","single-stim-button","93","488521","0.0-2.0-16.2-0.2","60bd3949b6f6d9c3453e8def","D2","batch4","","902","tol_tohand","","","","tol_peg_3","902","902","0","[[0,0,0],[3,2],[0]]","3","[[1,2,0],[3,0],[0]]","2","0","","","","","","4","","","","","","","","",""
"","","","","","single-stim-button","94","490877","0.0-2.0-16.2-1.2","60bd3949b6f6d9c3453e8def","D2","batch4","","2354","tol_toboard","","","","tol_peg_1","2354","2354","0","[[1,0,0],[3,2],[0]]","3","[[1,2,0],[3,0],[0]]","2","0","","","","","","4","","","","","","","","",""
"","","","","","single-stim-button","95","492079","0.0-2.0-16.3-0.3","60bd3949b6f6d9c3453e8def","D2","batch4","","1200","tol_tohand","","","","tol_peg_2","1200","1200","0","[[1,0,0],[3,0],[0]]","4","[[1,2,0],[3,0],[0]]","2","0","","","","","","4","","","","","","","","",""
"","","","","","single-stim-button","96","493261","0.0-2.0-16.3-1.3","60bd3949b6f6d9c3453e8def","D2","batch4","","1179","tol_toboard","","","","tol_peg_1","1179","1179","0","[[1,2,0],[3,0],[0]]","4","[[1,2,0],[3,0],[0]]","2","0","","","","","","4","","","","","","","","",""
"","","","","","poldrack-single-stim","97","494265","0.0-2.0-17.0","60bd3949b6f6d9c3453e8def","D2","batch4","","-1","tol_feedback","","","true","","1000","1000","500","","","","","","-1","none","true","9157","15059","","","","","","","","","",""
"","","","","","html-button-response","98","495665","0.0-2.0-18.0","60bd3949b6f6d9c3453e8def","D2","batch4","","1397","tol_trial_num","<div class = centerbox><p class = center-block-text>problem <strong>4</strong> out of 25 problems</p></div>","0","","","","","","","","","","","","","","","","","","","","","","","","",""
"","","","","","single-stim-button","99","502014","0.0-2.0-19.0-0.0","60bd3949b6f6d9c3453e8def","D2","batch4","","6345","tol_tohand","","","","tol_peg_2","6345","6345","0","[[3,0,0],[2,0],[0]]","1","[[3,0,0],[1,0],[2]]","3","0","","","","","","3","","","","","","","","",""
"","","","","","single-stim-button","100","503582","0.0-2.0-19.0-1.0","60bd3949b6f6d9c3453e8def","D2","batch4","","1566","tol_toboard","","","","tol_peg_3","1566","1566","0","[[3,0,0],[2,0],[1]]","1","[[3,0,0],[1,0],[2]]","3","0","","","","","","3","","","","","","","","",""
"","","","","","single-stim-button","101","516177","0.0-2.0-19.1-0.1","60bd3949b6f6d9c3453e8def","D2","batch4","","12592","tol_tohand","","","","tol_peg_3","12592","12592","0","[[3,0,0],[2,0],[0]]","2","[[3,0,0],[1,0],[2]]","3","0","","","","","","3","","","","","","","","",""
"","","","","","single-stim-button","102","519742","0.0-2.0-19.1-1.1","60bd3949b6f6d9c3453e8def","D2","batch4","","3563","tol_toboard","","","","tol_peg_1","3563","3563","0","[[3,1,0],[2,0],[0]]","2","[[3,0,0],[1,0],[2]]","3","0","","","","","","3","","","","","","","","",""
"","","","","","single-stim-button","103","521251","0.0-2.0-19.2-0.2","60bd3949b6f6d9c3453e8def","D2","batch4","","1505","tol_tohand","","","","tol_peg_2","1505","1505","0","[[3,1,0],[0,0],[0]]","3","[[3,0,0],[1,0],[2]]","3","0","","","","","","3","","","","","","","","",""
"","","","","","single-stim-button","104","522473","0.0-2.0-19.2-1.2","60bd3949b6f6d9c3453e8def","D2","batch4","","1219","tol_toboard","","","","tol_peg_3","1219","1219","0","[[3,1,0],[0,0],[2]]","3","[[3,0,0],[1,0],[2]]","3","0","","","","","","3","","","","","","","","",""
"","","","","","single-stim-button","105","525083","0.0-2.0-19.3-0.3","60bd3949b6f6d9c3453e8def","D2","batch4","","2607","tol_tohand","","","","tol_peg_1","2607","2607","0","[[3,0,0],[0,0],[2]]","4","[[3,0,0],[1,0],[2]]","3","0","","","","","","3","","","","","","","","",""
"","","","","","single-stim-button","106","526354","0.0-2.0-19.3-1.3","60bd3949b6f6d9c3453e8def","D2","batch4","","1269","tol_toboard","","","","tol_peg_2","1269","1269","0","[[3,0,0],[1,0],[2]]","4","[[3,0,0],[1,0],[2]]","3","0","","","","","","3","","","","","","","","",""
"","","","","","poldrack-single-stim","107","527379","0.0-2.0-20.0","60bd3949b6f6d9c3453e8def","D2","batch4","","-1","tol_feedback","","","true","","1000","1000","500","","","","","","-1","none","true","6345","23049","","","","","","","","","",""
"","","","","","html-button-response","108","528747","0.0-2.0-21.0","60bd3949b6f6d9c3453e8def","D2","batch4","","1365.800000011921","tol_trial_num","<div class = centerbox><p class = center-block-text>problem <strong>5</strong> out of 25 problems</p></div>","0","","","","","","","","","","","","","","","","","","","","","","","","",""
"","","","","","single-stim-button","109","532977","0.0-2.0-22.0-0.0","60bd3949b6f6d9c3453e8def","D2","batch4","","4228","tol_tohand","","","","tol_peg_2","4228","4228","0","[[1,0,0],[0,0],[3]]","1","[[0,0,0],[1,2],[3]]","4","0","","","","","","7","","","","","","","","",""
"","","","","","single-stim-button","110","535048","0.0-2.0-22.0-1.0","60bd3949b6f6d9c3453e8def","D2","batch4","","2067","tol_toboard","","","","tol_peg_1","2067","2067","0","[[1,2,0],[0,0],[3]]","1","[[0,0,0],[1,2],[3]]","4","0","","","","","","7","","","","","","","","",""
"","","","","","single-stim-button","111","557695","0.0-2.0-22.1-0.1","60bd3949b6f6d9c3453e8def","D2","batch4","","22644","tol_tohand","","","","tol_peg_1","22644","22644","0","[[1,0,0],[0,0],[3]]","2","[[0,0,0],[1,2],[3]]","4","0","","","","","","7","","","","","","","","",""
"","","","","","single-stim-button","112","565804","0.0-2.0-22.1-1.1","60bd3949b6f6d9c3453e8def","D2","batch4","","8105","tol_toboard","","","","tol_peg_2","8105","8105","0","[[1,0,0],[2,0],[3]]","2","[[0,0,0],[1,2],[3]]","4","0","","","","","","7","","","","","","","","",""
"","","","","","single-stim-button","113","567536","0.0-2.0-22.2-0.2","60bd3949b6f6d9c3453e8def","D2","batch4","","1728","tol_tohand","","","","tol_peg_1","1728","1728","0","[[0,0,0],[2,0],[3]]","3","[[0,0,0],[1,2],[3]]","4","0","","","","","","7","","","","","","","","",""
"","","","","","single-stim-button","114","573363","0.0-2.0-22.2-1.2","60bd3949b6f6d9c3453e8def","D2","batch4","","5824","tol_toboard","","","","tol_peg_2","5824","5824","0","[[0,0,0],[2,1],[3]]","3","[[0,0,0],[1,2],[3]]","4","0","","","","","","7","","","","","","","","",""
"","","","","","single-stim-button","115","576470","0.0-2.0-22.3-0.3","60bd3949b6f6d9c3453e8def","D2","batch4","","3105","tol_tohand","","","","tol_peg_3","3105","3105","0","[[0,0,0],[2,1],[0]]","4","[[0,0,0],[1,2],[3]]","4","0","","","","","","7","","","","","","","","",""
"","","","","","single-stim-button","116","598456","0.0-2.0-22.3-1.3","60bd3949b6f6d9c3453e8def","D2","batch4","","21984","tol_toboard","","","","tol_peg_3","21984","21984","0","[[0,0,0],[2,1],[3]]","4","[[0,0,0],[1,2],[3]]","4","0","","","","","","7","","","","","","","","",""
"","","","","","single-stim-button","117","599715","0.0-2.0-22.4-0.4","60bd3949b6f6d9c3453e8def","D2","batch4","","1255","tol_tohand","","","","tol_peg_2","1255","1255","0","[[0,0,0],[2,0],[3]]","5","[[0,0,0],[1,2],[3]]","4","0","","","","","","7","","","","","","","","",""
"","","","","","single-stim-button","118","601320","0.0-2.0-22.4-1.4","60bd3949b6f6d9c3453e8def","D2","batch4","","1603","tol_toboard","","","","tol_peg_1","1603","1603","0","[[1,0,0],[2,0],[3]]","5","[[0,0,0],[1,2],[3]]","4","0","","","","","","7","","","","","","","","",""
"","","","","","single-stim-button","119","609151","0.0-2.0-22.5-0.5","60bd3949b6f6d9c3453e8def","D2","batch4","","7828","tol_tohand","","","","tol_peg_2","7828","7828","0","[[1,0,0],[0,0],[3]]","6","[[0,0,0],[1,2],[3]]","4","0","","","","","","7","","","","","","","","",""
"","","","","","single-stim-button","120","611709","0.0-2.0-22.5-1.5","60bd3949b6f6d9c3453e8def","D2","batch4","","2555","tol_toboard","","","","tol_peg_1","2555","2555","0","[[1,2,0],[0,0],[3]]","6","[[0,0,0],[1,2],[3]]","4","0","","","","","","7","","","","","","","","",""
"","","","","","single-stim-button","121","616958","0.0-2.0-22.6-0.6","60bd3949b6f6d9c3453e8def","D2","batch4","","5246","tol_tohand","","","","tol_peg_3","5246","5246","0","[[1,2,0],[0,0],[0]]","7","[[0,0,0],[1,2],[3]]","4","0","","","","","","7","","","","","","","","",""
"","","","","","single-stim-button","122","618382","0.0-2.0-22.6-1.6","60bd3949b6f6d9c3453e8def","D2","batch4","","1420","tol_toboard","","","","tol_peg_2","1420","1420","0","[[1,2,0],[3,0],[0]]","7","[[0,0,0],[1,2],[3]]","4","0","","","","","","7","","","","","","","","",""
"","","","","","single-stim-button","123","628766","0.0-2.0-22.7-0.7","60bd3949b6f6d9c3453e8def","D2","batch4","","10381","tol_tohand","","","","tol_peg_1","10381","10381","0","[[1,0,0],[3,0],[0]]","8","[[0,0,0],[1,2],[3]]","4","0","","","","","","7","","","","","","","","",""
"","","","","","single-stim-button","124","632488","0.0-2.0-22.7-1.7","60bd3949b6f6d9c3453e8def","D2","batch4","","3720","tol_toboard","","","","tol_peg_3","3720","3720","0","[[1,0,0],[3,0],[2]]","8","[[0,0,0],[1,2],[3]]","4","0","","","","","","7","","","","","","","","",""
"","","","","","single-stim-button","125","637679","0.0-2.0-22.8-0.8","60bd3949b6f6d9c3453e8def","D2","batch4","","5188","tol_tohand","","","","tol_peg_2","5188","5188","0","[[1,0,0],[0,0],[2]]","9","[[0,0,0],[1,2],[3]]","4","0","","","","","","7","","","","","","","","",""
"","","","","","single-stim-button","126","641405","0.0-2.0-22.8-1.8","60bd3949b6f6d9c3453e8def","D2","batch4","","3724","tol_toboard","","","","tol_peg_1","3724","3724","0","[[1,3,0],[0,0],[2]]","9","[[0,0,0],[1,2],[3]]","4","0","","","","","","7","","","","","","","","",""
"","","","","","single-stim-button","127","643058","0.0-2.0-22.9-0.9","60bd3949b6f6d9c3453e8def","D2","batch4","","1649","tol_tohand","","","","tol_peg_1","1649","1649","0","[[1,0,0],[0,0],[2]]","10","[[0,0,0],[1,2],[3]]","4","0","","","","","","7","","","","","","","","",""
"","","","","","single-stim-button","128","647213","0.0-2.0-22.9-1.9","60bd3949b6f6d9c3453e8def","D2","batch4","","4152","tol_toboard","","","","tol_peg_1","4152","4152","0","[[1,3,0],[0,0],[2]]","10","[[0,0,0],[1,2],[3]]","4","0","","","","","","7","","","","","","","","",""
"","","","","","single-stim-button","129","651020","0.0-2.0-22.10-0.10","60bd3949b6f6d9c3453e8def","D2","batch4","","3804","tol_tohand","","","","tol_peg_3","3804","3804","0","[[1,3,0],[0,0],[0]]","11","[[0,0,0],[1,2],[3]]","4","0","","","","","","7","","","","","","","","",""
"","","","","","single-stim-button","130","653510","0.0-2.0-22.10-1.10","60bd3949b6f6d9c3453e8def","D2","batch4","","2487","tol_toboard","","","","tol_peg_2","2487","2487","0","[[1,3,0],[2,0],[0]]","11","[[0,0,0],[1,2],[3]]","4","0","","","","","","7","","","","","","","","",""
"","","","","","single-stim-button","131","655714","0.0-2.0-22.11-0.11","60bd3949b6f6d9c3453e8def","D2","batch4","","2201","tol_tohand","","","","tol_peg_1","2201","2201","0","[[1,0,0],[2,0],[0]]","12","[[0,0,0],[1,2],[3]]","4","0","","","","","","7","","","","","","","","",""
"","","","","","single-stim-button","132","672115","0.0-2.0-22.11-1.11","60bd3949b6f6d9c3453e8def","D2","batch4","","16398","tol_toboard","","","","tol_peg_3","16398","16398","0","[[1,0,0],[2,0],[3]]","12","[[0,0,0],[1,2],[3]]","4","0","","","","","","7","","","","","","","","",""
"","","","","","single-stim-button","133","676863","0.0-2.0-22.12-0.12","60bd3949b6f6d9c3453e8def","D2","batch4","","4744","tol_tohand","","","","tol_peg_2","4744","4744","0","[[1,0,0],[0,0],[3]]","13","[[0,0,0],[1,2],[3]]","4","0","","","","","","7","","","","","","","","",""
"","","","","","single-stim-button","134","685556","0.0-2.0-22.12-1.12","60bd3949b6f6d9c3453e8def","D2","batch4","","8689","tol_toboard","","","","tol_peg_2","8689","8689","0","[[1,0,0],[2,0],[3]]","13","[[0,0,0],[1,2],[3]]","4","0","","","","","","7","","","","","","","","",""
"","","","","","single-stim-button","135","686918","0.0-2.0-22.13-0.13","60bd3949b6f6d9c3453e8def","D2","batch4","","1359","tol_tohand","","","","tol_peg_1","1359","1359","0","[[0,0,0],[2,0],[3]]","14","[[0,0,0],[1,2],[3]]","4","0","","","","","","7","","","","","","","","",""
"","","","","","single-stim-button","136","690831","0.0-2.0-22.13-1.13","60bd3949b6f6d9c3453e8def","D2","batch4","","3910","tol_toboard","","","","tol_peg_2","3910","3910","0","[[0,0,0],[2,1],[3]]","14","[[0,0,0],[1,2],[3]]","4","0","","","","","","7","","","","","","","","",""
"","","","","","single-stim-button","137","691717","0.0-2.0-22.14-0.14","60bd3949b6f6d9c3453e8def","D2","batch4","","882","tol_tohand","","","","tol_peg_3","882","882","0","[[0,0,0],[2,1],[0]]","15","[[0,0,0],[1,2],[3]]","4","0","","","","","","7","","","","","","","","",""
"","","","","","single-stim-button","138","693399","0.0-2.0-22.14-1.14","60bd3949b6f6d9c3453e8def","D2","batch4","","1678","tol_toboard","","","","tol_peg_1","1678","1678","0","[[3,0,0],[2,1],[0]]","15","[[0,0,0],[1,2],[3]]","4","0","","","","","","7","","","","","","","","",""
"","","","","","single-stim-button","139","721534","0.0-2.0-22.15-0.15","60bd3949b6f6d9c3453e8def","D2","batch4","","28132","tol_tohand","","","","tol_peg_2","28132","28132","0","[[3,0,0],[2,0],[0]]","16","[[0,0,0],[1,2],[3]]","4","0","","","","","","7","","","","","","","","",""
"","","","","","single-stim-button","140","723593","0.0-2.0-22.15-1.15","60bd3949b6f6d9c3453e8def","D2","batch4","","2056","tol_toboard","","","","tol_peg_3","2056","2056","0","[[3,0,0],[2,0],[1]]","16","[[0,0,0],[1,2],[3]]","4","0","","","","","","7","","","","","","","","",""
"","","","","","single-stim-button","141","730663","0.0-2.0-22.16-0.16","60bd3949b6f6d9c3453e8def","D2","batch4","","7068","tol_tohand","","","","tol_peg_2","7068","7068","0","[[3,0,0],[0,0],[1]]","17","[[0,0,0],[1,2],[3]]","4","0","","","","","","7","","","","","","","","",""
"","","","","","single-stim-button","142","733089","0.0-2.0-22.16-1.16","60bd3949b6f6d9c3453e8def","D2","batch4","","2423","tol_toboard","","","","tol_peg_1","2423","2423","0","[[3,2,0],[0,0],[1]]","17","[[0,0,0],[1,2],[3]]","4","0","","","","","","7","","","","","","","","",""
"","","","","","single-stim-button","143","734850","0.0-2.0-22.17-0.17","60bd3949b6f6d9c3453e8def","D2","batch4","","1759","tol_tohand","","","","tol_peg_3","1759","1759","0","[[3,2,0],[0,0],[0]]","18","[[0,0,0],[1,2],[3]]","4","0","","","","","","7","","","","","","","","",""
"","","","","","single-stim-button","144","736175","0.0-2.0-22.17-1.17","60bd3949b6f6d9c3453e8def","D2","batch4","","1322","tol_toboard","","","","tol_peg_2","1322","1322","0","[[3,2,0],[1,0],[0]]","18","[[0,0,0],[1,2],[3]]","4","0","","","","","","7","","","","","","","","",""
"","","","","","single-stim-button","145","737723","0.0-2.0-22.18-0.18","60bd3949b6f6d9c3453e8def","D2","batch4","","1546","tol_tohand","","","","tol_peg_1","1546","1546","0","[[3,0,0],[1,0],[0]]","19","[[0,0,0],[1,2],[3]]","4","0","","","","","","7","","","","","","","","",""
"","","","","","single-stim-button","146","739261","0.0-2.0-22.18-1.18","60bd3949b6f6d9c3453e8def","D2","batch4","","1536","tol_toboard","","","","tol_peg_2","1536","1536","0","[[3,0,0],[1,2],[0]]","19","[[0,0,0],[1,2],[3]]","4","0","","","","","","7","","","","","","","","",""
"","","","","","single-stim-button","147","740291","0.0-2.0-22.19-0.19","60bd3949b6f6d9c3453e8def","D2","batch4","","1027","tol_tohand","","","","tol_peg_1","1027","1027","0","[[0,0,0],[1,2],[0]]","20","[[0,0,0],[1,2],[3]]","4","0","","","","","","7","","","","","","","","",""
"","","","","","single-stim-button","148","741452","0.0-2.0-22.19-1.19","60bd3949b6f6d9c3453e8def","D2","batch4","","1158","tol_toboard","","","","tol_peg_3","1158","1158","0","[[0,0,0],[1,2],[3]]","20","[[0,0,0],[1,2],[3]]","4","0","","","","","","7","","","","","","","","",""
"","","","","","poldrack-single-stim","149","742455","0.0-2.0-23.0","60bd3949b6f6d9c3453e8def","D2","batch4","","-1","tol_feedback","","","true","","1000","1000","500","","","","","","-1","none","true","4228","115774","","","","","","","","","",""
"","","","","","html-button-response","150","743998","0.0-2.0-24.0","60bd3949b6f6d9c3453e8def","D2","batch4","","1540.5","tol_trial_num","<div class = centerbox><p class = center-block-text>problem <strong>6</strong> out of 25 problems</p></div>","0","","","","","","","","","","","","","","","","","","","","","","","","",""
"","","","","","single-stim-button","151","754106","0.0-2.0-25.0-0.0","60bd3949b6f6d9c3453e8def","D2","batch4","","10104","tol_tohand","","","","tol_peg_3","10104","10104","0","[[0,0,0],[1,2],[0]]","1","[[1,0,0],[2,3],[0]]","5","0","","","","","","6","","","","","","","","",""
"","","","","","single-stim-button","152","757335","0.0-2.0-25.0-1.0","60bd3949b6f6d9c3453e8def","D2","batch4","","3227","tol_toboard","","","","tol_peg_1","3227","3227","0","[[3,0,0],[1,2],[0]]","1","[[1,0,0],[2,3],[0]]","5","0","","","","","","6","","","","","","","","",""
"","","","","","single-stim-button","153","758334","0.0-2.0-25.1-0.1","60bd3949b6f6d9c3453e8def","D2","batch4","","996","tol_tohand","","","","tol_peg_2","996","996","0","[[3,0,0],[1,0],[0]]","2","[[1,0,0],[2,3],[0]]","5","0","","","","","","6","","","","","","","","",""
"","","","","","single-stim-button","154","760258","0.0-2.0-25.1-1.1","60bd3949b6f6d9c3453e8def","D2","batch4","","1921","tol_toboard","","","","tol_peg_3","1921","1921","0","[[3,0,0],[1,0],[2]]","2","[[1,0,0],[2,3],[0]]","5","0","","","","","","6","","","","","","","","",""
"","","","","","single-stim-button","155","774961","0.0-2.0-25.2-0.2","60bd3949b6f6d9c3453e8def","D2","batch4","","14700","tol_tohand","","","","tol_peg_1","14700","14700","0","[[0,0,0],[1,0],[2]]","3","[[1,0,0],[2,3],[0]]","5","0","","","","","","6","","","","","","","","",""
"","","","","","single-stim-button","156","784768","0.0-2.0-25.2-1.2","60bd3949b6f6d9c3453e8def","D2","batch4","","9803","tol_toboard","","","","tol_peg_2","9803","9803","0","[[0,0,0],[1,3],[2]]","3","[[1,0,0],[2,3],[0]]","5","0","","","","","","6","","","","","","","","",""
"","","","","","single-stim-button","157","787546","0.0-2.0-25.3-0.3","60bd3949b6f6d9c3453e8def","D2","batch4","","2774","tol_tohand","","","","tol_peg_3","2774","2774","0","[[0,0,0],[1,3],[0]]","4","[[1,0,0],[2,3],[0]]","5","0","","","","","","6","","","","","","","","",""
"","","","","","single-stim-button","158","787668","0.0-2.0-25.3-1.3","60bd3949b6f6d9c3453e8def","D2","batch4","","118","tol_toboard","","","","tol_peg_3","118","118","0","[[0,0,0],[1,3],[2]]","4","[[1,0,0],[2,3],[0]]","5","0","","","","","","6","","","","","","","","",""
"","","","","","single-stim-button","159","788524","0.0-2.0-25.4-0.4","60bd3949b6f6d9c3453e8def","D2","batch4","","852","tol_tohand","","","","tol_peg_3","852","852","0","[[0,0,0],[1,3],[0]]","5","[[1,0,0],[2,3],[0]]","5","0","","","","","","6","","","","","","","","",""
"","","","","","single-stim-button","160","790070","0.0-2.0-25.4-1.4","60bd3949b6f6d9c3453e8def","D2","batch4","","1543","tol_toboard","","","","tol_peg_1","1543","1543","0","[[2,0,0],[1,3],[0]]","5","[[1,0,0],[2,3],[0]]","5","0","","","","","","6","","","","","","","","",""
"","","","","","single-stim-button","161","793221","0.0-2.0-25.5-0.5","60bd3949b6f6d9c3453e8def","D2","batch4","","3148","tol_tohand","","","","tol_peg_2","3148","3148","0","[[2,0,0],[1,0],[0]]","6","[[1,0,0],[2,3],[0]]","5","0","","","","","","6","","","","","","","","",""
"","","","","","single-stim-button","162","794604","0.0-2.0-25.5-1.5","60bd3949b6f6d9c3453e8def","D2","batch4","","1379","tol_toboard","","","","tol_peg_3","1379","1379","0","[[2,0,0],[1,0],[3]]","6","[[1,0,0],[2,3],[0]]","5","0","","","","","","6","","","","","","","","",""
"","","","","","single-stim-button","163","809765","0.0-2.0-25.6-0.6","60bd3949b6f6d9c3453e8def","D2","batch4","","15159","tol_tohand","","","","tol_peg_3","15159","15159","0","[[2,0,0],[1,0],[0]]","7","[[1,0,0],[2,3],[0]]","5","0","","","","","","6","","","","","","","","",""
"","","","","","single-stim-button","164","817041","0.0-2.0-25.6-1.6","60bd3949b6f6d9c3453e8def","D2","batch4","","7272","tol_toboard","","","","tol_peg_1","7272","7272","0","[[2,3,0],[1,0],[0]]","7","[[1,0,0],[2,3],[0]]","5","0","","","","","","6","","","","","","","","",""
"","","","","","single-stim-button","165","817855","0.0-2.0-25.7-0.7","60bd3949b6f6d9c3453e8def","D2","batch4","","811","tol_tohand","","","","tol_peg_2","811","811","0","[[2,3,0],[0,0],[0]]","8","[[1,0,0],[2,3],[0]]","5","0","","","","","","6","","","","","","","","",""
"","","","","","single-stim-button","166","818792","0.0-2.0-25.7-1.7","60bd3949b6f6d9c3453e8def","D2","batch4","","934","tol_toboard","","","","tol_peg_3","934","934","0","[[2,3,0],[0,0],[1]]","8","[[1,0,0],[2,3],[0]]","5","0","","","","","","6","","","","","","","","",""
"","","","","","single-stim-button","167","830132","0.0-2.0-25.8-0.8","60bd3949b6f6d9c3453e8def","D2","batch4","","11338","tol_tohand","","","","tol_peg_3","11338","11338","0","[[2,3,0],[0,0],[0]]","9","[[1,0,0],[2,3],[0]]","5","0","","","","","","6","","","","","","","","",""
"","","","","","single-stim-button","168","832200","0.0-2.0-25.8-1.8","60bd3949b6f6d9c3453e8def","D2","batch4","","2066","tol_toboard","","","","tol_peg_2","2066","2066","0","[[2,3,0],[1,0],[0]]","9","[[1,0,0],[2,3],[0]]","5","0","","","","","","6","","","","","","","","",""
"","","","","","single-stim-button","169","833881","0.0-2.0-25.9-0.9","60bd3949b6f6d9c3453e8def","D2","batch4","","1679","tol_tohand","","","","tol_peg_1","1679","1679","0","[[2,0,0],[1,0],[0]]","10","[[1,0,0],[2,3],[0]]","5","0","","","","","","6","","","","","","","","",""
"","","","","","single-stim-button","170","837243","0.0-2.0-25.9-1.9","60bd3949b6f6d9c3453e8def","D2","batch4","","3360","tol_toboard","","","","tol_peg_3","3360","3360","0","[[2,0,0],[1,0],[3]]","10","[[1,0,0],[2,3],[0]]","5","0","","","","","","6","","","","","","","","",""
"","","","","","single-stim-button","171","839260","0.0-2.0-25.10-0.10","60bd3949b6f6d9c3453e8def","D2","batch4","","2014","tol_tohand","","","","tol_peg_1","2014","2014","0","[[0,0,0],[1,0],[3]]","11","[[1,0,0],[2,3],[0]]","5","0","","","","","","6","","","","","","","","",""
"","","","","","single-stim-button","172","843240","0.0-2.0-25.10-1.10","60bd3949b6f6d9c3453e8def","D2","batch4","","3977","tol_toboard","","","","tol_peg_2","3977","3977","0","[[0,0,0],[1,2],[3]]","11","[[1,0,0],[2,3],[0]]","5","0","","","","","","6","","","","","","","","",""
"","","","","","single-stim-button","173","853296","0.0-2.0-25.11-0.11","60bd3949b6f6d9c3453e8def","D2","batch4","","10053","tol_tohand","","","","tol_peg_2","10053","10053","0","[[0,0,0],[1,0],[3]]","12","[[1,0,0],[2,3],[0]]","5","0","","","","","","6","","","","","","","","",""
"","","","","","single-stim-button","174","855731","0.0-2.0-25.11-1.11","60bd3949b6f6d9c3453e8def","D2","batch4","","2432","tol_toboard","","","","tol_peg_1","2432","2432","0","[[2,0,0],[1,0],[3]]","12","[[1,0,0],[2,3],[0]]","5","0","","","","","","6","","","","","","","","",""
"","","","","","single-stim-button","175","862516","0.0-2.0-25.12-0.12","60bd3949b6f6d9c3453e8def","D2","batch4","","6782","tol_tohand","","","","tol_peg_3","6782","6782","0","[[2,0,0],[1,0],[0]]","13","[[1,0,0],[2,3],[0]]","5","0","","","","","","6","","","","","","","","",""
"","","","","","single-stim-button","176","863810","0.0-2.0-25.12-1.12","60bd3949b6f6d9c3453e8def","D2","batch4","","1291","tol_toboard","","","","tol_peg_1","1291","1291","0","[[2,3,0],[1,0],[0]]","13","[[1,0,0],[2,3],[0]]","5","0","","","","","","6","","","","","","","","",""
"","","","","","single-stim-button","177","864799","0.0-2.0-25.13-0.13","60bd3949b6f6d9c3453e8def","D2","batch4","","986","tol_tohand","","","","tol_peg_2","986","986","0","[[2,3,0],[0,0],[0]]","14","[[1,0,0],[2,3],[0]]","5","0","","","","","","6","","","","","","","","",""
"","","","","","single-stim-button","178","867283","0.0-2.0-25.13-1.13","60bd3949b6f6d9c3453e8def","D2","batch4","","2481","tol_toboard","","","","tol_peg_3","2481","2481","0","[[2,3,0],[0,0],[1]]","14","[[1,0,0],[2,3],[0]]","5","0","","","","","","6","","","","","","","","",""
"","","","","","single-stim-button","179","870228","0.0-2.0-25.14-0.14","60bd3949b6f6d9c3453e8def","D2","batch4","","2942","tol_tohand","","","","tol_peg_1","2942","2942","0","[[2,0,0],[0,0],[1]]","15","[[1,0,0],[2,3],[0]]","5","0","","","","","","6","","","","","","","","",""
"","","","","","single-stim-button","180","873692","0.0-2.0-25.14-1.14","60bd3949b6f6d9c3453e8def","D2","batch4","","3462","tol_toboard","","","","tol_peg_2","3462","3462","0","[[2,0,0],[3,0],[1]]","15","[[1,0,0],[2,3],[0]]","5","0","","","","","","6","","","","","","","","",""
"","","","","","single-stim-button","181","877132","0.0-2.0-25.15-0.15","60bd3949b6f6d9c3453e8def","D2","batch4","","3437","tol_tohand","","","","tol_peg_3","3437","3437","0","[[2,0,0],[3,0],[0]]","16","[[1,0,0],[2,3],[0]]","5","0","","","","","","6","","","","","","","","",""
"","","","","","single-stim-button","182","881160","0.0-2.0-25.15-1.15","60bd3949b6f6d9c3453e8def","D2","batch4","","4025","tol_toboard","","","","tol_peg_2","4025","4025","0","[[2,0,0],[3,1],[0]]","16","[[1,0,0],[2,3],[0]]","5","0","","","","","","6","","","","","","","","",""
"","","","","","single-stim-button","183","882362","0.0-2.0-25.16-0.16","60bd3949b6f6d9c3453e8def","D2","batch4","","1198","tol_tohand","","","","tol_peg_1","1198","1198","0","[[0,0,0],[3,1],[0]]","17","[[1,0,0],[2,3],[0]]","5","0","","","","","","6","","","","","","","","",""
"","","","","","single-stim-button","184","886703","0.0-2.0-25.16-1.16","60bd3949b6f6d9c3453e8def","D2","batch4","","4338","tol_toboard","","","","tol_peg_3","4338","4338","0","[[0,0,0],[3,1],[2]]","17","[[1,0,0],[2,3],[0]]","5","0","","","","","","6","","","","","","","","",""
"","","","","","single-stim-button","185","890992","0.0-2.0-25.17-0.17","60bd3949b6f6d9c3453e8def","D2","batch4","","4285","tol_tohand","","","","tol_peg_2","4285","4285","0","[[0,0,0],[3,0],[2]]","18","[[1,0,0],[2,3],[0]]","5","0","","","","","","6","","","","","","","","",""
"","","","","","single-stim-button","186","893579","0.0-2.0-25.17-1.17","60bd3949b6f6d9c3453e8def","D2","batch4","","2583","tol_toboard","","","","tol_peg_1","2583","2583","0","[[1,0,0],[3,0],[2]]","18","[[1,0,0],[2,3],[0]]","5","0","","","","","","6","","","","","","","","",""
"","","","","","single-stim-button","187","895190","0.0-2.0-25.18-0.18","60bd3949b6f6d9c3453e8def","D2","batch4","","1607","tol_tohand","","","","tol_peg_2","1607","1607","0","[[1,0,0],[0,0],[2]]","19","[[1,0,0],[2,3],[0]]","5","0","","","","","","6","","","","","","","","",""
"","","","","","single-stim-button","188","897624","0.0-2.0-25.18-1.18","60bd3949b6f6d9c3453e8def","D2","batch4","","2431","tol_toboard","","","","tol_peg_1","2431","2431","0","[[1,3,0],[0,0],[2]]","19","[[1,0,0],[2,3],[0]]","5","0","","","","","","6","","","","","","","","",""
"","","","","","single-stim-button","189","899532","0.0-2.0-25.19-0.19","60bd3949b6f6d9c3453e8def","D2","batch4","","1904","tol_tohand","","","","tol_peg_3","1904","1904","0","[[1,3,0],[0,0],[0]]","20","[[1,0,0],[2,3],[0]]","5","0","","","","","","6","","","","","","","","",""
"","","","","","single-stim-button","190","901391","0.0-2.0-25.19-1.19","60bd3949b6f6d9c3453e8def","D2","batch4","","1856","tol_toboard","","","","tol_peg_2","1856","1856","0","[[1,3,0],[2,0],[0]]","20","[[1,0,0],[2,3],[0]]","5","0","","","","","","6","","","","","","","","",""
"","","","","","single-stim-button","191","902389","0.0-2.0-25.20-0.20","60bd3949b6f6d9c3453e8def","D2","batch4","","995","tol_tohand","","","","tol_peg_1","995","995","0","[[1,0,0],[2,0],[0]]","21","[[1,0,0],[2,3],[0]]","5","0","","","","","","6","","","","","","","","",""
"","","","","","single-stim-button","192","904354","0.0-2.0-25.20-1.20","60bd3949b6f6d9c3453e8def","D2","batch4","","1962","tol_toboard","","","","tol_peg_2","1962","1962","0","[[1,0,0],[2,3],[0]]","21","[[1,0,0],[2,3],[0]]","5","0","","","","","","6","","","","","","","","",""
"","","","","","poldrack-single-stim","193","905361","0.0-2.0-26.0","60bd3949b6f6d9c3453e8def","D2","batch4","","-1","tol_feedback","","","true","","1000","1000","500","","","","","","-1","none","true","10104","97764","","","","","","","","","",""
"","","","","","html-button-response","194","907402","0.0-2.0-27.0","60bd3949b6f6d9c3453e8def","D2","batch4","","2038.699999988079","tol_trial_num","<div class = centerbox><p class = center-block-text>problem <strong>7</strong> out of 25 problems</p></div>","0","","","","","","","","","","","","","","","","","","","","","","","","",""
"","","","","","single-stim-button","195","919475","0.0-2.0-28.0-0.0","60bd3949b6f6d9c3453e8def","D2","batch4","","12070","tol_tohand","","","","tol_peg_1","12070","12070","0","[[2,0,0],[0,0],[3]]","1","[[1,2,0],[3,0],[0]]","6","0","","","","","","5","","","","","","","","",""
"","","","","","single-stim-button","196","921054","0.0-2.0-28.0-1.0","60bd3949b6f6d9c3453e8def","D2","batch4","","1576","tol_toboard","","","","tol_peg_2","1576","1576","0","[[2,0,0],[1,0],[3]]","1","[[1,2,0],[3,0],[0]]","6","0","","","","","","5","","","","","","","","",""
"","","","","","single-stim-button","197","924651","0.0-2.0-28.1-0.1","60bd3949b6f6d9c3453e8def","D2","batch4","","3595","tol_tohand","","","","tol_peg_1","3595","3595","0","[[0,0,0],[1,0],[3]]","2","[[1,2,0],[3,0],[0]]","6","0","","","","","","5","","","","","","","","",""
"","","","","","single-stim-button","198","927463","0.0-2.0-28.1-1.1","60bd3949b6f6d9c3453e8def","D2","batch4","","2809","tol_toboard","","","","tol_peg_2","2809","2809","0","[[0,0,0],[1,2],[3]]","2","[[1,2,0],[3,0],[0]]","6","0","","","","","","5","","","","","","","","",""
"","","","","","single-stim-button","199","931641","0.0-2.0-28.2-0.2","60bd3949b6f6d9c3453e8def","D2","batch4","","4176","tol_tohand","","","","tol_peg_3","4176","4176","0","[[0,0,0],[1,2],[0]]","3","[[1,2,0],[3,0],[0]]","6","0","","","","","","5","","","","","","","","",""
"","","","","","single-stim-button","200","938559","0.0-2.0-28.2-1.2","60bd3949b6f6d9c3453e8def","D2","batch4","","6915","tol_toboard","","","","tol_peg_1","6915","6915","0","[[3,0,0],[1,2],[0]]","3","[[1,2,0],[3,0],[0]]","6","0","","","","","","5","","","","","","","","",""
"","","","","","single-stim-button","201","939885","0.0-2.0-28.3-0.3","60bd3949b6f6d9c3453e8def","D2","batch4","","1321","tol_tohand","","","","tol_peg_2","1321","1321","0","[[3,0,0],[1,0],[0]]","4","[[1,2,0],[3,0],[0]]","6","0","","","","","","5","","","","","","","","",""
"","","","","","single-stim-button","202","944835","0.0-2.0-28.3-1.3","60bd3949b6f6d9c3453e8def","D2","batch4","","4947","tol_toboard","","","","tol_peg_3","4947","4947","0","[[3,0,0],[1,0],[2]]","4","[[1,2,0],[3,0],[0]]","6","0","","","","","","5","","","","","","","","",""
"","","","","","single-stim-button","203","954087","0.0-2.0-28.4-0.4","60bd3949b6f6d9c3453e8def","D2","batch4","","9249","tol_tohand","","","","tol_peg_2","9249","9249","0","[[3,0,0],[0,0],[2]]","5","[[1,2,0],[3,0],[0]]","6","0","","","","","","5","","","","","","","","",""
"","","","","","single-stim-button","204","958144","0.0-2.0-28.4-1.4","60bd3949b6f6d9c3453e8def","D2","batch4","","4053","tol_toboard","","","","tol_peg_1","4053","4053","0","[[3,1,0],[0,0],[2]]","5","[[1,2,0],[3,0],[0]]","6","0","","","","","","5","","","","","","","","",""
"","","","","","single-stim-button","205","960027","0.0-2.0-28.5-0.5","60bd3949b6f6d9c3453e8def","D2","batch4","","1880","tol_tohand","","","","tol_peg_1","1880","1880","0","[[3,0,0],[0,0],[2]]","6","[[1,2,0],[3,0],[0]]","6","0","","","","","","5","","","","","","","","",""
"","","","","","single-stim-button","206","961523","0.0-2.0-28.5-1.5","60bd3949b6f6d9c3453e8def","D2","batch4","","1493","tol_toboard","","","","tol_peg_2","1493","1493","0","[[3,0,0],[1,0],[2]]","6","[[1,2,0],[3,0],[0]]","6","0","","","","","","5","","","","","","","","",""
"","","","","","single-stim-button","207","964315","0.0-2.0-28.6-0.6","60bd3949b6f6d9c3453e8def","D2","batch4","","2789","tol_tohand","","","","tol_peg_3","2789","2789","0","[[3,0,0],[1,0],[0]]","7","[[1,2,0],[3,0],[0]]","6","0","","","","","","5","","","","","","","","",""
"","","","","","single-stim-button","208","967021","0.0-2.0-28.6-1.6","60bd3949b6f6d9c3453e8def","D2","batch4","","2704","tol_toboard","","","","tol_peg_1","2704","2704","0","[[3,2,0],[1,0],[0]]","7","[[1,2,0],[3,0],[0]]","6","0","","","","","","5","","","","","","","","",""
"","","","","","single-stim-button","209","968349","0.0-2.0-28.7-0.7","60bd3949b6f6d9c3453e8def","D2","batch4","","1326","tol_tohand","","","","tol_peg_2","1326","1326","0","[[3,2,0],[0,0],[0]]","8","[[1,2,0],[3,0],[0]]","6","0","","","","","","5","","","","","","","","",""
"","","","","","single-stim-button","210","969469","0.0-2.0-28.7-1.7","60bd3949b6f6d9c3453e8def","D2","batch4","","1118","tol_toboard","","","","tol_peg_3","1118","1118","0","[[3,2,0],[0,0],[1]]","8","[[1,2,0],[3,0],[0]]","6","0","","","","","","5","","","","","","","","",""
"","","","","","single-stim-button","211","974478","0.0-2.0-28.8-0.8","60bd3949b6f6d9c3453e8def","D2","batch4","","5007","tol_tohand","","","","tol_peg_1","5007","5007","0","[[3,0,0],[0,0],[1]]","9","[[1,2,0],[3,0],[0]]","6","0","","","","","","5","","","","","","","","",""
"","","","","","single-stim-button","212","975839","0.0-2.0-28.8-1.8","60bd3949b6f6d9c3453e8def","D2","batch4","","1358","tol_toboard","","","","tol_peg_2","1358","1358","0","[[3,0,0],[2,0],[1]]","9","[[1,2,0],[3,0],[0]]","6","0","","","","","","5","","","","","","","","",""
"","","","","","single-stim-button","213","979760","0.0-2.0-28.9-0.9","60bd3949b6f6d9c3453e8def","D2","batch4","","3918","tol_tohand","","","","tol_peg_1","3918","3918","0","[[0,0,0],[2,0],[1]]","10","[[1,2,0],[3,0],[0]]","6","0","","","","","","5","","","","","","","","",""
"","","","","","single-stim-button","214","981370","0.0-2.0-28.9-1.9","60bd3949b6f6d9c3453e8def","D2","batch4","","1606","tol_toboard","","","","tol_peg_2","1606","1606","0","[[0,0,0],[2,3],[1]]","10","[[1,2,0],[3,0],[0]]","6","0","","","","","","5","","","","","","","","",""
"","","","","","single-stim-button","215","982868","0.0-2.0-28.10-0.10","60bd3949b6f6d9c3453e8def","D2","batch4","","1495","tol_tohand","","","","tol_peg_3","1495","1495","0","[[0,0,0],[2,3],[0]]","11","[[1,2,0],[3,0],[0]]","6","0","","","","","","5","","","","","","","","",""
"","","","","","single-stim-button","216","986527","0.0-2.0-28.10-1.10","60bd3949b6f6d9c3453e8def","D2","batch4","","3656","tol_toboard","","","","tol_peg_1","3656","3656","0","[[1,0,0],[2,3],[0]]","11","[[1,2,0],[3,0],[0]]","6","0","","","","","","5","","","","","","","","",""
"","","","","","single-stim-button","217","988390","0.0-2.0-28.11-0.11","60bd3949b6f6d9c3453e8def","D2","batch4","","1859","tol_tohand","","","","tol_peg_2","1859","1859","0","[[1,0,0],[2,0],[0]]","12","[[1,2,0],[3,0],[0]]","6","0","","","","","","5","","","","","","","","",""
"","","","","","single-stim-button","218","989501","0.0-2.0-28.11-1.11","60bd3949b6f6d9c3453e8def","D2","batch4","","1108","tol_toboard","","","","tol_peg_3","1108","1108","0","[[1,0,0],[2,0],[3]]","12","[[1,2,0],[3,0],[0]]","6","0","","","","","","5","","","","","","","","",""
"","","","","","single-stim-button","219","990367","0.0-2.0-28.12-0.12","60bd3949b6f6d9c3453e8def","D2","batch4","","862","tol_tohand","","","","tol_peg_2","862","862","0","[[1,0,0],[0,0],[3]]","13","[[1,2,0],[3,0],[0]]","6","0","","","","","","5","","","","","","","","",""
"","","","","","single-stim-button","220","991998","0.0-2.0-28.12-1.12","60bd3949b6f6d9c3453e8def","D2","batch4","","1627","tol_toboard","","","","tol_peg_1","1627","1627","0","[[1,2,0],[0,0],[3]]","13","[[1,2,0],[3,0],[0]]","6","0","","","","","","5","","","","","","","","",""
"","","","","","single-stim-button","221","994056","0.0-2.0-28.13-0.13","60bd3949b6f6d9c3453e8def","D2","batch4","","2055","tol_tohand","","","","tol_peg_3","2055","2055","0","[[1,2,0],[0,0],[0]]","14","[[1,2,0],[3,0],[0]]","6","0","","","","","","5","","","","","","","","",""
"","","","","","single-stim-button","222","995126","0.0-2.0-28.13-1.13","60bd3949b6f6d9c3453e8def","D2","batch4","","1067","tol_toboard","","","","tol_peg_2","1067","1067","0","[[1,2,0],[3,0],[0]]","14","[[1,2,0],[3,0],[0]]","6","0","","","","","","5","","","","","","","","",""
"","","","","","poldrack-single-stim","223","996139","0.0-2.0-29.0","60bd3949b6f6d9c3453e8def","D2","batch4","","-1","tol_feedback","","","true","","1000","1000","500","","","","","","-1","none","true","12070","51602","","","","","","","","","",""
"","","","","","html-button-response","224","1000992","0.0-2.0-30.0","60bd3949b6f6d9c3453e8def","D2","batch4","","4849.799999982119","tol_trial_num","<div class = centerbox><p class = center-block-text>problem <strong>8</strong> out of 25 problems</p></div>","0","","","","","","","","","","","","","","","","","","","","","","","","",""
"","","","","","single-stim-button","225","1007608","0.0-2.0-31.0-0.0","60bd3949b6f6d9c3453e8def","D2","batch4","","6611","tol_tohand","","","","tol_peg_3","6611","6611","0","[[0,0,0],[2,3],[0]]","1","[[1,2,0],[3,0],[0]]","7","0","","","","","","4","","","","","","","","",""
"","","","","","single-stim-button","226","1009666","0.0-2.0-31.0-1.0","60bd3949b6f6d9c3453e8def","D2","batch4","","2056","tol_toboard","","","","tol_peg_1","2056","2056","0","[[1,0,0],[2,3],[0]]","1","[[1,2,0],[3,0],[0]]","7","0","","","","","","4","","","","","","","","",""
"","","","","","single-stim-button","227","1012305","0.0-2.0-31.1-0.1","60bd3949b6f6d9c3453e8def","D2","batch4","","2636","tol_tohand","","","","tol_peg_2","2636","2636","0","[[1,0,0],[2,0],[0]]","2","[[1,2,0],[3,0],[0]]","7","0","","","","","","4","","","","","","","","",""
"","","","","","single-stim-button","228","1014585","0.0-2.0-31.1-1.1","60bd3949b6f6d9c3453e8def","D2","batch4","","2277","tol_toboard","","","","tol_peg_3","2277","2277","0","[[1,0,0],[2,0],[3]]","2","[[1,2,0],[3,0],[0]]","7","0","","","","","","4","","","","","","","","",""
"","","","","","single-stim-button","229","1015453","0.0-2.0-31.2-0.2","60bd3949b6f6d9c3453e8def","D2","batch4","","866","tol_tohand","","","","tol_peg_2","866","866","0","[[1,0,0],[0,0],[3]]","3","[[1,2,0],[3,0],[0]]","7","0","","","","","","4","","","","","","","","",""
"","","","","","single-stim-button","230","1017053","0.0-2.0-31.2-1.2","60bd3949b6f6d9c3453e8def","D2","batch4","","1596","tol_toboard","","","","tol_peg_1","1596","1596","0","[[1,2,0],[0,0],[3]]","3","[[1,2,0],[3,0],[0]]","7","0","","","","","","4","","","","","","","","",""
"","","","","","single-stim-button","231","1019397","0.0-2.0-31.3-0.3","60bd3949b6f6d9c3453e8def","D2","batch4","","2342","tol_tohand","","","","tol_peg_3","2342","2342","0","[[1,2,0],[0,0],[0]]","4","[[1,2,0],[3,0],[0]]","7","0","","","","","","4","","","","","","","","",""
"","","","","","single-stim-button","232","1020980","0.0-2.0-31.3-1.3","60bd3949b6f6d9c3453e8def","D2","batch4","","1579","tol_toboard","","","","tol_peg_2","1579","1579","0","[[1,2,0],[3,0],[0]]","4","[[1,2,0],[3,0],[0]]","7","0","","","","","","4","","","","","","","","",""
"","","","","","poldrack-single-stim","233","1021983","0.0-2.0-32.0","60bd3949b6f6d9c3453e8def","D2","batch4","","-1","tol_feedback","","","true","","1000","1000","500","","","","","","-1","none","true","6611","12455","","","","","","","","","",""
"","","","","","html-button-response","234","1023078","0.0-2.0-33.0","60bd3949b6f6d9c3453e8def","D2","batch4","","1092.7999999821186","tol_trial_num","<div class = centerbox><p class = center-block-text>problem <strong>9</strong> out of 25 problems</p></div>","0","","","","","","","","","","","","","","","","","","","","","","","","",""
"","","","","","single-stim-button","235","1033715","0.0-2.0-34.0-0.0","60bd3949b6f6d9c3453e8def","D2","batch4","","10633","tol_tohand","","","","tol_peg_1","10633","10633","0","[[3,0,0],[0,0],[1]]","1","[[2,1,0],[3,0],[0]]","8","0","","","","","","6","","","","","","","","",""
"","","","","","single-stim-button","236","1035550","0.0-2.0-34.0-1.0","60bd3949b6f6d9c3453e8def","D2","batch4","","1831","tol_toboard","","","","tol_peg_2","1831","1831","0","[[3,0,0],[2,0],[1]]","1","[[2,1,0],[3,0],[0]]","8","0","","","","","","6","","","","","","","","",""
"","","","","","single-stim-button","237","1045378","0.0-2.0-34.1-0.1","60bd3949b6f6d9c3453e8def","D2","batch4","","9825","tol_tohand","","","","tol_peg_3","9825","9825","0","[[3,0,0],[2,0],[0]]","2","[[2,1,0],[3,0],[0]]","8","0","","","","","","6","","","","","","","","",""
"","","","","","single-stim-button","238","1048140","0.0-2.0-34.1-1.1","60bd3949b6f6d9c3453e8def","D2","batch4","","2760","tol_toboard","","","","tol_peg_2","2760","2760","0","[[3,0,0],[2,1],[0]]","2","[[2,1,0],[3,0],[0]]","8","0","","","","","","6","","","","","","","","",""
"","","","","","single-stim-button","239","1050578","0.0-2.0-34.2-0.2","60bd3949b6f6d9c3453e8def","D2","batch4","","2436","tol_tohand","","","","tol_peg_1","2436","2436","0","[[0,0,0],[2,1],[0]]","3","[[2,1,0],[3,0],[0]]","8","0","","","","","","6","","","","","","","","",""
"","","","","","single-stim-button","240","1052138","0.0-2.0-34.2-1.2","60bd3949b6f6d9c3453e8def","D2","batch4","","1556","tol_toboard","","","","tol_peg_3","1556","1556","0","[[0,0,0],[2,1],[3]]","3","[[2,1,0],[3,0],[0]]","8","0","","","","","","6","","","","","","","","",""
"","","","","","single-stim-button","241","1054104","0.0-2.0-34.3-0.3","60bd3949b6f6d9c3453e8def","D2","batch4","","1962","tol_tohand","","","","tol_peg_2","1962","1962","0","[[0,0,0],[2,0],[3]]","4","[[2,1,0],[3,0],[0]]","8","0","","","","","","6","","","","","","","","",""
"","","","","","single-stim-button","242","1055469","0.0-2.0-34.3-1.3","60bd3949b6f6d9c3453e8def","D2","batch4","","1362","tol_toboard","","","","tol_peg_1","1362","1362","0","[[1,0,0],[2,0],[3]]","4","[[2,1,0],[3,0],[0]]","8","0","","","","","","6","","","","","","","","",""
"","","","","","single-stim-button","243","1057232","0.0-2.0-34.4-0.4","60bd3949b6f6d9c3453e8def","D2","batch4","","1759","tol_tohand","","","","tol_peg_2","1759","1759","0","[[1,0,0],[0,0],[3]]","5","[[2,1,0],[3,0],[0]]","8","0","","","","","","6","","","","","","","","",""
"","","","","","single-stim-button","244","1058238","0.0-2.0-34.4-1.4","60bd3949b6f6d9c3453e8def","D2","batch4","","1004","tol_toboard","","","","tol_peg_1","1004","1004","0","[[1,2,0],[0,0],[3]]","5","[[2,1,0],[3,0],[0]]","8","0","","","","","","6","","","","","","","","",""
"","","","","","single-stim-button","245","1060717","0.0-2.0-34.5-0.5","60bd3949b6f6d9c3453e8def","D2","batch4","","2477","tol_tohand","","","","tol_peg_3","2477","2477","0","[[1,2,0],[0,0],[0]]","6","[[2,1,0],[3,0],[0]]","8","0","","","","","","6","","","","","","","","",""
"","","","","","single-stim-button","246","1062358","0.0-2.0-34.5-1.5","60bd3949b6f6d9c3453e8def","D2","batch4","","1638","tol_toboard","","","","tol_peg_2","1638","1638","0","[[1,2,0],[3,0],[0]]","6","[[2,1,0],[3,0],[0]]","8","0","","","","","","6","","","","","","","","",""
"","","","","","single-stim-button","247","1067188","0.0-2.0-34.6-0.6","60bd3949b6f6d9c3453e8def","D2","batch4","","4827","tol_tohand","","","","tol_peg_1","4827","4827","0","[[1,0,0],[3,0],[0]]","7","[[2,1,0],[3,0],[0]]","8","0","","","","","","6","","","","","","","","",""
"","","","","","single-stim-button","248","1069094","0.0-2.0-34.6-1.6","60bd3949b6f6d9c3453e8def","D2","batch4","","1902","tol_toboard","","","","tol_peg_3","1902","1902","0","[[1,0,0],[3,0],[2]]","7","[[2,1,0],[3,0],[0]]","8","0","","","","","","6","","","","","","","","",""
"","","","","","single-stim-button","249","1072289","0.0-2.0-34.7-0.7","60bd3949b6f6d9c3453e8def","D2","batch4","","3193","tol_tohand","","","","tol_peg_1","3193","3193","0","[[0,0,0],[3,0],[2]]","8","[[2,1,0],[3,0],[0]]","8","0","","","","","","6","","","","","","","","",""
"","","","","","single-stim-button","250","1074005","0.0-2.0-34.7-1.7","60bd3949b6f6d9c3453e8def","D2","batch4","","1714","tol_toboard","","","","tol_peg_2","1714","1714","0","[[0,0,0],[3,1],[2]]","8","[[2,1,0],[3,0],[0]]","8","0","","","","","","6","","","","","","","","",""
"","","","","","single-stim-button","251","1075054","0.0-2.0-34.8-0.8","60bd3949b6f6d9c3453e8def","D2","batch4","","1047","tol_tohand","","","","tol_peg_3","1047","1047","0","[[0,0,0],[3,1],[0]]","9","[[2,1,0],[3,0],[0]]","8","0","","","","","","6","","","","","","","","",""
"","","","","","single-stim-button","252","1076469","0.0-2.0-34.8-1.8","60bd3949b6f6d9c3453e8def","D2","batch4","","1413","tol_toboard","","","","tol_peg_1","1413","1413","0","[[2,0,0],[3,1],[0]]","9","[[2,1,0],[3,0],[0]]","8","0","","","","","","6","","","","","","","","",""
"","","","","","single-stim-button","253","1077632","0.0-2.0-34.9-0.9","60bd3949b6f6d9c3453e8def","D2","batch4","","1160","tol_tohand","","","","tol_peg_2","1160","1160","0","[[2,0,0],[3,0],[0]]","10","[[2,1,0],[3,0],[0]]","8","0","","","","","","6","","","","","","","","",""
"","","","","","single-stim-button","254","1078641","0.0-2.0-34.9-1.9","60bd3949b6f6d9c3453e8def","D2","batch4","","1007","tol_toboard","","","","tol_peg_1","1007","1007","0","[[2,1,0],[3,0],[0]]","10","[[2,1,0],[3,0],[0]]","8","0","","","","","","6","","","","","","","","",""
"","","","","","poldrack-single-stim","255","1079644","0.0-2.0-35.0","60bd3949b6f6d9c3453e8def","D2","batch4","","-1","tol_feedback","","","true","","1000","1000","500","","","","","","-1","none","true","10633","39319","","","","","","","","","",""
"","","","","","html-button-response","256","1080989","0.0-2.0-36.0","60bd3949b6f6d9c3453e8def","D2","batch4","","1346.9000000059605","tol_trial_num","<div class = centerbox><p class = center-block-text>problem <strong>10</strong> out of 25 problems</p></div>","0","","","","","","","","","","","","","","","","","","","","","","","","",""
"","","","","","single-stim-button","257","1086969","0.0-2.0-37.0-0.0","60bd3949b6f6d9c3453e8def","D2","batch4","","5978","tol_tohand","","","","tol_peg_2","5978","5978","0","[[3,0,0],[0,0],[2]]","1","[[3,0,0],[2,1],[0]]","9","0","","","","","","3","","","","","","","","",""
"","","","","","single-stim-button","258","1088702","0.0-2.0-37.0-1.0","60bd3949b6f6d9c3453e8def","D2","batch4","","1731","tol_toboard","","","","tol_peg_1","1731","1731","0","[[3,1,0],[0,0],[2]]","1","[[3,0,0],[2,1],[0]]","9","0","","","","","","3","","","","","","","","",""
"","","","","","single-stim-button","259","1090027","0.0-2.0-37.1-0.1","60bd3949b6f6d9c3453e8def","D2","batch4","","1322","tol_tohand","","","","tol_peg_3","1322","1322","0","[[3,1,0],[0,0],[0]]","2","[[3,0,0],[2,1],[0]]","9","0","","","","","","3","","","","","","","","",""
"","","","","","single-stim-button","260","1091616","0.0-2.0-37.1-1.1","60bd3949b6f6d9c3453e8def","D2","batch4","","1587","tol_toboard","","","","tol_peg_2","1587","1587","0","[[3,1,0],[2,0],[0]]","2","[[3,0,0],[2,1],[0]]","9","0","","","","","","3","","","","","","","","",""
"","","","","","single-stim-button","261","1092951","0.0-2.0-37.2-0.2","60bd3949b6f6d9c3453e8def","D2","batch4","","1332","tol_tohand","","","","tol_peg_1","1332","1332","0","[[3,0,0],[2,0],[0]]","3","[[3,0,0],[2,1],[0]]","9","0","","","","","","3","","","","","","","","",""
"","","","","","single-stim-button","262","1093920","0.0-2.0-37.2-1.2","60bd3949b6f6d9c3453e8def","D2","batch4","","966","tol_toboard","","","","tol_peg_2","966","966","0","[[3,0,0],[2,1],[0]]","3","[[3,0,0],[2,1],[0]]","9","0","","","","","","3","","","","","","","","",""
"","","","","","poldrack-single-stim","263","1094926","0.0-2.0-38.0","60bd3949b6f6d9c3453e8def","D2","batch4","","-1","tol_feedback","","","true","","1000","1000","500","","","","","","-1","none","true","5978","8632","","","","","","","","","",""
"","","","","","html-button-response","264","1096178","0.0-2.0-39.0","60bd3949b6f6d9c3453e8def","D2","batch4","","1250.0999999940395","tol_trial_num","<div class = centerbox><p class = center-block-text>problem <strong>11</strong> out of 25 problems</p></div>","0","","","","","","","","","","","","","","","","","","","","","","","","",""
"","","","","","single-stim-button","265","1100031","0.0-2.0-40.0-0.0","60bd3949b6f6d9c3453e8def","D2","batch4","","3850","tol_tohand","","","","tol_peg_2","3850","3850","0","[[1,2,0],[0,0],[0]]","1","[[2,0,0],[1,3],[0]]","10","0","","","","","","6","","","","","","","","",""
"","","","","","single-stim-button","266","1101929","0.0-2.0-40.0-1.0","60bd3949b6f6d9c3453e8def","D2","batch4","","1895","tol_toboard","","","","tol_peg_3","1895","1895","0","[[1,2,0],[0,0],[3]]","1","[[2,0,0],[1,3],[0]]","10","0","","","","","","6","","","","","","","","",""
"","","","","","single-stim-button","267","1103478","0.0-2.0-40.1-0.1","60bd3949b6f6d9c3453e8def","D2","batch4","","1546","tol_tohand","","","","tol_peg_1","1546","1546","0","[[1,0,0],[0,0],[3]]","2","[[2,0,0],[1,3],[0]]","10","0","","","","","","6","","","","","","","","",""
"","","","","","single-stim-button","268","1108929","0.0-2.0-40.1-1.1","60bd3949b6f6d9c3453e8def","D2","batch4","","5447","tol_toboard","","","","tol_peg_2","5447","5447","0","[[1,0,0],[2,0],[3]]","2","[[2,0,0],[1,3],[0]]","10","0","","","","","","6","","","","","","","","",""
"","","","","","single-stim-button","269","1111487","0.0-2.0-40.2-0.2","60bd3949b6f6d9c3453e8def","D2","batch4","","2555","tol_tohand","","","","tol_peg_1","2555","2555","0","[[0,0,0],[2,0],[3]]","3","[[2,0,0],[1,3],[0]]","10","0","","","","","","6","","","","","","","","",""
"","","","","","single-stim-button","270","1114086","0.0-2.0-40.2-1.2","60bd3949b6f6d9c3453e8def","D2","batch4","","2595","tol_toboard","","","","tol_peg_2","2595","2595","0","[[0,0,0],[2,1],[3]]","3","[[2,0,0],[1,3],[0]]","10","0","","","","","","6","","","","","","","","",""
"","","","","","single-stim-button","271","1115518","0.0-2.0-40.3-0.3","60bd3949b6f6d9c3453e8def","D2","batch4","","1429","tol_tohand","","","","tol_peg_3","1429","1429","0","[[0,0,0],[2,1],[0]]","4","[[2,0,0],[1,3],[0]]","10","0","","","","","","6","","","","","","","","",""
"","","","","","single-stim-button","272","1121452","0.0-2.0-40.3-1.3","60bd3949b6f6d9c3453e8def","D2","batch4","","5931","tol_toboard","","","","tol_peg_1","5931","5931","0","[[3,0,0],[2,1],[0]]","4","[[2,0,0],[1,3],[0]]","10","0","","","","","","6","","","","","","","","",""
"","","","","","single-stim-button","273","1123022","0.0-2.0-40.4-0.4","60bd3949b6f6d9c3453e8def","D2","batch4","","1567","tol_tohand","","","","tol_peg_2","1567","1567","0","[[3,0,0],[2,0],[0]]","5","[[2,0,0],[1,3],[0]]","10","0","","","","","","6","","","","","","","","",""
"","","","","","single-stim-button","274","1124172","0.0-2.0-40.4-1.4","60bd3949b6f6d9c3453e8def","D2","batch4","","1147","tol_toboard","","","","tol_peg_3","1147","1147","0","[[3,0,0],[2,0],[1]]","5","[[2,0,0],[1,3],[0]]","10","0","","","","","","6","","","","","","","","",""
"","","","","","single-stim-button","275","1127698","0.0-2.0-40.5-0.5","60bd3949b6f6d9c3453e8def","D2","batch4","","3522","tol_tohand","","","","tol_peg_2","3522","3522","0","[[3,0,0],[0,0],[1]]","6","[[2,0,0],[1,3],[0]]","10","0","","","","","","6","","","","","","","","",""
"","","","","","single-stim-button","276","1129217","0.0-2.0-40.5-1.5","60bd3949b6f6d9c3453e8def","D2","batch4","","1517","tol_toboard","","","","tol_peg_1","1517","1517","0","[[3,2,0],[0,0],[1]]","6","[[2,0,0],[1,3],[0]]","10","0","","","","","","6","","","","","","","","",""
"","","","","","single-stim-button","277","1130367","0.0-2.0-40.6-0.6","60bd3949b6f6d9c3453e8def","D2","batch4","","1148","tol_tohand","","","","tol_peg_3","1148","1148","0","[[3,2,0],[0,0],[0]]","7","[[2,0,0],[1,3],[0]]","10","0","","","","","","6","","","","","","","","",""
"","","","","","single-stim-button","278","1131855","0.0-2.0-40.6-1.6","60bd3949b6f6d9c3453e8def","D2","batch4","","1484","tol_toboard","","","","tol_peg_2","1484","1484","0","[[3,2,0],[1,0],[0]]","7","[[2,0,0],[1,3],[0]]","10","0","","","","","","6","","","","","","","","",""
"","","","","","single-stim-button","279","1133455","0.0-2.0-40.7-0.7","60bd3949b6f6d9c3453e8def","D2","batch4","","1597","tol_tohand","","","","tol_peg_1","1597","1597","0","[[3,0,0],[1,0],[0]]","8","[[2,0,0],[1,3],[0]]","10","0","","","","","","6","","","","","","","","",""
"","","","","","single-stim-button","280","1135606","0.0-2.0-40.7-1.7","60bd3949b6f6d9c3453e8def","D2","batch4","","2148","tol_toboard","","","","tol_peg_3","2148","2148","0","[[3,0,0],[1,0],[2]]","8","[[2,0,0],[1,3],[0]]","10","0","","","","","","6","","","","","","","","",""
"","","","","","single-stim-button","281","1137673","0.0-2.0-40.8-0.8","60bd3949b6f6d9c3453e8def","D2","batch4","","2064","tol_tohand","","","","tol_peg_1","2064","2064","0","[[0,0,0],[1,0],[2]]","9","[[2,0,0],[1,3],[0]]","10","0","","","","","","6","","","","","","","","",""
"","","","","","single-stim-button","282","1138754","0.0-2.0-40.8-1.8","60bd3949b6f6d9c3453e8def","D2","batch4","","1079","tol_toboard","","","","tol_peg_2","1079","1079","0","[[0,0,0],[1,3],[2]]","9","[[2,0,0],[1,3],[0]]","10","0","","","","","","6","","","","","","","","",""
"","","","","","single-stim-button","283","1139915","0.0-2.0-40.9-0.9","60bd3949b6f6d9c3453e8def","D2","batch4","","1158","tol_tohand","","","","tol_peg_3","1158","1158","0","[[0,0,0],[1,3],[0]]","10","[[2,0,0],[1,3],[0]]","10","0","","","","","","6","","","","","","","","",""
"","","","","","single-stim-button","284","1141242","0.0-2.0-40.9-1.9","60bd3949b6f6d9c3453e8def","D2","batch4","","1325","tol_toboard","","","","tol_peg_1","1325","1325","0","[[2,0,0],[1,3],[0]]","10","[[2,0,0],[1,3],[0]]","10","0","","","","","","6","","","","","","","","",""
"","","","","","poldrack-single-stim","285","1142259","0.0-2.0-41.0","60bd3949b6f6d9c3453e8def","D2","batch4","","-1","tol_feedback","","","true","","1000","1000","500","","","","","","-1","none","true","3850","20436","","","","","","","","","",""
"","","","","","html-button-response","286","1144269","0.0-2.0-42.0","60bd3949b6f6d9c3453e8def","D2","batch4","","2007.5","tol_trial_num","<div class = centerbox><p class = center-block-text>problem <strong>12</strong> out of 25 problems</p></div>","0","","","","","","","","","","","","","","","","","","","","","","","","",""
"","","","","","single-stim-button","287","1147315","0.0-2.0-43.0-0.0","60bd3949b6f6d9c3453e8def","D2","batch4","","3044","tol_tohand","","","","tol_peg_1","3044","3044","0","[[1,0,0],[3,0],[0]]","1","[[2,3,0],[0,0],[1]]","11","0","","","","","","4","","","","","","","","",""
"","","","","","single-stim-button","288","1148559","0.0-2.0-43.0-1.0","60bd3949b6f6d9c3453e8def","D2","batch4","","1240","tol_toboard","","","","tol_peg_2","1240","1240","0","[[1,0,0],[3,2],[0]]","1","[[2,3,0],[0,0],[1]]","11","0","","","","","","4","","","","","","","","",""
"","","","","","single-stim-button","289","1149605","0.0-2.0-43.1-0.1","60bd3949b6f6d9c3453e8def","D2","batch4","","1044","tol_tohand","","","","tol_peg_1","1044","1044","0","[[0,0,0],[3,2],[0]]","2","[[2,3,0],[0,0],[1]]","11","0","","","","","","4","","","","","","","","",""
"","","","","","single-stim-button","290","1152329","0.0-2.0-43.1-1.1","60bd3949b6f6d9c3453e8def","D2","batch4","","2720","tol_toboard","","","","tol_peg_3","2720","2720","0","[[0,0,0],[3,2],[1]]","2","[[2,3,0],[0,0],[1]]","11","0","","","","","","4","","","","","","","","",""
"","","","","","single-stim-button","291","1157136","0.0-2.0-43.2-0.2","60bd3949b6f6d9c3453e8def","D2","batch4","","4804","tol_tohand","","","","tol_peg_3","4804","4804","0","[[0,0,0],[3,2],[0]]","3","[[2,3,0],[0,0],[1]]","11","0","","","","","","4","","","","","","","","",""
"","","","","","single-stim-button","292","1158739","0.0-2.0-43.2-1.2","60bd3949b6f6d9c3453e8def","D2","batch4","","1600","tol_toboard","","","","tol_peg_1","1600","1600","0","[[1,0,0],[3,2],[0]]","3","[[2,3,0],[0,0],[1]]","11","0","","","","","","4","","","","","","","","",""
"","","","","","single-stim-button","293","1159708","0.0-2.0-43.3-0.3","60bd3949b6f6d9c3453e8def","D2","batch4","","965","tol_tohand","","","","tol_peg_2","965","965","0","[[1,0,0],[3,0],[0]]","4","[[2,3,0],[0,0],[1]]","11","0","","","","","","4","","","","","","","","",""
"","","","","","single-stim-button","294","1163913","0.0-2.0-43.3-1.3","60bd3949b6f6d9c3453e8def","D2","batch4","","4203","tol_toboard","","","","tol_peg_3","4203","4203","0","[[1,0,0],[3,0],[2]]","4","[[2,3,0],[0,0],[1]]","11","0","","","","","","4","","","","","","","","",""
"","","","","","single-stim-button","295","1175135","0.0-2.0-43.4-0.4","60bd3949b6f6d9c3453e8def","D2","batch4","","11219","tol_tohand","","","","tol_peg_1","11219","11219","0","[[0,0,0],[3,0],[2]]","5","[[2,3,0],[0,0],[1]]","11","0","","","","","","4","","","","","","","","",""
"","","","","","single-stim-button","296","1176513","0.0-2.0-43.4-1.4","60bd3949b6f6d9c3453e8def","D2","batch4","","1374","tol_toboard","","","","tol_peg_2","1374","1374","0","[[0,0,0],[3,1],[2]]","5","[[2,3,0],[0,0],[1]]","11","0","","","","","","4","","","","","","","","",""
"","","","","","single-stim-button","297","1177989","0.0-2.0-43.5-0.5","60bd3949b6f6d9c3453e8def","D2","batch4","","1473","tol_tohand","","","","tol_peg_3","1473","1473","0","[[0,0,0],[3,1],[0]]","6","[[2,3,0],[0,0],[1]]","11","0","","","","","","4","","","","","","","","",""
"","","","","","single-stim-button","298","1180006","0.0-2.0-43.5-1.5","60bd3949b6f6d9c3453e8def","D2","batch4","","2015","tol_toboard","","","","tol_peg_1","2015","2015","0","[[2,0,0],[3,1],[0]]","6","[[2,3,0],[0,0],[1]]","11","0","","","","","","4","","","","","","","","",""
"","","","","","single-stim-button","299","1181178","0.0-2.0-43.6-0.6","60bd3949b6f6d9c3453e8def","D2","batch4","","1168","tol_tohand","","","","tol_peg_2","1168","1168","0","[[2,0,0],[3,0],[0]]","7","[[2,3,0],[0,0],[1]]","11","0","","","","","","4","","","","","","","","",""
"","","","","","single-stim-button","300","1182380","0.0-2.0-43.6-1.6","60bd3949b6f6d9c3453e8def","D2","batch4","","1200","tol_toboard","","","","tol_peg_3","1200","1200","0","[[2,0,0],[3,0],[1]]","7","[[2,3,0],[0,0],[1]]","11","0","","","","","","4","","","","","","","","",""
"","","","","","single-stim-button","301","1183491","0.0-2.0-43.7-0.7","60bd3949b6f6d9c3453e8def","D2","batch4","","1107","tol_tohand","","","","tol_peg_2","1107","1107","0","[[2,0,0],[0,0],[1]]","8","[[2,3,0],[0,0],[1]]","11","0","","","","","","4","","","","","","","","",""
"","","","","","single-stim-button","302","1184755","0.0-2.0-43.7-1.7","60bd3949b6f6d9c3453e8def","D2","batch4","","1261","tol_toboard","","","","tol_peg_1","1261","1261","0","[[2,3,0],[0,0],[1]]","8","[[2,3,0],[0,0],[1]]","11","0","","","","","","4","","","","","","","","",""
"","","","","","poldrack-single-stim","303","1185758","0.0-2.0-44.0","60bd3949b6f6d9c3453e8def","D2","batch4","","-1","tol_feedback","","","true","","1000","1000","500","","","","","","-1","none","true","3044","24824","","","","","","","","","",""
"","","","","","html-button-response","304","1187107","0.0-2.0-45.0","60bd3949b6f6d9c3453e8def","D2","batch4","","1346.0999999940395","tol_trial_num","<div class = centerbox><p class = center-block-text>problem <strong>13</strong> out of 25 problems</p></div>","0","","","","","","","","","","","","","","","","","","","","","","","","",""
"","","","","","single-stim-button","305","1191013","0.0-2.0-46.0-0.0","60bd3949b6f6d9c3453e8def","D2","batch4","","3902","tol_tohand","","","","tol_peg_1","3902","3902","0","[[1,0,0],[3,0],[0]]","1","[[0,0,0],[2,3],[1]]","12","0","","","","","","4","","","","","","","","",""
"","","","","","single-stim-button","306","1192336","0.0-2.0-46.0-1.0","60bd3949b6f6d9c3453e8def","D2","batch4","","1320","tol_toboard","","","","tol_peg_2","1320","1320","0","[[1,0,0],[3,2],[0]]","1","[[0,0,0],[2,3],[1]]","12","0","","","","","","4","","","","","","","","",""
"","","","","","single-stim-button","307","1193386","0.0-2.0-46.1-0.1","60bd3949b6f6d9c3453e8def","D2","batch4","","1046","tol_tohand","","","","tol_peg_1","1046","1046","0","[[0,0,0],[3,2],[0]]","2","[[0,0,0],[2,3],[1]]","12","0","","","","","","4","","","","","","","","",""
"","","","","","single-stim-button","308","1194801","0.0-2.0-46.1-1.1","60bd3949b6f6d9c3453e8def","D2","batch4","","1412","tol_toboard","","","","tol_peg_3","1412","1412","0","[[0,0,0],[3,2],[1]]","2","[[0,0,0],[2,3],[1]]","12","0","","","","","","4","","","","","","","","",""
"","","","","","single-stim-button","309","1196962","0.0-2.0-46.2-0.2","60bd3949b6f6d9c3453e8def","D2","batch4","","2157","tol_tohand","","","","tol_peg_2","2157","2157","0","[[0,0,0],[3,0],[1]]","3","[[0,0,0],[2,3],[1]]","12","0","","","","","","4","","","","","","","","",""
"","","","","","single-stim-button","310","1200977","0.0-2.0-46.2-1.2","60bd3949b6f6d9c3453e8def","D2","batch4","","4012","tol_toboard","","","","tol_peg_1","4012","4012","0","[[2,0,0],[3,0],[1]]","3","[[0,0,0],[2,3],[1]]","12","0","","","","","","4","","","","","","","","",""
"","","","","","single-stim-button","311","1201984","0.0-2.0-46.3-0.3","60bd3949b6f6d9c3453e8def","D2","batch4","","1002","tol_tohand","","","","tol_peg_2","1002","1002","0","[[2,0,0],[0,0],[1]]","4","[[0,0,0],[2,3],[1]]","12","0","","","","","","4","","","","","","","","",""
"","","","","","single-stim-button","312","1204416","0.0-2.0-46.3-1.3","60bd3949b6f6d9c3453e8def","D2","batch4","","2430","tol_toboard","","","","tol_peg_1","2430","2430","0","[[2,3,0],[0,0],[1]]","4","[[0,0,0],[2,3],[1]]","12","0","","","","","","4","","","","","","","","",""
"","","","","","single-stim-button","313","1206670","0.0-2.0-46.4-0.4","60bd3949b6f6d9c3453e8def","D2","batch4","","2252","tol_tohand","","","","tol_peg_3","2252","2252","0","[[2,3,0],[0,0],[0]]","5","[[0,0,0],[2,3],[1]]","12","0","","","","","","4","","","","","","","","",""
"","","","","","single-stim-button","314","1211700","0.0-2.0-46.4-1.4","60bd3949b6f6d9c3453e8def","D2","batch4","","5027","tol_toboard","","","","tol_peg_2","5027","5027","0","[[2,3,0],[1,0],[0]]","5","[[0,0,0],[2,3],[1]]","12","0","","","","","","4","","","","","","","","",""
"","","","","","single-stim-button","315","1212814","0.0-2.0-46.5-0.5","60bd3949b6f6d9c3453e8def","D2","batch4","","1110","tol_tohand","","","","tol_peg_1","1110","1110","0","[[2,0,0],[1,0],[0]]","6","[[0,0,0],[2,3],[1]]","12","0","","","","","","4","","","","","","","","",""
"","","","","","single-stim-button","316","1215912","0.0-2.0-46.5-1.5","60bd3949b6f6d9c3453e8def","D2","batch4","","3096","tol_toboard","","","","tol_peg_3","3096","3096","0","[[2,0,0],[1,0],[3]]","6","[[0,0,0],[2,3],[1]]","12","0","","","","","","4","","","","","","","","",""
"","","","","","single-stim-button","317","1226933","0.0-2.0-46.6-0.6","60bd3949b6f6d9c3453e8def","D2","batch4","","11017","tol_tohand","","","","tol_peg_1","11017","11017","0","[[0,0,0],[1,0],[3]]","7","[[0,0,0],[2,3],[1]]","12","0","","","","","","4","","","","","","","","",""
"","","","","","single-stim-button","318","1227962","0.0-2.0-46.6-1.6","60bd3949b6f6d9c3453e8def","D2","batch4","","1026","tol_toboard","","","","tol_peg_2","1026","1026","0","[[0,0,0],[1,2],[3]]","7","[[0,0,0],[2,3],[1]]","12","0","","","","","","4","","","","","","","","",""
"","","","","","single-stim-button","319","1229633","0.0-2.0-46.7-0.7","60bd3949b6f6d9c3453e8def","D2","batch4","","1669","tol_tohand","","","","tol_peg_3","1669","1669","0","[[0,0,0],[1,2],[0]]","8","[[0,0,0],[2,3],[1]]","12","0","","","","","","4","","","","","","","","",""
"","","","","","single-stim-button","320","1230917","0.0-2.0-46.7-1.7","60bd3949b6f6d9c3453e8def","D2","batch4","","1281","tol_toboard","","","","tol_peg_1","1281","1281","0","[[3,0,0],[1,2],[0]]","8","[[0,0,0],[2,3],[1]]","12","0","","","","","","4","","","","","","","","",""
"","","","","","single-stim-button","321","1239058","0.0-2.0-46.8-0.8","60bd3949b6f6d9c3453e8def","D2","batch4","","8138","tol_tohand","","","","tol_peg_2","8138","8138","0","[[3,0,0],[1,0],[0]]","9","[[0,0,0],[2,3],[1]]","12","0","","","","","","4","","","","","","","","",""
"","","","","","single-stim-button","322","1241910","0.0-2.0-46.8-1.8","60bd3949b6f6d9c3453e8def","D2","batch4","","2848","tol_toboard","","","","tol_peg_1","2848","2848","0","[[3,2,0],[1,0],[0]]","9","[[0,0,0],[2,3],[1]]","12","0","","","","","","4","","","","","","","","",""
"","","","","","single-stim-button","323","1242818","0.0-2.0-46.9-0.9","60bd3949b6f6d9c3453e8def","D2","batch4","","905","tol_tohand","","","","tol_peg_2","905","905","0","[[3,2,0],[0,0],[0]]","10","[[0,0,0],[2,3],[1]]","12","0","","","","","","4","","","","","","","","",""
"","","","","","single-stim-button","324","1243928","0.0-2.0-46.9-1.9","60bd3949b6f6d9c3453e8def","D2","batch4","","1107","tol_toboard","","","","tol_peg_3","1107","1107","0","[[3,2,0],[0,0],[1]]","10","[[0,0,0],[2,3],[1]]","12","0","","","","","","4","","","","","","","","",""
"","","","","","single-stim-button","325","1246169","0.0-2.0-46.10-0.10","60bd3949b6f6d9c3453e8def","D2","batch4","","2238","tol_tohand","","","","tol_peg_1","2238","2238","0","[[3,0,0],[0,0],[1]]","11","[[0,0,0],[2,3],[1]]","12","0","","","","","","4","","","","","","","","",""
"","","","","","single-stim-button","326","1247300","0.0-2.0-46.10-1.10","60bd3949b6f6d9c3453e8def","D2","batch4","","1128","tol_toboard","","","","tol_peg_2","1128","1128","0","[[3,0,0],[2,0],[1]]","11","[[0,0,0],[2,3],[1]]","12","0","","","","","","4","","","","","","","","",""
"","","","","","single-stim-button","327","1248146","0.0-2.0-46.11-0.11","60bd3949b6f6d9c3453e8def","D2","batch4","","843","tol_tohand","","","","tol_peg_1","843","843","0","[[0,0,0],[2,0],[1]]","12","[[0,0,0],[2,3],[1]]","12","0","","","","","","4","","","","","","","","",""
"","","","","","single-stim-button","328","1249827","0.0-2.0-46.11-1.11","60bd3949b6f6d9c3453e8def","D2","batch4","","1678","tol_toboard","","","","tol_peg_2","1678","1678","0","[[0,0,0],[2,3],[1]]","12","[[0,0,0],[2,3],[1]]","12","0","","","","","","4","","","","","","","","",""
"","","","","","poldrack-single-stim","329","1250847","0.0-2.0-47.0","60bd3949b6f6d9c3453e8def","D2","batch4","","-1","tol_feedback","","","true","","1000","1000","500","","","","","","-1","none","true","3902","36279","","","","","","","","","",""
"","","","","","html-button-response","330","1258292","0.0-2.0-48.0","60bd3949b6f6d9c3453e8def","D2","batch4","","7441.100000023842","attention_check","<p class = block-text>How many balls are in your board<br></p>","1","true","","","","","","","","","","","","","","","","","","","","","","","",""
"","","","","","html-button-response","331","1261674","0.0-2.0-49.0","60bd3949b6f6d9c3453e8def","D2","batch4","","3368.300000011921","tol_trial_num","<div class = centerbox><p class = center-block-text>problem <strong>14</strong> out of 25 problems</p></div>","0","","","","","","","","","","","","","","","","","","","","","","","","",""
"","","","","","single-stim-button","332","1269426","0.0-2.0-50.0-0.0","60bd3949b6f6d9c3453e8def","D2","batch4","","7747","tol_tohand","","","","tol_peg_1","7747","7747","0","[[2,0,0],[3,0],[0]]","1","[[1,2,0],[3,0],[0]]","13","0","","","","","","4","","","","","","","","",""
"","","","","","single-stim-button","333","1272251","0.0-2.0-50.0-1.0","60bd3949b6f6d9c3453e8def","D2","batch4","","2817","tol_toboard","","","","tol_peg_2","2817","2817","0","[[2,0,0],[3,1],[0]]","1","[[1,2,0],[3,0],[0]]","13","0","","","","","","4","","","","","","","","",""
"","","","","","single-stim-button","334","1273751","0.0-2.0-50.1-0.1","60bd3949b6f6d9c3453e8def","D2","batch4","","1494","tol_tohand","","","","tol_peg_1","1494","1494","0","[[0,0,0],[3,1],[0]]","2","[[1,2,0],[3,0],[0]]","13","0","","","","","","4","","","","","","","","",""
"","","","","","single-stim-button","335","1275339","0.0-2.0-50.1-1.1","60bd3949b6f6d9c3453e8def","D2","batch4","","1585","tol_toboard","","","","tol_peg_3","1585","1585","0","[[0,0,0],[3,1],[2]]","2","[[1,2,0],[3,0],[0]]","13","0","","","","","","4","","","","","","","","",""
"","","","","","single-stim-button","336","1276305","0.0-2.0-50.2-0.2","60bd3949b6f6d9c3453e8def","D2","batch4","","963","tol_tohand","","","","tol_peg_2","963","963","0","[[0,0,0],[3,0],[2]]","3","[[1,2,0],[3,0],[0]]","13","0","","","","","","4","","","","","","","","",""
"","","","","","single-stim-button","337","1277224","0.0-2.0-50.2-1.2","60bd3949b6f6d9c3453e8def","D2","batch4","","916","tol_toboard","","","","tol_peg_1","916","916","0","[[1,0,0],[3,0],[2]]","3","[[1,2,0],[3,0],[0]]","13","0","","","","","","4","","","","","","","","",""
"","","","","","single-stim-button","338","1279792","0.0-2.0-50.3-0.3","60bd3949b6f6d9c3453e8def","D2","batch4","","2564","tol_tohand","","","","tol_peg_3","2564","2564","0","[[1,0,0],[3,0],[0]]","4","[[1,2,0],[3,0],[0]]","13","0","","","","","","4","","","","","","","","",""
"","","","","","single-stim-button","339","1281065","0.0-2.0-50.3-1.3","60bd3949b6f6d9c3453e8def","D2","batch4","","1271","tol_toboard","","","","tol_peg_1","1271","1271","0","[[1,2,0],[3,0],[0]]","4","[[1,2,0],[3,0],[0]]","13","0","","","","","","4","","","","","","","","",""
"","","","","","poldrack-single-stim","340","1282068","0.0-2.0-51.0","60bd3949b6f6d9c3453e8def","D2","batch4","","-1","tol_feedback","","","true","","1000","1000","500","","","","","","-1","none","true","7747","12768","","","","","","","","","",""
"","","","","","html-button-response","341","1283329","0.0-2.0-52.0","60bd3949b6f6d9c3453e8def","D2","batch4","","1259","tol_trial_num","<div class = centerbox><p class = center-block-text>problem <strong>15</strong> out of 25 problems</p></div>","0","","","","","","","","","","","","","","","","","","","","","","","","",""
"","","","","","single-stim-button","342","1287842","0.0-2.0-53.0-0.0","60bd3949b6f6d9c3453e8def","D2","batch4","","4509","tol_tohand","","","","tol_peg_1","4509","4509","0","[[1,0,0],[3,0],[0]]","1","[[2,0,0],[3,0],[1]]","14","0","","","","","","3","","","","","","","","",""
"","","","","","single-stim-button","343","1288972","0.0-2.0-53.0-1.0","60bd3949b6f6d9c3453e8def","D2","batch4","","1128","tol_toboard","","","","tol_peg_3","1128","1128","0","[[1,0,0],[3,0],[2]]","1","[[2,0,0],[3,0],[1]]","14","0","","","","","","3","","","","","","","","",""
"","","","","","single-stim-button","344","1289909","0.0-2.0-53.1-0.1","60bd3949b6f6d9c3453e8def","D2","batch4","","934","tol_tohand","","","","tol_peg_1","934","934","0","[[0,0,0],[3,0],[2]]","2","[[2,0,0],[3,0],[1]]","14","0","","","","","","3","","","","","","","","",""
"","","","","","single-stim-button","345","1290827","0.0-2.0-53.1-1.1","60bd3949b6f6d9c3453e8def","D2","batch4","","914","tol_toboard","","","","tol_peg_2","914","914","0","[[0,0,0],[3,1],[2]]","2","[[2,0,0],[3,0],[1]]","14","0","","","","","","3","","","","","","","","",""
"","","","","","single-stim-button","346","1292040","0.0-2.0-53.2-0.2","60bd3949b6f6d9c3453e8def","D2","batch4","","1209","tol_tohand","","","","tol_peg_3","1209","1209","0","[[0,0,0],[3,1],[0]]","3","[[2,0,0],[3,0],[1]]","14","0","","","","","","3","","","","","","","","",""
"","","","","","single-stim-button","347","1294372","0.0-2.0-53.2-1.2","60bd3949b6f6d9c3453e8def","D2","batch4","","2330","tol_toboard","","","","tol_peg_1","2330","2330","0","[[2,0,0],[3,1],[0]]","3","[[2,0,0],[3,0],[1]]","14","0","","","","","","3","","","","","","","","",""
"","","","","","single-stim-button","348","1295819","0.0-2.0-53.3-0.3","60bd3949b6f6d9c3453e8def","D2","batch4","","1445","tol_tohand","","","","tol_peg_2","1445","1445","0","[[2,0,0],[3,0],[0]]","4","[[2,0,0],[3,0],[1]]","14","0","","","","","","3","","","","","","","","",""
"","","","","","single-stim-button","349","1296777","0.0-2.0-53.3-1.3","60bd3949b6f6d9c3453e8def","D2","batch4","","955","tol_toboard","","","","tol_peg_3","955","955","0","[[2,0,0],[3,0],[1]]","4","[[2,0,0],[3,0],[1]]","14","0","","","","","","3","","","","","","","","",""
"","","","","","poldrack-single-stim","350","1297782","0.0-2.0-54.0","60bd3949b6f6d9c3453e8def","D2","batch4","","-1","tol_feedback","","","true","","1000","1000","500","","","","","","-1","none","true","4509","8097","","","","","","","","","",""
"","","","","","html-button-response","351","1298764","0.0-2.0-55.0","60bd3949b6f6d9c3453e8def","D2","batch4","","978.8999999761581","tol_trial_num","<div class = centerbox><p class = center-block-text>problem <strong>16</strong> out of 25 problems</p></div>","0","","","","","","","","","","","","","","","","","","","","","","","","",""
