"success","timeout","failed_images","failed_audio","failed_video","trial_type","trial_index","time_elapsed","internal_node_id","subject_id","study_id","session_id","view_history","rt","task","stimulus","response","correct","mouse_click","stim_duration","block_duration","timing_post_trial","current_position","tol_num_moves_made","tol_target","tol_problem_id","tol_rt","key_press","possible_responses","tol_correct","preplanning","tol_rt_per_trial","tol_min_moves","item","answer","spm_correct","spm_rt","fiar_detect_rt","fiar_detect_correct","total_correct_fiar_detect","post_trial_gap","choices"
"true","false","[]","[]","[]","preload","0","2170","0.0-0.0","60bfa70dc02807c74e0277c7","F1","batch6","","","","","","","","","","","","","","","","","","","","","","","","","","","","","",""
"true","","","","","fullscreen","1","12322","0.0-1.0-0.0","60bfa70dc02807c74e0277c7","F1","batch6","","","","","","","","","","","","","","","","","","","","","","","","","","","","","",""
"true","","","","","fullscreen","2","15129","0.0-2.0-0.0","60bfa70dc02807c74e0277c7","F1","batch6","","","","","","","","","","","","","","","","","","","","","","","","","","","","","",""
"","","","","","instructions","3","59043","0.0-2.0-1.0-0.0-0.0","60bfa70dc02807c74e0277c7","F1","batch6","[{""page_index"":0,""viewing_time"":7166.700000047684},{""page_index"":1,""viewing_time"":4026.0999999046326},{""page_index"":2,""viewing_time"":4723.800000190735},{""page_index"":3,""viewing_time"":6571.899999856949},{""page_index"":4,""viewing_time"":10515.799999952316},{""page_index"":5,""viewing_time"":8968.100000143051},{""page_index"":6,""viewing_time"":1940.2000000476837}]","43912.799999952316","tol-instructions","","","","","","","","","","","","","","","","","","","","","","","","","","",""
"","","","","","html-button-response","4","59936","0.0-2.0-1.0-1.0-0.0","60bfa70dc02807c74e0277c7","F1","batch6","","892.2000000476837","tol_enter_quiz","<p class=block-text> Let's answer a few questions <br>","0","","","","","","","","","","","","","","","","","","","","","","","","",""
"","","","","","html-button-response","5","62892","0.0-2.0-1.0-1.0-1.0","60bfa70dc02807c74e0277c7","F1","batch6","","2956","tol_quiz","<p class = block-text>True or False: You can only move the ball on top of a peg. <br></p>","0","true","","","","","","","","","","","","","","","","","","","","","","","",""
"","","","","","html-button-response","6","64400","0.0-2.0-1.0-1.0-2.0","60bfa70dc02807c74e0277c7","F1","batch6","","1506.8999998569489","tol_quiz_feedback","<p class = block-text>Correct! You can only move the ball on top of a peg.</p>","0","","","","","","","","","","","","","","","","","","","","","","","","",""
"","","","","","html-button-response","7","67313","0.0-2.0-1.0-1.0-3.0","60bfa70dc02807c74e0277c7","F1","batch6","","2911.399999856949","tol_quiz","<p class = block-text>True or False: You should try to match your board with the target board with fewest moves possible. <br></p>","0","true","","","","","","","","","","","","","","","","","","","","","","","",""
"","","","","","html-button-response","8","68367","0.0-2.0-1.0-1.0-4.0","60bfa70dc02807c74e0277c7","F1","batch6","","1053.3999998569489","tol_quiz_feedback","<p class = block-text>Correct! </p>","0","","","","","","","","","","","","","","","","","","","","","","","","",""
"","","","","","html-button-response","9","71725","0.0-2.0-2.0","60bfa70dc02807c74e0277c7","F1","batch6","","3356.899999856949","","<p class=block-text> Now that you've understood the game, let's practice a few easier examples before we start!<br> <br>","0","","","","","","","","","","","","","","","","","","","","","","","","",""
"","","","","","single-stim-button","10","77196","0.0-2.0-3.0-0.0","60bfa70dc02807c74e0277c7","F1","batch6","","5470","tol_practice","","","","tol_peg_2","5470","5470","0","[[1,2,0],[0,0],[0]]","1","[[1,2,0],[0,0],[3]]","practice","5470","","","","","","","","","","","","","","",""
"","","","","","single-stim-button","11","79529","0.0-2.0-3.0-1.0","60bfa70dc02807c74e0277c7","F1","batch6","","2333","tol_practice","","","","tol_peg_3","2333","2333","0","[[1,2,0],[0,0],[3]]","1","[[1,2,0],[0,0],[3]]","practice","2333","","","","","","","","","","","","","","",""
"","","","","","poldrack-single-stim","12","80538","0.0-2.0-4.0","60bfa70dc02807c74e0277c7","F1","batch6","","-1","tol_feedback","","","true","","1000","1000","500","","","","","","-1","none","true","","0","","","","","","","","","",""
"","","","","","single-stim-button","13","85320","0.0-2.0-5.0-0.0","60bfa70dc02807c74e0277c7","F1","batch6","","4780","tol_practice","","","","tol_peg_1","4780","4780","0","[[1,0,0],[3,0],[0]]","2","[[0,0,0],[3,1],[2]]","practice","4780","","","","","","","","","","","","","","",""
"","","","","","single-stim-button","14","87332","0.0-2.0-5.0-1.0","60bfa70dc02807c74e0277c7","F1","batch6","","2011","tol_practice","","","","tol_peg_3","2011","2011","0","[[1,0,0],[3,0],[2]]","2","[[0,0,0],[3,1],[2]]","practice","2011","","","","","","","","","","","","","","",""
"","","","","","single-stim-button","15","88280","0.0-2.0-5.1-0.1","60bfa70dc02807c74e0277c7","F1","batch6","","948","tol_practice","","","","tol_peg_1","948","948","0","[[0,0,0],[3,0],[2]]","3","[[0,0,0],[3,1],[2]]","practice","948","","","","","","","","","","","","","","",""
"","","","","","single-stim-button","16","89407","0.0-2.0-5.1-1.1","60bfa70dc02807c74e0277c7","F1","batch6","","1126","tol_practice","","","","tol_peg_2","1126","1126","0","[[0,0,0],[3,1],[2]]","3","[[0,0,0],[3,1],[2]]","practice","1126","","","","","","","","","","","","","","",""
"","","","","","poldrack-single-stim","17","90408","0.0-2.0-6.0","60bfa70dc02807c74e0277c7","F1","batch6","","-1","tol_feedback","","","true","","1000","1000","500","","","","","","-1","none","true","","0","","","","","","","","","",""
"","","","","","single-stim-button","18","94382","0.0-2.0-7.0-0.0","60bfa70dc02807c74e0277c7","F1","batch6","","3974","tol_practice","","","","tol_peg_2","3974","3974","0","[[1,2,0],[0,0],[0]]","4","[[1,0,0],[2,0],[3]]","practice","3974","","","","","","","","","","","","","","",""
"","","","","","single-stim-button","19","95654","0.0-2.0-7.0-1.0","60bfa70dc02807c74e0277c7","F1","batch6","","1271","tol_practice","","","","tol_peg_3","1271","1271","0","[[1,2,0],[0,0],[3]]","4","[[1,0,0],[2,0],[3]]","practice","1271","","","","","","","","","","","","","","",""
"","","","","","single-stim-button","20","97179","0.0-2.0-7.1-0.1","60bfa70dc02807c74e0277c7","F1","batch6","","1524","tol_practice","","","","tol_peg_1","1524","1524","0","[[1,0,0],[0,0],[3]]","5","[[1,0,0],[2,0],[3]]","practice","1524","","","","","","","","","","","","","","",""
"","","","","","single-stim-button","21","98188","0.0-2.0-7.1-1.1","60bfa70dc02807c74e0277c7","F1","batch6","","1008","tol_practice","","","","tol_peg_2","1008","1008","0","[[1,0,0],[2,0],[3]]","5","[[1,0,0],[2,0],[3]]","practice","1008","","","","","","","","","","","","","","",""
"","","","","","poldrack-single-stim","22","99190","0.0-2.0-8.0","60bfa70dc02807c74e0277c7","F1","batch6","","-1","tol_feedback","","","true","","1000","1000","500","","","","","","-1","none","true","","0","","","","","","","","","",""
"","","","","","html-button-response","23","101615","0.0-2.0-9.0","60bfa70dc02807c74e0277c7","F1","batch6","","2424.600000143051","tol_instruction","<div class = centerbox><p class = center-block-text>Great job! You are done with practice trials<br>You are about to start official trials.<br> <br> Problem <strong>1</strong> out of 25 problems</p></div>","0","","","","","","","","","","","","","","","","","","","","","","","","",""
"","","","","","single-stim-button","24","109007","0.0-2.0-10.0-0.0","60bfa70dc02807c74e0277c7","F1","batch6","","6390","tol_tohand","","","","tol_peg_1","6390","6390","0","[[1,0,0],[3,0],[0]]","1","[[1,3,0],[2,0],[0]]","0","0","","","","","","3","","","","","","","","",""
"","","","","","single-stim-button","25","110756","0.0-2.0-10.0-1.0","60bfa70dc02807c74e0277c7","F1","batch6","","1749","tol_toboard","","","","tol_peg_3","1749","1749","0","[[1,0,0],[3,0],[2]]","1","[[1,3,0],[2,0],[0]]","0","0","","","","","","3","","","","","","","","",""
"","","","","","single-stim-button","26","111826","0.0-2.0-10.1-0.1","60bfa70dc02807c74e0277c7","F1","batch6","","1070","tol_tohand","","","","tol_peg_2","1070","1070","0","[[1,0,0],[0,0],[2]]","2","[[1,3,0],[2,0],[0]]","0","0","","","","","","3","","","","","","","","",""
"","","","","","single-stim-button","27","112616","0.0-2.0-10.1-1.1","60bfa70dc02807c74e0277c7","F1","batch6","","789","tol_toboard","","","","tol_peg_1","789","789","0","[[1,3,0],[0,0],[2]]","2","[[1,3,0],[2,0],[0]]","0","0","","","","","","3","","","","","","","","",""
"","","","","","single-stim-button","28","114368","0.0-2.0-10.2-0.2","60bfa70dc02807c74e0277c7","F1","batch6","","1751","tol_tohand","","","","tol_peg_3","1751","1751","0","[[1,3,0],[0,0],[0]]","3","[[1,3,0],[2,0],[0]]","0","0","","","","","","3","","","","","","","","",""
"","","","","","single-stim-button","29","115236","0.0-2.0-10.2-1.2","60bfa70dc02807c74e0277c7","F1","batch6","","868","tol_toboard","","","","tol_peg_2","868","868","0","[[1,3,0],[2,0],[0]]","3","[[1,3,0],[2,0],[0]]","0","0","","","","","","3","","","","","","","","",""
"","","","","","poldrack-single-stim","30","116238","0.0-2.0-11.0","60bfa70dc02807c74e0277c7","F1","batch6","","-1","tol_feedback","","","true","","1000","1000","500","","","","","","-1","none","true","6390","9211","","","","","","","","","",""
"","","","","","html-button-response","31","117212","0.0-2.0-12.0","60bfa70dc02807c74e0277c7","F1","batch6","","972.5","tol_trial_num","<div class = centerbox><p class = center-block-text>problem <strong>2</strong> out of 25 problems</p></div>","0","","","","","","","","","","","","","","","","","","","","","","","","",""
"","","","","","single-stim-button","32","122574","0.0-2.0-13.0-0.0","60bfa70dc02807c74e0277c7","F1","batch6","","5362","tol_tohand","","","","tol_peg_1","5362","5362","0","[[1,0,0],[3,0],[0]]","1","[[2,1,3],[0,0],[0]]","1","0","","","","","","5","","","","","","","","",""
"","","","","","single-stim-button","33","125868","0.0-2.0-13.0-1.0","60bfa70dc02807c74e0277c7","F1","batch6","","3292","tol_toboard","","","","tol_peg_2","3292","3292","0","[[1,0,0],[3,2],[0]]","1","[[2,1,3],[0,0],[0]]","1","0","","","","","","5","","","","","","","","",""
"","","","","","single-stim-button","34","128460","0.0-2.0-13.1-0.1","60bfa70dc02807c74e0277c7","F1","batch6","","2591","tol_tohand","","","","tol_peg_1","2591","2591","0","[[0,0,0],[3,2],[0]]","2","[[2,1,3],[0,0],[0]]","1","0","","","","","","5","","","","","","","","",""
"","","","","","single-stim-button","35","129340","0.0-2.0-13.1-1.1","60bfa70dc02807c74e0277c7","F1","batch6","","880","tol_toboard","","","","tol_peg_3","880","880","0","[[0,0,0],[3,2],[1]]","2","[[2,1,3],[0,0],[0]]","1","0","","","","","","5","","","","","","","","",""
"","","","","","single-stim-button","36","130468","0.0-2.0-13.2-0.2","60bfa70dc02807c74e0277c7","F1","batch6","","1127","tol_tohand","","","","tol_peg_2","1127","1127","0","[[0,0,0],[3,0],[1]]","3","[[2,1,3],[0,0],[0]]","1","0","","","","","","5","","","","","","","","",""
"","","","","","single-stim-button","37","131383","0.0-2.0-13.2-1.2","60bfa70dc02807c74e0277c7","F1","batch6","","914","tol_toboard","","","","tol_peg_1","914","914","0","[[2,0,0],[3,0],[1]]","3","[[2,1,3],[0,0],[0]]","1","0","","","","","","5","","","","","","","","",""
"","","","","","single-stim-button","38","132854","0.0-2.0-13.3-0.3","60bfa70dc02807c74e0277c7","F1","batch6","","1470","tol_tohand","","","","tol_peg_3","1470","1470","0","[[2,0,0],[3,0],[0]]","4","[[2,1,3],[0,0],[0]]","1","0","","","","","","5","","","","","","","","",""
"","","","","","single-stim-button","39","133809","0.0-2.0-13.3-1.3","60bfa70dc02807c74e0277c7","F1","batch6","","955","tol_toboard","","","","tol_peg_1","955","955","0","[[2,1,0],[3,0],[0]]","4","[[2,1,3],[0,0],[0]]","1","0","","","","","","5","","","","","","","","",""
"","","","","","single-stim-button","40","134546","0.0-2.0-13.4-0.4","60bfa70dc02807c74e0277c7","F1","batch6","","736","tol_tohand","","","","tol_peg_2","736","736","0","[[2,1,0],[0,0],[0]]","5","[[2,1,3],[0,0],[0]]","1","0","","","","","","5","","","","","","","","",""
"","","","","","single-stim-button","41","135234","0.0-2.0-13.4-1.4","60bfa70dc02807c74e0277c7","F1","batch6","","687","tol_toboard","","","","tol_peg_1","687","687","0","[[2,1,3],[0,0],[0]]","5","[[2,1,3],[0,0],[0]]","1","0","","","","","","5","","","","","","","","",""
"","","","","","poldrack-single-stim","42","136236","0.0-2.0-14.0","60bfa70dc02807c74e0277c7","F1","batch6","","-1","tol_feedback","","","true","","1000","1000","500","","","","","","-1","none","true","5362","11286","","","","","","","","","",""
"","","","","","html-button-response","43","137013","0.0-2.0-15.0","60bfa70dc02807c74e0277c7","F1","batch6","","775.4000000953674","tol_trial_num","<div class = centerbox><p class = center-block-text>problem <strong>3</strong> out of 25 problems</p></div>","0","","","","","","","","","","","","","","","","","","","","","","","","",""
"","","","","","single-stim-button","44","140787","0.0-2.0-16.0-0.0","60bfa70dc02807c74e0277c7","F1","batch6","","3773","tol_tohand","","","","tol_peg_1","3773","3773","0","[[2,0,0],[0,0],[1]]","1","[[1,2,0],[3,0],[0]]","2","0","","","","","","4","","","","","","","","",""
"","","","","","single-stim-button","45","142061","0.0-2.0-16.0-1.0","60bfa70dc02807c74e0277c7","F1","batch6","","1273","tol_toboard","","","","tol_peg_2","1273","1273","0","[[2,0,0],[3,0],[1]]","1","[[1,2,0],[3,0],[0]]","2","0","","","","","","4","","","","","","","","",""
"","","","","","single-stim-button","46","144392","0.0-2.0-16.1-0.1","60bfa70dc02807c74e0277c7","F1","batch6","","2331","tol_tohand","","","","tol_peg_1","2331","2331","0","[[0,0,0],[3,0],[1]]","2","[[1,2,0],[3,0],[0]]","2","0","","","","","","4","","","","","","","","",""
"","","","","","single-stim-button","47","145147","0.0-2.0-16.1-1.1","60bfa70dc02807c74e0277c7","F1","batch6","","754","tol_toboard","","","","tol_peg_2","754","754","0","[[0,0,0],[3,2],[1]]","2","[[1,2,0],[3,0],[0]]","2","0","","","","","","4","","","","","","","","",""
"","","","","","single-stim-button","48","146446","0.0-2.0-16.2-0.2","60bfa70dc02807c74e0277c7","F1","batch6","","1298","tol_tohand","","","","tol_peg_3","1298","1298","0","[[0,0,0],[3,2],[0]]","3","[[1,2,0],[3,0],[0]]","2","0","","","","","","4","","","","","","","","",""
"","","","","","single-stim-button","49","147326","0.0-2.0-16.2-1.2","60bfa70dc02807c74e0277c7","F1","batch6","","880","tol_toboard","","","","tol_peg_1","880","880","0","[[1,0,0],[3,2],[0]]","3","[[1,2,0],[3,0],[0]]","2","0","","","","","","4","","","","","","","","",""
"","","","","","single-stim-button","50","148239","0.0-2.0-16.3-0.3","60bfa70dc02807c74e0277c7","F1","batch6","","913","tol_tohand","","","","tol_peg_2","913","913","0","[[1,0,0],[3,0],[0]]","4","[[1,2,0],[3,0],[0]]","2","0","","","","","","4","","","","","","","","",""
"","","","","","single-stim-button","51","148987","0.0-2.0-16.3-1.3","60bfa70dc02807c74e0277c7","F1","batch6","","747","tol_toboard","","","","tol_peg_1","747","747","0","[[1,2,0],[3,0],[0]]","4","[[1,2,0],[3,0],[0]]","2","0","","","","","","4","","","","","","","","",""
"","","","","","poldrack-single-stim","52","149989","0.0-2.0-17.0","60bfa70dc02807c74e0277c7","F1","batch6","","-1","tol_feedback","","","true","","1000","1000","500","","","","","","-1","none","true","3773","8315","","","","","","","","","",""
"","","","","","html-button-response","53","150871","0.0-2.0-18.0","60bfa70dc02807c74e0277c7","F1","batch6","","881.7000000476837","tol_trial_num","<div class = centerbox><p class = center-block-text>problem <strong>4</strong> out of 25 problems</p></div>","0","","","","","","","","","","","","","","","","","","","","","","","","",""
"","","","","","single-stim-button","54","156333","0.0-2.0-19.0-0.0","60bfa70dc02807c74e0277c7","F1","batch6","","5460","tol_tohand","","","","tol_peg_2","5460","5460","0","[[3,0,0],[2,0],[0]]","1","[[3,0,0],[1,0],[2]]","3","0","","","","","","3","","","","","","","","",""
"","","","","","single-stim-button","55","157471","0.0-2.0-19.0-1.0","60bfa70dc02807c74e0277c7","F1","batch6","","1138","tol_toboard","","","","tol_peg_1","1138","1138","0","[[3,1,0],[2,0],[0]]","1","[[3,0,0],[1,0],[2]]","3","0","","","","","","3","","","","","","","","",""
"","","","","","single-stim-button","56","158371","0.0-2.0-19.1-0.1","60bfa70dc02807c74e0277c7","F1","batch6","","899","tol_tohand","","","","tol_peg_2","899","899","0","[[3,1,0],[0,0],[0]]","2","[[3,0,0],[1,0],[2]]","3","0","","","","","","3","","","","","","","","",""
"","","","","","single-stim-button","57","159107","0.0-2.0-19.1-1.1","60bfa70dc02807c74e0277c7","F1","batch6","","736","tol_toboard","","","","tol_peg_3","736","736","0","[[3,1,0],[0,0],[2]]","2","[[3,0,0],[1,0],[2]]","3","0","","","","","","3","","","","","","","","",""
"","","","","","single-stim-button","58","160005","0.0-2.0-19.2-0.2","60bfa70dc02807c74e0277c7","F1","batch6","","897","tol_tohand","","","","tol_peg_1","897","897","0","[[3,0,0],[0,0],[2]]","3","[[3,0,0],[1,0],[2]]","3","0","","","","","","3","","","","","","","","",""
"","","","","","single-stim-button","59","160647","0.0-2.0-19.2-1.2","60bfa70dc02807c74e0277c7","F1","batch6","","642","tol_toboard","","","","tol_peg_2","642","642","0","[[3,0,0],[1,0],[2]]","3","[[3,0,0],[1,0],[2]]","3","0","","","","","","3","","","","","","","","",""
"","","","","","poldrack-single-stim","60","161648","0.0-2.0-20.0","60bfa70dc02807c74e0277c7","F1","batch6","","-1","tol_feedback","","","true","","1000","1000","500","","","","","","-1","none","true","5460","7256","","","","","","","","","",""
"","","","","","html-button-response","61","162590","0.0-2.0-21.0","60bfa70dc02807c74e0277c7","F1","batch6","","941.3999998569489","tol_trial_num","<div class = centerbox><p class = center-block-text>problem <strong>5</strong> out of 25 problems</p></div>","0","","","","","","","","","","","","","","","","","","","","","","","","",""
"","","","","","single-stim-button","62","176587","0.0-2.0-22.0-0.0","60bfa70dc02807c74e0277c7","F1","batch6","","13997","tol_tohand","","","","tol_peg_3","13997","13997","0","[[1,0,0],[2,0],[0]]","1","[[0,0,0],[1,2],[3]]","4","0","","","","","","7","","","","","","","","",""
"","","","","","single-stim-button","63","177661","0.0-2.0-22.0-1.0","60bfa70dc02807c74e0277c7","F1","batch6","","1074","tol_toboard","","","","tol_peg_1","1074","1074","0","[[1,3,0],[2,0],[0]]","1","[[0,0,0],[1,2],[3]]","4","0","","","","","","7","","","","","","","","",""
"","","","","","single-stim-button","64","179077","0.0-2.0-22.1-0.1","60bfa70dc02807c74e0277c7","F1","batch6","","1415","tol_tohand","","","","tol_peg_2","1415","1415","0","[[1,3,0],[0,0],[0]]","2","[[0,0,0],[1,2],[3]]","4","0","","","","","","7","","","","","","","","",""
"","","","","","single-stim-button","65","179828","0.0-2.0-22.1-1.1","60bfa70dc02807c74e0277c7","F1","batch6","","750","tol_toboard","","","","tol_peg_3","750","750","0","[[1,3,0],[0,0],[2]]","2","[[0,0,0],[1,2],[3]]","4","0","","","","","","7","","","","","","","","",""
"","","","","","single-stim-button","66","198885","0.0-2.0-22.2-0.2","60bfa70dc02807c74e0277c7","F1","batch6","","19057","tol_tohand","","","","tol_peg_1","19057","19057","0","[[1,0,0],[0,0],[2]]","3","[[0,0,0],[1,2],[3]]","4","0","","","","","","7","","","","","","","","",""
"","","","","","single-stim-button","67","242593","0.0-2.0-22.2-1.2","60bfa70dc02807c74e0277c7","F1","batch6","","43708","tol_toboard","","","","tol_peg_2","43708","43708","0","[[1,0,0],[3,0],[2]]","3","[[0,0,0],[1,2],[3]]","4","0","","","","","","7","","","","","","","","",""
"","","","","","single-stim-button","68","243418","0.0-2.0-22.3-0.3","60bfa70dc02807c74e0277c7","F1","batch6","","825","tol_tohand","","","","tol_peg_1","825","825","0","[[0,0,0],[3,0],[2]]","4","[[0,0,0],[1,2],[3]]","4","0","","","","","","7","","","","","","","","",""
"","","","","","single-stim-button","69","244879","0.0-2.0-22.3-1.3","60bfa70dc02807c74e0277c7","F1","batch6","","1461","tol_toboard","","","","tol_peg_2","1461","1461","0","[[0,0,0],[3,1],[2]]","4","[[0,0,0],[1,2],[3]]","4","0","","","","","","7","","","","","","","","",""
"","","","","","single-stim-button","70","245569","0.0-2.0-22.4-0.4","60bfa70dc02807c74e0277c7","F1","batch6","","690","tol_tohand","","","","tol_peg_3","690","690","0","[[0,0,0],[3,1],[0]]","5","[[0,0,0],[1,2],[3]]","4","0","","","","","","7","","","","","","","","",""
"","","","","","single-stim-button","71","246996","0.0-2.0-22.4-1.4","60bfa70dc02807c74e0277c7","F1","batch6","","1427","tol_toboard","","","","tol_peg_1","1427","1427","0","[[2,0,0],[3,1],[0]]","5","[[0,0,0],[1,2],[3]]","4","0","","","","","","7","","","","","","","","",""
"","","","","","single-stim-button","72","248295","0.0-2.0-22.5-0.5","60bfa70dc02807c74e0277c7","F1","batch6","","1299","tol_tohand","","","","tol_peg_2","1299","1299","0","[[2,0,0],[3,0],[0]]","6","[[0,0,0],[1,2],[3]]","4","0","","","","","","7","","","","","","","","",""
"","","","","","single-stim-button","73","249376","0.0-2.0-22.5-1.5","60bfa70dc02807c74e0277c7","F1","batch6","","1081","tol_toboard","","","","tol_peg_1","1081","1081","0","[[2,1,0],[3,0],[0]]","6","[[0,0,0],[1,2],[3]]","4","0","","","","","","7","","","","","","","","",""
"","","","","","single-stim-button","74","250425","0.0-2.0-22.6-0.6","60bfa70dc02807c74e0277c7","F1","batch6","","1049","tol_tohand","","","","tol_peg_2","1049","1049","0","[[2,1,0],[0,0],[0]]","7","[[0,0,0],[1,2],[3]]","4","0","","","","","","7","","","","","","","","",""
"","","","","","single-stim-button","75","251368","0.0-2.0-22.6-1.6","60bfa70dc02807c74e0277c7","F1","batch6","","943","tol_toboard","","","","tol_peg_3","943","943","0","[[2,1,0],[0,0],[3]]","7","[[0,0,0],[1,2],[3]]","4","0","","","","","","7","","","","","","","","",""
"","","","","","single-stim-button","76","252133","0.0-2.0-22.7-0.7","60bfa70dc02807c74e0277c7","F1","batch6","","765","tol_tohand","","","","tol_peg_1","765","765","0","[[2,0,0],[0,0],[3]]","8","[[0,0,0],[1,2],[3]]","4","0","","","","","","7","","","","","","","","",""
"","","","","","single-stim-button","77","252759","0.0-2.0-22.7-1.7","60bfa70dc02807c74e0277c7","F1","batch6","","626","tol_toboard","","","","tol_peg_2","626","626","0","[[2,0,0],[1,0],[3]]","8","[[0,0,0],[1,2],[3]]","4","0","","","","","","7","","","","","","","","",""
"","","","","","single-stim-button","78","253379","0.0-2.0-22.8-0.8","60bfa70dc02807c74e0277c7","F1","batch6","","619","tol_tohand","","","","tol_peg_1","619","619","0","[[0,0,0],[1,0],[3]]","9","[[0,0,0],[1,2],[3]]","4","0","","","","","","7","","","","","","","","",""
"","","","","","single-stim-button","79","253948","0.0-2.0-22.8-1.8","60bfa70dc02807c74e0277c7","F1","batch6","","569","tol_toboard","","","","tol_peg_2","569","569","0","[[0,0,0],[1,2],[3]]","9","[[0,0,0],[1,2],[3]]","4","0","","","","","","7","","","","","","","","",""
"","","","","","poldrack-single-stim","80","254950","0.0-2.0-23.0","60bfa70dc02807c74e0277c7","F1","batch6","","-1","tol_feedback","","","true","","1000","1000","500","","","","","","-1","none","true","13997","39716","","","","","","","","","",""
"","","","","","html-button-response","81","255790","0.0-2.0-24.0","60bfa70dc02807c74e0277c7","F1","batch6","","839.6999998092651","tol_trial_num","<div class = centerbox><p class = center-block-text>problem <strong>6</strong> out of 25 problems</p></div>","0","","","","","","","","","","","","","","","","","","","","","","","","",""
"","","","","","single-stim-button","82","272862","0.0-2.0-25.0-0.0","60bfa70dc02807c74e0277c7","F1","batch6","","17072","tol_tohand","","","","tol_peg_3","17072","17072","0","[[0,0,0],[1,2],[0]]","1","[[1,0,0],[2,3],[0]]","5","0","","","","","","6","","","","","","","","",""
"","","","","","single-stim-button","83","273666","0.0-2.0-25.0-1.0","60bfa70dc02807c74e0277c7","F1","batch6","","804","tol_toboard","","","","tol_peg_1","804","804","0","[[3,0,0],[1,2],[0]]","1","[[1,0,0],[2,3],[0]]","5","0","","","","","","6","","","","","","","","",""
"","","","","","single-stim-button","84","274825","0.0-2.0-25.1-0.1","60bfa70dc02807c74e0277c7","F1","batch6","","1159","tol_tohand","","","","tol_peg_2","1159","1159","0","[[3,0,0],[1,0],[0]]","2","[[1,0,0],[2,3],[0]]","5","0","","","","","","6","","","","","","","","",""
"","","","","","single-stim-button","85","277289","0.0-2.0-25.1-1.1","60bfa70dc02807c74e0277c7","F1","batch6","","2464","tol_toboard","","","","tol_peg_3","2464","2464","0","[[3,0,0],[1,0],[2]]","2","[[1,0,0],[2,3],[0]]","5","0","","","","","","6","","","","","","","","",""
"","","","","","single-stim-button","86","279724","0.0-2.0-25.2-0.2","60bfa70dc02807c74e0277c7","F1","batch6","","2435","tol_tohand","","","","tol_peg_2","2435","2435","0","[[3,0,0],[0,0],[2]]","3","[[1,0,0],[2,3],[0]]","5","0","","","","","","6","","","","","","","","",""
"","","","","","single-stim-button","87","280468","0.0-2.0-25.2-1.2","60bfa70dc02807c74e0277c7","F1","batch6","","744","tol_toboard","","","","tol_peg_1","744","744","0","[[3,1,0],[0,0],[2]]","3","[[1,0,0],[2,3],[0]]","5","0","","","","","","6","","","","","","","","",""
"","","","","","single-stim-button","88","281300","0.0-2.0-25.3-0.3","60bfa70dc02807c74e0277c7","F1","batch6","","832","tol_tohand","","","","tol_peg_3","832","832","0","[[3,1,0],[0,0],[0]]","4","[[1,0,0],[2,3],[0]]","5","0","","","","","","6","","","","","","","","",""
"","","","","","single-stim-button","89","282047","0.0-2.0-25.3-1.3","60bfa70dc02807c74e0277c7","F1","batch6","","747","tol_toboard","","","","tol_peg_2","747","747","0","[[3,1,0],[2,0],[0]]","4","[[1,0,0],[2,3],[0]]","5","0","","","","","","6","","","","","","","","",""
"","","","","","single-stim-button","90","282859","0.0-2.0-25.4-0.4","60bfa70dc02807c74e0277c7","F1","batch6","","811","tol_tohand","","","","tol_peg_1","811","811","0","[[3,0,0],[2,0],[0]]","5","[[1,0,0],[2,3],[0]]","5","0","","","","","","6","","","","","","","","",""
"","","","","","single-stim-button","91","283981","0.0-2.0-25.4-1.4","60bfa70dc02807c74e0277c7","F1","batch6","","1122","tol_toboard","","","","tol_peg_3","1122","1122","0","[[3,0,0],[2,0],[1]]","5","[[1,0,0],[2,3],[0]]","5","0","","","","","","6","","","","","","","","",""
"","","","","","single-stim-button","92","284705","0.0-2.0-25.5-0.5","60bfa70dc02807c74e0277c7","F1","batch6","","724","tol_tohand","","","","tol_peg_1","724","724","0","[[0,0,0],[2,0],[1]]","6","[[1,0,0],[2,3],[0]]","5","0","","","","","","6","","","","","","","","",""
"","","","","","single-stim-button","93","285460","0.0-2.0-25.5-1.5","60bfa70dc02807c74e0277c7","F1","batch6","","755","tol_toboard","","","","tol_peg_2","755","755","0","[[0,0,0],[2,3],[1]]","6","[[1,0,0],[2,3],[0]]","5","0","","","","","","6","","","","","","","","",""
"","","","","","single-stim-button","94","286403","0.0-2.0-25.6-0.6","60bfa70dc02807c74e0277c7","F1","batch6","","943","tol_tohand","","","","tol_peg_3","943","943","0","[[0,0,0],[2,3],[0]]","7","[[1,0,0],[2,3],[0]]","5","0","","","","","","6","","","","","","","","",""
"","","","","","single-stim-button","95","287098","0.0-2.0-25.6-1.6","60bfa70dc02807c74e0277c7","F1","batch6","","695","tol_toboard","","","","tol_peg_1","695","695","0","[[1,0,0],[2,3],[0]]","7","[[1,0,0],[2,3],[0]]","5","0","","","","","","6","","","","","","","","",""
"","","","","","poldrack-single-stim","96","288099","0.0-2.0-26.0","60bfa70dc02807c74e0277c7","F1","batch6","","-1","tol_feedback","","","true","","1000","1000","500","","","","","","-1","none","true","17072","23976","","","","","","","","","",""
"","","","","","html-button-response","97","288821","0.0-2.0-27.0","60bfa70dc02807c74e0277c7","F1","batch6","","721.4000000953674","tol_trial_num","<div class = centerbox><p class = center-block-text>problem <strong>7</strong> out of 25 problems</p></div>","0","","","","","","","","","","","","","","","","","","","","","","","","",""
"","","","","","single-stim-button","98","299494","0.0-2.0-28.0-0.0","60bfa70dc02807c74e0277c7","F1","batch6","","10673","tol_tohand","","","","tol_peg_3","10673","10673","0","[[2,1,0],[0,0],[0]]","1","[[1,2,0],[3,0],[0]]","6","0","","","","","","5","","","","","","","","",""
"","","","","","single-stim-button","99","300105","0.0-2.0-28.0-1.0","60bfa70dc02807c74e0277c7","F1","batch6","","609","tol_toboard","","","","tol_peg_2","609","609","0","[[2,1,0],[3,0],[0]]","1","[[1,2,0],[3,0],[0]]","6","0","","","","","","5","","","","","","","","",""
"","","","","","single-stim-button","100","301001","0.0-2.0-28.1-0.1","60bfa70dc02807c74e0277c7","F1","batch6","","896","tol_tohand","","","","tol_peg_1","896","896","0","[[2,0,0],[3,0],[0]]","2","[[1,2,0],[3,0],[0]]","6","0","","","","","","5","","","","","","","","",""
"","","","","","single-stim-button","101","302027","0.0-2.0-28.1-1.1","60bfa70dc02807c74e0277c7","F1","batch6","","1025","tol_toboard","","","","tol_peg_3","1025","1025","0","[[2,0,0],[3,0],[1]]","2","[[1,2,0],[3,0],[0]]","6","0","","","","","","5","","","","","","","","",""
"","","","","","single-stim-button","102","302829","0.0-2.0-28.2-0.2","60bfa70dc02807c74e0277c7","F1","batch6","","802","tol_tohand","","","","tol_peg_1","802","802","0","[[0,0,0],[3,0],[1]]","3","[[1,2,0],[3,0],[0]]","6","0","","","","","","5","","","","","","","","",""
"","","","","","single-stim-button","103","303382","0.0-2.0-28.2-1.2","60bfa70dc02807c74e0277c7","F1","batch6","","551","tol_toboard","","","","tol_peg_2","551","551","0","[[0,0,0],[3,2],[1]]","3","[[1,2,0],[3,0],[0]]","6","0","","","","","","5","","","","","","","","",""
"","","","","","single-stim-button","104","304124","0.0-2.0-28.3-0.3","60bfa70dc02807c74e0277c7","F1","batch6","","742","tol_tohand","","","","tol_peg_3","742","742","0","[[0,0,0],[3,2],[0]]","4","[[1,2,0],[3,0],[0]]","6","0","","","","","","5","","","","","","","","",""
"","","","","","single-stim-button","105","304831","0.0-2.0-28.3-1.3","60bfa70dc02807c74e0277c7","F1","batch6","","706","tol_toboard","","","","tol_peg_1","706","706","0","[[1,0,0],[3,2],[0]]","4","[[1,2,0],[3,0],[0]]","6","0","","","","","","5","","","","","","","","",""
"","","","","","single-stim-button","106","305440","0.0-2.0-28.4-0.4","60bfa70dc02807c74e0277c7","F1","batch6","","608","tol_tohand","","","","tol_peg_2","608","608","0","[[1,0,0],[3,0],[0]]","5","[[1,2,0],[3,0],[0]]","6","0","","","","","","5","","","","","","","","",""
"","","","","","single-stim-button","107","306165","0.0-2.0-28.4-1.4","60bfa70dc02807c74e0277c7","F1","batch6","","725","tol_toboard","","","","tol_peg_1","725","725","0","[[1,2,0],[3,0],[0]]","5","[[1,2,0],[3,0],[0]]","6","0","","","","","","5","","","","","","","","",""
"","","","","","poldrack-single-stim","108","307166","0.0-2.0-29.0","60bfa70dc02807c74e0277c7","F1","batch6","","-1","tol_feedback","","","true","","1000","1000","500","","","","","","-1","none","true","10673","13721","","","","","","","","","",""
"","","","","","html-button-response","109","308151","0.0-2.0-30.0","60bfa70dc02807c74e0277c7","F1","batch6","","984.7999999523163","tol_trial_num","<div class = centerbox><p class = center-block-text>problem <strong>8</strong> out of 25 problems</p></div>","0","","","","","","","","","","","","","","","","","","","","","","","","",""
"","","","","","single-stim-button","110","312922","0.0-2.0-31.0-0.0","60bfa70dc02807c74e0277c7","F1","batch6","","4769","tol_tohand","","","","tol_peg_3","4769","4769","0","[[0,0,0],[2,3],[0]]","1","[[1,2,0],[3,0],[0]]","7","0","","","","","","4","","","","","","","","",""
"","","","","","single-stim-button","111","313477","0.0-2.0-31.0-1.0","60bfa70dc02807c74e0277c7","F1","batch6","","555","tol_toboard","","","","tol_peg_1","555","555","0","[[1,0,0],[2,3],[0]]","1","[[1,2,0],[3,0],[0]]","7","0","","","","","","4","","","","","","","","",""
"","","","","","single-stim-button","112","315495","0.0-2.0-31.1-0.1","60bfa70dc02807c74e0277c7","F1","batch6","","2017","tol_tohand","","","","tol_peg_2","2017","2017","0","[[1,0,0],[2,0],[0]]","2","[[1,2,0],[3,0],[0]]","7","0","","","","","","4","","","","","","","","",""
"","","","","","single-stim-button","113","315999","0.0-2.0-31.1-1.1","60bfa70dc02807c74e0277c7","F1","batch6","","504","tol_toboard","","","","tol_peg_3","504","504","0","[[1,0,0],[2,0],[3]]","2","[[1,2,0],[3,0],[0]]","7","0","","","","","","4","","","","","","","","",""
"","","","","","single-stim-button","114","316466","0.0-2.0-31.2-0.2","60bfa70dc02807c74e0277c7","F1","batch6","","467","tol_tohand","","","","tol_peg_2","467","467","0","[[1,0,0],[0,0],[3]]","3","[[1,2,0],[3,0],[0]]","7","0","","","","","","4","","","","","","","","",""
"","","","","","single-stim-button","115","317099","0.0-2.0-31.2-1.2","60bfa70dc02807c74e0277c7","F1","batch6","","632","tol_toboard","","","","tol_peg_1","632","632","0","[[1,2,0],[0,0],[3]]","3","[[1,2,0],[3,0],[0]]","7","0","","","","","","4","","","","","","","","",""
"","","","","","single-stim-button","116","318015","0.0-2.0-31.3-0.3","60bfa70dc02807c74e0277c7","F1","batch6","","916","tol_tohand","","","","tol_peg_3","916","916","0","[[1,2,0],[0,0],[0]]","4","[[1,2,0],[3,0],[0]]","7","0","","","","","","4","","","","","","","","",""
"","","","","","single-stim-button","117","318601","0.0-2.0-31.3-1.3","60bfa70dc02807c74e0277c7","F1","batch6","","586","tol_toboard","","","","tol_peg_2","586","586","0","[[1,2,0],[3,0],[0]]","4","[[1,2,0],[3,0],[0]]","7","0","","","","","","4","","","","","","","","",""
"","","","","","poldrack-single-stim","118","319603","0.0-2.0-32.0","60bfa70dc02807c74e0277c7","F1","batch6","","-1","tol_feedback","","","true","","1000","1000","500","","","","","","-1","none","true","4769","8169","","","","","","","","","",""
"","","","","","html-button-response","119","320333","0.0-2.0-33.0","60bfa70dc02807c74e0277c7","F1","batch6","","730.0999999046326","tol_trial_num","<div class = centerbox><p class = center-block-text>problem <strong>9</strong> out of 25 problems</p></div>","0","","","","","","","","","","","","","","","","","","","","","","","","",""
"","","","","","single-stim-button","120","332056","0.0-2.0-34.0-0.0","60bfa70dc02807c74e0277c7","F1","batch6","","11721","tol_tohand","","","","tol_peg_3","11721","11721","0","[[3,2,0],[0,0],[0]]","1","[[2,1,0],[3,0],[0]]","8","0","","","","","","6","","","","","","","","",""
"","","","","","single-stim-button","121","332681","0.0-2.0-34.0-1.0","60bfa70dc02807c74e0277c7","F1","batch6","","625","tol_toboard","","","","tol_peg_2","625","625","0","[[3,2,0],[1,0],[0]]","1","[[2,1,0],[3,0],[0]]","8","0","","","","","","6","","","","","","","","",""
"","","","","","single-stim-button","122","333184","0.0-2.0-34.1-0.1","60bfa70dc02807c74e0277c7","F1","batch6","","502","tol_tohand","","","","tol_peg_1","502","502","0","[[3,0,0],[1,0],[0]]","2","[[2,1,0],[3,0],[0]]","8","0","","","","","","6","","","","","","","","",""
"","","","","","single-stim-button","123","333761","0.0-2.0-34.1-1.1","60bfa70dc02807c74e0277c7","F1","batch6","","577","tol_toboard","","","","tol_peg_2","577","577","0","[[3,0,0],[1,2],[0]]","2","[[2,1,0],[3,0],[0]]","8","0","","","","","","6","","","","","","","","",""
"","","","","","single-stim-button","124","334357","0.0-2.0-34.2-0.2","60bfa70dc02807c74e0277c7","F1","batch6","","595","tol_tohand","","","","tol_peg_1","595","595","0","[[0,0,0],[1,2],[0]]","3","[[2,1,0],[3,0],[0]]","8","0","","","","","","6","","","","","","","","",""
"","","","","","single-stim-button","125","335055","0.0-2.0-34.2-1.2","60bfa70dc02807c74e0277c7","F1","batch6","","698","tol_toboard","","","","tol_peg_3","698","698","0","[[0,0,0],[1,2],[3]]","3","[[2,1,0],[3,0],[0]]","8","0","","","","","","6","","","","","","","","",""
"","","","","","single-stim-button","126","335448","0.0-2.0-34.3-0.3","60bfa70dc02807c74e0277c7","F1","batch6","","392","tol_tohand","","","","tol_peg_2","392","392","0","[[0,0,0],[1,0],[3]]","4","[[2,1,0],[3,0],[0]]","8","0","","","","","","6","","","","","","","","",""
"","","","","","single-stim-button","127","335994","0.0-2.0-34.3-1.3","60bfa70dc02807c74e0277c7","F1","batch6","","546","tol_toboard","","","","tol_peg_1","546","546","0","[[2,0,0],[1,0],[3]]","4","[[2,1,0],[3,0],[0]]","8","0","","","","","","6","","","","","","","","",""
"","","","","","single-stim-button","128","336758","0.0-2.0-34.4-0.4","60bfa70dc02807c74e0277c7","F1","batch6","","762","tol_tohand","","","","tol_peg_2","762","762","0","[[2,0,0],[0,0],[3]]","5","[[2,1,0],[3,0],[0]]","8","0","","","","","","6","","","","","","","","",""
"","","","","","single-stim-button","129","337545","0.0-2.0-34.4-1.4","60bfa70dc02807c74e0277c7","F1","batch6","","787","tol_toboard","","","","tol_peg_1","787","787","0","[[2,1,0],[0,0],[3]]","5","[[2,1,0],[3,0],[0]]","8","0","","","","","","6","","","","","","","","",""
"","","","","","single-stim-button","130","338137","0.0-2.0-34.5-0.5","60bfa70dc02807c74e0277c7","F1","batch6","","592","tol_tohand","","","","tol_peg_3","592","592","0","[[2,1,0],[0,0],[0]]","6","[[2,1,0],[3,0],[0]]","8","0","","","","","","6","","","","","","","","",""
"","","","","","single-stim-button","131","338598","0.0-2.0-34.5-1.5","60bfa70dc02807c74e0277c7","F1","batch6","","461","tol_toboard","","","","tol_peg_2","461","461","0","[[2,1,0],[3,0],[0]]","6","[[2,1,0],[3,0],[0]]","8","0","","","","","","6","","","","","","","","",""
"","","","","","poldrack-single-stim","132","339600","0.0-2.0-35.0","60bfa70dc02807c74e0277c7","F1","batch6","","-1","tol_feedback","","","true","","1000","1000","500","","","","","","-1","none","true","11721","14564","","","","","","","","","",""
"","","","","","html-button-response","133","340458","0.0-2.0-36.0","60bfa70dc02807c74e0277c7","F1","batch6","","857.9000000953674","tol_trial_num","<div class = centerbox><p class = center-block-text>problem <strong>10</strong> out of 25 problems</p></div>","0","","","","","","","","","","","","","","","","","","","","","","","","",""
"","","","","","single-stim-button","134","344737","0.0-2.0-37.0-0.0","60bfa70dc02807c74e0277c7","F1","batch6","","4278","tol_tohand","","","","tol_peg_2","4278","4278","0","[[3,0,0],[0,0],[2]]","1","[[3,0,0],[2,1],[0]]","9","0","","","","","","3","","","","","","","","",""
"","","","","","single-stim-button","135","345790","0.0-2.0-37.0-1.0","60bfa70dc02807c74e0277c7","F1","batch6","","1051","tol_toboard","","","","tol_peg_1","1051","1051","0","[[3,1,0],[0,0],[2]]","1","[[3,0,0],[2,1],[0]]","9","0","","","","","","3","","","","","","","","",""
"","","","","","single-stim-button","136","346408","0.0-2.0-37.1-0.1","60bfa70dc02807c74e0277c7","F1","batch6","","618","tol_tohand","","","","tol_peg_3","618","618","0","[[3,1,0],[0,0],[0]]","2","[[3,0,0],[2,1],[0]]","9","0","","","","","","3","","","","","","","","",""
"","","","","","single-stim-button","137","347086","0.0-2.0-37.1-1.1","60bfa70dc02807c74e0277c7","F1","batch6","","677","tol_toboard","","","","tol_peg_2","677","677","0","[[3,1,0],[2,0],[0]]","2","[[3,0,0],[2,1],[0]]","9","0","","","","","","3","","","","","","","","",""
"","","","","","single-stim-button","138","347663","0.0-2.0-37.2-0.2","60bfa70dc02807c74e0277c7","F1","batch6","","577","tol_tohand","","","","tol_peg_1","577","577","0","[[3,0,0],[2,0],[0]]","3","[[3,0,0],[2,1],[0]]","9","0","","","","","","3","","","","","","","","",""
"","","","","","single-stim-button","139","348307","0.0-2.0-37.2-1.2","60bfa70dc02807c74e0277c7","F1","batch6","","644","tol_toboard","","","","tol_peg_2","644","644","0","[[3,0,0],[2,1],[0]]","3","[[3,0,0],[2,1],[0]]","9","0","","","","","","3","","","","","","","","",""
"","","","","","poldrack-single-stim","140","349309","0.0-2.0-38.0","60bfa70dc02807c74e0277c7","F1","batch6","","-1","tol_feedback","","","true","","1000","1000","500","","","","","","-1","none","true","4278","5473","","","","","","","","","",""
"","","","","","html-button-response","141","350124","0.0-2.0-39.0","60bfa70dc02807c74e0277c7","F1","batch6","","814.8999998569489","tol_trial_num","<div class = centerbox><p class = center-block-text>problem <strong>11</strong> out of 25 problems</p></div>","0","","","","","","","","","","","","","","","","","","","","","","","","",""
"","","","","","single-stim-button","142","358093","0.0-2.0-40.0-0.0","60bfa70dc02807c74e0277c7","F1","batch6","","7968","tol_tohand","","","","tol_peg_2","7968","7968","0","[[1,2,0],[0,0],[0]]","1","[[2,0,0],[1,3],[0]]","10","0","","","","","","6","","","","","","","","",""
"","","","","","single-stim-button","143","358685","0.0-2.0-40.0-1.0","60bfa70dc02807c74e0277c7","F1","batch6","","592","tol_toboard","","","","tol_peg_3","592","592","0","[[1,2,0],[0,0],[3]]","1","[[2,0,0],[1,3],[0]]","10","0","","","","","","6","","","","","","","","",""
"","","","","","single-stim-button","144","381008","0.0-2.0-40.1-0.1","60bfa70dc02807c74e0277c7","F1","batch6","","22322","tol_tohand","","","","tol_peg_3","22322","22322","0","[[1,2,0],[0,0],[0]]","2","[[2,0,0],[1,3],[0]]","10","0","","","","","","6","","","","","","","","",""
"","","","","","single-stim-button","145","381729","0.0-2.0-40.1-1.1","60bfa70dc02807c74e0277c7","F1","batch6","","721","tol_toboard","","","","tol_peg_2","721","721","0","[[1,2,0],[3,0],[0]]","2","[[2,0,0],[1,3],[0]]","10","0","","","","","","6","","","","","","","","",""
"","","","","","single-stim-button","146","382496","0.0-2.0-40.2-0.2","60bfa70dc02807c74e0277c7","F1","batch6","","767","tol_tohand","","","","tol_peg_1","767","767","0","[[1,0,0],[3,0],[0]]","3","[[2,0,0],[1,3],[0]]","10","0","","","","","","6","","","","","","","","",""
"","","","","","single-stim-button","147","385426","0.0-2.0-40.2-1.2","60bfa70dc02807c74e0277c7","F1","batch6","","2930","tol_toboard","","","","tol_peg_3","2930","2930","0","[[1,0,0],[3,0],[2]]","3","[[2,0,0],[1,3],[0]]","10","0","","","","","","6","","","","","","","","",""
"","","","","","single-stim-button","148","386224","0.0-2.0-40.3-0.3","60bfa70dc02807c74e0277c7","F1","batch6","","797","tol_tohand","","","","tol_peg_1","797","797","0","[[0,0,0],[3,0],[2]]","4","[[2,0,0],[1,3],[0]]","10","0","","","","","","6","","","","","","","","",""
"","","","","","single-stim-button","149","386799","0.0-2.0-40.3-1.3","60bfa70dc02807c74e0277c7","F1","batch6","","575","tol_toboard","","","","tol_peg_2","575","575","0","[[0,0,0],[3,1],[2]]","4","[[2,0,0],[1,3],[0]]","10","0","","","","","","6","","","","","","","","",""
"","","","","","single-stim-button","150","387442","0.0-2.0-40.4-0.4","60bfa70dc02807c74e0277c7","F1","batch6","","643","tol_tohand","","","","tol_peg_3","643","643","0","[[0,0,0],[3,1],[0]]","5","[[2,0,0],[1,3],[0]]","10","0","","","","","","6","","","","","","","","",""
"","","","","","single-stim-button","151","388139","0.0-2.0-40.4-1.4","60bfa70dc02807c74e0277c7","F1","batch6","","696","tol_toboard","","","","tol_peg_1","696","696","0","[[2,0,0],[3,1],[0]]","5","[[2,0,0],[1,3],[0]]","10","0","","","","","","6","","","","","","","","",""
"","","","","","single-stim-button","152","389345","0.0-2.0-40.5-0.5","60bfa70dc02807c74e0277c7","F1","batch6","","1206","tol_tohand","","","","tol_peg_2","1206","1206","0","[[2,0,0],[3,0],[0]]","6","[[2,0,0],[1,3],[0]]","10","0","","","","","","6","","","","","","","","",""
"","","","","","single-stim-button","153","390418","0.0-2.0-40.5-1.5","60bfa70dc02807c74e0277c7","F1","batch6","","1072","tol_toboard","","","","tol_peg_1","1072","1072","0","[[2,1,0],[3,0],[0]]","6","[[2,0,0],[1,3],[0]]","10","0","","","","","","6","","","","","","","","",""
"","","","","","single-stim-button","154","391064","0.0-2.0-40.6-0.6","60bfa70dc02807c74e0277c7","F1","batch6","","646","tol_tohand","","","","tol_peg_2","646","646","0","[[2,1,0],[0,0],[0]]","7","[[2,0,0],[1,3],[0]]","10","0","","","","","","6","","","","","","","","",""
"","","","","","single-stim-button","155","391690","0.0-2.0-40.6-1.6","60bfa70dc02807c74e0277c7","F1","batch6","","625","tol_toboard","","","","tol_peg_3","625","625","0","[[2,1,0],[0,0],[3]]","7","[[2,0,0],[1,3],[0]]","10","0","","","","","","6","","","","","","","","",""
"","","","","","single-stim-button","156","392346","0.0-2.0-40.7-0.7","60bfa70dc02807c74e0277c7","F1","batch6","","656","tol_tohand","","","","tol_peg_1","656","656","0","[[2,0,0],[0,0],[3]]","8","[[2,0,0],[1,3],[0]]","10","0","","","","","","6","","","","","","","","",""
"","","","","","single-stim-button","157","392828","0.0-2.0-40.7-1.7","60bfa70dc02807c74e0277c7","F1","batch6","","482","tol_toboard","","","","tol_peg_2","482","482","0","[[2,0,0],[1,0],[3]]","8","[[2,0,0],[1,3],[0]]","10","0","","","","","","6","","","","","","","","",""
"","","","","","single-stim-button","158","393409","0.0-2.0-40.8-0.8","60bfa70dc02807c74e0277c7","F1","batch6","","581","tol_tohand","","","","tol_peg_3","581","581","0","[[2,0,0],[1,0],[0]]","9","[[2,0,0],[1,3],[0]]","10","0","","","","","","6","","","","","","","","",""
"","","","","","single-stim-button","159","393926","0.0-2.0-40.8-1.8","60bfa70dc02807c74e0277c7","F1","batch6","","517","tol_toboard","","","","tol_peg_2","517","517","0","[[2,0,0],[1,3],[0]]","9","[[2,0,0],[1,3],[0]]","10","0","","","","","","6","","","","","","","","",""
"","","","","","poldrack-single-stim","160","394927","0.0-2.0-41.0","60bfa70dc02807c74e0277c7","F1","batch6","","-1","tol_feedback","","","true","","1000","1000","500","","","","","","-1","none","true","7968","35586","","","","","","","","","",""
"","","","","","html-button-response","161","395857","0.0-2.0-42.0","60bfa70dc02807c74e0277c7","F1","batch6","","928.8999998569489","tol_trial_num","<div class = centerbox><p class = center-block-text>problem <strong>12</strong> out of 25 problems</p></div>","0","","","","","","","","","","","","","","","","","","","","","","","","",""
"","","","","","single-stim-button","162","401278","0.0-2.0-43.0-0.0","60bfa70dc02807c74e0277c7","F1","batch6","","5421","tol_tohand","","","","tol_peg_1","5421","5421","0","[[1,0,0],[3,0],[0]]","1","[[2,3,0],[0,0],[1]]","11","0","","","","","","4","","","","","","","","",""
"","","","","","single-stim-button","163","401873","0.0-2.0-43.0-1.0","60bfa70dc02807c74e0277c7","F1","batch6","","593","tol_toboard","","","","tol_peg_2","593","593","0","[[1,0,0],[3,2],[0]]","1","[[2,3,0],[0,0],[1]]","11","0","","","","","","4","","","","","","","","",""
"","","","","","single-stim-button","164","402355","0.0-2.0-43.1-0.1","60bfa70dc02807c74e0277c7","F1","batch6","","482","tol_tohand","","","","tol_peg_1","482","482","0","[[0,0,0],[3,2],[0]]","2","[[2,3,0],[0,0],[1]]","11","0","","","","","","4","","","","","","","","",""
"","","","","","single-stim-button","165","403103","0.0-2.0-43.1-1.1","60bfa70dc02807c74e0277c7","F1","batch6","","748","tol_toboard","","","","tol_peg_3","748","748","0","[[0,0,0],[3,2],[1]]","2","[[2,3,0],[0,0],[1]]","11","0","","","","","","4","","","","","","","","",""
"","","","","","single-stim-button","166","403715","0.0-2.0-43.2-0.2","60bfa70dc02807c74e0277c7","F1","batch6","","611","tol_tohand","","","","tol_peg_2","611","611","0","[[0,0,0],[3,0],[1]]","3","[[2,3,0],[0,0],[1]]","11","0","","","","","","4","","","","","","","","",""
"","","","","","single-stim-button","167","404282","0.0-2.0-43.2-1.2","60bfa70dc02807c74e0277c7","F1","batch6","","566","tol_toboard","","","","tol_peg_1","566","566","0","[[2,0,0],[3,0],[1]]","3","[[2,3,0],[0,0],[1]]","11","0","","","","","","4","","","","","","","","",""
"","","","","","single-stim-button","168","404843","0.0-2.0-43.3-0.3","60bfa70dc02807c74e0277c7","F1","batch6","","561","tol_tohand","","","","tol_peg_2","561","561","0","[[2,0,0],[0,0],[1]]","4","[[2,3,0],[0,0],[1]]","11","0","","","","","","4","","","","","","","","",""
"","","","","","single-stim-button","169","405447","0.0-2.0-43.3-1.3","60bfa70dc02807c74e0277c7","F1","batch6","","604","tol_toboard","","","","tol_peg_1","604","604","0","[[2,3,0],[0,0],[1]]","4","[[2,3,0],[0,0],[1]]","11","0","","","","","","4","","","","","","","","",""
"","","","","","poldrack-single-stim","170","406449","0.0-2.0-44.0","60bfa70dc02807c74e0277c7","F1","batch6","","-1","tol_feedback","","","true","","1000","1000","500","","","","","","-1","none","true","5421","7075","","","","","","","","","",""
"","","","","","html-button-response","171","407282","0.0-2.0-45.0","60bfa70dc02807c74e0277c7","F1","batch6","","832.5999999046326","tol_trial_num","<div class = centerbox><p class = center-block-text>problem <strong>13</strong> out of 25 problems</p></div>","0","","","","","","","","","","","","","","","","","","","","","","","","",""
"","","","","","single-stim-button","172","411967","0.0-2.0-46.0-0.0","60bfa70dc02807c74e0277c7","F1","batch6","","4685","tol_tohand","","","","tol_peg_2","4685","4685","0","[[1,2,0],[0,0],[0]]","1","[[0,0,0],[2,3],[1]]","12","0","","","","","","4","","","","","","","","",""
"","","","","","single-stim-button","173","412527","0.0-2.0-46.0-1.0","60bfa70dc02807c74e0277c7","F1","batch6","","560","tol_toboard","","","","tol_peg_3","560","560","0","[[1,2,0],[0,0],[3]]","1","[[0,0,0],[2,3],[1]]","12","0","","","","","","4","","","","","","","","",""
"","","","","","single-stim-button","174","413148","0.0-2.0-46.1-0.1","60bfa70dc02807c74e0277c7","F1","batch6","","621","tol_tohand","","","","tol_peg_1","621","621","0","[[1,0,0],[0,0],[3]]","2","[[0,0,0],[2,3],[1]]","12","0","","","","","","4","","","","","","","","",""
"","","","","","single-stim-button","175","413625","0.0-2.0-46.1-1.1","60bfa70dc02807c74e0277c7","F1","batch6","","477","tol_toboard","","","","tol_peg_2","477","477","0","[[1,0,0],[2,0],[3]]","2","[[0,0,0],[2,3],[1]]","12","0","","","","","","4","","","","","","","","",""
"","","","","","single-stim-button","176","414085","0.0-2.0-46.2-0.2","60bfa70dc02807c74e0277c7","F1","batch6","","460","tol_tohand","","","","tol_peg_3","460","460","0","[[1,0,0],[2,0],[0]]","3","[[0,0,0],[2,3],[1]]","12","0","","","","","","4","","","","","","","","",""
"","","","","","single-stim-button","177","414552","0.0-2.0-46.2-1.2","60bfa70dc02807c74e0277c7","F1","batch6","","467","tol_toboard","","","","tol_peg_2","467","467","0","[[1,0,0],[2,3],[0]]","3","[[0,0,0],[2,3],[1]]","12","0","","","","","","4","","","","","","","","",""
"","","","","","single-stim-button","178","415032","0.0-2.0-46.3-0.3","60bfa70dc02807c74e0277c7","F1","batch6","","480","tol_tohand","","","","tol_peg_1","480","480","0","[[0,0,0],[2,3],[0]]","4","[[0,0,0],[2,3],[1]]","12","0","","","","","","4","","","","","","","","",""
"","","","","","single-stim-button","179","415684","0.0-2.0-46.3-1.3","60bfa70dc02807c74e0277c7","F1","batch6","","652","tol_toboard","","","","tol_peg_3","652","652","0","[[0,0,0],[2,3],[1]]","4","[[0,0,0],[2,3],[1]]","12","0","","","","","","4","","","","","","","","",""
"","","","","","poldrack-single-stim","180","416685","0.0-2.0-47.0","60bfa70dc02807c74e0277c7","F1","batch6","","-1","tol_feedback","","","true","","1000","1000","500","","","","","","-1","none","true","4685","6246","","","","","","","","","",""
"","","","","","html-button-response","181","420031","0.0-2.0-48.0","60bfa70dc02807c74e0277c7","F1","batch6","","3344.7000000476837","attention_check","<p class = block-text>How many balls are in your board<br></p>","1","true","","","","","","","","","","","","","","","","","","","","","","","",""
"","","","","","html-button-response","182","421020","0.0-2.0-49.0","60bfa70dc02807c74e0277c7","F1","batch6","","988.2000000476837","tol_trial_num","<div class = centerbox><p class = center-block-text>problem <strong>14</strong> out of 25 problems</p></div>","0","","","","","","","","","","","","","","","","","","","","","","","","",""
"","","","","","single-stim-button","183","425937","0.0-2.0-50.0-0.0","60bfa70dc02807c74e0277c7","F1","batch6","","4917","tol_tohand","","","","tol_peg_1","4917","4917","0","[[2,0,0],[3,0],[0]]","1","[[1,2,0],[3,0],[0]]","13","0","","","","","","4","","","","","","","","",""
"","","","","","single-stim-button","184","427448","0.0-2.0-50.0-1.0","60bfa70dc02807c74e0277c7","F1","batch6","","1511","tol_toboard","","","","tol_peg_3","1511","1511","0","[[2,0,0],[3,0],[1]]","1","[[1,2,0],[3,0],[0]]","13","0","","","","","","4","","","","","","","","",""
"","","","","","single-stim-button","185","428184","0.0-2.0-50.1-0.1","60bfa70dc02807c74e0277c7","F1","batch6","","735","tol_tohand","","","","tol_peg_1","735","735","0","[[0,0,0],[3,0],[1]]","2","[[1,2,0],[3,0],[0]]","13","0","","","","","","4","","","","","","","","",""
"","","","","","single-stim-button","186","428723","0.0-2.0-50.1-1.1","60bfa70dc02807c74e0277c7","F1","batch6","","539","tol_toboard","","","","tol_peg_2","539","539","0","[[0,0,0],[3,2],[1]]","2","[[1,2,0],[3,0],[0]]","13","0","","","","","","4","","","","","","","","",""
"","","","","","single-stim-button","187","429123","0.0-2.0-50.2-0.2","60bfa70dc02807c74e0277c7","F1","batch6","","398","tol_tohand","","","","tol_peg_3","398","398","0","[[0,0,0],[3,2],[0]]","3","[[1,2,0],[3,0],[0]]","13","0","","","","","","4","","","","","","","","",""
"","","","","","single-stim-button","188","429883","0.0-2.0-50.2-1.2","60bfa70dc02807c74e0277c7","F1","batch6","","760","tol_toboard","","","","tol_peg_1","760","760","0","[[1,0,0],[3,2],[0]]","3","[[1,2,0],[3,0],[0]]","13","0","","","","","","4","","","","","","","","",""
"","","","","","single-stim-button","189","430375","0.0-2.0-50.3-0.3","60bfa70dc02807c74e0277c7","F1","batch6","","492","tol_tohand","","","","tol_peg_2","492","492","0","[[1,0,0],[3,0],[0]]","4","[[1,2,0],[3,0],[0]]","13","0","","","","","","4","","","","","","","","",""
"","","","","","single-stim-button","190","430890","0.0-2.0-50.3-1.3","60bfa70dc02807c74e0277c7","F1","batch6","","513","tol_toboard","","","","tol_peg_1","513","513","0","[[1,2,0],[3,0],[0]]","4","[[1,2,0],[3,0],[0]]","13","0","","","","","","4","","","","","","","","",""
"","","","","","poldrack-single-stim","191","431891","0.0-2.0-51.0","60bfa70dc02807c74e0277c7","F1","batch6","","-1","tol_feedback","","","true","","1000","1000","500","","","","","","-1","none","true","4917","6542","","","","","","","","","",""
"","","","","","html-button-response","192","432530","0.0-2.0-52.0","60bfa70dc02807c74e0277c7","F1","batch6","","639.0999999046326","tol_trial_num","<div class = centerbox><p class = center-block-text>problem <strong>15</strong> out of 25 problems</p></div>","0","","","","","","","","","","","","","","","","","","","","","","","","",""
"","","","","","single-stim-button","193","435571","0.0-2.0-53.0-0.0","60bfa70dc02807c74e0277c7","F1","batch6","","3040","tol_tohand","","","","tol_peg_1","3040","3040","0","[[1,0,0],[3,0],[0]]","1","[[2,0,0],[3,0],[1]]","14","0","","","","","","3","","","","","","","","",""
"","","","","","single-stim-button","194","436094","0.0-2.0-53.0-1.0","60bfa70dc02807c74e0277c7","F1","batch6","","521","tol_toboard","","","","tol_peg_2","521","521","0","[[1,0,0],[3,2],[0]]","1","[[2,0,0],[3,0],[1]]","14","0","","","","","","3","","","","","","","","",""
"","","","","","single-stim-button","195","436565","0.0-2.0-53.1-0.1","60bfa70dc02807c74e0277c7","F1","batch6","","471","tol_tohand","","","","tol_peg_1","471","471","0","[[0,0,0],[3,2],[0]]","2","[[2,0,0],[3,0],[1]]","14","0","","","","","","3","","","","","","","","",""
"","","","","","single-stim-button","196","437214","0.0-2.0-53.1-1.1","60bfa70dc02807c74e0277c7","F1","batch6","","649","tol_toboard","","","","tol_peg_3","649","649","0","[[0,0,0],[3,2],[1]]","2","[[2,0,0],[3,0],[1]]","14","0","","","","","","3","","","","","","","","",""
"","","","","","single-stim-button","197","437660","0.0-2.0-53.2-0.2","60bfa70dc02807c74e0277c7","F1","batch6","","445","tol_tohand","","","","tol_peg_2","445","445","0","[[0,0,0],[3,0],[1]]","3","[[2,0,0],[3,0],[1]]","14","0","","","","","","3","","","","","","","","",""
"","","","","","single-stim-button","198","438376","0.0-2.0-53.2-1.2","60bfa70dc02807c74e0277c7","F1","batch6","","714","tol_toboard","","","","tol_peg_1","714","714","0","[[2,0,0],[3,0],[1]]","3","[[2,0,0],[3,0],[1]]","14","0","","","","","","3","","","","","","","","",""
"","","","","","poldrack-single-stim","199","439377","0.0-2.0-54.0","60bfa70dc02807c74e0277c7","F1","batch6","","-1","tol_feedback","","","true","","1000","1000","500","","","","","","-1","none","true","3040","3956","","","","","","","","","",""
"","","","","","html-button-response","200","440121","0.0-2.0-55.0","60bfa70dc02807c74e0277c7","F1","batch6","","743.2999999523163","tol_trial_num","<div class = centerbox><p class = center-block-text>problem <strong>16</strong> out of 25 problems</p></div>","0","","","","","","","","","","","","","","","","","","","","","","","","",""
"","","","","","single-stim-button","201","452734","0.0-2.0-56.0-0.0","60bfa70dc02807c74e0277c7","F1","batch6","","12613","tol_tohand","","","","tol_peg_2","12613","12613","0","[[0,0,0],[2,0],[1]]","1","[[2,3,0],[1,0],[0]]","15","0","","","","","","7","","","","","","","","",""
"","","","","","single-stim-button","202","453590","0.0-2.0-56.0-1.0","60bfa70dc02807c74e0277c7","F1","batch6","","854","tol_toboard","","","","tol_peg_1","854","854","0","[[3,0,0],[2,0],[1]]","1","[[2,3,0],[1,0],[0]]","15","0","","","","","","7","","","","","","","","",""
"","","","","","single-stim-button","203","455181","0.0-2.0-56.1-0.1","60bfa70dc02807c74e0277c7","F1","batch6","","1590","tol_tohand","","","","tol_peg_2","1590","1590","0","[[3,0,0],[0,0],[1]]","2","[[2,3,0],[1,0],[0]]","15","0","","","","","","7","","","","","","","","",""
"","","","","","single-stim-button","204","455739","0.0-2.0-56.1-1.1","60bfa70dc02807c74e0277c7","F1","batch6","","558","tol_toboard","","","","tol_peg_1","558","558","0","[[3,2,0],[0,0],[1]]","2","[[2,3,0],[1,0],[0]]","15","0","","","","","","7","","","","","","","","",""
"","","","","","single-stim-button","205","456295","0.0-2.0-56.2-0.2","60bfa70dc02807c74e0277c7","F1","batch6","","555","tol_tohand","","","","tol_peg_3","555","555","0","[[3,2,0],[0,0],[0]]","3","[[2,3,0],[1,0],[0]]","15","0","","","","","","7","","","","","","","","",""
"","","","","","single-stim-button","206","456914","0.0-2.0-56.2-1.2","60bfa70dc02807c74e0277c7","F1","batch6","","618","tol_toboard","","","","tol_peg_2","618","618","0","[[3,2,0],[1,0],[0]]","3","[[2,3,0],[1,0],[0]]","15","0","","","","","","7","","","","","","","","",""
"","","","","","single-stim-button","207","457342","0.0-2.0-56.3-0.3","60bfa70dc02807c74e0277c7","F1","batch6","","427","tol_tohand","","","","tol_peg_1","427","427","0","[[3,0,0],[1,0],[0]]","4","[[2,3,0],[1,0],[0]]","15","0","","","","","","7","","","","","","","","",""
"","","","","","single-stim-button","208","458220","0.0-2.0-56.3-1.3","60bfa70dc02807c74e0277c7","F1","batch6","","877","tol_toboard","","","","tol_peg_2","877","877","0","[[3,0,0],[1,2],[0]]","4","[[2,3,0],[1,0],[0]]","15","0","","","","","","7","","","","","","","","",""
"","","","","","single-stim-button","209","458811","0.0-2.0-56.4-0.4","60bfa70dc02807c74e0277c7","F1","batch6","","589","tol_tohand","","","","tol_peg_1","589","589","0","[[0,0,0],[1,2],[0]]","5","[[2,3,0],[1,0],[0]]","15","0","","","","","","7","","","","","","","","",""
"","","","","","single-stim-button","210","459521","0.0-2.0-56.4-1.4","60bfa70dc02807c74e0277c7","F1","batch6","","710","tol_toboard","","","","tol_peg_3","710","710","0","[[0,0,0],[1,2],[3]]","5","[[2,3,0],[1,0],[0]]","15","0","","","","","","7","","","","","","","","",""
"","","","","","single-stim-button","211","459973","0.0-2.0-56.5-0.5","60bfa70dc02807c74e0277c7","F1","batch6","","451","tol_tohand","","","","tol_peg_2","451","451","0","[[0,0,0],[1,0],[3]]","6","[[2,3,0],[1,0],[0]]","15","0","","","","","","7","","","","","","","","",""
"","","","","","single-stim-button","212","460770","0.0-2.0-56.5-1.5","60bfa70dc02807c74e0277c7","F1","batch6","","796","tol_toboard","","","","tol_peg_1","796","796","0","[[2,0,0],[1,0],[3]]","6","[[2,3,0],[1,0],[0]]","15","0","","","","","","7","","","","","","","","",""
"","","","","","single-stim-button","213","461412","0.0-2.0-56.6-0.6","60bfa70dc02807c74e0277c7","F1","batch6","","641","tol_tohand","","","","tol_peg_3","641","641","0","[[2,0,0],[1,0],[0]]","7","[[2,3,0],[1,0],[0]]","15","0","","","","","","7","","","","","","","","",""
"","","","","","single-stim-button","214","462051","0.0-2.0-56.6-1.6","60bfa70dc02807c74e0277c7","F1","batch6","","637","tol_toboard","","","","tol_peg_1","637","637","0","[[2,3,0],[1,0],[0]]","7","[[2,3,0],[1,0],[0]]","15","0","","","","","","7","","","","","","","","",""
"","","","","","poldrack-single-stim","215","463053","0.0-2.0-57.0","60bfa70dc02807c74e0277c7","F1","batch6","","-1","tol_feedback","","","true","","1000","1000","500","","","","","","-1","none","true","12613","16866","","","","","","","","","",""
"","","","","","html-button-response","216","463797","0.0-2.0-58.0","60bfa70dc02807c74e0277c7","F1","batch6","","743.1000001430511","tol_trial_num","<div class = centerbox><p class = center-block-text>problem <strong>17</strong> out of 25 problems</p></div>","0","","","","","","","","","","","","","","","","","","","","","","","","",""
"","","","","","single-stim-button","217","467934","0.0-2.0-59.0-0.0","60bfa70dc02807c74e0277c7","F1","batch6","","4136","tol_tohand","","","","tol_peg_1","4136","4136","0","[[1,0,0],[3,0],[0]]","1","[[3,1,0],[2,0],[0]]","16","0","","","","","","5","","","","","","","","",""
"","","","","","single-stim-button","218","469039","0.0-2.0-59.0-1.0","60bfa70dc02807c74e0277c7","F1","batch6","","1105","tol_toboard","","","","tol_peg_3","1105","1105","0","[[1,0,0],[3,0],[2]]","1","[[3,1,0],[2,0],[0]]","16","0","","","","","","5","","","","","","","","",""
"","","","","","single-stim-button","219","469511","0.0-2.0-59.1-0.1","60bfa70dc02807c74e0277c7","F1","batch6","","471","tol_tohand","","","","tol_peg_1","471","471","0","[[0,0,0],[3,0],[2]]","2","[[3,1,0],[2,0],[0]]","16","0","","","","","","5","","","","","","","","",""
"","","","","","single-stim-button","220","470077","0.0-2.0-59.1-1.1","60bfa70dc02807c74e0277c7","F1","batch6","","565","tol_toboard","","","","tol_peg_2","565","565","0","[[0,0,0],[3,1],[2]]","2","[[3,1,0],[2,0],[0]]","16","0","","","","","","5","","","","","","","","",""
"","","","","","single-stim-button","221","474897","0.0-2.0-59.2-0.2","60bfa70dc02807c74e0277c7","F1","batch6","","4820","tol_tohand","","","","tol_peg_2","4820","4820","0","[[0,0,0],[3,0],[2]]","3","[[3,1,0],[2,0],[0]]","16","0","","","","","","5","","","","","","","","",""
"","","","","","single-stim-button","222","475505","0.0-2.0-59.2-1.2","60bfa70dc02807c74e0277c7","F1","batch6","","607","tol_toboard","","","","tol_peg_1","607","607","0","[[1,0,0],[3,0],[2]]","3","[[3,1,0],[2,0],[0]]","16","0","","","","","","5","","","","","","","","",""
"","","","","","single-stim-button","223","476180","0.0-2.0-59.3-0.3","60bfa70dc02807c74e0277c7","F1","batch6","","675","tol_tohand","","","","tol_peg_3","675","675","0","[[1,0,0],[3,0],[0]]","4","[[3,1,0],[2,0],[0]]","16","0","","","","","","5","","","","","","","","",""
"","","","","","single-stim-button","224","476675","0.0-2.0-59.3-1.3","60bfa70dc02807c74e0277c7","F1","batch6","","495","tol_toboard","","","","tol_peg_2","495","495","0","[[1,0,0],[3,2],[0]]","4","[[3,1,0],[2,0],[0]]","16","0","","","","","","5","","","","","","","","",""
"","","","","","single-stim-button","225","477081","0.0-2.0-59.4-0.4","60bfa70dc02807c74e0277c7","F1","batch6","","406","tol_tohand","","","","tol_peg_1","406","406","0","[[0,0,0],[3,2],[0]]","5","[[3,1,0],[2,0],[0]]","16","0","","","","","","5","","","","","","","","",""
"","","","","","single-stim-button","226","478108","0.0-2.0-59.4-1.4","60bfa70dc02807c74e0277c7","F1","batch6","","1027","tol_toboard","","","","tol_peg_3","1027","1027","0","[[0,0,0],[3,2],[1]]","5","[[3,1,0],[2,0],[0]]","16","0","","","","","","5","","","","","","","","",""
"","","","","","single-stim-button","227","489003","0.0-2.0-59.5-0.5","60bfa70dc02807c74e0277c7","F1","batch6","","10895","tol_tohand","","","","tol_peg_2","10895","10895","0","[[0,0,0],[3,0],[1]]","6","[[3,1,0],[2,0],[0]]","16","0","","","","","","5","","","","","","","","",""
"","","","","","single-stim-button","228","489813","0.0-2.0-59.5-1.5","60bfa70dc02807c74e0277c7","F1","batch6","","809","tol_toboard","","","","tol_peg_1","809","809","0","[[2,0,0],[3,0],[1]]","6","[[3,1,0],[2,0],[0]]","16","0","","","","","","5","","","","","","","","",""
"","","","","","single-stim-button","229","490297","0.0-2.0-59.6-0.6","60bfa70dc02807c74e0277c7","F1","batch6","","484","tol_tohand","","","","tol_peg_3","484","484","0","[[2,0,0],[3,0],[0]]","7","[[3,1,0],[2,0],[0]]","16","0","","","","","","5","","","","","","","","",""
"","","","","","single-stim-button","230","490778","0.0-2.0-59.6-1.6","60bfa70dc02807c74e0277c7","F1","batch6","","481","tol_toboard","","","","tol_peg_1","481","481","0","[[2,1,0],[3,0],[0]]","7","[[3,1,0],[2,0],[0]]","16","0","","","","","","5","","","","","","","","",""
"","","","","","single-stim-button","231","491204","0.0-2.0-59.7-0.7","60bfa70dc02807c74e0277c7","F1","batch6","","426","tol_tohand","","","","tol_peg_2","426","426","0","[[2,1,0],[0,0],[0]]","8","[[3,1,0],[2,0],[0]]","16","0","","","","","","5","","","","","","","","",""
"","","","","","single-stim-button","232","491841","0.0-2.0-59.7-1.7","60bfa70dc02807c74e0277c7","F1","batch6","","637","tol_toboard","","","","tol_peg_3","637","637","0","[[2,1,0],[0,0],[3]]","8","[[3,1,0],[2,0],[0]]","16","0","","","","","","5","","","","","","","","",""
"","","","","","single-stim-button","233","492288","0.0-2.0-59.8-0.8","60bfa70dc02807c74e0277c7","F1","batch6","","447","tol_tohand","","","","tol_peg_1","447","447","0","[[2,0,0],[0,0],[3]]","9","[[3,1,0],[2,0],[0]]","16","0","","","","","","5","","","","","","","","",""
"","","","","","single-stim-button","234","492728","0.0-2.0-59.8-1.8","60bfa70dc02807c74e0277c7","F1","batch6","","440","tol_toboard","","","","tol_peg_2","440","440","0","[[2,0,0],[1,0],[3]]","9","[[3,1,0],[2,0],[0]]","16","0","","","","","","5","","","","","","","","",""
"","","","","","single-stim-button","235","493199","0.0-2.0-59.9-0.9","60bfa70dc02807c74e0277c7","F1","batch6","","471","tol_tohand","","","","tol_peg_1","471","471","0","[[0,0,0],[1,0],[3]]","10","[[3,1,0],[2,0],[0]]","16","0","","","","","","5","","","","","","","","",""
"","","","","","single-stim-button","236","494526","0.0-2.0-59.9-1.9","60bfa70dc02807c74e0277c7","F1","batch6","","1327","tol_toboard","","","","tol_peg_2","1327","1327","0","[[0,0,0],[1,2],[3]]","10","[[3,1,0],[2,0],[0]]","16","0","","","","","","5","","","","","","","","",""
"","","","","","single-stim-button","237","496034","0.0-2.0-59.10-0.10","60bfa70dc02807c74e0277c7","F1","batch6","","1507","tol_tohand","","","","tol_peg_3","1507","1507","0","[[0,0,0],[1,2],[0]]","11","[[3,1,0],[2,0],[0]]","16","0","","","","","","5","","","","","","","","",""
"","","","","","single-stim-button","238","496755","0.0-2.0-59.10-1.10","60bfa70dc02807c74e0277c7","F1","batch6","","721","tol_toboard","","","","tol_peg_1","721","721","0","[[3,0,0],[1,2],[0]]","11","[[3,1,0],[2,0],[0]]","16","0","","","","","","5","","","","","","","","",""
"","","","","","single-stim-button","239","497327","0.0-2.0-59.11-0.11","60bfa70dc02807c74e0277c7","F1","batch6","","571","tol_tohand","","","","tol_peg_2","571","571","0","[[3,0,0],[1,0],[0]]","12","[[3,1,0],[2,0],[0]]","16","0","","","","","","5","","","","","","","","",""
"","","","","","single-stim-button","240","498026","0.0-2.0-59.11-1.11","60bfa70dc02807c74e0277c7","F1","batch6","","699","tol_toboard","","","","tol_peg_3","699","699","0","[[3,0,0],[1,0],[2]]","12","[[3,1,0],[2,0],[0]]","16","0","","","","","","5","","","","","","","","",""
"","","","","","single-stim-button","241","498520","0.0-2.0-59.12-0.12","60bfa70dc02807c74e0277c7","F1","batch6","","494","tol_tohand","","","","tol_peg_2","494","494","0","[[3,0,0],[0,0],[2]]","13","[[3,1,0],[2,0],[0]]","16","0","","","","","","5","","","","","","","","",""
"","","","","","single-stim-button","242","499092","0.0-2.0-59.12-1.12","60bfa70dc02807c74e0277c7","F1","batch6","","572","tol_toboard","","","","tol_peg_1","572","572","0","[[3,1,0],[0,0],[2]]","13","[[3,1,0],[2,0],[0]]","16","0","","","","","","5","","","","","","","","",""
"","","","","","single-stim-button","243","499630","0.0-2.0-59.13-0.13","60bfa70dc02807c74e0277c7","F1","batch6","","538","tol_tohand","","","","tol_peg_3","538","538","0","[[3,1,0],[0,0],[0]]","14","[[3,1,0],[2,0],[0]]","16","0","","","","","","5","","","","","","","","",""
"","","","","","single-stim-button","244","500092","0.0-2.0-59.13-1.13","60bfa70dc02807c74e0277c7","F1","batch6","","462","tol_toboard","","","","tol_peg_2","462","462","0","[[3,1,0],[2,0],[0]]","14","[[3,1,0],[2,0],[0]]","16","0","","","","","","5","","","","","","","","",""
"","","","","","poldrack-single-stim","245","501100","0.0-2.0-60.0","60bfa70dc02807c74e0277c7","F1","batch6","","-1","tol_feedback","","","true","","1000","1000","500","","","","","","-1","none","true","4136","26341","","","","","","","","","",""
"","","","","","html-button-response","246","501776","0.0-2.0-61.0","60bfa70dc02807c74e0277c7","F1","batch6","","675.6000001430511","tol_trial_num","<div class = centerbox><p class = center-block-text>problem <strong>18</strong> out of 25 problems</p></div>","0","","","","","","","","","","","","","","","","","","","","","","","","",""
"","","","","","single-stim-button","247","515221","0.0-2.0-62.0-0.0","60bfa70dc02807c74e0277c7","F1","batch6","","13444","tol_tohand","","","","tol_peg_2","13444","13444","0","[[1,2,0],[0,0],[0]]","1","[[3,0,0],[2,0],[1]]","17","0","","","","","","5","","","","","","","","",""
"","","","","","single-stim-button","248","515964","0.0-2.0-62.0-1.0","60bfa70dc02807c74e0277c7","F1","batch6","","742","tol_toboard","","","","tol_peg_3","742","742","0","[[1,2,0],[0,0],[3]]","1","[[3,0,0],[2,0],[1]]","17","0","","","","","","5","","","","","","","","",""
"","","","","","single-stim-button","249","516410","0.0-2.0-62.1-0.1","60bfa70dc02807c74e0277c7","F1","batch6","","446","tol_tohand","","","","tol_peg_1","446","446","0","[[1,0,0],[0,0],[3]]","2","[[3,0,0],[2,0],[1]]","17","0","","","","","","5","","","","","","","","",""
"","","","","","single-stim-button","250","517106","0.0-2.0-62.1-1.1","60bfa70dc02807c74e0277c7","F1","batch6","","696","tol_toboard","","","","tol_peg_2","696","696","0","[[1,0,0],[2,0],[3]]","2","[[3,0,0],[2,0],[1]]","17","0","","","","","","5","","","","","","","","",""
"","","","","","single-stim-button","251","517866","0.0-2.0-62.2-0.2","60bfa70dc02807c74e0277c7","F1","batch6","","760","tol_tohand","","","","tol_peg_1","760","760","0","[[0,0,0],[2,0],[3]]","3","[[3,0,0],[2,0],[1]]","17","0","","","","","","5","","","","","","","","",""
"","","","","","single-stim-button","252","518358","0.0-2.0-62.2-1.2","60bfa70dc02807c74e0277c7","F1","batch6","","492","tol_toboard","","","","tol_peg_2","492","492","0","[[0,0,0],[2,1],[3]]","3","[[3,0,0],[2,0],[1]]","17","0","","","","","","5","","","","","","","","",""
"","","","","","single-stim-button","253","518767","0.0-2.0-62.3-0.3","60bfa70dc02807c74e0277c7","F1","batch6","","409","tol_tohand","","","","tol_peg_3","409","409","0","[[0,0,0],[2,1],[0]]","4","[[3,0,0],[2,0],[1]]","17","0","","","","","","5","","","","","","","","",""
"","","","","","single-stim-button","254","519325","0.0-2.0-62.3-1.3","60bfa70dc02807c74e0277c7","F1","batch6","","558","tol_toboard","","","","tol_peg_1","558","558","0","[[3,0,0],[2,1],[0]]","4","[[3,0,0],[2,0],[1]]","17","0","","","","","","5","","","","","","","","",""
"","","","","","single-stim-button","255","519778","0.0-2.0-62.4-0.4","60bfa70dc02807c74e0277c7","F1","batch6","","453","tol_tohand","","","","tol_peg_2","453","453","0","[[3,0,0],[2,0],[0]]","5","[[3,0,0],[2,0],[1]]","17","0","","","","","","5","","","","","","","","",""
"","","","","","single-stim-button","256","520250","0.0-2.0-62.4-1.4","60bfa70dc02807c74e0277c7","F1","batch6","","471","tol_toboard","","","","tol_peg_3","471","471","0","[[3,0,0],[2,0],[1]]","5","[[3,0,0],[2,0],[1]]","17","0","","","","","","5","","","","","","","","",""
"","","","","","poldrack-single-stim","257","521251","0.0-2.0-63.0","60bfa70dc02807c74e0277c7","F1","batch6","","-1","tol_feedback","","","true","","1000","1000","500","","","","","","-1","none","true","13444","15512","","","","","","","","","",""
"","","","","","html-button-response","258","521993","0.0-2.0-64.0","60bfa70dc02807c74e0277c7","F1","batch6","","741.4000000953674","tol_trial_num","<div class = centerbox><p class = center-block-text>problem <strong>19</strong> out of 25 problems</p></div>","0","","","","","","","","","","","","","","","","","","","","","","","","",""
"","","","","","single-stim-button","259","555757","0.0-2.0-65.0-0.0","60bfa70dc02807c74e0277c7","F1","batch6","","33764","tol_tohand","","","","tol_peg_1","33764","33764","0","[[1,0,0],[3,0],[0]]","1","[[0,0,0],[1,2],[3]]","18","0","","","","","","7","","","","","","","","",""
"","","","","","single-stim-button","260","556708","0.0-2.0-65.0-1.0","60bfa70dc02807c74e0277c7","F1","batch6","","951","tol_toboard","","","","tol_peg_2","951","951","0","[[1,0,0],[3,2],[0]]","1","[[0,0,0],[1,2],[3]]","18","0","","","","","","7","","","","","","","","",""
"","","","","","single-stim-button","261","558349","0.0-2.0-65.1-0.1","60bfa70dc02807c74e0277c7","F1","batch6","","1641","tol_tohand","","","","tol_peg_1","1641","1641","0","[[0,0,0],[3,2],[0]]","2","[[0,0,0],[1,2],[3]]","18","0","","","","","","7","","","","","","","","",""
"","","","","","single-stim-button","262","559236","0.0-2.0-65.1-1.1","60bfa70dc02807c74e0277c7","F1","batch6","","887","tol_toboard","","","","tol_peg_3","887","887","0","[[0,0,0],[3,2],[1]]","2","[[0,0,0],[1,2],[3]]","18","0","","","","","","7","","","","","","","","",""
"","","","","","single-stim-button","263","559799","0.0-2.0-65.2-0.2","60bfa70dc02807c74e0277c7","F1","batch6","","563","tol_tohand","","","","tol_peg_2","563","563","0","[[0,0,0],[3,0],[1]]","3","[[0,0,0],[1,2],[3]]","18","0","","","","","","7","","","","","","","","",""
"","","","","","single-stim-button","264","560517","0.0-2.0-65.2-1.2","60bfa70dc02807c74e0277c7","F1","batch6","","718","tol_toboard","","","","tol_peg_1","718","718","0","[[2,0,0],[3,0],[1]]","3","[[0,0,0],[1,2],[3]]","18","0","","","","","","7","","","","","","","","",""
"","","","","","single-stim-button","265","561289","0.0-2.0-65.3-0.3","60bfa70dc02807c74e0277c7","F1","batch6","","771","tol_tohand","","","","tol_peg_2","771","771","0","[[2,0,0],[0,0],[1]]","4","[[0,0,0],[1,2],[3]]","18","0","","","","","","7","","","","","","","","",""
"","","","","","single-stim-button","266","561806","0.0-2.0-65.3-1.3","60bfa70dc02807c74e0277c7","F1","batch6","","517","tol_toboard","","","","tol_peg_1","517","517","0","[[2,3,0],[0,0],[1]]","4","[[0,0,0],[1,2],[3]]","18","0","","","","","","7","","","","","","","","",""
"","","","","","single-stim-button","267","562327","0.0-2.0-65.4-0.4","60bfa70dc02807c74e0277c7","F1","batch6","","521","tol_tohand","","","","tol_peg_3","521","521","0","[[2,3,0],[0,0],[0]]","5","[[0,0,0],[1,2],[3]]","18","0","","","","","","7","","","","","","","","",""
"","","","","","single-stim-button","268","562827","0.0-2.0-65.4-1.4","60bfa70dc02807c74e0277c7","F1","batch6","","500","tol_toboard","","","","tol_peg_2","500","500","0","[[2,3,0],[1,0],[0]]","5","[[0,0,0],[1,2],[3]]","18","0","","","","","","7","","","","","","","","",""
"","","","","","single-stim-button","269","563318","0.0-2.0-65.5-0.5","60bfa70dc02807c74e0277c7","F1","batch6","","491","tol_tohand","","","","tol_peg_1","491","491","0","[[2,0,0],[1,0],[0]]","6","[[0,0,0],[1,2],[3]]","18","0","","","","","","7","","","","","","","","",""
"","","","","","single-stim-button","270","563851","0.0-2.0-65.5-1.5","60bfa70dc02807c74e0277c7","F1","batch6","","533","tol_toboard","","","","tol_peg_3","533","533","0","[[2,0,0],[1,0],[3]]","6","[[0,0,0],[1,2],[3]]","18","0","","","","","","7","","","","","","","","",""
"","","","","","single-stim-button","271","564338","0.0-2.0-65.6-0.6","60bfa70dc02807c74e0277c7","F1","batch6","","487","tol_tohand","","","","tol_peg_1","487","487","0","[[0,0,0],[1,0],[3]]","7","[[0,0,0],[1,2],[3]]","18","0","","","","","","7","","","","","","","","",""
"","","","","","single-stim-button","272","564803","0.0-2.0-65.6-1.6","60bfa70dc02807c74e0277c7","F1","batch6","","464","tol_toboard","","","","tol_peg_2","464","464","0","[[0,0,0],[1,2],[3]]","7","[[0,0,0],[1,2],[3]]","18","0","","","","","","7","","","","","","","","",""
"","","","","","poldrack-single-stim","273","565804","0.0-2.0-66.0","60bfa70dc02807c74e0277c7","F1","batch6","","-1","tol_feedback","","","true","","1000","1000","500","","","","","","-1","none","true","33764","38238","","","","","","","","","",""
"","","","","","html-button-response","274","566553","0.0-2.0-67.0","60bfa70dc02807c74e0277c7","F1","batch6","","748.2000000476837","tol_trial_num","<div class = centerbox><p class = center-block-text>problem <strong>20</strong> out of 25 problems</p></div>","0","","","","","","","","","","","","","","","","","","","","","","","","",""
"","","","","","single-stim-button","275","573479","0.0-2.0-68.0-0.0","60bfa70dc02807c74e0277c7","F1","batch6","","6926","tol_tohand","","","","tol_peg_1","6926","6926","0","[[1,0,0],[3,0],[0]]","1","[[2,1,0],[0,0],[3]]","19","0","","","","","","5","","","","","","","","",""
"","","","","","single-stim-button","276","575799","0.0-2.0-68.0-1.0","60bfa70dc02807c74e0277c7","F1","batch6","","2319","tol_toboard","","","","tol_peg_1","2319","2319","0","[[1,2,0],[3,0],[0]]","1","[[2,1,0],[0,0],[3]]","19","0","","","","","","5","","","","","","","","",""
"","","","","","single-stim-button","277","583027","0.0-2.0-68.1-0.1","60bfa70dc02807c74e0277c7","F1","batch6","","7227","tol_tohand","","","","tol_peg_1","7227","7227","0","[[1,0,0],[3,0],[0]]","2","[[2,1,0],[0,0],[3]]","19","0","","","","","","5","","","","","","","","",""
"","","","","","single-stim-button","278","583664","0.0-2.0-68.1-1.1","60bfa70dc02807c74e0277c7","F1","batch6","","637","tol_toboard","","","","tol_peg_3","637","637","0","[[1,0,0],[3,0],[2]]","2","[[2,1,0],[0,0],[3]]","19","0","","","","","","5","","","","","","","","",""
"","","","","","single-stim-button","279","584227","0.0-2.0-68.2-0.2","60bfa70dc02807c74e0277c7","F1","batch6","","563","tol_tohand","","","","tol_peg_1","563","563","0","[[0,0,0],[3,0],[2]]","3","[[2,1,0],[0,0],[3]]","19","0","","","","","","5","","","","","","","","",""
"","","","","","single-stim-button","280","584931","0.0-2.0-68.2-1.2","60bfa70dc02807c74e0277c7","F1","batch6","","703","tol_toboard","","","","tol_peg_2","703","703","0","[[0,0,0],[3,1],[2]]","3","[[2,1,0],[0,0],[3]]","19","0","","","","","","5","","","","","","","","",""
"","","","","","single-stim-button","281","585358","0.0-2.0-68.3-0.3","60bfa70dc02807c74e0277c7","F1","batch6","","426","tol_tohand","","","","tol_peg_3","426","426","0","[[0,0,0],[3,1],[0]]","4","[[2,1,0],[0,0],[3]]","19","0","","","","","","5","","","","","","","","",""
"","","","","","single-stim-button","282","586100","0.0-2.0-68.3-1.3","60bfa70dc02807c74e0277c7","F1","batch6","","742","tol_toboard","","","","tol_peg_1","742","742","0","[[2,0,0],[3,1],[0]]","4","[[2,1,0],[0,0],[3]]","19","0","","","","","","5","","","","","","","","",""
"","","","","","single-stim-button","283","586481","0.0-2.0-68.4-0.4","60bfa70dc02807c74e0277c7","F1","batch6","","381","tol_tohand","","","","tol_peg_2","381","381","0","[[2,0,0],[3,0],[0]]","5","[[2,1,0],[0,0],[3]]","19","0","","","","","","5","","","","","","","","",""
"","","","","","single-stim-button","284","586879","0.0-2.0-68.4-1.4","60bfa70dc02807c74e0277c7","F1","batch6","","398","tol_toboard","","","","tol_peg_1","398","398","0","[[2,1,0],[3,0],[0]]","5","[[2,1,0],[0,0],[3]]","19","0","","","","","","5","","","","","","","","",""
"","","","","","single-stim-button","285","587382","0.0-2.0-68.5-0.5","60bfa70dc02807c74e0277c7","F1","batch6","","502","tol_tohand","","","","tol_peg_2","502","502","0","[[2,1,0],[0,0],[0]]","6","[[2,1,0],[0,0],[3]]","19","0","","","","","","5","","","","","","","","",""
"","","","","","single-stim-button","286","587844","0.0-2.0-68.5-1.5","60bfa70dc02807c74e0277c7","F1","batch6","","462","tol_toboard","","","","tol_peg_3","462","462","0","[[2,1,0],[0,0],[3]]","6","[[2,1,0],[0,0],[3]]","19","0","","","","","","5","","","","","","","","",""
"","","","","","poldrack-single-stim","287","588846","0.0-2.0-69.0","60bfa70dc02807c74e0277c7","F1","batch6","","-1","tol_feedback","","","true","","1000","1000","500","","","","","","-1","none","true","6926","16025","","","","","","","","","",""
"","","","","","html-button-response","288","589546","0.0-2.0-70.0","60bfa70dc02807c74e0277c7","F1","batch6","","699.7999999523163","tol_trial_num","<div class = centerbox><p class = center-block-text>problem <strong>21</strong> out of 25 problems</p></div>","0","","","","","","","","","","","","","","","","","","","","","","","","",""
"","","","","","single-stim-button","289","606791","0.0-2.0-71.0-0.0","60bfa70dc02807c74e0277c7","F1","batch6","","17245","tol_tohand","","","","tol_peg_2","17245","17245","0","[[1,2,0],[0,0],[0]]","1","[[3,2,0],[0,0],[1]]","20","0","","","","","","6","","","","","","","","",""
"","","","","","single-stim-button","290","607601","0.0-2.0-71.0-1.0","60bfa70dc02807c74e0277c7","F1","batch6","","810","tol_toboard","","","","tol_peg_3","810","810","0","[[1,2,0],[0,0],[3]]","1","[[3,2,0],[0,0],[1]]","20","0","","","","","","6","","","","","","","","",""
"","","","","","single-stim-button","291","608169","0.0-2.0-71.1-0.1","60bfa70dc02807c74e0277c7","F1","batch6","","567","tol_tohand","","","","tol_peg_1","567","567","0","[[1,0,0],[0,0],[3]]","2","[[3,2,0],[0,0],[1]]","20","0","","","","","","6","","","","","","","","",""
"","","","","","single-stim-button","292","608626","0.0-2.0-71.1-1.1","60bfa70dc02807c74e0277c7","F1","batch6","","457","tol_toboard","","","","tol_peg_2","457","457","0","[[1,0,0],[2,0],[3]]","2","[[3,2,0],[0,0],[1]]","20","0","","","","","","6","","","","","","","","",""
"","","","","","single-stim-button","293","609139","0.0-2.0-71.2-0.2","60bfa70dc02807c74e0277c7","F1","batch6","","513","tol_tohand","","","","tol_peg_1","513","513","0","[[0,0,0],[2,0],[3]]","3","[[3,2,0],[0,0],[1]]","20","0","","","","","","6","","","","","","","","",""
"","","","","","single-stim-button","294","609639","0.0-2.0-71.2-1.2","60bfa70dc02807c74e0277c7","F1","batch6","","500","tol_toboard","","","","tol_peg_2","500","500","0","[[0,0,0],[2,1],[3]]","3","[[3,2,0],[0,0],[1]]","20","0","","","","","","6","","","","","","","","",""
"","","","","","single-stim-button","295","610407","0.0-2.0-71.3-0.3","60bfa70dc02807c74e0277c7","F1","batch6","","768","tol_tohand","","","","tol_peg_3","768","768","0","[[0,0,0],[2,1],[0]]","4","[[3,2,0],[0,0],[1]]","20","0","","","","","","6","","","","","","","","",""
"","","","","","single-stim-button","296","611083","0.0-2.0-71.3-1.3","60bfa70dc02807c74e0277c7","F1","batch6","","676","tol_toboard","","","","tol_peg_1","676","676","0","[[3,0,0],[2,1],[0]]","4","[[3,2,0],[0,0],[1]]","20","0","","","","","","6","","","","","","","","",""
"","","","","","single-stim-button","297","611595","0.0-2.0-71.4-0.4","60bfa70dc02807c74e0277c7","F1","batch6","","512","tol_tohand","","","","tol_peg_2","512","512","0","[[3,0,0],[2,0],[0]]","5","[[3,2,0],[0,0],[1]]","20","0","","","","","","6","","","","","","","","",""
"","","","","","single-stim-button","298","612218","0.0-2.0-71.4-1.4","60bfa70dc02807c74e0277c7","F1","batch6","","623","tol_toboard","","","","tol_peg_3","623","623","0","[[3,0,0],[2,0],[1]]","5","[[3,2,0],[0,0],[1]]","20","0","","","","","","6","","","","","","","","",""
"","","","","","single-stim-button","299","612648","0.0-2.0-71.5-0.5","60bfa70dc02807c74e0277c7","F1","batch6","","429","tol_tohand","","","","tol_peg_2","429","429","0","[[3,0,0],[0,0],[1]]","6","[[3,2,0],[0,0],[1]]","20","0","","","","","","6","","","","","","","","",""
"","","","","","single-stim-button","300","613129","0.0-2.0-71.5-1.5","60bfa70dc02807c74e0277c7","F1","batch6","","481","tol_toboard","","","","tol_peg_1","481","481","0","[[3,2,0],[0,0],[1]]","6","[[3,2,0],[0,0],[1]]","20","0","","","","","","6","","","","","","","","",""
"","","","","","poldrack-single-stim","301","614137","0.0-2.0-72.0","60bfa70dc02807c74e0277c7","F1","batch6","","-1","tol_feedback","","","true","","1000","1000","500","","","","","","-1","none","true","17245","20034","","","","","","","","","",""
"","","","","","html-button-response","302","615926","0.0-2.0-73.0","60bfa70dc02807c74e0277c7","F1","batch6","","1788.6999998092651","tol_trial_num","<div class = centerbox><p class = center-block-text>problem <strong>22</strong> out of 25 problems</p></div>","0","","","","","","","","","","","","","","","","","","","","","","","","",""
"","","","","","single-stim-button","303","632423","0.0-2.0-74.0-0.0","60bfa70dc02807c74e0277c7","F1","batch6","","16497","tol_tohand","","","","tol_peg_1","16497","16497","0","[[0,0,0],[2,3],[0]]","1","[[0,0,0],[1,2],[3]]","21","0","","","","","","6","","","","","","","","",""
"","","","","","single-stim-button","304","633148","0.0-2.0-74.0-1.0","60bfa70dc02807c74e0277c7","F1","batch6","","725","tol_toboard","","","","tol_peg_3","725","725","0","[[0,0,0],[2,3],[1]]","1","[[0,0,0],[1,2],[3]]","21","0","","","","","","6","","","","","","","","",""
"","","","","","single-stim-button","305","633769","0.0-2.0-74.1-0.1","60bfa70dc02807c74e0277c7","F1","batch6","","621","tol_tohand","","","","tol_peg_2","621","621","0","[[0,0,0],[2,0],[1]]","2","[[0,0,0],[1,2],[3]]","21","0","","","","","","6","","","","","","","","",""
"","","","","","single-stim-button","306","634434","0.0-2.0-74.1-1.1","60bfa70dc02807c74e0277c7","F1","batch6","","665","tol_toboard","","","","tol_peg_1","665","665","0","[[3,0,0],[2,0],[1]]","2","[[0,0,0],[1,2],[3]]","21","0","","","","","","6","","","","","","","","",""
"","","","","","single-stim-button","307","634844","0.0-2.0-74.2-0.2","60bfa70dc02807c74e0277c7","F1","batch6","","409","tol_tohand","","","","tol_peg_2","409","409","0","[[3,0,0],[0,0],[1]]","3","[[0,0,0],[1,2],[3]]","21","0","","","","","","6","","","","","","","","",""
"","","","","","single-stim-button","308","635263","0.0-2.0-74.2-1.2","60bfa70dc02807c74e0277c7","F1","batch6","","419","tol_toboard","","","","tol_peg_1","419","419","0","[[3,2,0],[0,0],[1]]","3","[[0,0,0],[1,2],[3]]","21","0","","","","","","6","","","","","","","","",""
"","","","","","single-stim-button","309","635882","0.0-2.0-74.3-0.3","60bfa70dc02807c74e0277c7","F1","batch6","","619","tol_tohand","","","","tol_peg_3","619","619","0","[[3,2,0],[0,0],[0]]","4","[[0,0,0],[1,2],[3]]","21","0","","","","","","6","","","","","","","","",""
"","","","","","single-stim-button","310","636336","0.0-2.0-74.3-1.3","60bfa70dc02807c74e0277c7","F1","batch6","","454","tol_toboard","","","","tol_peg_2","454","454","0","[[3,2,0],[1,0],[0]]","4","[[0,0,0],[1,2],[3]]","21","0","","","","","","6","","","","","","","","",""
"","","","","","single-stim-button","311","636819","0.0-2.0-74.4-0.4","60bfa70dc02807c74e0277c7","F1","batch6","","483","tol_tohand","","","","tol_peg_1","483","483","0","[[3,0,0],[1,0],[0]]","5","[[0,0,0],[1,2],[3]]","21","0","","","","","","6","","","","","","","","",""
"","","","","","single-stim-button","312","637284","0.0-2.0-74.4-1.4","60bfa70dc02807c74e0277c7","F1","batch6","","465","tol_toboard","","","","tol_peg_2","465","465","0","[[3,0,0],[1,2],[0]]","5","[[0,0,0],[1,2],[3]]","21","0","","","","","","6","","","","","","","","",""
"","","","","","single-stim-button","313","637721","0.0-2.0-74.5-0.5","60bfa70dc02807c74e0277c7","F1","batch6","","437","tol_tohand","","","","tol_peg_1","437","437","0","[[0,0,0],[1,2],[0]]","6","[[0,0,0],[1,2],[3]]","21","0","","","","","","6","","","","","","","","",""
"","","","","","single-stim-button","314","638184","0.0-2.0-74.5-1.5","60bfa70dc02807c74e0277c7","F1","batch6","","463","tol_toboard","","","","tol_peg_3","463","463","0","[[0,0,0],[1,2],[3]]","6","[[0,0,0],[1,2],[3]]","21","0","","","","","","6","","","","","","","","",""
"","","","","","poldrack-single-stim","315","639185","0.0-2.0-75.0","60bfa70dc02807c74e0277c7","F1","batch6","","-1","tol_feedback","","","true","","1000","1000","500","","","","","","-1","none","true","16497","19066","","","","","","","","","",""
"","","","","","html-button-response","316","639860","0.0-2.0-76.0","60bfa70dc02807c74e0277c7","F1","batch6","","674.2000000476837","tol_trial_num","<div class = centerbox><p class = center-block-text>problem <strong>23</strong> out of 25 problems</p></div>","0","","","","","","","","","","","","","","","","","","","","","","","","",""
"","","","","","single-stim-button","317","643494","0.0-2.0-77.0-0.0","60bfa70dc02807c74e0277c7","F1","batch6","","3634","tol_tohand","","","","tol_peg_1","3634","3634","0","[[1,0,0],[3,0],[0]]","1","[[1,3,2],[0,0],[0]]","22","0","","","","","","3","","","","","","","","",""
"","","","","","single-stim-button","318","644068","0.0-2.0-77.0-1.0","60bfa70dc02807c74e0277c7","F1","batch6","","572","tol_toboard","","","","tol_peg_3","572","572","0","[[1,0,0],[3,0],[2]]","1","[[1,3,2],[0,0],[0]]","22","0","","","","","","3","","","","","","","","",""
"","","","","","single-stim-button","319","644457","0.0-2.0-77.1-0.1","60bfa70dc02807c74e0277c7","F1","batch6","","389","tol_tohand","","","","tol_peg_2","389","389","0","[[1,0,0],[0,0],[2]]","2","[[1,3,2],[0,0],[0]]","22","0","","","","","","3","","","","","","","","",""
"","","","","","single-stim-button","320","645096","0.0-2.0-77.1-1.1","60bfa70dc02807c74e0277c7","F1","batch6","","639","tol_toboard","","","","tol_peg_1","639","639","0","[[1,3,0],[0,0],[2]]","2","[[1,3,2],[0,0],[0]]","22","0","","","","","","3","","","","","","","","",""
"","","","","","single-stim-button","321","645634","0.0-2.0-77.2-0.2","60bfa70dc02807c74e0277c7","F1","batch6","","538","tol_tohand","","","","tol_peg_3","538","538","0","[[1,3,0],[0,0],[0]]","3","[[1,3,2],[0,0],[0]]","22","0","","","","","","3","","","","","","","","",""
"","","","","","single-stim-button","322","646202","0.0-2.0-77.2-1.2","60bfa70dc02807c74e0277c7","F1","batch6","","568","tol_toboard","","","","tol_peg_1","568","568","0","[[1,3,2],[0,0],[0]]","3","[[1,3,2],[0,0],[0]]","22","0","","","","","","3","","","","","","","","",""
"","","","","","poldrack-single-stim","323","647203","0.0-2.0-78.0","60bfa70dc02807c74e0277c7","F1","batch6","","-1","tol_feedback","","","true","","1000","1000","500","","","","","","-1","none","true","3634","4561","","","","","","","","","",""
"","","","","","html-button-response","324","647931","0.0-2.0-79.0","60bfa70dc02807c74e0277c7","F1","batch6","","727.2999999523163","tol_trial_num","<div class = centerbox><p class = center-block-text>problem <strong>24</strong> out of 25 problems</p></div>","0","","","","","","","","","","","","","","","","","","","","","","","","",""
"","","","","","single-stim-button","325","660238","0.0-2.0-80.0-0.0","60bfa70dc02807c74e0277c7","F1","batch6","","12307","tol_tohand","","","","tol_peg_3","12307","12307","0","[[0,0,0],[2,3],[0]]","1","[[2,0,0],[3,0],[1]]","23","0","","","","","","7","","","","","","","","",""
"","","","","","single-stim-button","326","661257","0.0-2.0-80.0-1.0","60bfa70dc02807c74e0277c7","F1","batch6","","1018","tol_toboard","","","","tol_peg_1","1018","1018","0","[[1,0,0],[2,3],[0]]","1","[[2,0,0],[3,0],[1]]","23","0","","","","","","7","","","","","","","","",""
"","","","","","single-stim-button","327","662389","0.0-2.0-80.1-0.1","60bfa70dc02807c74e0277c7","F1","batch6","","1132","tol_tohand","","","","tol_peg_2","1132","1132","0","[[1,0,0],[2,0],[0]]","2","[[2,0,0],[3,0],[1]]","23","0","","","","","","7","","","","","","","","",""
"","","","","","single-stim-button","328","663451","0.0-2.0-80.1-1.1","60bfa70dc02807c74e0277c7","F1","batch6","","1062","tol_toboard","","","","tol_peg_3","1062","1062","0","[[1,0,0],[2,0],[3]]","2","[[2,0,0],[3,0],[1]]","23","0","","","","","","7","","","","","","","","",""
"","","","","","single-stim-button","329","664029","0.0-2.0-80.2-0.2","60bfa70dc02807c74e0277c7","F1","batch6","","577","tol_tohand","","","","tol_peg_2","577","577","0","[[1,0,0],[0,0],[3]]","3","[[2,0,0],[3,0],[1]]","23","0","","","","","","7","","","","","","","","",""
"","","","","","single-stim-button","330","664478","0.0-2.0-80.2-1.2","60bfa70dc02807c74e0277c7","F1","batch6","","448","tol_toboard","","","","tol_peg_1","448","448","0","[[1,2,0],[0,0],[3]]","3","[[2,0,0],[3,0],[1]]","23","0","","","","","","7","","","","","","","","",""
"","","","","","single-stim-button","331","664972","0.0-2.0-80.3-0.3","60bfa70dc02807c74e0277c7","F1","batch6","","494","tol_tohand","","","","tol_peg_3","494","494","0","[[1,2,0],[0,0],[0]]","4","[[2,0,0],[3,0],[1]]","23","0","","","","","","7","","","","","","","","",""
"","","","","","single-stim-button","332","665399","0.0-2.0-80.3-1.3","60bfa70dc02807c74e0277c7","F1","batch6","","427","tol_toboard","","","","tol_peg_2","427","427","0","[[1,2,0],[3,0],[0]]","4","[[2,0,0],[3,0],[1]]","23","0","","","","","","7","","","","","","","","",""
"","","","","","single-stim-button","333","665786","0.0-2.0-80.4-0.4","60bfa70dc02807c74e0277c7","F1","batch6","","386","tol_tohand","","","","tol_peg_1","386","386","0","[[1,0,0],[3,0],[0]]","5","[[2,0,0],[3,0],[1]]","23","0","","","","","","7","","","","","","","","",""
"","","","","","single-stim-button","334","666203","0.0-2.0-80.4-1.4","60bfa70dc02807c74e0277c7","F1","batch6","","417","tol_toboard","","","","tol_peg_2","417","417","0","[[1,0,0],[3,2],[0]]","5","[[2,0,0],[3,0],[1]]","23","0","","","","","","7","","","","","","","","",""
"","","","","","single-stim-button","335","666567","0.0-2.0-80.5-0.5","60bfa70dc02807c74e0277c7","F1","batch6","","363","tol_tohand","","","","tol_peg_1","363","363","0","[[0,0,0],[3,2],[0]]","6","[[2,0,0],[3,0],[1]]","23","0","","","","","","7","","","","","","","","",""
"","","","","","single-stim-button","336","667082","0.0-2.0-80.5-1.5","60bfa70dc02807c74e0277c7","F1","batch6","","514","tol_toboard","","","","tol_peg_3","514","514","0","[[0,0,0],[3,2],[1]]","6","[[2,0,0],[3,0],[1]]","23","0","","","","","","7","","","","","","","","",""
"","","","","","single-stim-button","337","667548","0.0-2.0-80.6-0.6","60bfa70dc02807c74e0277c7","F1","batch6","","466","tol_tohand","","","","tol_peg_2","466","466","0","[[0,0,0],[3,0],[1]]","7","[[2,0,0],[3,0],[1]]","23","0","","","","","","7","","","","","","","","",""
"","","","","","single-stim-button","338","668068","0.0-2.0-80.6-1.6","60bfa70dc02807c74e0277c7","F1","batch6","","520","tol_toboard","","","","tol_peg_1","520","520","0","[[2,0,0],[3,0],[1]]","7","[[2,0,0],[3,0],[1]]","23","0","","","","","","7","","","","","","","","",""
"","","","","","poldrack-single-stim","339","669070","0.0-2.0-81.0","60bfa70dc02807c74e0277c7","F1","batch6","","-1","tol_feedback","","","true","","1000","1000","500","","","","","","-1","none","true","12307","15725","","","","","","","","","",""
"","","","","","html-button-response","340","669926","0.0-2.0-82.0","60bfa70dc02807c74e0277c7","F1","batch6","","854.7999999523163","tol_trial_num","<div class = centerbox><p class = center-block-text>problem <strong>25</strong> out of 25 problems</p></div>","0","","","","","","","","","","","","","","","","","","","","","","","","",""
"","","","","","single-stim-button","341","673990","0.0-2.0-83.0-0.0","60bfa70dc02807c74e0277c7","F1","batch6","","4064","tol_tohand","","","","tol_peg_1","4064","4064","0","[[1,0,0],[3,0],[0]]","1","[[3,0,0],[1,0],[2]]","24","0","","","","","","7","","","","","","","","",""
"","","","","","single-stim-button","342","674567","0.0-2.0-83.0-1.0","60bfa70dc02807c74e0277c7","F1","batch6","","576","tol_toboard","","","","tol_peg_2","576","576","0","[[1,0,0],[3,2],[0]]","1","[[3,0,0],[1,0],[2]]","24","0","","","","","","7","","","","","","","","",""
"","","","","","single-stim-button","343","675085","0.0-2.0-83.1-0.1","60bfa70dc02807c74e0277c7","F1","batch6","","518","tol_tohand","","","","tol_peg_1","518","518","0","[[0,0,0],[3,2],[0]]","2","[[3,0,0],[1,0],[2]]","24","0","","","","","","7","","","","","","","","",""
"","","","","","single-stim-button","344","715295","0.0-2.0-83.1-1.1","60bfa70dc02807c74e0277c7","F1","batch6","","40209","tol_toboard","","","","tol_peg_1","40209","40209","0","[[1,0,0],[3,2],[0]]","2","[[3,0,0],[1,0],[2]]","24","0","","","","","","7","","","","","","","","",""
"","","","","","single-stim-button","345","715821","0.0-2.0-83.2-0.2","60bfa70dc02807c74e0277c7","F1","batch6","","525","tol_tohand","","","","tol_peg_2","525","525","0","[[1,0,0],[3,0],[0]]","3","[[3,0,0],[1,0],[2]]","24","0","","","","","","7","","","","","","","","",""
"","","","","","single-stim-button","346","716612","0.0-2.0-83.2-1.2","60bfa70dc02807c74e0277c7","F1","batch6","","790","tol_toboard","","","","tol_peg_1","790","790","0","[[1,2,0],[3,0],[0]]","3","[[3,0,0],[1,0],[2]]","24","0","","","","","","7","","","","","","","","",""
"","","","","","single-stim-button","347","717159","0.0-2.0-83.3-0.3","60bfa70dc02807c74e0277c7","F1","batch6","","546","tol_tohand","","","","tol_peg_2","546","546","0","[[1,2,0],[0,0],[0]]","4","[[3,0,0],[1,0],[2]]","24","0","","","","","","7","","","","","","","","",""
"","","","","","single-stim-button","348","717919","0.0-2.0-83.3-1.3","60bfa70dc02807c74e0277c7","F1","batch6","","758","tol_toboard","","","","tol_peg_3","758","758","0","[[1,2,0],[0,0],[3]]","4","[[3,0,0],[1,0],[2]]","24","0","","","","","","7","","","","","","","","",""
"","","","","","single-stim-button","349","718814","0.0-2.0-83.4-0.4","60bfa70dc02807c74e0277c7","F1","batch6","","894","tol_tohand","","","","tol_peg_1","894","894","0","[[1,0,0],[0,0],[3]]","5","[[3,0,0],[1,0],[2]]","24","0","","","","","","7","","","","","","","","",""
"","","","","","single-stim-button","350","719369","0.0-2.0-83.4-1.4","60bfa70dc02807c74e0277c7","F1","batch6","","555","tol_toboard","","","","tol_peg_2","555","555","0","[[1,0,0],[2,0],[3]]","5","[[3,0,0],[1,0],[2]]","24","0","","","","","","7","","","","","","","","",""
"","","","","","single-stim-button","351","719995","0.0-2.0-83.5-0.5","60bfa70dc02807c74e0277c7","F1","batch6","","626","tol_tohand","","","","tol_peg_1","626","626","0","[[0,0,0],[2,0],[3]]","6","[[3,0,0],[1,0],[2]]","24","0","","","","","","7","","","","","","","","",""
"","","","","","single-stim-button","352","720765","0.0-2.0-83.5-1.5","60bfa70dc02807c74e0277c7","F1","batch6","","769","tol_toboard","","","","tol_peg_2","769","769","0","[[0,0,0],[2,1],[3]]","6","[[3,0,0],[1,0],[2]]","24","0","","","","","","7","","","","","","","","",""
"","","","","","single-stim-button","353","721199","0.0-2.0-83.6-0.6","60bfa70dc02807c74e0277c7","F1","batch6","","434","tol_tohand","","","","tol_peg_3","434","434","0","[[0,0,0],[2,1],[0]]","7","[[3,0,0],[1,0],[2]]","24","0","","","","","","7","","","","","","","","",""
"","","","","","single-stim-button","354","721895","0.0-2.0-83.6-1.6","60bfa70dc02807c74e0277c7","F1","batch6","","696","tol_toboard","","","","tol_peg_1","696","696","0","[[3,0,0],[2,1],[0]]","7","[[3,0,0],[1,0],[2]]","24","0","","","","","","7","","","","","","","","",""
"","","","","","single-stim-button","355","723427","0.0-2.0-83.7-0.7","60bfa70dc02807c74e0277c7","F1","batch6","","1531","tol_tohand","","","","tol_peg_2","1531","1531","0","[[3,0,0],[2,0],[0]]","8","[[3,0,0],[1,0],[2]]","24","0","","","","","","7","","","","","","","","",""
