"success","timeout","failed_images","failed_audio","failed_video","trial_type","trial_index","time_elapsed","internal_node_id","subject_id","study_id","session_id","task","rt","stimulus","response","item","answer","correct","spm_correct","spm_rt","view_history","mouse_click","stim_duration","block_duration","timing_post_trial","current_position","tol_num_moves_made","tol_target","tol_problem_id","tol_rt","key_press","possible_responses","tol_correct","preplanning","tol_rt_per_trial","tol_min_moves","fiar_detect_rt","fiar_detect_correct","total_correct_fiar_detect","post_trial_gap","choices"
"true","false","[]","[]","[]","preload","0","15915","0.0-0.0","60cc67809f92d570ba4dc2c5","C3","batch3","","","","","","","","","","","","","","","","","","","","","","","","","","","","","",""
"true","","","","","fullscreen","1","29115","0.0-1.0-0.0","60cc67809f92d570ba4dc2c5","C3","batch3","","","","","","","","","","","","","","","","","","","","","","","","","","","","","",""
"true","","","","","fullscreen","2","32687","0.0-2.0-0.0","60cc67809f92d570ba4dc2c5","C3","batch3","spm_fullscreen","","","","","","","","","","","","","","","","","","","","","","","","","","","","",""
"","","","","","html-button-response","3","47089","0.0-2.0-1.0","60cc67809f92d570ba4dc2c5","C3","batch3","","14396.5","<p class = block-text><b>Instructions</b> <br>This is a widely used intelligence test in research. <br>In this test, a figure with a missing piece will be presented.<br>Below the figure are alternative pieces to complete the figure, only one of which is correct.<br> Different figures might involve different principles for obtaining the missing piece<br>Your job is to select the most logical piece to complete the figure.</p>","0","","","","","","","","","","","","","","","","","","","","","","","","","",""
"","","","","","html-keyboard-response","4","47894","0.0-2.0-2.0-0.0","60cc67809f92d570ba4dc2c5","C3","batch3","spm_show_trial_num","null","<p class=block-text>Trial 1 out of 60</p>","null","","","","","","","","","","","","","","","","","","","","","","","","","",""
"","","","","","image-button-response","5","53602","0.0-2.0-2.0-1.0","60cc67809f92d570ba4dc2c5","C3","batch3","spm_respsonse","5689.800000011921","img/question_1_1.jpeg","3","mat_01","4","1","1","5689.800000011921","","","","","","","","","","","","","","","","","","","","",""
"","","","","","html-keyboard-response","6","54661","0.0-2.0-2.0-0.1","60cc67809f92d570ba4dc2c5","C3","batch3","spm_show_trial_num","null","<p class=block-text>Trial 2 out of 60</p>","null","","","","","","","","","","","","","","","","","","","","","","","","","",""
"","","","","","image-button-response","7","58454","0.0-2.0-2.0-1.1","60cc67809f92d570ba4dc2c5","C3","batch3","spm_respsonse","3790.099999964237","img/question_1_2.jpeg","4","mat_02","5","1","1","3790.099999964237","","","","","","","","","","","","","","","","","","","","",""
"","","","","","html-keyboard-response","8","59511","0.0-2.0-2.0-0.2","60cc67809f92d570ba4dc2c5","C3","batch3","spm_show_trial_num","null","<p class=block-text>Trial 3 out of 60</p>","null","","","","","","","","","","","","","","","","","","","","","","","","","",""
"","","","","","image-button-response","9","64788","0.0-2.0-2.0-1.2","60cc67809f92d570ba4dc2c5","C3","batch3","spm_respsonse","5268.599999964237","img/question_1_3.jpeg","0","mat_03","1","1","1","5268.599999964237","","","","","","","","","","","","","","","","","","","","",""
"","","","","","html-keyboard-response","10","65861","0.0-2.0-2.0-0.3","60cc67809f92d570ba4dc2c5","C3","batch3","spm_show_trial_num","null","<p class=block-text>Trial 4 out of 60</p>","null","","","","","","","","","","","","","","","","","","","","","","","","","",""
"","","","","","image-button-response","11","70327","0.0-2.0-2.0-1.3","60cc67809f92d570ba4dc2c5","C3","batch3","spm_respsonse","4458.599999964237","img/question_1_4.jpeg","1","mat_04","2","1","1","4458.599999964237","","","","","","","","","","","","","","","","","","","","",""
"","","","","","html-keyboard-response","12","71399","0.0-2.0-2.0-0.4","60cc67809f92d570ba4dc2c5","C3","batch3","spm_show_trial_num","null","<p class=block-text>Trial 5 out of 60</p>","null","","","","","","","","","","","","","","","","","","","","","","","","","",""
"","","","","","image-button-response","13","76169","0.0-2.0-2.0-1.4","60cc67809f92d570ba4dc2c5","C3","batch3","spm_respsonse","4765.399999976158","img/question_1_5.jpeg","5","mat_05","6","1","1","4765.399999976158","","","","","","","","","","","","","","","","","","","","",""
"","","","","","html-keyboard-response","14","77247","0.0-2.0-2.0-0.5","60cc67809f92d570ba4dc2c5","C3","batch3","spm_show_trial_num","null","<p class=block-text>Trial 6 out of 60</p>","null","","","","","","","","","","","","","","","","","","","","","","","","","",""
"","","","","","image-button-response","15","82998","0.0-2.0-2.0-1.5","60cc67809f92d570ba4dc2c5","C3","batch3","spm_respsonse","5743","img/question_1_6.jpeg","2","mat_06","3","1","1","5743","","","","","","","","","","","","","","","","","","","","",""
"","","","","","html-keyboard-response","16","84059","0.0-2.0-2.0-0.6","60cc67809f92d570ba4dc2c5","C3","batch3","spm_show_trial_num","null","<p class=block-text>Trial 7 out of 60</p>","null","","","","","","","","","","","","","","","","","","","","","","","","","",""
"","","","","","image-button-response","17","89851","0.0-2.0-2.0-1.6","60cc67809f92d570ba4dc2c5","C3","batch3","spm_respsonse","5784.699999988079","img/question_1_7.jpeg","5","mat_07","6","1","1","5784.699999988079","","","","","","","","","","","","","","","","","","","","",""
"","","","","","html-keyboard-response","18","90921","0.0-2.0-2.0-0.7","60cc67809f92d570ba4dc2c5","C3","batch3","spm_show_trial_num","null","<p class=block-text>Trial 8 out of 60</p>","null","","","","","","","","","","","","","","","","","","","","","","","","","",""
"","","","","","image-button-response","19","102767","0.0-2.0-2.0-1.7","60cc67809f92d570ba4dc2c5","C3","batch3","spm_respsonse","11839.199999988079","img/question_1_8.jpeg","1","mat_08","2","1","1","11839.199999988079","","","","","","","","","","","","","","","","","","","","",""
"","","","","","html-keyboard-response","20","103828","0.0-2.0-2.0-0.8","60cc67809f92d570ba4dc2c5","C3","batch3","spm_show_trial_num","null","<p class=block-text>Trial 9 out of 60</p>","null","","","","","","","","","","","","","","","","","","","","","","","","","",""
"","","","","","image-button-response","21","107200","0.0-2.0-2.0-1.8","60cc67809f92d570ba4dc2c5","C3","batch3","spm_respsonse","3368.5","img/question_1_9.jpeg","0","mat_09","1","1","1","3368.5","","","","","","","","","","","","","","","","","","","","",""
"","","","","","html-keyboard-response","22","108282","0.0-2.0-2.0-0.9","60cc67809f92d570ba4dc2c5","C3","batch3","spm_show_trial_num","null","<p class=block-text>Trial 10 out of 60</p>","null","","","","","","","","","","","","","","","","","","","","","","","","","",""
"","","","","","image-button-response","23","115959","0.0-2.0-2.0-1.9","60cc67809f92d570ba4dc2c5","C3","batch3","spm_respsonse","7671.299999952316","img/question_1_10.jpeg","2","mat_10","3","1","1","7671.299999952316","","","","","","","","","","","","","","","","","","","","",""
"","","","","","html-keyboard-response","24","117027","0.0-2.0-2.0-0.10","60cc67809f92d570ba4dc2c5","C3","batch3","spm_show_trial_num","null","<p class=block-text>Trial 11 out of 60</p>","null","","","","","","","","","","","","","","","","","","","","","","","","","",""
"","","","","","image-button-response","25","133386","0.0-2.0-2.0-1.10","60cc67809f92d570ba4dc2c5","C3","batch3","spm_respsonse","16353.099999964237","img/question_1_11.jpeg","3","mat_11","4","1","1","16353.099999964237","","","","","","","","","","","","","","","","","","","","",""
"","","","","","html-keyboard-response","26","134458","0.0-2.0-2.0-0.11","60cc67809f92d570ba4dc2c5","C3","batch3","spm_show_trial_num","null","<p class=block-text>Trial 12 out of 60</p>","null","","","","","","","","","","","","","","","","","","","","","","","","","",""
"","","","","","image-button-response","27","148908","0.0-2.0-2.0-1.11","60cc67809f92d570ba4dc2c5","C3","batch3","spm_respsonse","14444.700000047684","img/question_1_12.jpeg","4","mat_12","5","1","1","14444.700000047684","","","","","","","","","","","","","","","","","","","","",""
"","","","","","html-keyboard-response","28","149974","0.0-2.0-2.0-0.12","60cc67809f92d570ba4dc2c5","C3","batch3","spm_show_trial_num","null","<p class=block-text>Trial 13 out of 60</p>","null","","","","","","","","","","","","","","","","","","","","","","","","","",""
"","","","","","image-button-response","29","152729","0.0-2.0-2.0-1.12","60cc67809f92d570ba4dc2c5","C3","batch3","spm_respsonse","2745.300000011921","img/question_2_1.jpeg","1","mat_13","2","1","1","2745.300000011921","","","","","","","","","","","","","","","","","","","","",""
"","","","","","html-keyboard-response","30","153801","0.0-2.0-2.0-0.13","60cc67809f92d570ba4dc2c5","C3","batch3","spm_show_trial_num","null","<p class=block-text>Trial 14 out of 60</p>","null","","","","","","","","","","","","","","","","","","","","","","","","","",""
"","","","","","image-button-response","31","156847","0.0-2.0-2.0-1.13","60cc67809f92d570ba4dc2c5","C3","batch3","spm_respsonse","3038.900000035763","img/question_2_2.jpeg","5","mat_14","6","1","1","3038.900000035763","","","","","","","","","","","","","","","","","","","","",""
"","","","","","html-keyboard-response","32","157906","0.0-2.0-2.0-0.14","60cc67809f92d570ba4dc2c5","C3","batch3","spm_show_trial_num","null","<p class=block-text>Trial 15 out of 60</p>","null","","","","","","","","","","","","","","","","","","","","","","","","","",""
"","","","","","image-button-response","33","160186","0.0-2.0-2.0-1.14","60cc67809f92d570ba4dc2c5","C3","batch3","spm_respsonse","2272.800000011921","img/question_2_3.jpeg","0","mat_15","1","1","1","2272.800000011921","","","","","","","","","","","","","","","","","","","","",""
"","","","","","html-keyboard-response","34","161245","0.0-2.0-2.0-0.15","60cc67809f92d570ba4dc2c5","C3","batch3","spm_show_trial_num","null","<p class=block-text>Trial 16 out of 60</p>","null","","","","","","","","","","","","","","","","","","","","","","","","","",""
"","","","","","image-button-response","35","164330","0.0-2.0-2.0-1.15","60cc67809f92d570ba4dc2c5","C3","batch3","spm_respsonse","3077.300000011921","img/question_2_4.jpeg","1","mat_16","2","1","1","3077.300000011921","","","","","","","","","","","","","","","","","","","","",""
"","","","","","html-keyboard-response","36","165394","0.0-2.0-2.0-0.16","60cc67809f92d570ba4dc2c5","C3","batch3","spm_show_trial_num","null","<p class=block-text>Trial 17 out of 60</p>","null","","","","","","","","","","","","","","","","","","","","","","","","","",""
"","","","","","image-button-response","37","169851","0.0-2.0-2.0-1.16","60cc67809f92d570ba4dc2c5","C3","batch3","spm_respsonse","4450.699999988079","img/question_2_5.jpeg","0","mat_17","1","1","1","4450.699999988079","","","","","","","","","","","","","","","","","","","","",""
"","","","","","html-keyboard-response","38","170909","0.0-2.0-2.0-0.17","60cc67809f92d570ba4dc2c5","C3","batch3","spm_show_trial_num","null","<p class=block-text>Trial 18 out of 60</p>","null","","","","","","","","","","","","","","","","","","","","","","","","","",""
"","","","","","image-button-response","39","173749","0.0-2.0-2.0-1.17","60cc67809f92d570ba4dc2c5","C3","batch3","spm_respsonse","2832.600000023842","img/question_2_6.jpeg","3","mat_18","3","0","0","2832.600000023842","","","","","","","","","","","","","","","","","","","","",""
"","","","","","html-keyboard-response","40","174804","0.0-2.0-2.0-0.18","60cc67809f92d570ba4dc2c5","C3","batch3","spm_show_trial_num","null","<p class=block-text>Trial 19 out of 60</p>","null","","","","","","","","","","","","","","","","","","","","","","","","","",""
"","","","","","image-button-response","41","184371","0.0-2.0-2.0-1.18","60cc67809f92d570ba4dc2c5","C3","batch3","spm_respsonse","9558.900000035763","img/question_2_7.jpeg","4","mat_19","5","1","1","9558.900000035763","","","","","","","","","","","","","","","","","","","","",""
"","","","","","html-keyboard-response","42","185426","0.0-2.0-2.0-0.19","60cc67809f92d570ba4dc2c5","C3","batch3","spm_show_trial_num","null","<p class=block-text>Trial 20 out of 60</p>","null","","","","","","","","","","","","","","","","","","","","","","","","","",""
"","","","","","image-button-response","43","189595","0.0-2.0-2.0-1.19","60cc67809f92d570ba4dc2c5","C3","batch3","spm_respsonse","4161.899999976158","img/question_2_8.jpeg","2","mat_20","6","0","0","4161.899999976158","","","","","","","","","","","","","","","","","","","","",""
"","","","","","html-keyboard-response","44","190656","0.0-2.0-2.0-0.20","60cc67809f92d570ba4dc2c5","C3","batch3","spm_show_trial_num","null","<p class=block-text>Trial 21 out of 60</p>","null","","","","","","","","","","","","","","","","","","","","","","","","","",""
"","","","","","image-button-response","45","194963","0.0-2.0-2.0-1.20","60cc67809f92d570ba4dc2c5","C3","batch3","spm_respsonse","4299.599999964237","img/question_2_9.jpeg","3","mat_21","4","1","1","4299.599999964237","","","","","","","","","","","","","","","","","","","","",""
"","","","","","html-keyboard-response","46","196026","0.0-2.0-2.0-0.21","60cc67809f92d570ba4dc2c5","C3","batch3","spm_show_trial_num","null","<p class=block-text>Trial 22 out of 60</p>","null","","","","","","","","","","","","","","","","","","","","","","","","","",""
"","","","","","image-button-response","47","199200","0.0-2.0-2.0-1.21","60cc67809f92d570ba4dc2c5","C3","batch3","spm_respsonse","3166.400000035763","img/question_2_10.jpeg","5","mat_22","3","0","0","3166.400000035763","","","","","","","","","","","","","","","","","","","","",""
"","","","","","html-keyboard-response","48","200272","0.0-2.0-2.0-0.22","60cc67809f92d570ba4dc2c5","C3","batch3","spm_show_trial_num","null","<p class=block-text>Trial 23 out of 60</p>","null","","","","","","","","","","","","","","","","","","","","","","","","","",""
"","","","","","image-button-response","49","203519","0.0-2.0-2.0-1.22","60cc67809f92d570ba4dc2c5","C3","batch3","spm_respsonse","3241.100000023842","img/question_2_11.jpeg","3","mat_23","4","1","1","3241.100000023842","","","","","","","","","","","","","","","","","","","","",""
"","","","","","html-keyboard-response","50","204580","0.0-2.0-2.0-0.23","60cc67809f92d570ba4dc2c5","C3","batch3","spm_show_trial_num","null","<p class=block-text>Trial 24 out of 60</p>","null","","","","","","","","","","","","","","","","","","","","","","","","","",""
"","","","","","image-button-response","51","213203","0.0-2.0-2.0-1.23","60cc67809f92d570ba4dc2c5","C3","batch3","spm_respsonse","8620","img/question_2_12.jpeg","4","mat_24","5","1","1","8620","","","","","","","","","","","","","","","","","","","","",""
"","","","","","html-button-response","52","216080","0.0-2.0-3.0","60cc67809f92d570ba4dc2c5","C3","batch3","attention_check","2623.300000011921","<p class = block-text>Attention check: Please choose 1<br></p>","0","","","true","","","","","","","","","","","","","","","","","","","","","","",""
"","","","","","html-keyboard-response","53","216885","0.0-2.0-4.0-0.0","60cc67809f92d570ba4dc2c5","C3","batch3","spm_show_trial_num","null","<p class=block-text>Trial 25 out of 60</p>","null","","","","","","","","","","","","","","","","","","","","","","","","","",""
"","","","","","image-button-response","54","220615","0.0-2.0-4.0-1.0","60cc67809f92d570ba4dc2c5","C3","batch3","spm_respsonse","3722.5","img/question_3_1.jpeg","5","mat_25","8","0","0","3722.5","","","","","","","","","","","","","","","","","","","","",""
"","","","","","html-keyboard-response","55","221676","0.0-2.0-4.0-0.1","60cc67809f92d570ba4dc2c5","C3","batch3","spm_show_trial_num","null","<p class=block-text>Trial 26 out of 60</p>","null","","","","","","","","","","","","","","","","","","","","","","","","","",""
"","","","","","image-button-response","56","224685","0.0-2.0-4.0-1.1","60cc67809f92d570ba4dc2c5","C3","batch3","spm_respsonse","3002","img/question_3_2.jpeg","1","mat_26","2","1","1","3002","","","","","","","","","","","","","","","","","","","","",""
"","","","","","html-keyboard-response","57","225741","0.0-2.0-4.0-0.2","60cc67809f92d570ba4dc2c5","C3","batch3","spm_show_trial_num","null","<p class=block-text>Trial 27 out of 60</p>","null","","","","","","","","","","","","","","","","","","","","","","","","","",""
"","","","","","image-button-response","58","236038","0.0-2.0-4.0-1.2","60cc67809f92d570ba4dc2c5","C3","batch3","spm_respsonse","10289.300000011921","img/question_3_3.jpeg","2","mat_27","3","1","1","10289.300000011921","","","","","","","","","","","","","","","","","","","","",""
"","","","","","html-keyboard-response","59","237113","0.0-2.0-4.0-0.3","60cc67809f92d570ba4dc2c5","C3","batch3","spm_show_trial_num","null","<p class=block-text>Trial 28 out of 60</p>","null","","","","","","","","","","","","","","","","","","","","","","","","","",""
"","","","","","image-button-response","60","246679","0.0-2.0-4.0-1.3","60cc67809f92d570ba4dc2c5","C3","batch3","spm_respsonse","9557.899999976158","img/question_3_4.jpeg","7","mat_28","8","1","1","9557.899999976158","","","","","","","","","","","","","","","","","","","","",""
"","","","","","html-keyboard-response","61","247747","0.0-2.0-4.0-0.4","60cc67809f92d570ba4dc2c5","C3","batch3","spm_show_trial_num","null","<p class=block-text>Trial 29 out of 60</p>","null","","","","","","","","","","","","","","","","","","","","","","","","","",""
"","","","","","image-button-response","62","251387","0.0-2.0-4.0-1.4","60cc67809f92d570ba4dc2c5","C3","batch3","spm_respsonse","3631.399999976158","img/question_3_5.jpeg","6","mat_29","7","1","1","3631.399999976158","","","","","","","","","","","","","","","","","","","","",""
"","","","","","html-keyboard-response","63","252443","0.0-2.0-4.0-0.5","60cc67809f92d570ba4dc2c5","C3","batch3","spm_show_trial_num","null","<p class=block-text>Trial 30 out of 60</p>","null","","","","","","","","","","","","","","","","","","","","","","","","","",""
"","","","","","image-button-response","64","259461","0.0-2.0-4.0-1.5","60cc67809f92d570ba4dc2c5","C3","batch3","spm_respsonse","7012.799999952316","img/question_3_6.jpeg","0","mat_30","4","0","0","7012.799999952316","","","","","","","","","","","","","","","","","","","","",""
"","","","","","html-keyboard-response","65","260515","0.0-2.0-4.0-0.6","60cc67809f92d570ba4dc2c5","C3","batch3","spm_show_trial_num","null","<p class=block-text>Trial 31 out of 60</p>","null","","","","","","","","","","","","","","","","","","","","","","","","","",""
"","","","","","image-button-response","66","265163","0.0-2.0-4.0-1.6","60cc67809f92d570ba4dc2c5","C3","batch3","spm_respsonse","4639.399999976158","img/question_3_7.jpeg","4","mat_31","5","1","1","4639.399999976158","","","","","","","","","","","","","","","","","","","","",""
"","","","","","html-keyboard-response","67","266219","0.0-2.0-4.0-0.7","60cc67809f92d570ba4dc2c5","C3","batch3","spm_show_trial_num","null","<p class=block-text>Trial 32 out of 60</p>","null","","","","","","","","","","","","","","","","","","","","","","","","","",""
"","","","","","image-button-response","68","272687","0.0-2.0-4.0-1.7","60cc67809f92d570ba4dc2c5","C3","batch3","spm_respsonse","6460.599999964237","img/question_3_8.jpeg","0","mat_32","1","1","1","6460.599999964237","","","","","","","","","","","","","","","","","","","","",""
"","","","","","html-keyboard-response","69","273755","0.0-2.0-4.0-0.8","60cc67809f92d570ba4dc2c5","C3","batch3","spm_show_trial_num","null","<p class=block-text>Trial 33 out of 60</p>","null","","","","","","","","","","","","","","","","","","","","","","","","","",""
"","","","","","image-button-response","70","282085","0.0-2.0-4.0-1.8","60cc67809f92d570ba4dc2c5","C3","batch3","spm_respsonse","8326.100000023842","img/question_3_9.jpeg","6","mat_33","7","1","1","8326.100000023842","","","","","","","","","","","","","","","","","","","","",""
"","","","","","html-keyboard-response","71","283149","0.0-2.0-4.0-0.9","60cc67809f92d570ba4dc2c5","C3","batch3","spm_show_trial_num","null","<p class=block-text>Trial 34 out of 60</p>","null","","","","","","","","","","","","","","","","","","","","","","","","","",""
"","","","","","image-button-response","72","298596","0.0-2.0-4.0-1.9","60cc67809f92d570ba4dc2c5","C3","batch3","spm_respsonse","15441.199999988079","img/question_3_10.jpeg","1","mat_34","6","0","0","15441.199999988079","","","","","","","","","","","","","","","","","","","","",""
"","","","","","html-keyboard-response","73","299657","0.0-2.0-4.0-0.10","60cc67809f92d570ba4dc2c5","C3","batch3","spm_show_trial_num","null","<p class=block-text>Trial 35 out of 60</p>","null","","","","","","","","","","","","","","","","","","","","","","","","","",""
"","","","","","image-button-response","74","309929","0.0-2.0-4.0-1.10","60cc67809f92d570ba4dc2c5","C3","batch3","spm_respsonse","10262","img/question_3_11.jpeg","4","mat_35","1","0","0","10262","","","","","","","","","","","","","","","","","","","","",""
"","","","","","html-keyboard-response","75","311008","0.0-2.0-4.0-0.11","60cc67809f92d570ba4dc2c5","C3","batch3","spm_show_trial_num","null","<p class=block-text>Trial 36 out of 60</p>","null","","","","","","","","","","","","","","","","","","","","","","","","","",""
"","","","","","image-button-response","76","315189","0.0-2.0-4.0-1.11","60cc67809f92d570ba4dc2c5","C3","batch3","spm_respsonse","4174.100000023842","img/question_3_12.jpeg","2","mat_36","2","0","0","4174.100000023842","","","","","","","","","","","","","","","","","","","","",""
"","","","","","html-keyboard-response","77","316248","0.0-2.0-4.0-0.12","60cc67809f92d570ba4dc2c5","C3","batch3","spm_show_trial_num","null","<p class=block-text>Trial 37 out of 60</p>","null","","","","","","","","","","","","","","","","","","","","","","","","","",""
"","","","","","image-button-response","78","318737","0.0-2.0-4.0-1.12","60cc67809f92d570ba4dc2c5","C3","batch3","spm_respsonse","2483","img/question_4_1.jpeg","2","mat_37","3","1","1","2483","","","","","","","","","","","","","","","","","","","","",""
"","","","","","html-keyboard-response","79","319813","0.0-2.0-4.0-0.13","60cc67809f92d570ba4dc2c5","C3","batch3","spm_show_trial_num","null","<p class=block-text>Trial 38 out of 60</p>","null","","","","","","","","","","","","","","","","","","","","","","","","","",""
"","","","","","image-button-response","80","324056","0.0-2.0-4.0-1.13","60cc67809f92d570ba4dc2c5","C3","batch3","spm_respsonse","4237.800000011921","img/question_4_2.jpeg","3","mat_38","4","1","1","4237.800000011921","","","","","","","","","","","","","","","","","","","","",""
"","","","","","html-keyboard-response","81","325114","0.0-2.0-4.0-0.14","60cc67809f92d570ba4dc2c5","C3","batch3","spm_show_trial_num","null","<p class=block-text>Trial 39 out of 60</p>","null","","","","","","","","","","","","","","","","","","","","","","","","","",""
"","","","","","image-button-response","82","329363","0.0-2.0-4.0-1.14","60cc67809f92d570ba4dc2c5","C3","batch3","spm_respsonse","4243.300000011921","img/question_4_3.jpeg","2","mat_39","3","1","1","4243.300000011921","","","","","","","","","","","","","","","","","","","","",""
"","","","","","html-keyboard-response","83","330433","0.0-2.0-4.0-0.15","60cc67809f92d570ba4dc2c5","C3","batch3","spm_show_trial_num","null","<p class=block-text>Trial 40 out of 60</p>","null","","","","","","","","","","","","","","","","","","","","","","","","","",""
"","","","","","image-button-response","84","337978","0.0-2.0-4.0-1.15","60cc67809f92d570ba4dc2c5","C3","batch3","spm_respsonse","7539.600000023842","img/question_4_4.jpeg","6","mat_40","7","1","1","7539.600000023842","","","","","","","","","","","","","","","","","","","","",""
"","","","","","html-keyboard-response","85","339050","0.0-2.0-4.0-0.16","60cc67809f92d570ba4dc2c5","C3","batch3","spm_show_trial_num","null","<p class=block-text>Trial 41 out of 60</p>","null","","","","","","","","","","","","","","","","","","","","","","","","","",""
"","","","","","image-button-response","86","344262","0.0-2.0-4.0-1.16","60cc67809f92d570ba4dc2c5","C3","batch3","spm_respsonse","5206.399999976158","img/question_4_5.jpeg","7","mat_41","8","1","1","5206.399999976158","","","","","","","","","","","","","","","","","","","","",""
"","","","","","html-keyboard-response","87","345326","0.0-2.0-4.0-0.17","60cc67809f92d570ba4dc2c5","C3","batch3","spm_show_trial_num","null","<p class=block-text>Trial 42 out of 60</p>","null","","","","","","","","","","","","","","","","","","","","","","","","","",""
"","","","","","image-button-response","88","355911","0.0-2.0-4.0-1.17","60cc67809f92d570ba4dc2c5","C3","batch3","spm_respsonse","10580.300000011921","img/question_4_6.jpeg","5","mat_42","6","1","1","10580.300000011921","","","","","","","","","","","","","","","","","","","","",""
"","","","","","html-keyboard-response","89","356968","0.0-2.0-4.0-0.18","60cc67809f92d570ba4dc2c5","C3","batch3","spm_show_trial_num","null","<p class=block-text>Trial 43 out of 60</p>","null","","","","","","","","","","","","","","","","","","","","","","","","","",""
"","","","","","image-button-response","90","373023","0.0-2.0-4.0-1.18","60cc67809f92d570ba4dc2c5","C3","batch3","spm_respsonse","16043.100000023842","img/question_4_7.jpeg","4","mat_43","5","1","1","16043.100000023842","","","","","","","","","","","","","","","","","","","","",""
"","","","","","html-keyboard-response","91","374087","0.0-2.0-4.0-0.19","60cc67809f92d570ba4dc2c5","C3","batch3","spm_show_trial_num","null","<p class=block-text>Trial 44 out of 60</p>","null","","","","","","","","","","","","","","","","","","","","","","","","","",""
"","","","","","image-button-response","92","386278","0.0-2.0-4.0-1.19","60cc67809f92d570ba4dc2c5","C3","batch3","spm_respsonse","12184.299999952316","img/question_4_8.jpeg","3","mat_44","4","1","1","12184.299999952316","","","","","","","","","","","","","","","","","","","","",""
"","","","","","html-keyboard-response","93","387341","0.0-2.0-4.0-0.20","60cc67809f92d570ba4dc2c5","C3","batch3","spm_show_trial_num","null","<p class=block-text>Trial 45 out of 60</p>","null","","","","","","","","","","","","","","","","","","","","","","","","","",""
"","","","","","image-button-response","94","402644","0.0-2.0-4.0-1.20","60cc67809f92d570ba4dc2c5","C3","batch3","spm_respsonse","15295.899999976158","img/question_4_9.jpeg","0","mat_45","1","1","1","15295.899999976158","","","","","","","","","","","","","","","","","","","","",""
"","","","","","html-keyboard-response","95","403714","0.0-2.0-4.0-0.21","60cc67809f92d570ba4dc2c5","C3","batch3","spm_show_trial_num","null","<p class=block-text>Trial 46 out of 60</p>","null","","","","","","","","","","","","","","","","","","","","","","","","","",""
"","","","","","image-button-response","96","421619","0.0-2.0-4.0-1.21","60cc67809f92d570ba4dc2c5","C3","batch3","spm_respsonse","17897.5","img/question_4_10.jpeg","1","mat_46","2","1","1","17897.5","","","","","","","","","","","","","","","","","","","","",""
"","","","","","html-keyboard-response","97","422685","0.0-2.0-4.0-0.22","60cc67809f92d570ba4dc2c5","C3","batch3","spm_show_trial_num","null","<p class=block-text>Trial 47 out of 60</p>","null","","","","","","","","","","","","","","","","","","","","","","","","","",""
"","","","","","image-button-response","98","434020","0.0-2.0-4.0-1.22","60cc67809f92d570ba4dc2c5","C3","batch3","spm_respsonse","11329.199999988079","img/question_4_11.jpeg","3","mat_47","5","0","0","11329.199999988079","","","","","","","","","","","","","","","","","","","","",""
"","","","","","html-keyboard-response","99","435080","0.0-2.0-4.0-0.23","60cc67809f92d570ba4dc2c5","C3","batch3","spm_show_trial_num","null","<p class=block-text>Trial 48 out of 60</p>","null","","","","","","","","","","","","","","","","","","","","","","","","","",""
"","","","","","image-button-response","100","450754","0.0-2.0-4.0-1.23","60cc67809f92d570ba4dc2c5","C3","batch3","spm_respsonse","15666.199999988079","img/question_4_12.jpeg","3","mat_48","6","0","0","15666.199999988079","","","","","","","","","","","","","","","","","","","","",""
"","","","","","html-keyboard-response","101","451815","0.0-2.0-4.0-0.24","60cc67809f92d570ba4dc2c5","C3","batch3","spm_show_trial_num","null","<p class=block-text>Trial 49 out of 60</p>","null","","","","","","","","","","","","","","","","","","","","","","","","","",""
"","","","","","image-button-response","102","458401","0.0-2.0-4.0-1.24","60cc67809f92d570ba4dc2c5","C3","batch3","spm_respsonse","6578.899999976158","img/question_5_1.jpeg","6","mat_49","7","1","1","6578.899999976158","","","","","","","","","","","","","","","","","","","","",""
"","","","","","html-keyboard-response","103","459461","0.0-2.0-4.0-0.25","60cc67809f92d570ba4dc2c5","C3","batch3","spm_show_trial_num","null","<p class=block-text>Trial 50 out of 60</p>","null","","","","","","","","","","","","","","","","","","","","","","","","","",""
"","","","","","image-button-response","104","476800","0.0-2.0-4.0-1.25","60cc67809f92d570ba4dc2c5","C3","batch3","spm_respsonse","17334.599999964237","img/question_5_2.jpeg","2","mat_50","6","0","0","17334.599999964237","","","","","","","","","","","","","","","","","","","","",""
"","","","","","html-keyboard-response","105","477866","0.0-2.0-4.0-0.26","60cc67809f92d570ba4dc2c5","C3","batch3","spm_show_trial_num","null","<p class=block-text>Trial 51 out of 60</p>","null","","","","","","","","","","","","","","","","","","","","","","","","","",""
"","","","","","image-button-response","106","485724","0.0-2.0-4.0-1.26","60cc67809f92d570ba4dc2c5","C3","batch3","spm_respsonse","7848","img/question_5_3.jpeg","7","mat_51","8","1","1","7848","","","","","","","","","","","","","","","","","","","","",""
"","","","","","html-keyboard-response","107","486797","0.0-2.0-4.0-0.27","60cc67809f92d570ba4dc2c5","C3","batch3","spm_show_trial_num","null","<p class=block-text>Trial 52 out of 60</p>","null","","","","","","","","","","","","","","","","","","","","","","","","","",""
"","","","","","image-button-response","108","491057","0.0-2.0-4.0-1.27","60cc67809f92d570ba4dc2c5","C3","batch3","spm_respsonse","4252.699999988079","img/question_5_4.jpeg","3","mat_52","2","0","0","4252.699999988079","","","","","","","","","","","","","","","","","","","","",""
"","","","","","html-keyboard-response","109","492111","0.0-2.0-4.0-0.28","60cc67809f92d570ba4dc2c5","C3","batch3","spm_show_trial_num","null","<p class=block-text>Trial 53 out of 60</p>","null","","","","","","","","","","","","","","","","","","","","","","","","","",""
"","","","","","image-button-response","110","499692","0.0-2.0-4.0-1.28","60cc67809f92d570ba4dc2c5","C3","batch3","spm_respsonse","7573.900000035763","img/question_5_5.jpeg","5","mat_53","1","0","0","7573.900000035763","","","","","","","","","","","","","","","","","","","","",""
"","","","","","html-keyboard-response","111","500758","0.0-2.0-4.0-0.29","60cc67809f92d570ba4dc2c5","C3","batch3","spm_show_trial_num","null","<p class=block-text>Trial 54 out of 60</p>","null","","","","","","","","","","","","","","","","","","","","","","","","","",""
"","","","","","image-button-response","112","529163","0.0-2.0-4.0-1.29","60cc67809f92d570ba4dc2c5","C3","batch3","spm_respsonse","28396.600000023842","img/question_5_6.jpeg","4","mat_54","5","1","1","28396.600000023842","","","","","","","","","","","","","","","","","","","","",""
"","","","","","html-keyboard-response","113","530222","0.0-2.0-4.0-0.30","60cc67809f92d570ba4dc2c5","C3","batch3","spm_show_trial_num","null","<p class=block-text>Trial 55 out of 60</p>","null","","","","","","","","","","","","","","","","","","","","","","","","","",""
"","","","","","image-button-response","114","541554","0.0-2.0-4.0-1.30","60cc67809f92d570ba4dc2c5","C3","batch3","spm_respsonse","11323.699999988079","img/question_5_7.jpeg","2","mat_55","1","0","0","11323.699999988079","","","","","","","","","","","","","","","","","","","","",""
"","","","","","html-keyboard-response","115","542613","0.0-2.0-4.0-0.31","60cc67809f92d570ba4dc2c5","C3","batch3","spm_show_trial_num","null","<p class=block-text>Trial 56 out of 60</p>","null","","","","","","","","","","","","","","","","","","","","","","","","","",""
"","","","","","image-button-response","116","547244","0.0-2.0-4.0-1.31","60cc67809f92d570ba4dc2c5","C3","batch3","spm_respsonse","4621.399999976158","img/question_5_8.jpeg","4","mat_56","6","0","0","4621.399999976158","","","","","","","","","","","","","","","","","","","","",""
"","","","","","html-keyboard-response","117","548304","0.0-2.0-4.0-0.32","60cc67809f92d570ba4dc2c5","C3","batch3","spm_show_trial_num","null","<p class=block-text>Trial 57 out of 60</p>","null","","","","","","","","","","","","","","","","","","","","","","","","","",""
"","","","","","image-button-response","118","561481","0.0-2.0-4.0-1.32","60cc67809f92d570ba4dc2c5","C3","batch3","spm_respsonse","13169.5","img/question_5_9.jpeg","4","mat_57","3","0","0","13169.5","","","","","","","","","","","","","","","","","","","","",""
"","","","","","html-keyboard-response","119","562538","0.0-2.0-4.0-0.33","60cc67809f92d570ba4dc2c5","C3","batch3","spm_show_trial_num","null","<p class=block-text>Trial 58 out of 60</p>","null","","","","","","","","","","","","","","","","","","","","","","","","","",""
"","","","","","image-button-response","120","563894","0.0-2.0-4.0-1.33","60cc67809f92d570ba4dc2c5","C3","batch3","spm_respsonse","1349.199999988079","img/question_5_10.jpeg","3","mat_58","2","0","0","1349.199999988079","","","","","","","","","","","","","","","","","","","","",""
"","","","","","html-keyboard-response","121","564951","0.0-2.0-4.0-0.34","60cc67809f92d570ba4dc2c5","C3","batch3","spm_show_trial_num","null","<p class=block-text>Trial 59 out of 60</p>","null","","","","","","","","","","","","","","","","","","","","","","","","","",""
"","","","","","image-button-response","122","566216","0.0-2.0-4.0-1.34","60cc67809f92d570ba4dc2c5","C3","batch3","spm_respsonse","1258.8999999761581","img/question_5_11.jpeg","5","mat_59","4","0","0","1258.8999999761581","","","","","","","","","","","","","","","","","","","","",""
"","","","","","html-keyboard-response","123","567285","0.0-2.0-4.0-0.35","60cc67809f92d570ba4dc2c5","C3","batch3","spm_show_trial_num","null","<p class=block-text>Trial 60 out of 60</p>","null","","","","","","","","","","","","","","","","","","","","","","","","","",""
"","","","","","image-button-response","124","568245","0.0-2.0-4.0-1.35","60cc67809f92d570ba4dc2c5","C3","batch3","spm_respsonse","954.6000000238419","img/question_5_12.jpeg","2","mat_60","5","0","0","954.6000000238419","","","","","","","","","","","","","","","","","","","","",""
"","","","","","html-button-response","125","572162","0.0-2.0-5.0","60cc67809f92d570ba4dc2c5","C3","batch3","spm_goodbye","3659.899999976158","<p class= block-text>This concludes the Standard Progressive Matrix game. Thank you for your responses!<br> When you are ready, click the button continue</p>","0","","","","","","","","","","","","","","","","","","","","","","","","","",""
"true","","","","","fullscreen","126","577126","0.0-3.0-0.0","60cc67809f92d570ba4dc2c5","C3","batch3","","","","","","","","","","","","","","","","","","","","","","","","","","","","","",""
"","","","","","instructions","127","644125","0.0-3.0-1.0-0.0-0.0","60cc67809f92d570ba4dc2c5","C3","batch3","tol-instructions","66996.60000002384","","","","","","","","[{""page_index"":0,""viewing_time"":34312.10000002384},{""page_index"":1,""viewing_time"":5909.799999952316},{""page_index"":2,""viewing_time"":4214},{""page_index"":3,""viewing_time"":9356.600000023842},{""page_index"":4,""viewing_time"":2707.399999976158},{""page_index"":5,""viewing_time"":7532},{""page_index"":6,""viewing_time"":2963.600000023842}]","","","","","","","","","","","","","","","","","","","",""
"","","","","","html-button-response","128","645263","0.0-3.0-1.0-1.0-0.0","60cc67809f92d570ba4dc2c5","C3","batch3","tol_enter_quiz","1134","<p class=block-text> Let's answer a few questions <br>","0","","","","","","","","","","","","","","","","","","","","","","","","","",""
"","","","","","html-button-response","129","648428","0.0-3.0-1.0-1.0-1.0","60cc67809f92d570ba4dc2c5","C3","batch3","tol_quiz","3160.400000035763","<p class = block-text>True or False: You can only move the ball on top of a peg. <br></p>","0","","","true","","","","","","","","","","","","","","","","","","","","","","",""
"","","","","","html-button-response","130","649358","0.0-3.0-1.0-1.0-2.0","60cc67809f92d570ba4dc2c5","C3","batch3","tol_quiz_feedback","925.1999999880791","<p class = block-text>Correct! You can only move the ball on top of a peg.</p>","0","","","","","","","","","","","","","","","","","","","","","","","","","",""
"","","","","","html-button-response","131","652586","0.0-3.0-1.0-1.0-3.0","60cc67809f92d570ba4dc2c5","C3","batch3","tol_quiz","3224.300000011921","<p class = block-text>True or False: You should try to match your board with the target board with fewest moves possible. <br></p>","0","","","true","","","","","","","","","","","","","","","","","","","","","","",""
"","","","","","html-button-response","132","653274","0.0-3.0-1.0-1.0-4.0","60cc67809f92d570ba4dc2c5","C3","batch3","tol_quiz_feedback","683.1999999880791","<p class = block-text>Correct! </p>","0","","","","","","","","","","","","","","","","","","","","","","","","","",""
"","","","","","html-button-response","133","654725","0.0-3.0-2.0","60cc67809f92d570ba4dc2c5","C3","batch3","","1446.5","<p class=block-text> Now that you've understood the game, let's practice a few easier examples before we start!<br> <br>","0","","","","","","","","","","","","","","","","","","","","","","","","","",""
"","","","","","single-stim-button","134","656613","0.0-3.0-3.0-0.0","60cc67809f92d570ba4dc2c5","C3","batch3","tol_practice","1883","","","","","","","","","tol_peg_2","1883","1883","0","[[1,2,0],[0,0],[0]]","1","[[1,2,0],[0,0],[3]]","practice","1883","","","","","","","","","","",""
"","","","","","single-stim-button","135","658440","0.0-3.0-3.0-1.0","60cc67809f92d570ba4dc2c5","C3","batch3","tol_practice","1824","","","","","","","","","tol_peg_3","1824","1824","0","[[1,2,0],[0,0],[3]]","1","[[1,2,0],[0,0],[3]]","practice","1824","","","","","","","","","","",""
"","","","","","poldrack-single-stim","136","659443","0.0-3.0-4.0","60cc67809f92d570ba4dc2c5","C3","batch3","tol_feedback","-1","","","","","true","","","","","1000","1000","500","","","","","","-1","none","true","","0","","","","","",""
"","","","","","single-stim-button","137","664017","0.0-3.0-5.0-0.0","60cc67809f92d570ba4dc2c5","C3","batch3","tol_practice","4568","","","","","","","","","tol_peg_1","4568","4568","0","[[1,0,0],[3,0],[0]]","2","[[0,0,0],[3,1],[2]]","practice","4568","","","","","","","","","","",""
"","","","","","single-stim-button","138","665042","0.0-3.0-5.0-1.0","60cc67809f92d570ba4dc2c5","C3","batch3","tol_practice","1022","","","","","","","","","tol_peg_3","1022","1022","0","[[1,0,0],[3,0],[2]]","2","[[0,0,0],[3,1],[2]]","practice","1022","","","","","","","","","","",""
"","","","","","single-stim-button","139","669296","0.0-3.0-5.1-0.1","60cc67809f92d570ba4dc2c5","C3","batch3","tol_practice","4251","","","","","","","","","tol_peg_2","4251","4251","0","[[1,0,0],[0,0],[2]]","3","[[0,0,0],[3,1],[2]]","practice","4251","","","","","","","","","","",""
"","","","","","single-stim-button","140","674874","0.0-3.0-5.1-1.1","60cc67809f92d570ba4dc2c5","C3","batch3","tol_practice","5575","","","","","","","","","tol_peg_2","5575","5575","0","[[1,0,0],[3,0],[2]]","3","[[0,0,0],[3,1],[2]]","practice","5575","","","","","","","","","","",""
"","","","","","single-stim-button","141","680064","0.0-3.0-5.2-0.2","60cc67809f92d570ba4dc2c5","C3","batch3","tol_practice","5187","","","","","","","","","tol_peg_1","5187","5187","0","[[0,0,0],[3,0],[2]]","4","[[0,0,0],[3,1],[2]]","practice","5187","","","","","","","","","","",""
"","","","","","single-stim-button","142","681499","0.0-3.0-5.2-1.2","60cc67809f92d570ba4dc2c5","C3","batch3","tol_practice","1430","","","","","","","","","tol_peg_2","1430","1430","0","[[0,0,0],[3,1],[2]]","4","[[0,0,0],[3,1],[2]]","practice","1430","","","","","","","","","","",""
"","","","","","poldrack-single-stim","143","682506","0.0-3.0-6.0","60cc67809f92d570ba4dc2c5","C3","batch3","tol_feedback","-1","","","","","true","","","","","1000","1000","500","","","","","","-1","none","true","","0","","","","","",""
"","","","","","single-stim-button","144","686173","0.0-3.0-7.0-0.0","60cc67809f92d570ba4dc2c5","C3","batch3","tol_practice","3665","","","","","","","","","tol_peg_2","3665","3665","0","[[1,2,0],[0,0],[0]]","5","[[1,0,0],[2,0],[3]]","practice","3665","","","","","","","","","","",""
"","","","","","single-stim-button","145","687119","0.0-3.0-7.0-1.0","60cc67809f92d570ba4dc2c5","C3","batch3","tol_practice","942","","","","","","","","","tol_peg_3","942","942","0","[[1,2,0],[0,0],[3]]","5","[[1,0,0],[2,0],[3]]","practice","942","","","","","","","","","","",""
"","","","","","single-stim-button","146","688174","0.0-3.0-7.1-0.1","60cc67809f92d570ba4dc2c5","C3","batch3","tol_practice","1051","","","","","","","","","tol_peg_1","1051","1051","0","[[1,0,0],[0,0],[3]]","6","[[1,0,0],[2,0],[3]]","practice","1051","","","","","","","","","","",""
"","","","","","single-stim-button","147","689216","0.0-3.0-7.1-1.1","60cc67809f92d570ba4dc2c5","C3","batch3","tol_practice","1039","","","","","","","","","tol_peg_2","1039","1039","0","[[1,0,0],[2,0],[3]]","6","[[1,0,0],[2,0],[3]]","practice","1039","","","","","","","","","","",""
"","","","","","poldrack-single-stim","148","690233","0.0-3.0-8.0","60cc67809f92d570ba4dc2c5","C3","batch3","tol_feedback","-1","","","","","true","","","","","1000","1000","500","","","","","","-1","none","true","","0","","","","","",""
"","","","","","html-button-response","149","692805","0.0-3.0-9.0","60cc67809f92d570ba4dc2c5","C3","batch3","tol_instruction","2569.100000023842","<div class = centerbox><p class = center-block-text>Great job! You are done with practice trials<br>You are about to start official trials.<br> <br> Problem <strong>1</strong> out of 25 problems</p></div>","0","","","","","","","","","","","","","","","","","","","","","","","","","",""
"","","","","","single-stim-button","150","696475","0.0-3.0-10.0-0.0","60cc67809f92d570ba4dc2c5","C3","batch3","tol_tohand","2662","","","","","","","","","tol_peg_2","2662","2662","0","[[1,2,0],[0,0],[0]]","1","[[1,3,0],[2,0],[0]]","0","0","","","","","","3","","","","",""
"","","","","","single-stim-button","151","697244","0.0-3.0-10.0-1.0","60cc67809f92d570ba4dc2c5","C3","batch3","tol_toboard","766","","","","","","","","","tol_peg_3","766","766","0","[[1,2,0],[0,0],[3]]","1","[[1,3,0],[2,0],[0]]","0","0","","","","","","3","","","","",""
"","","","","","single-stim-button","152","698108","0.0-3.0-10.1-0.1","60cc67809f92d570ba4dc2c5","C3","batch3","tol_tohand","861","","","","","","","","","tol_peg_1","861","861","0","[[1,0,0],[0,0],[3]]","2","[[1,3,0],[2,0],[0]]","0","0","","","","","","3","","","","",""
"","","","","","single-stim-button","153","699103","0.0-3.0-10.1-1.1","60cc67809f92d570ba4dc2c5","C3","batch3","tol_toboard","991","","","","","","","","","tol_peg_2","991","991","0","[[1,0,0],[2,0],[3]]","2","[[1,3,0],[2,0],[0]]","0","0","","","","","","3","","","","",""
"","","","","","single-stim-button","154","700050","0.0-3.0-10.2-0.2","60cc67809f92d570ba4dc2c5","C3","batch3","tol_tohand","941","","","","","","","","","tol_peg_3","941","941","0","[[1,0,0],[2,0],[0]]","3","[[1,3,0],[2,0],[0]]","0","0","","","","","","3","","","","",""
"","","","","","single-stim-button","155","700944","0.0-3.0-10.2-1.2","60cc67809f92d570ba4dc2c5","C3","batch3","tol_toboard","889","","","","","","","","","tol_peg_1","889","889","0","[[1,3,0],[2,0],[0]]","3","[[1,3,0],[2,0],[0]]","0","0","","","","","","3","","","","",""
"","","","","","poldrack-single-stim","156","701948","0.0-3.0-11.0","60cc67809f92d570ba4dc2c5","C3","batch3","tol_feedback","-1","","","","","true","","","","","1000","1000","500","","","","","","-1","none","true","2662","4464","","","","","",""
"","","","","","html-button-response","157","703043","0.0-3.0-12.0","60cc67809f92d570ba4dc2c5","C3","batch3","tol_trial_num","1090.9000000357628","<div class = centerbox><p class = center-block-text>problem <strong>2</strong> out of 25 problems</p></div>","0","","","","","","","","","","","","","","","","","","","","","","","","","",""
"","","","","","single-stim-button","158","705989","0.0-3.0-13.0-0.0","60cc67809f92d570ba4dc2c5","C3","batch3","tol_tohand","2941","","","","","","","","","tol_peg_1","2941","2941","0","[[1,0,0],[3,0],[0]]","1","[[2,1,3],[0,0],[0]]","1","0","","","","","","5","","","","",""
"","","","","","single-stim-button","159","707032","0.0-3.0-13.0-1.0","60cc67809f92d570ba4dc2c5","C3","batch3","tol_toboard","1041","","","","","","","","","tol_peg_3","1041","1041","0","[[1,0,0],[3,0],[2]]","1","[[2,1,3],[0,0],[0]]","1","0","","","","","","5","","","","",""
"","","","","","single-stim-button","160","708698","0.0-3.0-13.1-0.1","60cc67809f92d570ba4dc2c5","C3","batch3","tol_tohand","1662","","","","","","","","","tol_peg_1","1662","1662","0","[[0,0,0],[3,0],[2]]","2","[[2,1,3],[0,0],[0]]","1","0","","","","","","5","","","","",""
"","","","","","single-stim-button","161","710164","0.0-3.0-13.1-1.1","60cc67809f92d570ba4dc2c5","C3","batch3","tol_toboard","1463","","","","","","","","","tol_peg_2","1463","1463","0","[[0,0,0],[3,1],[2]]","2","[[2,1,3],[0,0],[0]]","1","0","","","","","","5","","","","",""
"","","","","","single-stim-button","162","710920","0.0-3.0-13.2-0.2","60cc67809f92d570ba4dc2c5","C3","batch3","tol_tohand","751","","","","","","","","","tol_peg_3","751","751","0","[[0,0,0],[3,1],[0]]","3","[[2,1,3],[0,0],[0]]","1","0","","","","","","5","","","","",""
"","","","","","single-stim-button","163","711830","0.0-3.0-13.2-1.2","60cc67809f92d570ba4dc2c5","C3","batch3","tol_toboard","908","","","","","","","","","tol_peg_1","908","908","0","[[2,0,0],[3,1],[0]]","3","[[2,1,3],[0,0],[0]]","1","0","","","","","","5","","","","",""
"","","","","","single-stim-button","164","713240","0.0-3.0-13.3-0.3","60cc67809f92d570ba4dc2c5","C3","batch3","tol_tohand","1406","","","","","","","","","tol_peg_2","1406","1406","0","[[2,0,0],[3,0],[0]]","4","[[2,1,3],[0,0],[0]]","1","0","","","","","","5","","","","",""
"","","","","","single-stim-button","165","713931","0.0-3.0-13.3-1.3","60cc67809f92d570ba4dc2c5","C3","batch3","tol_toboard","689","","","","","","","","","tol_peg_1","689","689","0","[[2,1,0],[3,0],[0]]","4","[[2,1,3],[0,0],[0]]","1","0","","","","","","5","","","","",""
"","","","","","single-stim-button","166","714699","0.0-3.0-13.4-0.4","60cc67809f92d570ba4dc2c5","C3","batch3","tol_tohand","763","","","","","","","","","tol_peg_2","763","763","0","[[2,1,0],[0,0],[0]]","5","[[2,1,3],[0,0],[0]]","1","0","","","","","","5","","","","",""
"","","","","","single-stim-button","167","715197","0.0-3.0-13.4-1.4","60cc67809f92d570ba4dc2c5","C3","batch3","tol_toboard","494","","","","","","","","","tol_peg_1","494","494","0","[[2,1,3],[0,0],[0]]","5","[[2,1,3],[0,0],[0]]","1","0","","","","","","5","","","","",""
"","","","","","poldrack-single-stim","168","716203","0.0-3.0-14.0","60cc67809f92d570ba4dc2c5","C3","batch3","tol_feedback","-1","","","","","true","","","","","1000","1000","500","","","","","","-1","none","true","2941","7523","","","","","",""
"","","","","","html-button-response","169","717038","0.0-3.0-15.0","60cc67809f92d570ba4dc2c5","C3","batch3","tol_trial_num","829.1999999880791","<div class = centerbox><p class = center-block-text>problem <strong>3</strong> out of 25 problems</p></div>","0","","","","","","","","","","","","","","","","","","","","","","","","","",""
"","","","","","single-stim-button","170","719938","0.0-3.0-16.0-0.0","60cc67809f92d570ba4dc2c5","C3","batch3","tol_tohand","2896","","","","","","","","","tol_peg_1","2896","2896","0","[[2,0,0],[0,0],[1]]","1","[[1,2,0],[3,0],[0]]","2","0","","","","","","4","","","","",""
"","","","","","single-stim-button","171","720962","0.0-3.0-16.0-1.0","60cc67809f92d570ba4dc2c5","C3","batch3","tol_toboard","1021","","","","","","","","","tol_peg_2","1021","1021","0","[[2,0,0],[3,0],[1]]","1","[[1,2,0],[3,0],[0]]","2","0","","","","","","4","","","","",""
"","","","","","single-stim-button","172","723062","0.0-3.0-16.1-0.1","60cc67809f92d570ba4dc2c5","C3","batch3","tol_tohand","2096","","","","","","","","","tol_peg_1","2096","2096","0","[[0,0,0],[3,0],[1]]","2","[[1,2,0],[3,0],[0]]","2","0","","","","","","4","","","","",""
"","","","","","single-stim-button","173","723882","0.0-3.0-16.1-1.1","60cc67809f92d570ba4dc2c5","C3","batch3","tol_toboard","815","","","","","","","","","tol_peg_2","815","815","0","[[0,0,0],[3,2],[1]]","2","[[1,2,0],[3,0],[0]]","2","0","","","","","","4","","","","",""
"","","","","","single-stim-button","174","724440","0.0-3.0-16.2-0.2","60cc67809f92d570ba4dc2c5","C3","batch3","tol_tohand","555","","","","","","","","","tol_peg_3","555","555","0","[[0,0,0],[3,2],[0]]","3","[[1,2,0],[3,0],[0]]","2","0","","","","","","4","","","","",""
"","","","","","single-stim-button","175","725288","0.0-3.0-16.2-1.2","60cc67809f92d570ba4dc2c5","C3","batch3","tol_toboard","845","","","","","","","","","tol_peg_1","845","845","0","[[1,0,0],[3,2],[0]]","3","[[1,2,0],[3,0],[0]]","2","0","","","","","","4","","","","",""
"","","","","","single-stim-button","176","726059","0.0-3.0-16.3-0.3","60cc67809f92d570ba4dc2c5","C3","batch3","tol_tohand","766","","","","","","","","","tol_peg_2","766","766","0","[[1,0,0],[3,0],[0]]","4","[[1,2,0],[3,0],[0]]","2","0","","","","","","4","","","","",""
"","","","","","single-stim-button","177","726762","0.0-3.0-16.3-1.3","60cc67809f92d570ba4dc2c5","C3","batch3","tol_toboard","701","","","","","","","","","tol_peg_1","701","701","0","[[1,2,0],[3,0],[0]]","4","[[1,2,0],[3,0],[0]]","2","0","","","","","","4","","","","",""
"","","","","","poldrack-single-stim","178","727770","0.0-3.0-17.0","60cc67809f92d570ba4dc2c5","C3","batch3","tol_feedback","-1","","","","","true","","","","","1000","1000","500","","","","","","-1","none","true","2896","6313","","","","","",""
"","","","","","html-button-response","179","728478","0.0-3.0-18.0","60cc67809f92d570ba4dc2c5","C3","batch3","tol_trial_num","702.8000000119209","<div class = centerbox><p class = center-block-text>problem <strong>4</strong> out of 25 problems</p></div>","0","","","","","","","","","","","","","","","","","","","","","","","","","",""
"","","","","","single-stim-button","180","732138","0.0-3.0-19.0-0.0","60cc67809f92d570ba4dc2c5","C3","batch3","tol_tohand","3657","","","","","","","","","tol_peg_2","3657","3657","0","[[3,0,0],[2,0],[0]]","1","[[3,0,0],[1,0],[2]]","3","0","","","","","","3","","","","",""
"","","","","","single-stim-button","181","732971","0.0-3.0-19.0-1.0","60cc67809f92d570ba4dc2c5","C3","batch3","tol_toboard","830","","","","","","","","","tol_peg_1","830","830","0","[[3,1,0],[2,0],[0]]","1","[[3,0,0],[1,0],[2]]","3","0","","","","","","3","","","","",""
"","","","","","single-stim-button","182","733853","0.0-3.0-19.1-0.1","60cc67809f92d570ba4dc2c5","C3","batch3","tol_tohand","877","","","","","","","","","tol_peg_2","877","877","0","[[3,1,0],[0,0],[0]]","2","[[3,0,0],[1,0],[2]]","3","0","","","","","","3","","","","",""
"","","","","","single-stim-button","183","734526","0.0-3.0-19.1-1.1","60cc67809f92d570ba4dc2c5","C3","batch3","tol_toboard","670","","","","","","","","","tol_peg_3","670","670","0","[[3,1,0],[0,0],[2]]","2","[[3,0,0],[1,0],[2]]","3","0","","","","","","3","","","","",""
"","","","","","single-stim-button","184","736592","0.0-3.0-19.2-0.2","60cc67809f92d570ba4dc2c5","C3","batch3","tol_tohand","2063","","","","","","","","","tol_peg_1","2063","2063","0","[[3,0,0],[0,0],[2]]","3","[[3,0,0],[1,0],[2]]","3","0","","","","","","3","","","","",""
"","","","","","single-stim-button","185","737282","0.0-3.0-19.2-1.2","60cc67809f92d570ba4dc2c5","C3","batch3","tol_toboard","687","","","","","","","","","tol_peg_2","687","687","0","[[3,0,0],[1,0],[2]]","3","[[3,0,0],[1,0],[2]]","3","0","","","","","","3","","","","",""
"","","","","","poldrack-single-stim","186","738289","0.0-3.0-20.0","60cc67809f92d570ba4dc2c5","C3","batch3","tol_feedback","-1","","","","","true","","","","","1000","1000","500","","","","","","-1","none","true","3657","6597","","","","","",""
"","","","","","html-button-response","187","738787","0.0-3.0-21.0","60cc67809f92d570ba4dc2c5","C3","batch3","tol_trial_num","493.2999999523163","<div class = centerbox><p class = center-block-text>problem <strong>5</strong> out of 25 problems</p></div>","0","","","","","","","","","","","","","","","","","","","","","","","","","",""
"","","","","","single-stim-button","188","750476","0.0-3.0-22.0-0.0","60cc67809f92d570ba4dc2c5","C3","batch3","tol_tohand","11684","","","","","","","","","tol_peg_3","11684","11684","0","[[1,0,0],[2,0],[0]]","1","[[0,0,0],[1,2],[3]]","4","0","","","","","","7","","","","",""
"","","","","","single-stim-button","189","751790","0.0-3.0-22.0-1.0","60cc67809f92d570ba4dc2c5","C3","batch3","tol_toboard","1310","","","","","","","","","tol_peg_1","1310","1310","0","[[1,3,0],[2,0],[0]]","1","[[0,0,0],[1,2],[3]]","4","0","","","","","","7","","","","",""
"","","","","","single-stim-button","190","752398","0.0-3.0-22.1-0.1","60cc67809f92d570ba4dc2c5","C3","batch3","tol_tohand","604","","","","","","","","","tol_peg_2","604","604","0","[[1,3,0],[0,0],[0]]","2","[[0,0,0],[1,2],[3]]","4","0","","","","","","7","","","","",""
"","","","","","single-stim-button","191","753585","0.0-3.0-22.1-1.1","60cc67809f92d570ba4dc2c5","C3","batch3","tol_toboard","1184","","","","","","","","","tol_peg_3","1184","1184","0","[[1,3,0],[0,0],[2]]","2","[[0,0,0],[1,2],[3]]","4","0","","","","","","7","","","","",""
"","","","","","single-stim-button","192","755010","0.0-3.0-22.2-0.2","60cc67809f92d570ba4dc2c5","C3","batch3","tol_tohand","1422","","","","","","","","","tol_peg_1","1422","1422","0","[[1,0,0],[0,0],[2]]","3","[[0,0,0],[1,2],[3]]","4","0","","","","","","7","","","","",""
"","","","","","single-stim-button","193","756116","0.0-3.0-22.2-1.2","60cc67809f92d570ba4dc2c5","C3","batch3","tol_toboard","1103","","","","","","","","","tol_peg_2","1103","1103","0","[[1,0,0],[3,0],[2]]","3","[[0,0,0],[1,2],[3]]","4","0","","","","","","7","","","","",""
"","","","","","single-stim-button","194","758006","0.0-3.0-22.3-0.3","60cc67809f92d570ba4dc2c5","C3","batch3","tol_tohand","1885","","","","","","","","","tol_peg_3","1885","1885","0","[[1,0,0],[3,0],[0]]","4","[[0,0,0],[1,2],[3]]","4","0","","","","","","7","","","","",""
"","","","","","single-stim-button","195","768559","0.0-3.0-22.3-1.3","60cc67809f92d570ba4dc2c5","C3","batch3","tol_toboard","10550","","","","","","","","","tol_peg_3","10550","10550","0","[[1,0,0],[3,0],[2]]","4","[[0,0,0],[1,2],[3]]","4","0","","","","","","7","","","","",""
"","","","","","single-stim-button","196","770802","0.0-3.0-22.4-0.4","60cc67809f92d570ba4dc2c5","C3","batch3","tol_tohand","2239","","","","","","","","","tol_peg_1","2239","2239","0","[[0,0,0],[3,0],[2]]","5","[[0,0,0],[1,2],[3]]","4","0","","","","","","7","","","","",""
"","","","","","single-stim-button","197","771987","0.0-3.0-22.4-1.4","60cc67809f92d570ba4dc2c5","C3","batch3","tol_toboard","1182","","","","","","","","","tol_peg_2","1182","1182","0","[[0,0,0],[3,1],[2]]","5","[[0,0,0],[1,2],[3]]","4","0","","","","","","7","","","","",""
"","","","","","single-stim-button","198","772676","0.0-3.0-22.5-0.5","60cc67809f92d570ba4dc2c5","C3","batch3","tol_tohand","686","","","","","","","","","tol_peg_3","686","686","0","[[0,0,0],[3,1],[0]]","6","[[0,0,0],[1,2],[3]]","4","0","","","","","","7","","","","",""
"","","","","","single-stim-button","199","773814","0.0-3.0-22.5-1.5","60cc67809f92d570ba4dc2c5","C3","batch3","tol_toboard","1135","","","","","","","","","tol_peg_1","1135","1135","0","[[2,0,0],[3,1],[0]]","6","[[0,0,0],[1,2],[3]]","4","0","","","","","","7","","","","",""
"","","","","","single-stim-button","200","774453","0.0-3.0-22.6-0.6","60cc67809f92d570ba4dc2c5","C3","batch3","tol_tohand","636","","","","","","","","","tol_peg_2","636","636","0","[[2,0,0],[3,0],[0]]","7","[[0,0,0],[1,2],[3]]","4","0","","","","","","7","","","","",""
"","","","","","single-stim-button","201","775176","0.0-3.0-22.6-1.6","60cc67809f92d570ba4dc2c5","C3","batch3","tol_toboard","719","","","","","","","","","tol_peg_3","719","719","0","[[2,0,0],[3,0],[1]]","7","[[0,0,0],[1,2],[3]]","4","0","","","","","","7","","","","",""
"","","","","","single-stim-button","202","775835","0.0-3.0-22.7-0.7","60cc67809f92d570ba4dc2c5","C3","batch3","tol_tohand","656","","","","","","","","","tol_peg_2","656","656","0","[[2,0,0],[0,0],[1]]","8","[[0,0,0],[1,2],[3]]","4","0","","","","","","7","","","","",""
"","","","","","single-stim-button","203","776424","0.0-3.0-22.7-1.7","60cc67809f92d570ba4dc2c5","C3","batch3","tol_toboard","585","","","","","","","","","tol_peg_1","585","585","0","[[2,3,0],[0,0],[1]]","8","[[0,0,0],[1,2],[3]]","4","0","","","","","","7","","","","",""
"","","","","","single-stim-button","204","777083","0.0-3.0-22.8-0.8","60cc67809f92d570ba4dc2c5","C3","batch3","tol_tohand","654","","","","","","","","","tol_peg_3","654","654","0","[[2,3,0],[0,0],[0]]","9","[[0,0,0],[1,2],[3]]","4","0","","","","","","7","","","","",""
"","","","","","single-stim-button","205","777658","0.0-3.0-22.8-1.8","60cc67809f92d570ba4dc2c5","C3","batch3","tol_toboard","571","","","","","","","","","tol_peg_2","571","571","0","[[2,3,0],[1,0],[0]]","9","[[0,0,0],[1,2],[3]]","4","0","","","","","","7","","","","",""
"","","","","","single-stim-button","206","779500","0.0-3.0-22.9-0.9","60cc67809f92d570ba4dc2c5","C3","batch3","tol_tohand","1838","","","","","","","","","tol_peg_1","1838","1838","0","[[2,0,0],[1,0],[0]]","10","[[0,0,0],[1,2],[3]]","4","0","","","","","","7","","","","",""
"","","","","","single-stim-button","207","780397","0.0-3.0-22.9-1.9","60cc67809f92d570ba4dc2c5","C3","batch3","tol_toboard","894","","","","","","","","","tol_peg_3","894","894","0","[[2,0,0],[1,0],[3]]","10","[[0,0,0],[1,2],[3]]","4","0","","","","","","7","","","","",""
"","","","","","single-stim-button","208","781359","0.0-3.0-22.10-0.10","60cc67809f92d570ba4dc2c5","C3","batch3","tol_tohand","958","","","","","","","","","tol_peg_1","958","958","0","[[0,0,0],[1,0],[3]]","11","[[0,0,0],[1,2],[3]]","4","0","","","","","","7","","","","",""
"","","","","","single-stim-button","209","781968","0.0-3.0-22.10-1.10","60cc67809f92d570ba4dc2c5","C3","batch3","tol_toboard","606","","","","","","","","","tol_peg_2","606","606","0","[[0,0,0],[1,2],[3]]","11","[[0,0,0],[1,2],[3]]","4","0","","","","","","7","","","","",""
"","","","","","poldrack-single-stim","210","782973","0.0-3.0-23.0","60cc67809f92d570ba4dc2c5","C3","batch3","tol_feedback","-1","","","","","true","","","","","1000","1000","500","","","","","","-1","none","true","11684","23262","","","","","",""
"","","","","","html-button-response","211","783488","0.0-3.0-24.0","60cc67809f92d570ba4dc2c5","C3","batch3","tol_trial_num","511.69999998807907","<div class = centerbox><p class = center-block-text>problem <strong>6</strong> out of 25 problems</p></div>","0","","","","","","","","","","","","","","","","","","","","","","","","","",""
"","","","","","single-stim-button","212","792263","0.0-3.0-25.0-0.0","60cc67809f92d570ba4dc2c5","C3","batch3","tol_tohand","8769","","","","","","","","","tol_peg_3","8769","8769","0","[[0,0,0],[1,2],[0]]","1","[[1,0,0],[2,3],[0]]","5","0","","","","","","6","","","","",""
"","","","","","single-stim-button","213","793079","0.0-3.0-25.0-1.0","60cc67809f92d570ba4dc2c5","C3","batch3","tol_toboard","811","","","","","","","","","tol_peg_1","811","811","0","[[3,0,0],[1,2],[0]]","1","[[1,0,0],[2,3],[0]]","5","0","","","","","","6","","","","",""
"","","","","","single-stim-button","214","793817","0.0-3.0-25.1-0.1","60cc67809f92d570ba4dc2c5","C3","batch3","tol_tohand","732","","","","","","","","","tol_peg_2","732","732","0","[[3,0,0],[1,0],[0]]","2","[[1,0,0],[2,3],[0]]","5","0","","","","","","6","","","","",""
"","","","","","single-stim-button","215","794634","0.0-3.0-25.1-1.1","60cc67809f92d570ba4dc2c5","C3","batch3","tol_toboard","813","","","","","","","","","tol_peg_3","813","813","0","[[3,0,0],[1,0],[2]]","2","[[1,0,0],[2,3],[0]]","5","0","","","","","","6","","","","",""
"","","","","","single-stim-button","216","795243","0.0-3.0-25.2-0.2","60cc67809f92d570ba4dc2c5","C3","batch3","tol_tohand","606","","","","","","","","","tol_peg_2","606","606","0","[[3,0,0],[0,0],[2]]","3","[[1,0,0],[2,3],[0]]","5","0","","","","","","6","","","","",""
"","","","","","single-stim-button","217","795818","0.0-3.0-25.2-1.2","60cc67809f92d570ba4dc2c5","C3","batch3","tol_toboard","572","","","","","","","","","tol_peg_1","572","572","0","[[3,1,0],[0,0],[2]]","3","[[1,0,0],[2,3],[0]]","5","0","","","","","","6","","","","",""
"","","","","","single-stim-button","218","796540","0.0-3.0-25.3-0.3","60cc67809f92d570ba4dc2c5","C3","batch3","tol_tohand","717","","","","","","","","","tol_peg_3","717","717","0","[[3,1,0],[0,0],[0]]","4","[[1,0,0],[2,3],[0]]","5","0","","","","","","6","","","","",""
"","","","","","single-stim-button","219","797325","0.0-3.0-25.3-1.3","60cc67809f92d570ba4dc2c5","C3","batch3","tol_toboard","782","","","","","","","","","tol_peg_2","782","782","0","[[3,1,0],[2,0],[0]]","4","[[1,0,0],[2,3],[0]]","5","0","","","","","","6","","","","",""
"","","","","","single-stim-button","220","797952","0.0-3.0-25.4-0.4","60cc67809f92d570ba4dc2c5","C3","batch3","tol_tohand","622","","","","","","","","","tol_peg_1","622","622","0","[[3,0,0],[2,0],[0]]","5","[[1,0,0],[2,3],[0]]","5","0","","","","","","6","","","","",""
"","","","","","single-stim-button","221","798717","0.0-3.0-25.4-1.4","60cc67809f92d570ba4dc2c5","C3","batch3","tol_toboard","761","","","","","","","","","tol_peg_3","761","761","0","[[3,0,0],[2,0],[1]]","5","[[1,0,0],[2,3],[0]]","5","0","","","","","","6","","","","",""
"","","","","","single-stim-button","222","799551","0.0-3.0-25.5-0.5","60cc67809f92d570ba4dc2c5","C3","batch3","tol_tohand","831","","","","","","","","","tol_peg_1","831","831","0","[[0,0,0],[2,0],[1]]","6","[[1,0,0],[2,3],[0]]","5","0","","","","","","6","","","","",""
"","","","","","single-stim-button","223","800287","0.0-3.0-25.5-1.5","60cc67809f92d570ba4dc2c5","C3","batch3","tol_toboard","733","","","","","","","","","tol_peg_2","733","733","0","[[0,0,0],[2,3],[1]]","6","[[1,0,0],[2,3],[0]]","5","0","","","","","","6","","","","",""
"","","","","","single-stim-button","224","800917","0.0-3.0-25.6-0.6","60cc67809f92d570ba4dc2c5","C3","batch3","tol_tohand","630","","","","","","","","","tol_peg_3","630","630","0","[[0,0,0],[2,3],[0]]","7","[[1,0,0],[2,3],[0]]","5","0","","","","","","6","","","","",""
"","","","","","single-stim-button","225","801667","0.0-3.0-25.6-1.6","60cc67809f92d570ba4dc2c5","C3","batch3","tol_toboard","745","","","","","","","","","tol_peg_1","745","745","0","[[1,0,0],[2,3],[0]]","7","[[1,0,0],[2,3],[0]]","5","0","","","","","","6","","","","",""
"","","","","","poldrack-single-stim","226","802673","0.0-3.0-26.0","60cc67809f92d570ba4dc2c5","C3","batch3","tol_feedback","-1","","","","","true","","","","","1000","1000","500","","","","","","-1","none","true","8769","12907","","","","","",""
"","","","","","html-button-response","227","803430","0.0-3.0-27.0","60cc67809f92d570ba4dc2c5","C3","batch3","tol_trial_num","750.3999999761581","<div class = centerbox><p class = center-block-text>problem <strong>7</strong> out of 25 problems</p></div>","0","","","","","","","","","","","","","","","","","","","","","","","","","",""
"","","","","","single-stim-button","228","805087","0.0-3.0-28.0-0.0","60cc67809f92d570ba4dc2c5","C3","batch3","tol_tohand","1652","","","","","","","","","tol_peg_3","1652","1652","0","[[2,1,0],[0,0],[0]]","1","[[1,2,0],[3,0],[0]]","6","0","","","","","","5","","","","",""
"","","","","","single-stim-button","229","805935","0.0-3.0-28.0-1.0","60cc67809f92d570ba4dc2c5","C3","batch3","tol_toboard","844","","","","","","","","","tol_peg_2","844","844","0","[[2,1,0],[3,0],[0]]","1","[[1,2,0],[3,0],[0]]","6","0","","","","","","5","","","","",""
"","","","","","single-stim-button","230","807185","0.0-3.0-28.1-0.1","60cc67809f92d570ba4dc2c5","C3","batch3","tol_tohand","1248","","","","","","","","","tol_peg_1","1248","1248","0","[[2,0,0],[3,0],[0]]","2","[[1,2,0],[3,0],[0]]","6","0","","","","","","5","","","","",""
"","","","","","single-stim-button","231","808276","0.0-3.0-28.1-1.1","60cc67809f92d570ba4dc2c5","C3","batch3","tol_toboard","1087","","","","","","","","","tol_peg_3","1087","1087","0","[[2,0,0],[3,0],[1]]","2","[[1,2,0],[3,0],[0]]","6","0","","","","","","5","","","","",""
"","","","","","single-stim-button","232","809590","0.0-3.0-28.2-0.2","60cc67809f92d570ba4dc2c5","C3","batch3","tol_tohand","1310","","","","","","","","","tol_peg_1","1310","1310","0","[[0,0,0],[3,0],[1]]","3","[[1,2,0],[3,0],[0]]","6","0","","","","","","5","","","","",""
"","","","","","single-stim-button","233","810118","0.0-3.0-28.2-1.2","60cc67809f92d570ba4dc2c5","C3","batch3","tol_toboard","526","","","","","","","","","tol_peg_2","526","526","0","[[0,0,0],[3,2],[1]]","3","[[1,2,0],[3,0],[0]]","6","0","","","","","","5","","","","",""
"","","","","","single-stim-button","234","810760","0.0-3.0-28.3-0.3","60cc67809f92d570ba4dc2c5","C3","batch3","tol_tohand","638","","","","","","","","","tol_peg_3","638","638","0","[[0,0,0],[3,2],[0]]","4","[[1,2,0],[3,0],[0]]","6","0","","","","","","5","","","","",""
"","","","","","single-stim-button","235","811320","0.0-3.0-28.3-1.3","60cc67809f92d570ba4dc2c5","C3","batch3","tol_toboard","558","","","","","","","","","tol_peg_1","558","558","0","[[1,0,0],[3,2],[0]]","4","[[1,2,0],[3,0],[0]]","6","0","","","","","","5","","","","",""
"","","","","","single-stim-button","236","811928","0.0-3.0-28.4-0.4","60cc67809f92d570ba4dc2c5","C3","batch3","tol_tohand","605","","","","","","","","","tol_peg_2","605","605","0","[[1,0,0],[3,0],[0]]","5","[[1,2,0],[3,0],[0]]","6","0","","","","","","5","","","","",""
"","","","","","single-stim-button","237","812378","0.0-3.0-28.4-1.4","60cc67809f92d570ba4dc2c5","C3","batch3","tol_toboard","446","","","","","","","","","tol_peg_1","446","446","0","[[1,2,0],[3,0],[0]]","5","[[1,2,0],[3,0],[0]]","6","0","","","","","","5","","","","",""
"","","","","","poldrack-single-stim","238","813385","0.0-3.0-29.0","60cc67809f92d570ba4dc2c5","C3","batch3","tol_feedback","-1","","","","","true","","","","","1000","1000","500","","","","","","-1","none","true","1652","5453","","","","","",""
"","","","","","html-button-response","239","813803","0.0-3.0-30.0","60cc67809f92d570ba4dc2c5","C3","batch3","tol_trial_num","414.19999998807907","<div class = centerbox><p class = center-block-text>problem <strong>8</strong> out of 25 problems</p></div>","0","","","","","","","","","","","","","","","","","","","","","","","","","",""
"","","","","","single-stim-button","240","818794","0.0-3.0-31.0-0.0","60cc67809f92d570ba4dc2c5","C3","batch3","tol_tohand","4987","","","","","","","","","tol_peg_2","4987","4987","0","[[0,0,0],[2,0],[1]]","1","[[1,2,0],[3,0],[0]]","7","0","","","","","","4","","","","",""
"","","","","","single-stim-button","241","819787","0.0-3.0-31.0-1.0","60cc67809f92d570ba4dc2c5","C3","batch3","tol_toboard","987","","","","","","","","","tol_peg_1","987","987","0","[[3,0,0],[2,0],[1]]","1","[[1,2,0],[3,0],[0]]","7","0","","","","","","4","","","","",""
"","","","","","single-stim-button","242","820782","0.0-3.0-31.1-0.1","60cc67809f92d570ba4dc2c5","C3","batch3","tol_tohand","990","","","","","","","","","tol_peg_2","990","990","0","[[3,0,0],[0,0],[1]]","2","[[1,2,0],[3,0],[0]]","7","0","","","","","","4","","","","",""
"","","","","","single-stim-button","243","821900","0.0-3.0-31.1-1.1","60cc67809f92d570ba4dc2c5","C3","batch3","tol_toboard","1114","","","","","","","","","tol_peg_1","1114","1114","0","[[3,2,0],[0,0],[1]]","2","[[1,2,0],[3,0],[0]]","7","0","","","","","","4","","","","",""
"","","","","","single-stim-button","244","822783","0.0-3.0-31.2-0.2","60cc67809f92d570ba4dc2c5","C3","batch3","tol_tohand","880","","","","","","","","","tol_peg_3","880","880","0","[[3,2,0],[0,0],[0]]","3","[[1,2,0],[3,0],[0]]","7","0","","","","","","4","","","","",""
"","","","","","single-stim-button","245","823345","0.0-3.0-31.2-1.2","60cc67809f92d570ba4dc2c5","C3","batch3","tol_toboard","557","","","","","","","","","tol_peg_2","557","557","0","[[3,2,0],[1,0],[0]]","3","[[1,2,0],[3,0],[0]]","7","0","","","","","","4","","","","",""
"","","","","","single-stim-button","246","823951","0.0-3.0-31.3-0.3","60cc67809f92d570ba4dc2c5","C3","batch3","tol_tohand","602","","","","","","","","","tol_peg_1","602","602","0","[[3,0,0],[1,0],[0]]","4","[[1,2,0],[3,0],[0]]","7","0","","","","","","4","","","","",""
"","","","","","single-stim-button","247","824642","0.0-3.0-31.3-1.3","60cc67809f92d570ba4dc2c5","C3","batch3","tol_toboard","687","","","","","","","","","tol_peg_3","687","687","0","[[3,0,0],[1,0],[2]]","4","[[1,2,0],[3,0],[0]]","7","0","","","","","","4","","","","",""
"","","","","","single-stim-button","248","825458","0.0-3.0-31.4-0.4","60cc67809f92d570ba4dc2c5","C3","batch3","tol_tohand","812","","","","","","","","","tol_peg_2","812","812","0","[[3,0,0],[0,0],[2]]","5","[[1,2,0],[3,0],[0]]","7","0","","","","","","4","","","","",""
"","","","","","single-stim-button","249","826228","0.0-3.0-31.4-1.4","60cc67809f92d570ba4dc2c5","C3","batch3","tol_toboard","768","","","","","","","","","tol_peg_1","768","768","0","[[3,1,0],[0,0],[2]]","5","[[1,2,0],[3,0],[0]]","7","0","","","","","","4","","","","",""
"","","","","","single-stim-button","250","829533","0.0-3.0-31.5-0.5","60cc67809f92d570ba4dc2c5","C3","batch3","tol_tohand","3300","","","","","","","","","tol_peg_1","3300","3300","0","[[3,0,0],[0,0],[2]]","6","[[1,2,0],[3,0],[0]]","7","0","","","","","","4","","","","",""
"","","","","","single-stim-button","251","834168","0.0-3.0-31.5-1.5","60cc67809f92d570ba4dc2c5","C3","batch3","tol_toboard","4631","","","","","","","","","tol_peg_2","4631","4631","0","[[3,0,0],[1,0],[2]]","6","[[1,2,0],[3,0],[0]]","7","0","","","","","","4","","","","",""
"","","","","","single-stim-button","252","835801","0.0-3.0-31.6-0.6","60cc67809f92d570ba4dc2c5","C3","batch3","tol_tohand","1630","","","","","","","","","tol_peg_3","1630","1630","0","[[3,0,0],[1,0],[0]]","7","[[1,2,0],[3,0],[0]]","7","0","","","","","","4","","","","",""
"","","","","","single-stim-button","253","840727","0.0-3.0-31.6-1.6","60cc67809f92d570ba4dc2c5","C3","batch3","tol_toboard","4924","","","","","","","","","tol_peg_3","4924","4924","0","[[3,0,0],[1,0],[2]]","7","[[1,2,0],[3,0],[0]]","7","0","","","","","","4","","","","",""
"","","","","","single-stim-button","254","842198","0.0-3.0-31.7-0.7","60cc67809f92d570ba4dc2c5","C3","batch3","tol_tohand","1463","","","","","","","","","tol_peg_1","1463","1463","0","[[0,0,0],[1,0],[2]]","8","[[1,2,0],[3,0],[0]]","7","0","","","","","","4","","","","",""
"","","","","","single-stim-button","255","842611","0.0-3.0-31.7-1.7","60cc67809f92d570ba4dc2c5","C3","batch3","tol_toboard","411","","","","","","","","","tol_peg_2","411","411","0","[[0,0,0],[1,3],[2]]","8","[[1,2,0],[3,0],[0]]","7","0","","","","","","4","","","","",""
"","","","","","single-stim-button","256","843381","0.0-3.0-31.8-0.8","60cc67809f92d570ba4dc2c5","C3","batch3","tol_tohand","766","","","","","","","","","tol_peg_3","766","766","0","[[0,0,0],[1,3],[0]]","9","[[1,2,0],[3,0],[0]]","7","0","","","","","","4","","","","",""
"","","","","","single-stim-button","257","844070","0.0-3.0-31.8-1.8","60cc67809f92d570ba4dc2c5","C3","batch3","tol_toboard","686","","","","","","","","","tol_peg_1","686","686","0","[[2,0,0],[1,3],[0]]","9","[[1,2,0],[3,0],[0]]","7","0","","","","","","4","","","","",""
"","","","","","single-stim-button","258","844681","0.0-3.0-31.9-0.9","60cc67809f92d570ba4dc2c5","C3","batch3","tol_tohand","604","","","","","","","","","tol_peg_2","604","604","0","[[2,0,0],[1,0],[0]]","10","[[1,2,0],[3,0],[0]]","7","0","","","","","","4","","","","",""
"","","","","","single-stim-button","259","845158","0.0-3.0-31.9-1.9","60cc67809f92d570ba4dc2c5","C3","batch3","tol_toboard","474","","","","","","","","","tol_peg_3","474","474","0","[[2,0,0],[1,0],[3]]","10","[[1,2,0],[3,0],[0]]","7","0","","","","","","4","","","","",""
"","","","","","single-stim-button","260","851949","0.0-3.0-31.10-0.10","60cc67809f92d570ba4dc2c5","C3","batch3","tol_tohand","6788","","","","","","","","","tol_peg_2","6788","6788","0","[[2,0,0],[0,0],[3]]","11","[[1,2,0],[3,0],[0]]","7","0","","","","","","4","","","","",""
"","","","","","single-stim-button","261","852474","0.0-3.0-31.10-1.10","60cc67809f92d570ba4dc2c5","C3","batch3","tol_toboard","521","","","","","","","","","tol_peg_1","521","521","0","[[2,1,0],[0,0],[3]]","11","[[1,2,0],[3,0],[0]]","7","0","","","","","","4","","","","",""
"","","","","","single-stim-button","262","853213","0.0-3.0-31.11-0.11","60cc67809f92d570ba4dc2c5","C3","batch3","tol_tohand","733","","","","","","","","","tol_peg_3","733","733","0","[[2,1,0],[0,0],[0]]","12","[[1,2,0],[3,0],[0]]","7","0","","","","","","4","","","","",""
"","","","","","single-stim-button","263","853836","0.0-3.0-31.11-1.11","60cc67809f92d570ba4dc2c5","C3","batch3","tol_toboard","619","","","","","","","","","tol_peg_2","619","619","0","[[2,1,0],[3,0],[0]]","12","[[1,2,0],[3,0],[0]]","7","0","","","","","","4","","","","",""
"","","","","","single-stim-button","264","854461","0.0-3.0-31.12-0.12","60cc67809f92d570ba4dc2c5","C3","batch3","tol_tohand","620","","","","","","","","","tol_peg_1","620","620","0","[[2,0,0],[3,0],[0]]","13","[[1,2,0],[3,0],[0]]","7","0","","","","","","4","","","","",""
"","","","","","single-stim-button","265","855247","0.0-3.0-31.12-1.12","60cc67809f92d570ba4dc2c5","C3","batch3","tol_toboard","779","","","","","","","","","tol_peg_3","779","779","0","[[2,0,0],[3,0],[1]]","13","[[1,2,0],[3,0],[0]]","7","0","","","","","","4","","","","",""
"","","","","","single-stim-button","266","856113","0.0-3.0-31.13-0.13","60cc67809f92d570ba4dc2c5","C3","batch3","tol_tohand","861","","","","","","","","","tol_peg_1","861","861","0","[[0,0,0],[3,0],[1]]","14","[[1,2,0],[3,0],[0]]","7","0","","","","","","4","","","","",""
"","","","","","single-stim-button","267","856576","0.0-3.0-31.13-1.13","60cc67809f92d570ba4dc2c5","C3","batch3","tol_toboard","459","","","","","","","","","tol_peg_2","459","459","0","[[0,0,0],[3,2],[1]]","14","[[1,2,0],[3,0],[0]]","7","0","","","","","","4","","","","",""
"","","","","","single-stim-button","268","857231","0.0-3.0-31.14-0.14","60cc67809f92d570ba4dc2c5","C3","batch3","tol_tohand","652","","","","","","","","","tol_peg_3","652","652","0","[[0,0,0],[3,2],[0]]","15","[[1,2,0],[3,0],[0]]","7","0","","","","","","4","","","","",""
"","","","","","single-stim-button","269","858082","0.0-3.0-31.14-1.14","60cc67809f92d570ba4dc2c5","C3","batch3","tol_toboard","848","","","","","","","","","tol_peg_1","848","848","0","[[1,0,0],[3,2],[0]]","15","[[1,2,0],[3,0],[0]]","7","0","","","","","","4","","","","",""
"","","","","","single-stim-button","270","858785","0.0-3.0-31.15-0.15","60cc67809f92d570ba4dc2c5","C3","batch3","tol_tohand","700","","","","","","","","","tol_peg_2","700","700","0","[[1,0,0],[3,0],[0]]","16","[[1,2,0],[3,0],[0]]","7","0","","","","","","4","","","","",""
"","","","","","single-stim-button","271","859299","0.0-3.0-31.15-1.15","60cc67809f92d570ba4dc2c5","C3","batch3","tol_toboard","511","","","","","","","","","tol_peg_1","511","511","0","[[1,2,0],[3,0],[0]]","16","[[1,2,0],[3,0],[0]]","7","0","","","","","","4","","","","",""
"","","","","","poldrack-single-stim","272","860306","0.0-3.0-32.0","60cc67809f92d570ba4dc2c5","C3","batch3","tol_feedback","-1","","","","","true","","","","","1000","1000","500","","","","","","-1","none","true","4987","26388","","","","","",""
"","","","","","html-button-response","273","861285","0.0-3.0-33.0","60cc67809f92d570ba4dc2c5","C3","batch3","tol_trial_num","975.1999999880791","<div class = centerbox><p class = center-block-text>problem <strong>9</strong> out of 25 problems</p></div>","0","","","","","","","","","","","","","","","","","","","","","","","","","",""
"","","","","","single-stim-button","274","870401","0.0-3.0-34.0-0.0","60cc67809f92d570ba4dc2c5","C3","batch3","tol_tohand","9112","","","","","","","","","tol_peg_1","9112","9112","0","[[3,0,0],[0,0],[1]]","1","[[2,1,0],[3,0],[0]]","8","0","","","","","","6","","","","",""
"","","","","","single-stim-button","275","871171","0.0-3.0-34.0-1.0","60cc67809f92d570ba4dc2c5","C3","batch3","tol_toboard","767","","","","","","","","","tol_peg_2","767","767","0","[[3,0,0],[2,0],[1]]","1","[[2,1,0],[3,0],[0]]","8","0","","","","","","6","","","","",""
"","","","","","single-stim-button","276","872725","0.0-3.0-34.1-0.1","60cc67809f92d570ba4dc2c5","C3","batch3","tol_tohand","1551","","","","","","","","","tol_peg_3","1551","1551","0","[[3,0,0],[2,0],[0]]","2","[[2,1,0],[3,0],[0]]","8","0","","","","","","6","","","","",""
"","","","","","single-stim-button","277","873333","0.0-3.0-34.1-1.1","60cc67809f92d570ba4dc2c5","C3","batch3","tol_toboard","603","","","","","","","","","tol_peg_2","603","603","0","[[3,0,0],[2,1],[0]]","2","[[2,1,0],[3,0],[0]]","8","0","","","","","","6","","","","",""
"","","","","","single-stim-button","278","874199","0.0-3.0-34.2-0.2","60cc67809f92d570ba4dc2c5","C3","batch3","tol_tohand","863","","","","","","","","","tol_peg_1","863","863","0","[[0,0,0],[2,1],[0]]","3","[[2,1,0],[3,0],[0]]","8","0","","","","","","6","","","","",""
"","","","","","single-stim-button","279","875242","0.0-3.0-34.2-1.2","60cc67809f92d570ba4dc2c5","C3","batch3","tol_toboard","1039","","","","","","","","","tol_peg_3","1039","1039","0","[[0,0,0],[2,1],[3]]","3","[[2,1,0],[3,0],[0]]","8","0","","","","","","6","","","","",""
"","","","","","single-stim-button","280","876248","0.0-3.0-34.3-0.3","60cc67809f92d570ba4dc2c5","C3","batch3","tol_tohand","1002","","","","","","","","","tol_peg_2","1002","1002","0","[[0,0,0],[2,0],[3]]","4","[[2,1,0],[3,0],[0]]","8","0","","","","","","6","","","","",""
"","","","","","single-stim-button","281","877003","0.0-3.0-34.3-1.3","60cc67809f92d570ba4dc2c5","C3","batch3","tol_toboard","752","","","","","","","","","tol_peg_1","752","752","0","[[1,0,0],[2,0],[3]]","4","[[2,1,0],[3,0],[0]]","8","0","","","","","","6","","","","",""
"","","","","","single-stim-button","282","877593","0.0-3.0-34.4-0.4","60cc67809f92d570ba4dc2c5","C3","batch3","tol_tohand","588","","","","","","","","","tol_peg_2","588","588","0","[[1,0,0],[0,0],[3]]","5","[[2,1,0],[3,0],[0]]","8","0","","","","","","6","","","","",""
"","","","","","single-stim-button","283","878156","0.0-3.0-34.4-1.4","60cc67809f92d570ba4dc2c5","C3","batch3","tol_toboard","560","","","","","","","","","tol_peg_1","560","560","0","[[1,2,0],[0,0],[3]]","5","[[2,1,0],[3,0],[0]]","8","0","","","","","","6","","","","",""
"","","","","","single-stim-button","284","878733","0.0-3.0-34.5-0.5","60cc67809f92d570ba4dc2c5","C3","batch3","tol_tohand","575","","","","","","","","","tol_peg_3","575","575","0","[[1,2,0],[0,0],[0]]","6","[[2,1,0],[3,0],[0]]","8","0","","","","","","6","","","","",""
"","","","","","single-stim-button","285","880157","0.0-3.0-34.5-1.5","60cc67809f92d570ba4dc2c5","C3","batch3","tol_toboard","1421","","","","","","","","","tol_peg_2","1421","1421","0","[[1,2,0],[3,0],[0]]","6","[[2,1,0],[3,0],[0]]","8","0","","","","","","6","","","","",""
"","","","","","single-stim-button","286","881473","0.0-3.0-34.6-0.6","60cc67809f92d570ba4dc2c5","C3","batch3","tol_tohand","1315","","","","","","","","","tol_peg_1","1315","1315","0","[[1,0,0],[3,0],[0]]","7","[[2,1,0],[3,0],[0]]","8","0","","","","","","6","","","","",""
"","","","","","single-stim-button","287","882226","0.0-3.0-34.6-1.6","60cc67809f92d570ba4dc2c5","C3","batch3","tol_toboard","749","","","","","","","","","tol_peg_2","749","749","0","[[1,0,0],[3,2],[0]]","7","[[2,1,0],[3,0],[0]]","8","0","","","","","","6","","","","",""
"","","","","","single-stim-button","288","882997","0.0-3.0-34.7-0.7","60cc67809f92d570ba4dc2c5","C3","batch3","tol_tohand","767","","","","","","","","","tol_peg_1","767","767","0","[[0,0,0],[3,2],[0]]","8","[[2,1,0],[3,0],[0]]","8","0","","","","","","6","","","","",""
"","","","","","single-stim-button","289","883668","0.0-3.0-34.7-1.7","60cc67809f92d570ba4dc2c5","C3","batch3","tol_toboard","667","","","","","","","","","tol_peg_3","667","667","0","[[0,0,0],[3,2],[1]]","8","[[2,1,0],[3,0],[0]]","8","0","","","","","","6","","","","",""
"","","","","","single-stim-button","290","884853","0.0-3.0-34.8-0.8","60cc67809f92d570ba4dc2c5","C3","batch3","tol_tohand","1182","","","","","","","","","tol_peg_2","1182","1182","0","[[0,0,0],[3,0],[1]]","9","[[2,1,0],[3,0],[0]]","8","0","","","","","","6","","","","",""
"","","","","","single-stim-button","291","885511","0.0-3.0-34.8-1.8","60cc67809f92d570ba4dc2c5","C3","batch3","tol_toboard","653","","","","","","","","","tol_peg_1","653","653","0","[[2,0,0],[3,0],[1]]","9","[[2,1,0],[3,0],[0]]","8","0","","","","","","6","","","","",""
"","","","","","single-stim-button","292","886953","0.0-3.0-34.9-0.9","60cc67809f92d570ba4dc2c5","C3","batch3","tol_tohand","1436","","","","","","","","","tol_peg_3","1436","1436","0","[[2,0,0],[3,0],[0]]","10","[[2,1,0],[3,0],[0]]","8","0","","","","","","6","","","","",""
"","","","","","single-stim-button","293","887628","0.0-3.0-34.9-1.9","60cc67809f92d570ba4dc2c5","C3","batch3","tol_toboard","670","","","","","","","","","tol_peg_1","670","670","0","[[2,1,0],[3,0],[0]]","10","[[2,1,0],[3,0],[0]]","8","0","","","","","","6","","","","",""
"","","","","","poldrack-single-stim","294","888645","0.0-3.0-35.0","60cc67809f92d570ba4dc2c5","C3","batch3","tol_feedback","-1","","","","","true","","","","","1000","1000","500","","","","","","-1","none","true","9112","18391","","","","","",""
"","","","","","html-button-response","295","899923","0.0-3.0-36.0","60cc67809f92d570ba4dc2c5","C3","batch3","tol_trial_num","11274.600000023842","<div class = centerbox><p class = center-block-text>problem <strong>10</strong> out of 25 problems</p></div>","0","","","","","","","","","","","","","","","","","","","","","","","","","",""
"","","","","","single-stim-button","296","904466","0.0-3.0-37.0-0.0","60cc67809f92d570ba4dc2c5","C3","batch3","tol_tohand","4536","","","","","","","","","tol_peg_2","4536","4536","0","[[3,0,0],[0,0],[2]]","1","[[3,0,0],[2,1],[0]]","9","0","","","","","","3","","","","",""
"","","","","","single-stim-button","297","906051","0.0-3.0-37.0-1.0","60cc67809f92d570ba4dc2c5","C3","batch3","tol_toboard","1583","","","","","","","","","tol_peg_1","1583","1583","0","[[3,1,0],[0,0],[2]]","1","[[3,0,0],[2,1],[0]]","9","0","","","","","","3","","","","",""
"","","","","","single-stim-button","298","906901","0.0-3.0-37.1-0.1","60cc67809f92d570ba4dc2c5","C3","batch3","tol_tohand","847","","","","","","","","","tol_peg_3","847","847","0","[[3,1,0],[0,0],[0]]","2","[[3,0,0],[2,1],[0]]","9","0","","","","","","3","","","","",""
"","","","","","single-stim-button","299","907996","0.0-3.0-37.1-1.1","60cc67809f92d570ba4dc2c5","C3","batch3","tol_toboard","1092","","","","","","","","","tol_peg_2","1092","1092","0","[[3,1,0],[2,0],[0]]","2","[[3,0,0],[2,1],[0]]","9","0","","","","","","3","","","","",""
"","","","","","single-stim-button","300","908823","0.0-3.0-37.2-0.2","60cc67809f92d570ba4dc2c5","C3","batch3","tol_tohand","824","","","","","","","","","tol_peg_1","824","824","0","[[3,0,0],[2,0],[0]]","3","[[3,0,0],[2,1],[0]]","9","0","","","","","","3","","","","",""
"","","","","","single-stim-button","301","909529","0.0-3.0-37.2-1.2","60cc67809f92d570ba4dc2c5","C3","batch3","tol_toboard","701","","","","","","","","","tol_peg_2","701","701","0","[[3,0,0],[2,1],[0]]","3","[[3,0,0],[2,1],[0]]","9","0","","","","","","3","","","","",""
"","","","","","poldrack-single-stim","302","910535","0.0-3.0-38.0","60cc67809f92d570ba4dc2c5","C3","batch3","tol_feedback","-1","","","","","true","","","","","1000","1000","500","","","","","","-1","none","true","4536","6207","","","","","",""
"","","","","","html-button-response","303","911163","0.0-3.0-39.0","60cc67809f92d570ba4dc2c5","C3","batch3","tol_trial_num","624.3999999761581","<div class = centerbox><p class = center-block-text>problem <strong>11</strong> out of 25 problems</p></div>","0","","","","","","","","","","","","","","","","","","","","","","","","","",""
"","","","","","single-stim-button","304","916378","0.0-3.0-40.0-0.0","60cc67809f92d570ba4dc2c5","C3","batch3","tol_tohand","5212","","","","","","","","","tol_peg_2","5212","5212","0","[[1,2,0],[0,0],[0]]","1","[[2,0,0],[1,3],[0]]","10","0","","","","","","6","","","","",""
"","","","","","single-stim-button","305","916971","0.0-3.0-40.0-1.0","60cc67809f92d570ba4dc2c5","C3","batch3","tol_toboard","590","","","","","","","","","tol_peg_3","590","590","0","[[1,2,0],[0,0],[3]]","1","[[2,0,0],[1,3],[0]]","10","0","","","","","","6","","","","",""
"","","","","","single-stim-button","306","918437","0.0-3.0-40.1-0.1","60cc67809f92d570ba4dc2c5","C3","batch3","tol_tohand","1463","","","","","","","","","tol_peg_1","1463","1463","0","[[1,0,0],[0,0],[3]]","2","[[2,0,0],[1,3],[0]]","10","0","","","","","","6","","","","",""
"","","","","","single-stim-button","307","919189","0.0-3.0-40.1-1.1","60cc67809f92d570ba4dc2c5","C3","batch3","tol_toboard","748","","","","","","","","","tol_peg_2","748","748","0","[[1,0,0],[2,0],[3]]","2","[[2,0,0],[1,3],[0]]","10","0","","","","","","6","","","","",""
"","","","","","single-stim-button","308","920153","0.0-3.0-40.2-0.2","60cc67809f92d570ba4dc2c5","C3","batch3","tol_tohand","960","","","","","","","","","tol_peg_1","960","960","0","[[0,0,0],[2,0],[3]]","3","[[2,0,0],[1,3],[0]]","10","0","","","","","","6","","","","",""
"","","","","","single-stim-button","309","920839","0.0-3.0-40.2-1.2","60cc67809f92d570ba4dc2c5","C3","batch3","tol_toboard","683","","","","","","","","","tol_peg_2","683","683","0","[[0,0,0],[2,1],[3]]","3","[[2,0,0],[1,3],[0]]","10","0","","","","","","6","","","","",""
"","","","","","single-stim-button","310","922844","0.0-3.0-40.3-0.3","60cc67809f92d570ba4dc2c5","C3","batch3","tol_tohand","1998","","","","","","","","","tol_peg_3","1998","1998","0","[[0,0,0],[2,1],[0]]","4","[[2,0,0],[1,3],[0]]","10","0","","","","","","6","","","","",""
"","","","","","single-stim-button","311","924269","0.0-3.0-40.3-1.3","60cc67809f92d570ba4dc2c5","C3","batch3","tol_toboard","1422","","","","","","","","","tol_peg_1","1422","1422","0","[[3,0,0],[2,1],[0]]","4","[[2,0,0],[1,3],[0]]","10","0","","","","","","6","","","","",""
"","","","","","single-stim-button","312","925037","0.0-3.0-40.4-0.4","60cc67809f92d570ba4dc2c5","C3","batch3","tol_tohand","764","","","","","","","","","tol_peg_2","764","764","0","[[3,0,0],[2,0],[0]]","5","[[2,0,0],[1,3],[0]]","10","0","","","","","","6","","","","",""
"","","","","","single-stim-button","313","925967","0.0-3.0-40.4-1.4","60cc67809f92d570ba4dc2c5","C3","batch3","tol_toboard","927","","","","","","","","","tol_peg_3","927","927","0","[[3,0,0],[2,0],[1]]","5","[[2,0,0],[1,3],[0]]","10","0","","","","","","6","","","","",""
"","","","","","single-stim-button","314","926688","0.0-3.0-40.5-0.5","60cc67809f92d570ba4dc2c5","C3","batch3","tol_tohand","717","","","","","","","","","tol_peg_2","717","717","0","[[3,0,0],[0,0],[1]]","6","[[2,0,0],[1,3],[0]]","10","0","","","","","","6","","","","",""
"","","","","","single-stim-button","315","930485","0.0-3.0-40.5-1.5","60cc67809f92d570ba4dc2c5","C3","batch3","tol_toboard","3795","","","","","","","","","tol_peg_1","3795","3795","0","[[3,2,0],[0,0],[1]]","6","[[2,0,0],[1,3],[0]]","10","0","","","","","","6","","","","",""
"","","","","","single-stim-button","316","931721","0.0-3.0-40.6-0.6","60cc67809f92d570ba4dc2c5","C3","batch3","tol_tohand","1231","","","","","","","","","tol_peg_3","1231","1231","0","[[3,2,0],[0,0],[0]]","7","[[2,0,0],[1,3],[0]]","10","0","","","","","","6","","","","",""
"","","","","","single-stim-button","317","932697","0.0-3.0-40.6-1.6","60cc67809f92d570ba4dc2c5","C3","batch3","tol_toboard","973","","","","","","","","","tol_peg_2","973","973","0","[[3,2,0],[1,0],[0]]","7","[[2,0,0],[1,3],[0]]","10","0","","","","","","6","","","","",""
"","","","","","single-stim-button","318","933644","0.0-3.0-40.7-0.7","60cc67809f92d570ba4dc2c5","C3","batch3","tol_tohand","944","","","","","","","","","tol_peg_1","944","944","0","[[3,0,0],[1,0],[0]]","8","[[2,0,0],[1,3],[0]]","10","0","","","","","","6","","","","",""
"","","","","","single-stim-button","319","934571","0.0-3.0-40.7-1.7","60cc67809f92d570ba4dc2c5","C3","batch3","tol_toboard","925","","","","","","","","","tol_peg_3","925","925","0","[[3,0,0],[1,0],[2]]","8","[[2,0,0],[1,3],[0]]","10","0","","","","","","6","","","","",""
"","","","","","single-stim-button","320","935309","0.0-3.0-40.8-0.8","60cc67809f92d570ba4dc2c5","C3","batch3","tol_tohand","733","","","","","","","","","tol_peg_1","733","733","0","[[0,0,0],[1,0],[2]]","9","[[2,0,0],[1,3],[0]]","10","0","","","","","","6","","","","",""
"","","","","","single-stim-button","321","935794","0.0-3.0-40.8-1.8","60cc67809f92d570ba4dc2c5","C3","batch3","tol_toboard","479","","","","","","","","","tol_peg_2","479","479","0","[[0,0,0],[1,3],[2]]","9","[[2,0,0],[1,3],[0]]","10","0","","","","","","6","","","","",""
"","","","","","single-stim-button","322","936462","0.0-3.0-40.9-0.9","60cc67809f92d570ba4dc2c5","C3","batch3","tol_tohand","664","","","","","","","","","tol_peg_3","664","664","0","[[0,0,0],[1,3],[0]]","10","[[2,0,0],[1,3],[0]]","10","0","","","","","","6","","","","",""
"","","","","","single-stim-button","323","937504","0.0-3.0-40.9-1.9","60cc67809f92d570ba4dc2c5","C3","batch3","tol_toboard","1038","","","","","","","","","tol_peg_1","1038","1038","0","[[2,0,0],[1,3],[0]]","10","[[2,0,0],[1,3],[0]]","10","0","","","","","","6","","","","",""
"","","","","","poldrack-single-stim","324","938509","0.0-3.0-41.0","60cc67809f92d570ba4dc2c5","C3","batch3","tol_feedback","-1","","","","","true","","","","","1000","1000","500","","","","","","-1","none","true","5212","14686","","","","","",""
"","","","","","html-button-response","325","939297","0.0-3.0-42.0","60cc67809f92d570ba4dc2c5","C3","batch3","tol_trial_num","784.2999999523163","<div class = centerbox><p class = center-block-text>problem <strong>12</strong> out of 25 problems</p></div>","0","","","","","","","","","","","","","","","","","","","","","","","","","",""
"","","","","","single-stim-button","326","942053","0.0-3.0-43.0-0.0","60cc67809f92d570ba4dc2c5","C3","batch3","tol_tohand","2753","","","","","","","","","tol_peg_1","2753","2753","0","[[1,0,0],[3,0],[0]]","1","[[2,3,0],[0,0],[1]]","11","0","","","","","","4","","","","",""
"","","","","","single-stim-button","327","942727","0.0-3.0-43.0-1.0","60cc67809f92d570ba4dc2c5","C3","batch3","tol_toboard","670","","","","","","","","","tol_peg_2","670","670","0","[[1,0,0],[3,2],[0]]","1","[[2,3,0],[0,0],[1]]","11","0","","","","","","4","","","","",""
"","","","","","single-stim-button","328","943399","0.0-3.0-43.1-0.1","60cc67809f92d570ba4dc2c5","C3","batch3","tol_tohand","669","","","","","","","","","tol_peg_1","669","669","0","[[0,0,0],[3,2],[0]]","2","[[2,3,0],[0,0],[1]]","11","0","","","","","","4","","","","",""
"","","","","","single-stim-button","329","944009","0.0-3.0-43.1-1.1","60cc67809f92d570ba4dc2c5","C3","batch3","tol_toboard","607","","","","","","","","","tol_peg_3","607","607","0","[[0,0,0],[3,2],[1]]","2","[[2,3,0],[0,0],[1]]","11","0","","","","","","4","","","","",""
"","","","","","single-stim-button","330","947557","0.0-3.0-43.2-0.2","60cc67809f92d570ba4dc2c5","C3","batch3","tol_tohand","3544","","","","","","","","","tol_peg_2","3544","3544","0","[[0,0,0],[3,0],[1]]","3","[[2,3,0],[0,0],[1]]","11","0","","","","","","4","","","","",""
"","","","","","single-stim-button","331","948502","0.0-3.0-43.2-1.2","60cc67809f92d570ba4dc2c5","C3","batch3","tol_toboard","940","","","","","","","","","tol_peg_1","940","940","0","[[2,0,0],[3,0],[1]]","3","[[2,3,0],[0,0],[1]]","11","0","","","","","","4","","","","",""
"","","","","","single-stim-button","332","949786","0.0-3.0-43.3-0.3","60cc67809f92d570ba4dc2c5","C3","batch3","tol_tohand","1281","","","","","","","","","tol_peg_2","1281","1281","0","[[2,0,0],[0,0],[1]]","4","[[2,3,0],[0,0],[1]]","11","0","","","","","","4","","","","",""
"","","","","","single-stim-button","333","950553","0.0-3.0-43.3-1.3","60cc67809f92d570ba4dc2c5","C3","batch3","tol_toboard","764","","","","","","","","","tol_peg_1","764","764","0","[[2,3,0],[0,0],[1]]","4","[[2,3,0],[0,0],[1]]","11","0","","","","","","4","","","","",""
"","","","","","poldrack-single-stim","334","951562","0.0-3.0-44.0","60cc67809f92d570ba4dc2c5","C3","batch3","tol_feedback","-1","","","","","true","","","","","1000","1000","500","","","","","","-1","none","true","2753","8247","","","","","",""
"","","","","","html-button-response","335","952418","0.0-3.0-45.0","60cc67809f92d570ba4dc2c5","C3","batch3","tol_trial_num","853.3000000119209","<div class = centerbox><p class = center-block-text>problem <strong>13</strong> out of 25 problems</p></div>","0","","","","","","","","","","","","","","","","","","","","","","","","","",""
"","","","","","single-stim-button","336","955519","0.0-3.0-46.0-0.0","60cc67809f92d570ba4dc2c5","C3","batch3","tol_tohand","3093","","","","","","","","","tol_peg_1","3093","3093","0","[[1,0,0],[3,0],[0]]","1","[[0,0,0],[2,3],[1]]","12","0","","","","","","4","","","","",""
"","","","","","single-stim-button","337","956192","0.0-3.0-46.0-1.0","60cc67809f92d570ba4dc2c5","C3","batch3","tol_toboard","670","","","","","","","","","tol_peg_2","670","670","0","[[1,0,0],[3,2],[0]]","1","[[0,0,0],[2,3],[1]]","12","0","","","","","","4","","","","",""
"","","","","","single-stim-button","338","956721","0.0-3.0-46.1-0.1","60cc67809f92d570ba4dc2c5","C3","batch3","tol_tohand","525","","","","","","","","","tol_peg_1","525","525","0","[[0,0,0],[3,2],[0]]","2","[[0,0,0],[2,3],[1]]","12","0","","","","","","4","","","","",""
"","","","","","single-stim-button","339","957652","0.0-3.0-46.1-1.1","60cc67809f92d570ba4dc2c5","C3","batch3","tol_toboard","924","","","","","","","","","tol_peg_3","924","924","0","[[0,0,0],[3,2],[1]]","2","[[0,0,0],[2,3],[1]]","12","0","","","","","","4","","","","",""
"","","","","","single-stim-button","340","958420","0.0-3.0-46.2-0.2","60cc67809f92d570ba4dc2c5","C3","batch3","tol_tohand","764","","","","","","","","","tol_peg_2","764","764","0","[[0,0,0],[3,0],[1]]","3","[[0,0,0],[2,3],[1]]","12","0","","","","","","4","","","","",""
"","","","","","single-stim-button","341","959060","0.0-3.0-46.2-1.2","60cc67809f92d570ba4dc2c5","C3","batch3","tol_toboard","636","","","","","","","","","tol_peg_1","636","636","0","[[2,0,0],[3,0],[1]]","3","[[0,0,0],[2,3],[1]]","12","0","","","","","","4","","","","",""
"","","","","","single-stim-button","342","960005","0.0-3.0-46.3-0.3","60cc67809f92d570ba4dc2c5","C3","batch3","tol_tohand","942","","","","","","","","","tol_peg_2","942","942","0","[[2,0,0],[0,0],[1]]","4","[[0,0,0],[2,3],[1]]","12","0","","","","","","4","","","","",""
"","","","","","single-stim-button","343","960982","0.0-3.0-46.3-1.3","60cc67809f92d570ba4dc2c5","C3","batch3","tol_toboard","972","","","","","","","","","tol_peg_1","972","972","0","[[2,3,0],[0,0],[1]]","4","[[0,0,0],[2,3],[1]]","12","0","","","","","","4","","","","",""
"","","","","","single-stim-button","344","961847","0.0-3.0-46.4-0.4","60cc67809f92d570ba4dc2c5","C3","batch3","tol_tohand","861","","","","","","","","","tol_peg_3","861","861","0","[[2,3,0],[0,0],[0]]","5","[[0,0,0],[2,3],[1]]","12","0","","","","","","4","","","","",""
"","","","","","single-stim-button","345","962601","0.0-3.0-46.4-1.4","60cc67809f92d570ba4dc2c5","C3","batch3","tol_toboard","750","","","","","","","","","tol_peg_2","750","750","0","[[2,3,0],[1,0],[0]]","5","[[0,0,0],[2,3],[1]]","12","0","","","","","","4","","","","",""
"","","","","","single-stim-button","346","963544","0.0-3.0-46.5-0.5","60cc67809f92d570ba4dc2c5","C3","batch3","tol_tohand","940","","","","","","","","","tol_peg_1","940","940","0","[[2,0,0],[1,0],[0]]","6","[[0,0,0],[2,3],[1]]","12","0","","","","","","4","","","","",""
"","","","","","single-stim-button","347","964560","0.0-3.0-46.5-1.5","60cc67809f92d570ba4dc2c5","C3","batch3","tol_toboard","1013","","","","","","","","","tol_peg_2","1013","1013","0","[[2,0,0],[1,3],[0]]","6","[[0,0,0],[2,3],[1]]","12","0","","","","","","4","","","","",""
"","","","","","single-stim-button","348","965677","0.0-3.0-46.6-0.6","60cc67809f92d570ba4dc2c5","C3","batch3","tol_tohand","1114","","","","","","","","","tol_peg_1","1114","1114","0","[[0,0,0],[1,3],[0]]","7","[[0,0,0],[2,3],[1]]","12","0","","","","","","4","","","","",""
"","","","","","single-stim-button","349","966591","0.0-3.0-46.6-1.6","60cc67809f92d570ba4dc2c5","C3","batch3","tol_toboard","909","","","","","","","","","tol_peg_3","909","909","0","[[0,0,0],[1,3],[2]]","7","[[0,0,0],[2,3],[1]]","12","0","","","","","","4","","","","",""
"","","","","","single-stim-button","350","967360","0.0-3.0-46.7-0.7","60cc67809f92d570ba4dc2c5","C3","batch3","tol_tohand","766","","","","","","","","","tol_peg_2","766","766","0","[[0,0,0],[1,0],[2]]","8","[[0,0,0],[2,3],[1]]","12","0","","","","","","4","","","","",""
"","","","","","single-stim-button","351","968496","0.0-3.0-46.7-1.7","60cc67809f92d570ba4dc2c5","C3","batch3","tol_toboard","1133","","","","","","","","","tol_peg_1","1133","1133","0","[[3,0,0],[1,0],[2]]","8","[[0,0,0],[2,3],[1]]","12","0","","","","","","4","","","","",""
"","","","","","single-stim-button","352","969235","0.0-3.0-46.8-0.8","60cc67809f92d570ba4dc2c5","C3","batch3","tol_tohand","736","","","","","","","","","tol_peg_2","736","736","0","[[3,0,0],[0,0],[2]]","9","[[0,0,0],[2,3],[1]]","12","0","","","","","","4","","","","",""
"","","","","","single-stim-button","353","970452","0.0-3.0-46.8-1.8","60cc67809f92d570ba4dc2c5","C3","batch3","tol_toboard","1213","","","","","","","","","tol_peg_1","1213","1213","0","[[3,1,0],[0,0],[2]]","9","[[0,0,0],[2,3],[1]]","12","0","","","","","","4","","","","",""
"","","","","","single-stim-button","354","971397","0.0-3.0-46.9-0.9","60cc67809f92d570ba4dc2c5","C3","batch3","tol_tohand","941","","","","","","","","","tol_peg_3","941","941","0","[[3,1,0],[0,0],[0]]","10","[[0,0,0],[2,3],[1]]","12","0","","","","","","4","","","","",""
"","","","","","single-stim-button","355","972181","0.0-3.0-46.9-1.9","60cc67809f92d570ba4dc2c5","C3","batch3","tol_toboard","780","","","","","","","","","tol_peg_2","780","780","0","[[3,1,0],[2,0],[0]]","10","[[0,0,0],[2,3],[1]]","12","0","","","","","","4","","","","",""
