"success","timeout","failed_images","failed_audio","failed_video","trial_type","trial_index","time_elapsed","internal_node_id","subject_id","study_id","session_id","task","rt","stimulus","response","item","answer","correct","spm_correct","spm_rt","view_history","fiar_detect_rt","fiar_detect_correct","total_correct_fiar_detect","post_trial_gap","choices","mouse_click","stim_duration","block_duration","timing_post_trial","current_position","tol_num_moves_made","tol_target","tol_problem_id","tol_rt","key_press","possible_responses","tol_correct","preplanning","tol_rt_per_trial","tol_min_moves"
"true","false","[]","[]","[]","preload","0","17830","0.0-0.0","60cff3ba91773f75c9504567","E1","batch5","","","","","","","","","","","","","","","","","","","","","","","","","","","","","",""
"true","","","","","fullscreen","1","25279","0.0-1.0-0.0","60cff3ba91773f75c9504567","E1","batch5","","","","","","","","","","","","","","","","","","","","","","","","","","","","","",""
"true","","","","","fullscreen","2","31693","0.0-2.0-0.0","60cff3ba91773f75c9504567","E1","batch5","spm_fullscreen","","","","","","","","","","","","","","","","","","","","","","","","","","","","",""
"","","","","","html-button-response","3","38092","0.0-2.0-1.0","60cff3ba91773f75c9504567","E1","batch5","","6396.099999904633","<p class = block-text><b>Instructions</b> <br>This is a widely used intelligence test in research. <br>In this test, a figure with a missing piece will be presented.<br>Below the figure are alternative pieces to complete the figure, only one of which is correct.<br> Different figures might involve different principles for obtaining the missing piece<br>Your job is to select the most logical piece to complete the figure.</p>","0","","","","","","","","","","","","","","","","","","","","","","","","","",""
"","","","","","html-keyboard-response","4","38906","0.0-2.0-2.0-0.0","60cff3ba91773f75c9504567","E1","batch5","spm_show_trial_num","null","<p class=block-text>Trial 1 out of 60</p>","null","","","","","","","","","","","","","","","","","","","","","","","","","",""
"","","","","","image-button-response","5","41796","0.0-2.0-2.0-1.0","60cff3ba91773f75c9504567","E1","batch5","spm_respsonse","2878.7999999523163","img/question_1_1.jpeg","1","mat_01","4","0","0","2878.7999999523163","","","","","","","","","","","","","","","","","","","","",""
"","","","","","html-keyboard-response","6","42859","0.0-2.0-2.0-0.1","60cff3ba91773f75c9504567","E1","batch5","spm_show_trial_num","null","<p class=block-text>Trial 2 out of 60</p>","null","","","","","","","","","","","","","","","","","","","","","","","","","",""
"","","","","","image-button-response","7","45016","0.0-2.0-2.0-1.1","60cff3ba91773f75c9504567","E1","batch5","spm_respsonse","2152.7999999523163","img/question_1_2.jpeg","4","mat_02","5","1","1","2152.7999999523163","","","","","","","","","","","","","","","","","","","","",""
"","","","","","html-keyboard-response","8","46073","0.0-2.0-2.0-0.2","60cff3ba91773f75c9504567","E1","batch5","spm_show_trial_num","null","<p class=block-text>Trial 3 out of 60</p>","null","","","","","","","","","","","","","","","","","","","","","","","","","",""
"","","","","","image-button-response","9","49135","0.0-2.0-2.0-1.2","60cff3ba91773f75c9504567","E1","batch5","spm_respsonse","3059.100000143051","img/question_1_3.jpeg","0","mat_03","1","1","1","3059.100000143051","","","","","","","","","","","","","","","","","","","","",""
"","","","","","html-keyboard-response","10","50205","0.0-2.0-2.0-0.3","60cff3ba91773f75c9504567","E1","batch5","spm_show_trial_num","null","<p class=block-text>Trial 4 out of 60</p>","null","","","","","","","","","","","","","","","","","","","","","","","","","",""
"","","","","","image-button-response","11","52639","0.0-2.0-2.0-1.3","60cff3ba91773f75c9504567","E1","batch5","spm_respsonse","2430.2000000476837","img/question_1_4.jpeg","1","mat_04","2","1","1","2430.2000000476837","","","","","","","","","","","","","","","","","","","","",""
"","","","","","html-keyboard-response","12","53705","0.0-2.0-2.0-0.4","60cff3ba91773f75c9504567","E1","batch5","spm_show_trial_num","null","<p class=block-text>Trial 5 out of 60</p>","null","","","","","","","","","","","","","","","","","","","","","","","","","",""
"","","","","","image-button-response","13","56421","0.0-2.0-2.0-1.4","60cff3ba91773f75c9504567","E1","batch5","spm_respsonse","2712.7000000476837","img/question_1_5.jpeg","5","mat_05","6","1","1","2712.7000000476837","","","","","","","","","","","","","","","","","","","","",""
"","","","","","html-keyboard-response","14","57489","0.0-2.0-2.0-0.5","60cff3ba91773f75c9504567","E1","batch5","spm_show_trial_num","null","<p class=block-text>Trial 6 out of 60</p>","null","","","","","","","","","","","","","","","","","","","","","","","","","",""
"","","","","","image-button-response","15","59929","0.0-2.0-2.0-1.5","60cff3ba91773f75c9504567","E1","batch5","spm_respsonse","2436.5999999046326","img/question_1_6.jpeg","2","mat_06","3","1","1","2436.5999999046326","","","","","","","","","","","","","","","","","","","","",""
"","","","","","html-keyboard-response","16","60994","0.0-2.0-2.0-0.6","60cff3ba91773f75c9504567","E1","batch5","spm_show_trial_num","null","<p class=block-text>Trial 7 out of 60</p>","null","","","","","","","","","","","","","","","","","","","","","","","","","",""
"","","","","","image-button-response","17","64029","0.0-2.0-2.0-1.6","60cff3ba91773f75c9504567","E1","batch5","spm_respsonse","3029.2000000476837","img/question_1_7.jpeg","5","mat_07","6","1","1","3029.2000000476837","","","","","","","","","","","","","","","","","","","","",""
"","","","","","html-keyboard-response","18","65098","0.0-2.0-2.0-0.7","60cff3ba91773f75c9504567","E1","batch5","spm_show_trial_num","null","<p class=block-text>Trial 8 out of 60</p>","null","","","","","","","","","","","","","","","","","","","","","","","","","",""
"","","","","","image-button-response","19","67657","0.0-2.0-2.0-1.7","60cff3ba91773f75c9504567","E1","batch5","spm_respsonse","2555.2999999523163","img/question_1_8.jpeg","1","mat_08","2","1","1","2555.2999999523163","","","","","","","","","","","","","","","","","","","","",""
"","","","","","html-keyboard-response","20","68716","0.0-2.0-2.0-0.8","60cff3ba91773f75c9504567","E1","batch5","spm_show_trial_num","null","<p class=block-text>Trial 9 out of 60</p>","null","","","","","","","","","","","","","","","","","","","","","","","","","",""
"","","","","","image-button-response","21","73823","0.0-2.0-2.0-1.8","60cff3ba91773f75c9504567","E1","batch5","spm_respsonse","5104","img/question_1_9.jpeg","0","mat_09","1","1","1","5104","","","","","","","","","","","","","","","","","","","","",""
"","","","","","html-keyboard-response","22","74885","0.0-2.0-2.0-0.9","60cff3ba91773f75c9504567","E1","batch5","spm_show_trial_num","null","<p class=block-text>Trial 10 out of 60</p>","null","","","","","","","","","","","","","","","","","","","","","","","","","",""
"","","","","","image-button-response","23","78306","0.0-2.0-2.0-1.9","60cff3ba91773f75c9504567","E1","batch5","spm_respsonse","3416.5999999046326","img/question_1_10.jpeg","2","mat_10","3","1","1","3416.5999999046326","","","","","","","","","","","","","","","","","","","","",""
"","","","","","html-keyboard-response","24","79364","0.0-2.0-2.0-0.10","60cff3ba91773f75c9504567","E1","batch5","spm_show_trial_num","null","<p class=block-text>Trial 11 out of 60</p>","null","","","","","","","","","","","","","","","","","","","","","","","","","",""
"","","","","","image-button-response","25","84173","0.0-2.0-2.0-1.10","60cff3ba91773f75c9504567","E1","batch5","spm_respsonse","4806.200000047684","img/question_1_11.jpeg","3","mat_11","4","1","1","4806.200000047684","","","","","","","","","","","","","","","","","","","","",""
"","","","","","html-keyboard-response","26","85232","0.0-2.0-2.0-0.11","60cff3ba91773f75c9504567","E1","batch5","spm_show_trial_num","null","<p class=block-text>Trial 12 out of 60</p>","null","","","","","","","","","","","","","","","","","","","","","","","","","",""
"","","","","","image-button-response","27","89704","0.0-2.0-2.0-1.11","60cff3ba91773f75c9504567","E1","batch5","spm_respsonse","4468.5","img/question_1_12.jpeg","4","mat_12","5","1","1","4468.5","","","","","","","","","","","","","","","","","","","","",""
"","","","","","html-keyboard-response","28","90767","0.0-2.0-2.0-0.12","60cff3ba91773f75c9504567","E1","batch5","spm_show_trial_num","null","<p class=block-text>Trial 13 out of 60</p>","null","","","","","","","","","","","","","","","","","","","","","","","","","",""
"","","","","","image-button-response","29","92704","0.0-2.0-2.0-1.12","60cff3ba91773f75c9504567","E1","batch5","spm_respsonse","1933.4000000953674","img/question_2_1.jpeg","1","mat_13","2","1","1","1933.4000000953674","","","","","","","","","","","","","","","","","","","","",""
"","","","","","html-keyboard-response","30","93777","0.0-2.0-2.0-0.13","60cff3ba91773f75c9504567","E1","batch5","spm_show_trial_num","null","<p class=block-text>Trial 14 out of 60</p>","null","","","","","","","","","","","","","","","","","","","","","","","","","",""
"","","","","","image-button-response","31","97429","0.0-2.0-2.0-1.13","60cff3ba91773f75c9504567","E1","batch5","spm_respsonse","3648.399999856949","img/question_2_2.jpeg","5","mat_14","6","1","1","3648.399999856949","","","","","","","","","","","","","","","","","","","","",""
"","","","","","html-keyboard-response","32","98487","0.0-2.0-2.0-0.14","60cff3ba91773f75c9504567","E1","batch5","spm_show_trial_num","null","<p class=block-text>Trial 15 out of 60</p>","null","","","","","","","","","","","","","","","","","","","","","","","","","",""
"","","","","","image-button-response","33","100734","0.0-2.0-2.0-1.14","60cff3ba91773f75c9504567","E1","batch5","spm_respsonse","2243.4000000953674","img/question_2_3.jpeg","0","mat_15","1","1","1","2243.4000000953674","","","","","","","","","","","","","","","","","","","","",""
"","","","","","html-keyboard-response","34","101794","0.0-2.0-2.0-0.15","60cff3ba91773f75c9504567","E1","batch5","spm_show_trial_num","null","<p class=block-text>Trial 16 out of 60</p>","null","","","","","","","","","","","","","","","","","","","","","","","","","",""
"","","","","","image-button-response","35","103836","0.0-2.0-2.0-1.15","60cff3ba91773f75c9504567","E1","batch5","spm_respsonse","2037.7000000476837","img/question_2_4.jpeg","1","mat_16","2","1","1","2037.7000000476837","","","","","","","","","","","","","","","","","","","","",""
"","","","","","html-keyboard-response","36","104907","0.0-2.0-2.0-0.16","60cff3ba91773f75c9504567","E1","batch5","spm_show_trial_num","null","<p class=block-text>Trial 17 out of 60</p>","null","","","","","","","","","","","","","","","","","","","","","","","","","",""
"","","","","","image-button-response","37","108528","0.0-2.0-2.0-1.16","60cff3ba91773f75c9504567","E1","batch5","spm_respsonse","3616.9000000953674","img/question_2_5.jpeg","0","mat_17","1","1","1","3616.9000000953674","","","","","","","","","","","","","","","","","","","","",""
"","","","","","html-keyboard-response","38","109596","0.0-2.0-2.0-0.17","60cff3ba91773f75c9504567","E1","batch5","spm_show_trial_num","null","<p class=block-text>Trial 18 out of 60</p>","null","","","","","","","","","","","","","","","","","","","","","","","","","",""
"","","","","","image-button-response","39","112154","0.0-2.0-2.0-1.17","60cff3ba91773f75c9504567","E1","batch5","spm_respsonse","2554.2999999523163","img/question_2_6.jpeg","2","mat_18","3","1","1","2554.2999999523163","","","","","","","","","","","","","","","","","","","","",""
"","","","","","html-keyboard-response","40","113233","0.0-2.0-2.0-0.18","60cff3ba91773f75c9504567","E1","batch5","spm_show_trial_num","null","<p class=block-text>Trial 19 out of 60</p>","null","","","","","","","","","","","","","","","","","","","","","","","","","",""
"","","","","","image-button-response","41","115960","0.0-2.0-2.0-1.18","60cff3ba91773f75c9504567","E1","batch5","spm_respsonse","2723.399999856949","img/question_2_7.jpeg","4","mat_19","5","1","1","2723.399999856949","","","","","","","","","","","","","","","","","","","","",""
"","","","","","html-keyboard-response","42","117019","0.0-2.0-2.0-0.19","60cff3ba91773f75c9504567","E1","batch5","spm_show_trial_num","null","<p class=block-text>Trial 20 out of 60</p>","null","","","","","","","","","","","","","","","","","","","","","","","","","",""
"","","","","","image-button-response","43","120033","0.0-2.0-2.0-1.19","60cff3ba91773f75c9504567","E1","batch5","spm_respsonse","3011.5","img/question_2_8.jpeg","5","mat_20","6","1","1","3011.5","","","","","","","","","","","","","","","","","","","","",""
"","","","","","html-keyboard-response","44","121093","0.0-2.0-2.0-0.20","60cff3ba91773f75c9504567","E1","batch5","spm_show_trial_num","null","<p class=block-text>Trial 21 out of 60</p>","null","","","","","","","","","","","","","","","","","","","","","","","","","",""
"","","","","","image-button-response","45","124309","0.0-2.0-2.0-1.20","60cff3ba91773f75c9504567","E1","batch5","spm_respsonse","3212.2000000476837","img/question_2_9.jpeg","3","mat_21","4","1","1","3212.2000000476837","","","","","","","","","","","","","","","","","","","","",""
"","","","","","html-keyboard-response","46","125375","0.0-2.0-2.0-0.21","60cff3ba91773f75c9504567","E1","batch5","spm_show_trial_num","null","<p class=block-text>Trial 22 out of 60</p>","null","","","","","","","","","","","","","","","","","","","","","","","","","",""
"","","","","","image-button-response","47","128865","0.0-2.0-2.0-1.21","60cff3ba91773f75c9504567","E1","batch5","spm_respsonse","3487.399999856949","img/question_2_10.jpeg","2","mat_22","3","1","1","3487.399999856949","","","","","","","","","","","","","","","","","","","","",""
"","","","","","html-keyboard-response","48","129935","0.0-2.0-2.0-0.22","60cff3ba91773f75c9504567","E1","batch5","spm_show_trial_num","null","<p class=block-text>Trial 23 out of 60</p>","null","","","","","","","","","","","","","","","","","","","","","","","","","",""
"","","","","","image-button-response","49","132776","0.0-2.0-2.0-1.22","60cff3ba91773f75c9504567","E1","batch5","spm_respsonse","2836.7000000476837","img/question_2_11.jpeg","3","mat_23","4","1","1","2836.7000000476837","","","","","","","","","","","","","","","","","","","","",""
"","","","","","html-keyboard-response","50","133848","0.0-2.0-2.0-0.23","60cff3ba91773f75c9504567","E1","batch5","spm_show_trial_num","null","<p class=block-text>Trial 24 out of 60</p>","null","","","","","","","","","","","","","","","","","","","","","","","","","",""
"","","","","","image-button-response","51","137873","0.0-2.0-2.0-1.23","60cff3ba91773f75c9504567","E1","batch5","spm_respsonse","4021.699999809265","img/question_2_12.jpeg","5","mat_24","5","0","0","4021.699999809265","","","","","","","","","","","","","","","","","","","","",""
"","","","","","html-button-response","52","139643","0.0-2.0-3.0","60cff3ba91773f75c9504567","E1","batch5","attention_check","1515.7999999523163","<p class = block-text>Attention check: Please choose 1<br></p>","0","","","true","","","","","","","","","","","","","","","","","","","","","","",""
"","","","","","html-keyboard-response","53","140445","0.0-2.0-4.0-0.0","60cff3ba91773f75c9504567","E1","batch5","spm_show_trial_num","null","<p class=block-text>Trial 25 out of 60</p>","null","","","","","","","","","","","","","","","","","","","","","","","","","",""
"","","","","","image-button-response","54","143725","0.0-2.0-4.0-1.0","60cff3ba91773f75c9504567","E1","batch5","spm_respsonse","3275.5999999046326","img/question_3_1.jpeg","7","mat_25","8","1","1","3275.5999999046326","","","","","","","","","","","","","","","","","","","","",""
"","","","","","html-keyboard-response","55","144786","0.0-2.0-4.0-0.1","60cff3ba91773f75c9504567","E1","batch5","spm_show_trial_num","null","<p class=block-text>Trial 26 out of 60</p>","null","","","","","","","","","","","","","","","","","","","","","","","","","",""
"","","","","","image-button-response","56","147219","0.0-2.0-4.0-1.1","60cff3ba91773f75c9504567","E1","batch5","spm_respsonse","2428.800000190735","img/question_3_2.jpeg","1","mat_26","2","1","1","2428.800000190735","","","","","","","","","","","","","","","","","","","","",""
"","","","","","html-keyboard-response","57","148274","0.0-2.0-4.0-0.2","60cff3ba91773f75c9504567","E1","batch5","spm_show_trial_num","null","<p class=block-text>Trial 27 out of 60</p>","null","","","","","","","","","","","","","","","","","","","","","","","","","",""
"","","","","","image-button-response","58","151387","0.0-2.0-4.0-1.2","60cff3ba91773f75c9504567","E1","batch5","spm_respsonse","3109.2000000476837","img/question_3_3.jpeg","2","mat_27","3","1","1","3109.2000000476837","","","","","","","","","","","","","","","","","","","","",""
"","","","","","html-keyboard-response","59","152454","0.0-2.0-4.0-0.3","60cff3ba91773f75c9504567","E1","batch5","spm_show_trial_num","null","<p class=block-text>Trial 28 out of 60</p>","null","","","","","","","","","","","","","","","","","","","","","","","","","",""
"","","","","","image-button-response","60","156856","0.0-2.0-4.0-1.3","60cff3ba91773f75c9504567","E1","batch5","spm_respsonse","4397.900000095367","img/question_3_4.jpeg","7","mat_28","8","1","1","4397.900000095367","","","","","","","","","","","","","","","","","","","","",""
"","","","","","html-keyboard-response","61","157932","0.0-2.0-4.0-0.4","60cff3ba91773f75c9504567","E1","batch5","spm_show_trial_num","null","<p class=block-text>Trial 29 out of 60</p>","null","","","","","","","","","","","","","","","","","","","","","","","","","",""
"","","","","","image-button-response","62","162133","0.0-2.0-4.0-1.4","60cff3ba91773f75c9504567","E1","batch5","spm_respsonse","4197","img/question_3_5.jpeg","6","mat_29","7","1","1","4197","","","","","","","","","","","","","","","","","","","","",""
"","","","","","html-keyboard-response","63","163193","0.0-2.0-4.0-0.5","60cff3ba91773f75c9504567","E1","batch5","spm_show_trial_num","null","<p class=block-text>Trial 30 out of 60</p>","null","","","","","","","","","","","","","","","","","","","","","","","","","",""
"","","","","","image-button-response","64","170015","0.0-2.0-4.0-1.5","60cff3ba91773f75c9504567","E1","batch5","spm_respsonse","6818.799999952316","img/question_3_6.jpeg","3","mat_30","4","1","1","6818.799999952316","","","","","","","","","","","","","","","","","","","","",""
"","","","","","html-keyboard-response","65","171073","0.0-2.0-4.0-0.6","60cff3ba91773f75c9504567","E1","batch5","spm_show_trial_num","null","<p class=block-text>Trial 31 out of 60</p>","null","","","","","","","","","","","","","","","","","","","","","","","","","",""
"","","","","","image-button-response","66","174878","0.0-2.0-4.0-1.6","60cff3ba91773f75c9504567","E1","batch5","spm_respsonse","3801.4000000953674","img/question_3_7.jpeg","4","mat_31","5","1","1","3801.4000000953674","","","","","","","","","","","","","","","","","","","","",""
"","","","","","html-keyboard-response","67","175946","0.0-2.0-4.0-0.7","60cff3ba91773f75c9504567","E1","batch5","spm_show_trial_num","null","<p class=block-text>Trial 32 out of 60</p>","null","","","","","","","","","","","","","","","","","","","","","","","","","",""
"","","","","","image-button-response","68","183402","0.0-2.0-4.0-1.7","60cff3ba91773f75c9504567","E1","batch5","spm_respsonse","7452.5","img/question_3_8.jpeg","3","mat_32","1","0","0","7452.5","","","","","","","","","","","","","","","","","","","","",""
"","","","","","html-keyboard-response","69","184468","0.0-2.0-4.0-0.8","60cff3ba91773f75c9504567","E1","batch5","spm_show_trial_num","null","<p class=block-text>Trial 33 out of 60</p>","null","","","","","","","","","","","","","","","","","","","","","","","","","",""
"","","","","","image-button-response","70","190882","0.0-2.0-4.0-1.8","60cff3ba91773f75c9504567","E1","batch5","spm_respsonse","6410","img/question_3_9.jpeg","6","mat_33","7","1","1","6410","","","","","","","","","","","","","","","","","","","","",""
"","","","","","html-keyboard-response","71","191946","0.0-2.0-4.0-0.9","60cff3ba91773f75c9504567","E1","batch5","spm_show_trial_num","null","<p class=block-text>Trial 34 out of 60</p>","null","","","","","","","","","","","","","","","","","","","","","","","","","",""
"","","","","","image-button-response","72","196154","0.0-2.0-4.0-1.9","60cff3ba91773f75c9504567","E1","batch5","spm_respsonse","4204.199999809265","img/question_3_10.jpeg","5","mat_34","6","1","1","4204.199999809265","","","","","","","","","","","","","","","","","","","","",""
"","","","","","html-keyboard-response","73","197219","0.0-2.0-4.0-0.10","60cff3ba91773f75c9504567","E1","batch5","spm_show_trial_num","null","<p class=block-text>Trial 35 out of 60</p>","null","","","","","","","","","","","","","","","","","","","","","","","","","",""
"","","","","","image-button-response","74","209423","0.0-2.0-4.0-1.10","60cff3ba91773f75c9504567","E1","batch5","spm_respsonse","12200.599999904633","img/question_3_11.jpeg","4","mat_35","1","0","0","12200.599999904633","","","","","","","","","","","","","","","","","","","","",""
"","","","","","html-keyboard-response","75","210492","0.0-2.0-4.0-0.11","60cff3ba91773f75c9504567","E1","batch5","spm_show_trial_num","null","<p class=block-text>Trial 36 out of 60</p>","null","","","","","","","","","","","","","","","","","","","","","","","","","",""
"","","","","","image-button-response","76","217991","0.0-2.0-4.0-1.11","60cff3ba91773f75c9504567","E1","batch5","spm_respsonse","7494.900000095367","img/question_3_12.jpeg","2","mat_36","2","0","0","7494.900000095367","","","","","","","","","","","","","","","","","","","","",""
"","","","","","html-keyboard-response","77","219069","0.0-2.0-4.0-0.12","60cff3ba91773f75c9504567","E1","batch5","spm_show_trial_num","null","<p class=block-text>Trial 37 out of 60</p>","null","","","","","","","","","","","","","","","","","","","","","","","","","",""
"","","","","","image-button-response","78","220843","0.0-2.0-4.0-1.12","60cff3ba91773f75c9504567","E1","batch5","spm_respsonse","1769.7000000476837","img/question_4_1.jpeg","2","mat_37","3","1","1","1769.7000000476837","","","","","","","","","","","","","","","","","","","","",""
"","","","","","html-keyboard-response","79","221920","0.0-2.0-4.0-0.13","60cff3ba91773f75c9504567","E1","batch5","spm_show_trial_num","null","<p class=block-text>Trial 38 out of 60</p>","null","","","","","","","","","","","","","","","","","","","","","","","","","",""
"","","","","","image-button-response","80","227150","0.0-2.0-4.0-1.13","60cff3ba91773f75c9504567","E1","batch5","spm_respsonse","5225.400000095367","img/question_4_2.jpeg","3","mat_38","4","1","1","5225.400000095367","","","","","","","","","","","","","","","","","","","","",""
"","","","","","html-keyboard-response","81","228220","0.0-2.0-4.0-0.14","60cff3ba91773f75c9504567","E1","batch5","spm_show_trial_num","null","<p class=block-text>Trial 39 out of 60</p>","null","","","","","","","","","","","","","","","","","","","","","","","","","",""
"","","","","","image-button-response","82","232179","0.0-2.0-4.0-1.14","60cff3ba91773f75c9504567","E1","batch5","spm_respsonse","3955.2999999523163","img/question_4_3.jpeg","2","mat_39","3","1","1","3955.2999999523163","","","","","","","","","","","","","","","","","","","","",""
"","","","","","html-keyboard-response","83","233244","0.0-2.0-4.0-0.15","60cff3ba91773f75c9504567","E1","batch5","spm_show_trial_num","null","<p class=block-text>Trial 40 out of 60</p>","null","","","","","","","","","","","","","","","","","","","","","","","","","",""
"","","","","","image-button-response","84","239975","0.0-2.0-4.0-1.15","60cff3ba91773f75c9504567","E1","batch5","spm_respsonse","6727.399999856949","img/question_4_4.jpeg","6","mat_40","7","1","1","6727.399999856949","","","","","","","","","","","","","","","","","","","","",""
"","","","","","html-keyboard-response","85","241035","0.0-2.0-4.0-0.16","60cff3ba91773f75c9504567","E1","batch5","spm_show_trial_num","null","<p class=block-text>Trial 41 out of 60</p>","null","","","","","","","","","","","","","","","","","","","","","","","","","",""
"","","","","","image-button-response","86","245935","0.0-2.0-4.0-1.16","60cff3ba91773f75c9504567","E1","batch5","spm_respsonse","4896.299999952316","img/question_4_5.jpeg","7","mat_41","8","1","1","4896.299999952316","","","","","","","","","","","","","","","","","","","","",""
"","","","","","html-keyboard-response","87","246994","0.0-2.0-4.0-0.17","60cff3ba91773f75c9504567","E1","batch5","spm_show_trial_num","null","<p class=block-text>Trial 42 out of 60</p>","null","","","","","","","","","","","","","","","","","","","","","","","","","",""
"","","","","","image-button-response","88","254911","0.0-2.0-4.0-1.17","60cff3ba91773f75c9504567","E1","batch5","spm_respsonse","7913.299999952316","img/question_4_6.jpeg","5","mat_42","6","1","1","7913.299999952316","","","","","","","","","","","","","","","","","","","","",""
"","","","","","html-keyboard-response","89","255983","0.0-2.0-4.0-0.18","60cff3ba91773f75c9504567","E1","batch5","spm_show_trial_num","null","<p class=block-text>Trial 43 out of 60</p>","null","","","","","","","","","","","","","","","","","","","","","","","","","",""
"","","","","","image-button-response","90","265442","0.0-2.0-4.0-1.18","60cff3ba91773f75c9504567","E1","batch5","spm_respsonse","9455","img/question_4_7.jpeg","4","mat_43","5","1","1","9455","","","","","","","","","","","","","","","","","","","","",""
"","","","","","html-keyboard-response","91","266498","0.0-2.0-4.0-0.19","60cff3ba91773f75c9504567","E1","batch5","spm_show_trial_num","null","<p class=block-text>Trial 44 out of 60</p>","null","","","","","","","","","","","","","","","","","","","","","","","","","",""
"","","","","","image-button-response","92","271267","0.0-2.0-4.0-1.19","60cff3ba91773f75c9504567","E1","batch5","spm_respsonse","4765.600000143051","img/question_4_8.jpeg","3","mat_44","4","1","1","4765.600000143051","","","","","","","","","","","","","","","","","","","","",""
"","","","","","html-keyboard-response","93","272330","0.0-2.0-4.0-0.20","60cff3ba91773f75c9504567","E1","batch5","spm_show_trial_num","null","<p class=block-text>Trial 45 out of 60</p>","null","","","","","","","","","","","","","","","","","","","","","","","","","",""
"","","","","","image-button-response","94","278927","0.0-2.0-4.0-1.20","60cff3ba91773f75c9504567","E1","batch5","spm_respsonse","6593.200000047684","img/question_4_9.jpeg","0","mat_45","1","1","1","6593.200000047684","","","","","","","","","","","","","","","","","","","","",""
"","","","","","html-keyboard-response","95","279991","0.0-2.0-4.0-0.21","60cff3ba91773f75c9504567","E1","batch5","spm_show_trial_num","null","<p class=block-text>Trial 46 out of 60</p>","null","","","","","","","","","","","","","","","","","","","","","","","","","",""
"","","","","","image-button-response","96","288146","0.0-2.0-4.0-1.21","60cff3ba91773f75c9504567","E1","batch5","spm_respsonse","8150.900000095367","img/question_4_10.jpeg","1","mat_46","2","1","1","8150.900000095367","","","","","","","","","","","","","","","","","","","","",""
"","","","","","html-keyboard-response","97","289222","0.0-2.0-4.0-0.22","60cff3ba91773f75c9504567","E1","batch5","spm_show_trial_num","null","<p class=block-text>Trial 47 out of 60</p>","null","","","","","","","","","","","","","","","","","","","","","","","","","",""
"","","","","","image-button-response","98","296581","0.0-2.0-4.0-1.22","60cff3ba91773f75c9504567","E1","batch5","spm_respsonse","7355.700000047684","img/question_4_11.jpeg","5","mat_47","5","0","0","7355.700000047684","","","","","","","","","","","","","","","","","","","","",""
"","","","","","html-keyboard-response","99","297646","0.0-2.0-4.0-0.23","60cff3ba91773f75c9504567","E1","batch5","spm_show_trial_num","null","<p class=block-text>Trial 48 out of 60</p>","null","","","","","","","","","","","","","","","","","","","","","","","","","",""
"","","","","","image-button-response","100","306739","0.0-2.0-4.0-1.23","60cff3ba91773f75c9504567","E1","batch5","spm_respsonse","9089.400000095367","img/question_4_12.jpeg","1","mat_48","6","0","0","9089.400000095367","","","","","","","","","","","","","","","","","","","","",""
"","","","","","html-keyboard-response","101","307799","0.0-2.0-4.0-0.24","60cff3ba91773f75c9504567","E1","batch5","spm_show_trial_num","null","<p class=block-text>Trial 49 out of 60</p>","null","","","","","","","","","","","","","","","","","","","","","","","","","",""
"","","","","","image-button-response","102","316183","0.0-2.0-4.0-1.24","60cff3ba91773f75c9504567","E1","batch5","spm_respsonse","8380.099999904633","img/question_5_1.jpeg","6","mat_49","7","1","1","8380.099999904633","","","","","","","","","","","","","","","","","","","","",""
"","","","","","html-keyboard-response","103","317244","0.0-2.0-4.0-0.25","60cff3ba91773f75c9504567","E1","batch5","spm_show_trial_num","null","<p class=block-text>Trial 50 out of 60</p>","null","","","","","","","","","","","","","","","","","","","","","","","","","",""
"","","","","","image-button-response","104","332626","0.0-2.0-4.0-1.25","60cff3ba91773f75c9504567","E1","batch5","spm_respsonse","15379.299999952316","img/question_5_2.jpeg","5","mat_50","6","1","1","15379.299999952316","","","","","","","","","","","","","","","","","","","","",""
"","","","","","html-keyboard-response","105","333689","0.0-2.0-4.0-0.26","60cff3ba91773f75c9504567","E1","batch5","spm_show_trial_num","null","<p class=block-text>Trial 51 out of 60</p>","null","","","","","","","","","","","","","","","","","","","","","","","","","",""
"","","","","","image-button-response","106","341757","0.0-2.0-4.0-1.26","60cff3ba91773f75c9504567","E1","batch5","spm_respsonse","8064","img/question_5_3.jpeg","7","mat_51","8","1","1","8064","","","","","","","","","","","","","","","","","","","","",""
"","","","","","html-keyboard-response","107","342814","0.0-2.0-4.0-0.27","60cff3ba91773f75c9504567","E1","batch5","spm_show_trial_num","null","<p class=block-text>Trial 52 out of 60</p>","null","","","","","","","","","","","","","","","","","","","","","","","","","",""
"","","","","","image-button-response","108","350870","0.0-2.0-4.0-1.27","60cff3ba91773f75c9504567","E1","batch5","spm_respsonse","8051.799999952316","img/question_5_4.jpeg","1","mat_52","2","1","1","8051.799999952316","","","","","","","","","","","","","","","","","","","","",""
"","","","","","html-keyboard-response","109","351938","0.0-2.0-4.0-0.28","60cff3ba91773f75c9504567","E1","batch5","spm_show_trial_num","null","<p class=block-text>Trial 53 out of 60</p>","null","","","","","","","","","","","","","","","","","","","","","","","","","",""
"","","","","","image-button-response","110","356903","0.0-2.0-4.0-1.28","60cff3ba91773f75c9504567","E1","batch5","spm_respsonse","4960.700000047684","img/question_5_5.jpeg","0","mat_53","1","1","1","4960.700000047684","","","","","","","","","","","","","","","","","","","","",""
"","","","","","html-keyboard-response","111","357974","0.0-2.0-4.0-0.29","60cff3ba91773f75c9504567","E1","batch5","spm_show_trial_num","null","<p class=block-text>Trial 54 out of 60</p>","null","","","","","","","","","","","","","","","","","","","","","","","","","",""
"","","","","","image-button-response","112","375415","0.0-2.0-4.0-1.29","60cff3ba91773f75c9504567","E1","batch5","spm_respsonse","17437.400000095367","img/question_5_6.jpeg","5","mat_54","5","0","0","17437.400000095367","","","","","","","","","","","","","","","","","","","","",""
"","","","","","html-keyboard-response","113","376480","0.0-2.0-4.0-0.30","60cff3ba91773f75c9504567","E1","batch5","spm_show_trial_num","null","<p class=block-text>Trial 55 out of 60</p>","null","","","","","","","","","","","","","","","","","","","","","","","","","",""
"","","","","","image-button-response","114","388989","0.0-2.0-4.0-1.30","60cff3ba91773f75c9504567","E1","batch5","spm_respsonse","12505.5","img/question_5_7.jpeg","5","mat_55","1","0","0","12505.5","","","","","","","","","","","","","","","","","","","","",""
"","","","","","html-keyboard-response","115","390055","0.0-2.0-4.0-0.31","60cff3ba91773f75c9504567","E1","batch5","spm_show_trial_num","null","<p class=block-text>Trial 56 out of 60</p>","null","","","","","","","","","","","","","","","","","","","","","","","","","",""
"","","","","","image-button-response","116","400981","0.0-2.0-4.0-1.31","60cff3ba91773f75c9504567","E1","batch5","spm_respsonse","10923","img/question_5_8.jpeg","2","mat_56","6","0","0","10923","","","","","","","","","","","","","","","","","","","","",""
"","","","","","html-keyboard-response","117","402045","0.0-2.0-4.0-0.32","60cff3ba91773f75c9504567","E1","batch5","spm_show_trial_num","null","<p class=block-text>Trial 57 out of 60</p>","null","","","","","","","","","","","","","","","","","","","","","","","","","",""
"","","","","","image-button-response","118","412169","0.0-2.0-4.0-1.32","60cff3ba91773f75c9504567","E1","batch5","spm_respsonse","10119.900000095367","img/question_5_9.jpeg","2","mat_57","3","1","1","10119.900000095367","","","","","","","","","","","","","","","","","","","","",""
"","","","","","html-keyboard-response","119","413230","0.0-2.0-4.0-0.33","60cff3ba91773f75c9504567","E1","batch5","spm_show_trial_num","null","<p class=block-text>Trial 58 out of 60</p>","null","","","","","","","","","","","","","","","","","","","","","","","","","",""
"","","","","","image-button-response","120","427080","0.0-2.0-4.0-1.33","60cff3ba91773f75c9504567","E1","batch5","spm_respsonse","13846.400000095367","img/question_5_10.jpeg","6","mat_58","2","0","0","13846.400000095367","","","","","","","","","","","","","","","","","","","","",""
"","","","","","html-keyboard-response","121","428137","0.0-2.0-4.0-0.34","60cff3ba91773f75c9504567","E1","batch5","spm_show_trial_num","null","<p class=block-text>Trial 59 out of 60</p>","null","","","","","","","","","","","","","","","","","","","","","","","","","",""
"","","","","","image-button-response","122","445684","0.0-2.0-4.0-1.34","60cff3ba91773f75c9504567","E1","batch5","spm_respsonse","17542.299999952316","img/question_5_11.jpeg","5","mat_59","4","0","0","17542.299999952316","","","","","","","","","","","","","","","","","","","","",""
"","","","","","html-keyboard-response","123","446758","0.0-2.0-4.0-0.35","60cff3ba91773f75c9504567","E1","batch5","spm_show_trial_num","null","<p class=block-text>Trial 60 out of 60</p>","null","","","","","","","","","","","","","","","","","","","","","","","","","",""
"","","","","","image-button-response","124","457541","0.0-2.0-4.0-1.35","60cff3ba91773f75c9504567","E1","batch5","spm_respsonse","10779.700000047684","img/question_5_12.jpeg","4","mat_60","5","1","1","10779.700000047684","","","","","","","","","","","","","","","","","","","","",""
"","","","","","html-button-response","125","460225","0.0-2.0-5.0","60cff3ba91773f75c9504567","E1","batch5","spm_goodbye","2426.2000000476837","<p class= block-text>This concludes the Standard Progressive Matrix game. Thank you for your responses!<br> When you are ready, click the button continue</p>","0","","","","","","","","","","","","","","","","","","","","","","","","","",""
"true","","","","","fullscreen","126","463348","0.0-3.0-0.0","60cff3ba91773f75c9504567","E1","batch5","","","","","","","","","","","","","","","","","","","","","","","","","","","","","",""
"","","","","","instructions","127","474903","0.0-3.0-1.0-0.0","60cff3ba91773f75c9504567","E1","batch5","","11552.799999952316","","","","","","","","[{""page_index"":0,""viewing_time"":8176.799999952316},{""page_index"":1,""viewing_time"":3375.5}]","","","","","","","","","","","","","","","","","","","",""
"","","","","","html-button-response","128","476109","0.0-3.0-1.0-1.0-0.0","60cff3ba91773f75c9504567","E1","batch5","pattern_enter_quiz","1205.1000001430511","<p class=block-text> Let's answer a few questions <br>","0","","","","","","","","","","","","","","","","","","","","","","","","","",""
"","","","","","html-button-response","129","478527","0.0-3.0-1.0-1.0-1.0","60cff3ba91773f75c9504567","E1","batch5","pattern_quiz","2416.2000000476837","<p class = block-text>True or False: You will have as much time as you want to make each choice. <br></p>","0","","","false","","","","","","","","","","","","","","","","","","","","","","",""
"","","","","","html-button-response","130","479843","0.0-3.0-1.0-1.0-2.0","60cff3ba91773f75c9504567","E1","batch5","pattern_quiz_feedback","1313.1000001430511","<p class = block-text>Incorrect. Remember, You should make your choice as fast as you can.</p>","0","","","","","","","","","","","","","","","","","","","","","","","","","",""
"","","","","","html-button-response","131","482923","0.0-3.0-1.0-1.0-3.0","60cff3ba91773f75c9504567","E1","batch5","pattern_quiz","3078.7000000476837","<p class = block-text>True or False: You will look for 4 pieces in black or white color connected in a row either horizontally, vertically or diagonally. <br></p>","0","","","true","","","","","","","","","","","","","","","","","","","","","","",""
"","","","","","html-button-response","132","483729","0.0-3.0-1.0-1.0-4.0","60cff3ba91773f75c9504567","E1","batch5","pattern_quiz_feedback","803.7000000476837","<p class = block-text>Correct! </p>","0","","","","","","","","","","","","","","","","","","","","","","","","","",""
"","","","","","html-button-response","133","485357","0.0-3.0-1.0-2.0-0.0","60cff3ba91773f75c9504567","E1","batch5","","1624.9000000953674","<p class = block-text>You made too many incorrect choices.</p><p class = block-text>You will now repeat the instruction and quiz</p>","0","","","","","","","","","","","","","","","","","","","","","","","","","",""
"","","","","","instructions","134","487457","0.0-3.0-1.1-0.1","60cff3ba91773f75c9504567","E1","batch5","","2099.2000000476837","","","","","","","","[{""page_index"":0,""viewing_time"":1338.9000000953674},{""page_index"":1,""viewing_time"":760}]","","","","","","","","","","","","","","","","","","","",""
"","","","","","html-button-response","135","488341","0.0-3.0-1.1-1.1-0.1","60cff3ba91773f75c9504567","E1","batch5","pattern_enter_quiz","882.2000000476837","<p class=block-text> Let's answer a few questions <br>","0","","","","","","","","","","","","","","","","","","","","","","","","","",""
"","","","","","html-button-response","136","489900","0.0-3.0-1.1-1.1-1.1","60cff3ba91773f75c9504567","E1","batch5","pattern_quiz","1556.5999999046326","<p class = block-text>True or False: You will have as much time as you want to make each choice. <br></p>","1","","","true","","","","","","","","","","","","","","","","","","","","","","",""
"","","","","","html-button-response","137","490557","0.0-3.0-1.1-1.1-2.1","60cff3ba91773f75c9504567","E1","batch5","pattern_quiz_feedback","656.2999999523163","<p class = block-text>Correct! You should make your choice <strong> as fast as you can</strong>.</p>","0","","","","","","","","","","","","","","","","","","","","","","","","","",""
"","","","","","html-button-response","138","492037","0.0-3.0-1.1-1.1-3.1","60cff3ba91773f75c9504567","E1","batch5","pattern_quiz","1477.5","<p class = block-text>True or False: You will look for 4 pieces in black or white color connected in a row either horizontally, vertically or diagonally. <br></p>","0","","","true","","","","","","","","","","","","","","","","","","","","","","",""
"","","","","","html-button-response","139","492679","0.0-3.0-1.1-1.1-4.1","60cff3ba91773f75c9504567","E1","batch5","pattern_quiz_feedback","641.1000001430511","<p class = block-text>Correct! </p>","0","","","","","","","","","","","","","","","","","","","","","","","","","",""
"","","","","","html-button-response","140","493957","0.0-3.0-2.0","60cff3ba91773f75c9504567","E1","batch5","pattern_enter_practice","1275.7999999523163","<p class=block-text> Now that you've understood the game, let's do a few practice trials before we start!<br> <br>","0","","","","","","","","","","","","","","","","","","","","","","","","","",""
"","","","","","image-keyboard-response","141","495457","0.0-3.0-3.0-0.0","60cff3ba91773f75c9504567","E1","batch5","pattern_practice","1494.7999999523163","stim/prac_no_18_1.png","j","","j","true","","","","","","","","","","","","","","","","","","","","","","",""
"","","","","","html-keyboard-response","142","496474","0.0-3.0-3.0-1.0","60cff3ba91773f75c9504567","E1","batch5","pattern_feedback","null","<p style=""font-size:30px;color:green;"">Correct!</p>","null","","","","","","","","","","","","","","","","","","","","","","","","","",""
"","","","","","image-keyboard-response","143","498190","0.0-3.0-3.0-0.1","60cff3ba91773f75c9504567","E1","batch5","pattern_practice","1712.7999999523163","stim/prac_no_16_1.png","j","","j","true","","","","","","","","","","","","","","","","","","","","","","",""
"","","","","","html-keyboard-response","144","499200","0.0-3.0-3.0-1.1","60cff3ba91773f75c9504567","E1","batch5","pattern_feedback","null","<p style=""font-size:30px;color:green;"">Correct!</p>","null","","","","","","","","","","","","","","","","","","","","","","","","","",""
"","","","","","image-keyboard-response","145","501298","0.0-3.0-3.0-0.2","60cff3ba91773f75c9504567","E1","batch5","pattern_practice","2096.2000000476837","stim/prac_yes_20_dia_b1.png","j","","f","false","","","","","","","","","","","","","","","","","","","","","","",""
"","","","","","html-keyboard-response","146","502316","0.0-3.0-3.0-1.2","60cff3ba91773f75c9504567","E1","batch5","pattern_feedback","null","<p style=""font-size:30px;color:red;"">Wrong.</p>","null","","","","","","","","","","","","","","","","","","","","","","","","","",""
"","","","","","image-keyboard-response","147","503299","0.0-3.0-3.0-0.3","60cff3ba91773f75c9504567","E1","batch5","pattern_practice","980.5999999046326","stim/prac_yes_16_ver_w1.png","f","","f","true","","","","","","","","","","","","","","","","","","","","","","",""
"","","","","","html-keyboard-response","148","504302","0.0-3.0-3.0-1.3","60cff3ba91773f75c9504567","E1","batch5","pattern_feedback","null","<p style=""font-size:30px;color:green;"">Correct!</p>","null","","","","","","","","","","","","","","","","","","","","","","","","","",""
"","","","","","image-keyboard-response","149","504917","0.0-3.0-3.0-0.4","60cff3ba91773f75c9504567","E1","batch5","pattern_practice","612.7000000476837","stim/prac_yes_18_hor_w1.png","f","","f","true","","","","","","","","","","","","","","","","","","","","","","",""
"","","","","","html-keyboard-response","150","505933","0.0-3.0-3.0-1.4","60cff3ba91773f75c9504567","E1","batch5","pattern_feedback","null","<p style=""font-size:30px;color:green;"">Correct!</p>","null","","","","","","","","","","","","","","","","","","","","","","","","","",""
"","","","","","html-button-response","151","508335","0.0-3.0-4.0","60cff3ba91773f75c9504567","E1","batch5","pattern_enter_official_trials","2399.7999999523163","<p class=block-text> Good job! You are done with practice trials!<br>
        You responded correctly on 80% of the trials.<br>
        Press the button below to start official trials. Now you won't see any feedback about your response</p>","0","","","","","","","","","","","","","","","","","","","","","","","","","",""
"","","","","","html-keyboard-response","152","509146","0.0-3.0-5.0-0.0","60cff3ba91773f75c9504567","E1","batch5","pattern_show_trial_num","null","<p class=block-text>Trial 1 out of 78</p>","null","","","","","","","","","","","","","","","","","","","","","","","","","",""
"","","","","","image-keyboard-response","153","511494","0.0-3.0-5.0-1.0","60cff3ba91773f75c9504567","E1","batch5","pattern_response","2344.699999809265","stim/yes_29_hor_b1_b.png","f","pattern_52","f","true","","","","2344.699999809265","true","1","","","","","","","","","","","","","","","","",""
"","","","","","html-keyboard-response","154","512815","0.0-3.0-5.0-0.1","60cff3ba91773f75c9504567","E1","batch5","pattern_show_trial_num","null","<p class=block-text>Trial 2 out of 78</p>","null","","","","","","","","","","","","","","","","","","","","","","","","","",""
"","","","","","image-keyboard-response","155","516461","0.0-3.0-5.0-1.1","60cff3ba91773f75c9504567","E1","batch5","pattern_response","3642.2999999523163","stim/no_67_1.png","j","pattern_39","j","true","","","","3642.2999999523163","true","2","","","","","","","","","","","","","","","","",""
"","","","","","html-keyboard-response","156","517783","0.0-3.0-5.0-0.2","60cff3ba91773f75c9504567","E1","batch5","pattern_show_trial_num","null","<p class=block-text>Trial 3 out of 78</p>","null","","","","","","","","","","","","","","","","","","","","","","","","","",""
"","","","","","image-keyboard-response","157","521285","0.0-3.0-5.0-1.2","60cff3ba91773f75c9504567","E1","batch5","pattern_response","3498.7000000476837","stim/yes_44_ver_w1_w.png","j","pattern_66","f","false","","","","3498.7000000476837","false","2","","","","","","","","","","","","","","","","",""
"","","","","","html-keyboard-response","158","522614","0.0-3.0-5.0-0.3","60cff3ba91773f75c9504567","E1","batch5","pattern_show_trial_num","null","<p class=block-text>Trial 4 out of 78</p>","null","","","","","","","","","","","","","","","","","","","","","","","","","",""
"","","","","","image-keyboard-response","159","523566","0.0-3.0-5.0-1.3","60cff3ba91773f75c9504567","E1","batch5","pattern_response","948.3999998569489","stim/yes_51_dia_b1.png","f","pattern_72","f","true","","","","948.3999998569489","true","3","","","","","","","","","","","","","","","","",""
"","","","","","html-keyboard-response","160","524870","0.0-3.0-5.0-0.4","60cff3ba91773f75c9504567","E1","batch5","pattern_show_trial_num","null","<p class=block-text>Trial 5 out of 78</p>","null","","","","","","","","","","","","","","","","","","","","","","","","","",""
"","","","","","image-keyboard-response","161","529900","0.0-3.0-5.0-1.4","60cff3ba91773f75c9504567","E1","batch5","pattern_response","5027.399999856949","stim/yes_58_dia_w1_w.png","j","pattern_76","f","false","","","","5027.399999856949","false","3","","","","","","","","","","","","","","","","",""
"","","","","","html-keyboard-response","162","531224","0.0-3.0-5.0-0.5","60cff3ba91773f75c9504567","E1","batch5","pattern_show_trial_num","null","<p class=block-text>Trial 6 out of 78</p>","null","","","","","","","","","","","","","","","","","","","","","","","","","",""
"","","","","","image-keyboard-response","163","535599","0.0-3.0-5.0-1.5","60cff3ba91773f75c9504567","E1","batch5","pattern_response","4372.200000047684","stim/no_51_1.png","j","pattern_31","j","true","","","","4372.200000047684","true","4","","","","","","","","","","","","","","","","",""
"","","","","","html-keyboard-response","164","536926","0.0-3.0-5.0-0.6","60cff3ba91773f75c9504567","E1","batch5","pattern_show_trial_num","null","<p class=block-text>Trial 7 out of 78</p>","null","","","","","","","","","","","","","","","","","","","","","","","","","",""
"","","","","","image-keyboard-response","165","538888","0.0-3.0-5.0-1.6","60cff3ba91773f75c9504567","E1","batch5","pattern_response","1959.3999998569489","stim/no_28_2.png","j","pattern_11","j","true","","","","1959.3999998569489","true","5","","","","","","","","","","","","","","","","",""
"","","","","","html-keyboard-response","166","540204","0.0-3.0-5.0-0.7","60cff3ba91773f75c9504567","E1","batch5","pattern_show_trial_num","null","<p class=block-text>Trial 8 out of 78</p>","null","","","","","","","","","","","","","","","","","","","","","","","","","",""
"","","","","","image-keyboard-response","167","545460","0.0-3.0-5.0-1.7","60cff3ba91773f75c9504567","E1","batch5","pattern_response","5254.599999904633","stim/no_53_1_b.png","j","pattern_33","j","true","","","","5254.599999904633","true","6","","","","","","","","","","","","","","","","",""
"","","","","","html-keyboard-response","168","546770","0.0-3.0-5.0-0.8","60cff3ba91773f75c9504567","E1","batch5","pattern_show_trial_num","null","<p class=block-text>Trial 9 out of 78</p>","null","","","","","","","","","","","","","","","","","","","","","","","","","",""
"","","","","","image-keyboard-response","169","552890","0.0-3.0-5.0-1.8","60cff3ba91773f75c9504567","E1","batch5","pattern_response","6117.400000095367","stim/no_58_1_w.png","j","pattern_35","j","true","","","","6117.400000095367","true","7","","","","","","","","","","","","","","","","",""
"","","","","","html-keyboard-response","170","554207","0.0-3.0-5.0-0.9","60cff3ba91773f75c9504567","E1","batch5","pattern_show_trial_num","null","<p class=block-text>Trial 10 out of 78</p>","null","","","","","","","","","","","","","","","","","","","","","","","","","",""
"","","","","","image-keyboard-response","171","554951","0.0-3.0-5.0-1.9","60cff3ba91773f75c9504567","E1","batch5","pattern_response","740.7999999523163","stim/yes_36_ver_w1_w.png","f","pattern_58","f","true","","","","740.7999999523163","true","8","","","","","","","","","","","","","","","","",""
"","","","","","html-keyboard-response","172","556265","0.0-3.0-5.0-0.10","60cff3ba91773f75c9504567","E1","batch5","pattern_show_trial_num","null","<p class=block-text>Trial 11 out of 78</p>","null","","","","","","","","","","","","","","","","","","","","","","","","","",""
"","","","","","image-keyboard-response","173","557696","0.0-3.0-5.0-1.10","60cff3ba91773f75c9504567","E1","batch5","pattern_response","1428.7999999523163","stim/no_18_1_b.png","j","pattern_05","j","true","","","","1428.7999999523163","true","9","","","","","","","","","","","","","","","","",""
"","","","","","html-keyboard-response","174","559019","0.0-3.0-5.0-0.11","60cff3ba91773f75c9504567","E1","batch5","pattern_show_trial_num","null","<p class=block-text>Trial 12 out of 78</p>","null","","","","","","","","","","","","","","","","","","","","","","","","","",""
"","","","","","image-keyboard-response","175","562233","0.0-3.0-5.0-1.11","60cff3ba91773f75c9504567","E1","batch5","pattern_response","3210.300000190735","stim/yes_42_dia_w1_w.png","f","pattern_64","f","true","","","","3210.300000190735","true","10","","","","","","","","","","","","","","","","",""
"","","","","","html-keyboard-response","176","563556","0.0-3.0-5.0-0.12","60cff3ba91773f75c9504567","E1","batch5","pattern_show_trial_num","null","<p class=block-text>Trial 13 out of 78</p>","null","","","","","","","","","","","","","","","","","","","","","","","","","",""
"","","","","","image-keyboard-response","177","565771","0.0-3.0-5.0-1.12","60cff3ba91773f75c9504567","E1","batch5","pattern_response","2211.600000143051","stim/yes_63_dia_b1.png","f","pattern_78","f","true","","","","2211.600000143051","true","11","","","","","","","","","","","","","","","","",""
"","","","","","html-keyboard-response","178","567087","0.0-3.0-5.0-0.13","60cff3ba91773f75c9504567","E1","batch5","pattern_show_trial_num","null","<p class=block-text>Trial 14 out of 78</p>","null","","","","","","","","","","","","","","","","","","","","","","","","","",""
"","","","","","image-keyboard-response","179","569748","0.0-3.0-5.0-1.13","60cff3ba91773f75c9504567","E1","batch5","pattern_response","2657.5","stim/no_33_1_b.png","j","pattern_15","j","true","","","","2657.5","true","12","","","","","","","","","","","","","","","","",""
"","","","","","html-keyboard-response","180","571071","0.0-3.0-5.0-0.14","60cff3ba91773f75c9504567","E1","batch5","pattern_show_trial_num","null","<p class=block-text>Trial 15 out of 78</p>","null","","","","","","","","","","","","","","","","","","","","","","","","","",""
"","","","","","image-keyboard-response","181","574160","0.0-3.0-5.0-1.14","60cff3ba91773f75c9504567","E1","batch5","pattern_response","3085.7000000476837","stim/no_43_2_b.png","j","pattern_23","j","true","","","","3085.7000000476837","true","13","","","","","","","","","","","","","","","","",""
"","","","","","html-keyboard-response","182","575469","0.0-3.0-5.0-0.15","60cff3ba91773f75c9504567","E1","batch5","pattern_show_trial_num","null","<p class=block-text>Trial 16 out of 78</p>","null","","","","","","","","","","","","","","","","","","","","","","","","","",""
"","","","","","image-keyboard-response","183","578887","0.0-3.0-5.0-1.15","60cff3ba91773f75c9504567","E1","batch5","pattern_response","3414.699999809265","stim/no_36_1_b.png","j","pattern_17","j","true","","","","3414.699999809265","true","14","","","","","","","","","","","","","","","","",""
"","","","","","html-keyboard-response","184","580211","0.0-3.0-5.0-0.16","60cff3ba91773f75c9504567","E1","batch5","pattern_show_trial_num","null","<p class=block-text>Trial 17 out of 78</p>","null","","","","","","","","","","","","","","","","","","","","","","","","","",""
"","","","","","image-keyboard-response","185","585260","0.0-3.0-5.0-1.16","60cff3ba91773f75c9504567","E1","batch5","pattern_response","5045.600000143051","stim/no_47_1_b.png","j","pattern_27","j","true","","","","5045.600000143051","true","15","","","","","","","","","","","","","","","","",""
"","","","","","html-keyboard-response","186","586584","0.0-3.0-5.0-0.17","60cff3ba91773f75c9504567","E1","batch5","pattern_show_trial_num","null","<p class=block-text>Trial 18 out of 78</p>","null","","","","","","","","","","","","","","","","","","","","","","","","","",""
"","","","","","image-keyboard-response","187","587654","0.0-3.0-5.0-1.17","60cff3ba91773f75c9504567","E1","batch5","pattern_response","1067.0999999046326","stim/yes_46_ver_b1_b.png","f","pattern_68","f","true","","","","1067.0999999046326","true","16","","","","","","","","","","","","","","","","",""
"","","","","","html-keyboard-response","188","588978","0.0-3.0-5.0-0.18","60cff3ba91773f75c9504567","E1","batch5","pattern_show_trial_num","null","<p class=block-text>Trial 19 out of 78</p>","null","","","","","","","","","","","","","","","","","","","","","","","","","",""
"","","","","","image-keyboard-response","189","589661","0.0-3.0-5.0-1.18","60cff3ba91773f75c9504567","E1","batch5","pattern_response","680.0999999046326","stim/yes_15_dia_b1u_b.png","f","pattern_44","f","true","","","","680.0999999046326","true","17","","","","","","","","","","","","","","","","",""
"","","","","","html-keyboard-response","190","590977","0.0-3.0-5.0-0.19","60cff3ba91773f75c9504567","E1","batch5","pattern_show_trial_num","null","<p class=block-text>Trial 20 out of 78</p>","null","","","","","","","","","","","","","","","","","","","","","","","","","",""
"","","","","","image-keyboard-response","191","591522","0.0-3.0-5.0-1.19","60cff3ba91773f75c9504567","E1","batch5","pattern_response","543","stim/yes_12_hor_w1_w.png","f","pattern_42","f","true","","","","543","true","18","","","","","","","","","","","","","","","","",""
"","","","","","html-keyboard-response","192","592837","0.0-3.0-5.0-0.20","60cff3ba91773f75c9504567","E1","batch5","pattern_show_trial_num","null","<p class=block-text>Trial 21 out of 78</p>","null","","","","","","","","","","","","","","","","","","","","","","","","","",""
"","","","","","image-keyboard-response","193","594356","0.0-3.0-5.0-1.20","60cff3ba91773f75c9504567","E1","batch5","pattern_response","1517.1999998092651","stim/no_22_1_b.png","j","pattern_07","j","true","","","","1517.1999998092651","true","19","","","","","","","","","","","","","","","","",""
"","","","","","html-keyboard-response","194","595669","0.0-3.0-5.0-0.21","60cff3ba91773f75c9504567","E1","batch5","pattern_show_trial_num","null","<p class=block-text>Trial 22 out of 78</p>","null","","","","","","","","","","","","","","","","","","","","","","","","","",""
"","","","","","image-keyboard-response","195","596792","0.0-3.0-5.0-1.21","60cff3ba91773f75c9504567","E1","batch5","pattern_response","1120.0999999046326","stim/no_15_1_w.png","j","pattern_03","j","true","","","","1120.0999999046326","true","20","","","","","","","","","","","","","","","","",""
"","","","","","html-keyboard-response","196","598121","0.0-3.0-5.0-0.22","60cff3ba91773f75c9504567","E1","batch5","pattern_show_trial_num","null","<p class=block-text>Trial 23 out of 78</p>","null","","","","","","","","","","","","","","","","","","","","","","","","","",""
"","","","","","image-keyboard-response","197","599317","0.0-3.0-5.0-1.22","60cff3ba91773f75c9504567","E1","batch5","pattern_response","1192.2000000476837","stim/yes_26_dia_w2_w.png","f","pattern_50","f","true","","","","1192.2000000476837","true","21","","","","","","","","","","","","","","","","",""
"","","","","","html-keyboard-response","198","600635","0.0-3.0-5.0-0.23","60cff3ba91773f75c9504567","E1","batch5","pattern_show_trial_num","null","<p class=block-text>Trial 24 out of 78</p>","null","","","","","","","","","","","","","","","","","","","","","","","","","",""
"","","","","","image-keyboard-response","199","602228","0.0-3.0-5.0-1.23","60cff3ba91773f75c9504567","E1","batch5","pattern_response","1590.1000001430511","stim/yes_30_ver_b1_b.png","f","pattern_54","f","true","","","","1590.1000001430511","true","22","","","","","","","","","","","","","","","","",""
"","","","","","html-keyboard-response","200","603542","0.0-3.0-5.0-0.24","60cff3ba91773f75c9504567","E1","batch5","pattern_show_trial_num","null","<p class=block-text>Trial 25 out of 78</p>","null","","","","","","","","","","","","","","","","","","","","","","","","","",""
"","","","","","image-keyboard-response","201","607971","0.0-3.0-5.0-1.24","60cff3ba91773f75c9504567","E1","batch5","pattern_response","4425.299999952316","stim/no_45_1_w.png","j","pattern_25","j","true","","","","4425.299999952316","true","23","","","","","","","","","","","","","","","","",""
"","","","","","html-keyboard-response","202","609289","0.0-3.0-5.0-0.25","60cff3ba91773f75c9504567","E1","batch5","pattern_show_trial_num","null","<p class=block-text>Trial 26 out of 78</p>","null","","","","","","","","","","","","","","","","","","","","","","","","","",""
"","","","","","image-keyboard-response","203","614738","0.0-3.0-5.0-1.25","60cff3ba91773f75c9504567","E1","batch5","pattern_response","5446.699999809265","stim/yes_53_ver_b1_b.png","j","pattern_74","f","false","","","","5446.699999809265","false","23","","","","","","","","","","","","","","","","",""
"","","","","","html-keyboard-response","204","616054","0.0-3.0-5.0-0.26","60cff3ba91773f75c9504567","E1","batch5","pattern_show_trial_num","null","<p class=block-text>Trial 27 out of 78</p>","null","","","","","","","","","","","","","","","","","","","","","","","","","",""
"","","","","","image-keyboard-response","205","618751","0.0-3.0-5.0-1.26","60cff3ba91773f75c9504567","E1","batch5","pattern_response","2694.2999999523163","stim/no_39_1_w.png","j","pattern_21","j","true","","","","2694.2999999523163","true","24","","","","","","","","","","","","","","","","",""
"","","","","","html-keyboard-response","206","620072","0.0-3.0-5.0-0.27","60cff3ba91773f75c9504567","E1","batch5","pattern_show_trial_num","null","<p class=block-text>Trial 28 out of 78</p>","null","","","","","","","","","","","","","","","","","","","","","","","","","",""
"","","","","","image-keyboard-response","207","620937","0.0-3.0-5.0-1.27","60cff3ba91773f75c9504567","E1","batch5","pattern_response","861.2999999523163","stim/yes_37_hor_w1_w.png","f","pattern_60","f","true","","","","861.2999999523163","true","25","","","","","","","","","","","","","","","","",""
"","","","","","html-keyboard-response","208","622252","0.0-3.0-5.0-0.28","60cff3ba91773f75c9504567","E1","batch5","pattern_show_trial_num","null","<p class=block-text>Trial 29 out of 78</p>","null","","","","","","","","","","","","","","","","","","","","","","","","","",""
"","","","","","image-keyboard-response","209","624131","0.0-3.0-5.0-1.28","60cff3ba91773f75c9504567","E1","batch5","pattern_response","1876.5999999046326","stim/no_37_2_w.png","j","pattern_19","j","true","","","","1876.5999999046326","true","26","","","","","","","","","","","","","","","","",""
"","","","","","html-keyboard-response","210","625439","0.0-3.0-5.0-0.29","60cff3ba91773f75c9504567","E1","batch5","pattern_show_trial_num","null","<p class=block-text>Trial 30 out of 78</p>","null","","","","","","","","","","","","","","","","","","","","","","","","","",""
"","","","","","image-keyboard-response","211","628678","0.0-3.0-5.0-1.29","60cff3ba91773f75c9504567","E1","batch5","pattern_response","3235.2999999523163","stim/no_49_2_b.png","j","pattern_29","j","true","","","","3235.2999999523163","true","27","","","","","","","","","","","","","","","","",""
"","","","","","html-keyboard-response","212","629980","0.0-3.0-5.0-0.30","60cff3ba91773f75c9504567","E1","batch5","pattern_show_trial_num","null","<p class=block-text>Trial 31 out of 78</p>","null","","","","","","","","","","","","","","","","","","","","","","","","","",""
"","","","","","image-keyboard-response","213","631423","0.0-3.0-5.0-1.30","60cff3ba91773f75c9504567","E1","batch5","pattern_response","1438.7000000476837","stim/yes_70_ver_b1.png","f","pattern_80","f","true","","","","1438.7000000476837","true","28","","","","","","","","","","","","","","","","",""
"","","","","","html-keyboard-response","214","632748","0.0-3.0-5.0-0.31","60cff3ba91773f75c9504567","E1","batch5","pattern_show_trial_num","null","<p class=block-text>Trial 32 out of 78</p>","null","","","","","","","","","","","","","","","","","","","","","","","","","",""
"","","","","","image-keyboard-response","215","633649","0.0-3.0-5.0-1.31","60cff3ba91773f75c9504567","E1","batch5","pattern_response","897.1999998092651","stim/yes_49_hor_w1_b.png","f","pattern_70","f","true","","","","897.1999998092651","true","29","","","","","","","","","","","","","","","","",""
"","","","","","html-keyboard-response","216","634963","0.0-3.0-5.0-0.32","60cff3ba91773f75c9504567","E1","batch5","pattern_show_trial_num","null","<p class=block-text>Trial 33 out of 78</p>","null","","","","","","","","","","","","","","","","","","","","","","","","","",""
"","","","","","image-keyboard-response","217","636803","0.0-3.0-5.0-1.32","60cff3ba91773f75c9504567","E1","batch5","pattern_response","1837.2999999523163","stim/no_25_1_b.png","j","pattern_09","j","true","","","","1837.2999999523163","true","30","","","","","","","","","","","","","","","","",""
"","","","","","html-keyboard-response","218","638115","0.0-3.0-5.0-0.33","60cff3ba91773f75c9504567","E1","batch5","pattern_show_trial_num","null","<p class=block-text>Trial 34 out of 78</p>","null","","","","","","","","","","","","","","","","","","","","","","","","","",""
"","","","","","image-keyboard-response","219","639888","0.0-3.0-5.0-1.33","60cff3ba91773f75c9504567","E1","batch5","pattern_response","1769.7999999523163","stim/no_30_1_b.png","j","pattern_13","j","true","","","","1769.7999999523163","true","31","","","","","","","","","","","","","","","","",""
"","","","","","html-keyboard-response","220","641195","0.0-3.0-5.0-0.34","60cff3ba91773f75c9504567","E1","batch5","pattern_show_trial_num","null","<p class=block-text>Trial 35 out of 78</p>","null","","","","","","","","","","","","","","","","","","","","","","","","","",""
"","","","","","image-keyboard-response","221","641987","0.0-3.0-5.0-1.34","60cff3ba91773f75c9504567","E1","batch5","pattern_response","789.5","stim/yes_39_hor_w1_w.png","f","pattern_62","f","true","","","","789.5","true","32","","","","","","","","","","","","","","","","",""
"","","","","","html-keyboard-response","222","643306","0.0-3.0-5.0-0.35","60cff3ba91773f75c9504567","E1","batch5","pattern_show_trial_num","null","<p class=block-text>Trial 36 out of 78</p>","null","","","","","","","","","","","","","","","","","","","","","","","","","",""
"","","","","","image-keyboard-response","223","644219","0.0-3.0-5.0-1.35","60cff3ba91773f75c9504567","E1","batch5","pattern_response","910.8999998569489","stim/no_12_1.png","j","pattern_01","j","true","","","","910.8999998569489","true","33","","","","","","","","","","","","","","","","",""
"","","","","","html-keyboard-response","224","645544","0.0-3.0-5.0-0.36","60cff3ba91773f75c9504567","E1","batch5","pattern_show_trial_num","null","<p class=block-text>Trial 37 out of 78</p>","null","","","","","","","","","","","","","","","","","","","","","","","","","",""
"","","","","","image-keyboard-response","225","646514","0.0-3.0-5.0-1.36","60cff3ba91773f75c9504567","E1","batch5","pattern_response","967.7999999523163","stim/yes_23_ver_b1.png","f","pattern_48","f","true","","","","967.7999999523163","true","34","","","","","","","","","","","","","","","","",""
"","","","","","html-keyboard-response","226","647832","0.0-3.0-5.0-0.37","60cff3ba91773f75c9504567","E1","batch5","pattern_show_trial_num","null","<p class=block-text>Trial 38 out of 78</p>","null","","","","","","","","","","","","","","","","","","","","","","","","","",""
"","","","","","image-keyboard-response","227","648935","0.0-3.0-5.0-1.37","60cff3ba91773f75c9504567","E1","batch5","pattern_response","1100.2000000476837","stim/yes_33_dia_w1_w.png","f","pattern_56","f","true","","","","1100.2000000476837","true","35","","","","","","","","","","","","","","","","",""
"","","","","","html-keyboard-response","228","650254","0.0-3.0-5.0-0.38","60cff3ba91773f75c9504567","E1","batch5","pattern_show_trial_num","null","<p class=block-text>Trial 39 out of 78</p>","null","","","","","","","","","","","","","","","","","","","","","","","","","",""
"","","","","","image-keyboard-response","229","651141","0.0-3.0-5.0-1.38","60cff3ba91773f75c9504567","E1","batch5","pattern_response","884.9000000953674","stim/yes_17_ver_b1_b.png","f","pattern_46","f","true","","","","884.9000000953674","true","36","","","","","","","","","","","","","","","","",""
"","","","","","image-keyboard-response","230","653236","0.0-3.0-6.0","60cff3ba91773f75c9504567","E1","batch5","attention_check","1577.6000001430511","stim/empty_board.png","j","","j","true","","","","","","","500","[""f"",""j""]","","","","","","","","","","","","","","",""
"","","","","","html-keyboard-response","231","654045","0.0-3.0-7.0-0.0","60cff3ba91773f75c9504567","E1","batch5","pattern_show_trial_num","null","<p class=block-text>Trial 40 out of 78</p>","null","","","","","","","","","","","","","","","","","","","","","","","","","",""
"","","","","","image-keyboard-response","232","658302","0.0-3.0-7.0-1.0","60cff3ba91773f75c9504567","E1","batch5","pattern_response","4254.700000047684","stim/no_20_1_w.png","j","pattern_06","j","true","","","","4254.700000047684","true","37","","","","","","","","","","","","","","","","",""
"","","","","","html-keyboard-response","233","659624","0.0-3.0-7.0-0.1","60cff3ba91773f75c9504567","E1","batch5","pattern_show_trial_num","null","<p class=block-text>Trial 41 out of 78</p>","null","","","","","","","","","","","","","","","","","","","","","","","","","",""
"","","","","","image-keyboard-response","234","660263","0.0-3.0-7.0-1.1","60cff3ba91773f75c9504567","E1","batch5","pattern_response","635.2000000476837","stim/yes_22_ver_w1.png","f","pattern_47","f","true","","","","635.2000000476837","true","38","","","","","","","","","","","","","","","","",""
"","","","","","html-keyboard-response","235","661578","0.0-3.0-7.0-0.2","60cff3ba91773f75c9504567","E1","batch5","pattern_show_trial_num","null","<p class=block-text>Trial 42 out of 78</p>","null","","","","","","","","","","","","","","","","","","","","","","","","","",""
"","","","","","image-keyboard-response","236","662395","0.0-3.0-7.0-1.2","60cff3ba91773f75c9504567","E1","batch5","pattern_response","815.1999998092651","stim/yes_28_ver_b1.png","f","pattern_51","f","true","","","","815.1999998092651","true","39","","","","","","","","","","","","","","","","",""
"","","","","","html-keyboard-response","237","663709","0.0-3.0-7.0-0.3","60cff3ba91773f75c9504567","E1","batch5","pattern_show_trial_num","null","<p class=block-text>Trial 43 out of 78</p>","null","","","","","","","","","","","","","","","","","","","","","","","","","",""
"","","","","","image-keyboard-response","238","670043","0.0-3.0-7.0-1.3","60cff3ba91773f75c9504567","E1","batch5","pattern_response","6333.700000047684","stim/no_70_2.png","j","pattern_40","j","true","","","","6333.700000047684","true","40","","","","","","","","","","","","","","","","",""
"","","","","","html-keyboard-response","239","671369","0.0-3.0-7.0-0.4","60cff3ba91773f75c9504567","E1","batch5","pattern_show_trial_num","null","<p class=block-text>Trial 44 out of 78</p>","null","","","","","","","","","","","","","","","","","","","","","","","","","",""
"","","","","","image-keyboard-response","240","672194","0.0-3.0-7.0-1.4","60cff3ba91773f75c9504567","E1","batch5","pattern_response","822.0999999046326","stim/yes_55_hor_w1_w.png","f","pattern_75","f","true","","","","822.0999999046326","true","41","","","","","","","","","","","","","","","","",""
"","","","","","html-keyboard-response","241","673514","0.0-3.0-7.0-0.5","60cff3ba91773f75c9504567","E1","batch5","pattern_show_trial_num","null","<p class=block-text>Trial 45 out of 78</p>","null","","","","","","","","","","","","","","","","","","","","","","","","","",""
"","","","","","image-keyboard-response","242","674216","0.0-3.0-7.0-1.5","60cff3ba91773f75c9504567","E1","batch5","pattern_response","699.9000000953674","stim/no_13_2_b.png","j","pattern_02","j","true","","","","699.9000000953674","true","42","","","","","","","","","","","","","","","","",""
"","","","","","html-keyboard-response","243","675530","0.0-3.0-7.0-0.6","60cff3ba91773f75c9504567","E1","batch5","pattern_show_trial_num","null","<p class=block-text>Trial 46 out of 78</p>","null","","","","","","","","","","","","","","","","","","","","","","","","","",""
"","","","","","image-keyboard-response","244","676417","0.0-3.0-7.0-1.6","60cff3ba91773f75c9504567","E1","batch5","pattern_response","884.5999999046326","stim/no_23_1.png","j","pattern_08","j","true","","","","884.5999999046326","true","43","","","","","","","","","","","","","","","","",""
"","","","","","html-keyboard-response","245","677734","0.0-3.0-7.0-0.7","60cff3ba91773f75c9504567","E1","batch5","pattern_show_trial_num","null","<p class=block-text>Trial 47 out of 78</p>","null","","","","","","","","","","","","","","","","","","","","","","","","","",""
"","","","","","image-keyboard-response","246","679770","0.0-3.0-7.0-1.7","60cff3ba91773f75c9504567","E1","batch5","pattern_response","2032.8000001907349","stim/yes_37_dia_w1.png","f","pattern_59","f","true","","","","2032.8000001907349","true","44","","","","","","","","","","","","","","","","",""
"","","","","","html-keyboard-response","247","681079","0.0-3.0-7.0-0.8","60cff3ba91773f75c9504567","E1","batch5","pattern_show_trial_num","null","<p class=block-text>Trial 48 out of 78</p>","null","","","","","","","","","","","","","","","","","","","","","","","","","",""
"","","","","","image-keyboard-response","248","682080","0.0-3.0-7.0-1.8","60cff3ba91773f75c9504567","E1","batch5","pattern_response","997.2000000476837","stim/yes_45_hor_b2_b.png","f","pattern_67","f","true","","","","997.2000000476837","true","45","","","","","","","","","","","","","","","","",""
"","","","","","html-keyboard-response","249","683400","0.0-3.0-7.0-0.9","60cff3ba91773f75c9504567","E1","batch5","pattern_show_trial_num","null","<p class=block-text>Trial 49 out of 78</p>","null","","","","","","","","","","","","","","","","","","","","","","","","","",""
"","","","","","image-keyboard-response","250","685780","0.0-3.0-7.0-1.9","60cff3ba91773f75c9504567","E1","batch5","pattern_response","2376.7999999523163","stim/yes_52_ver_w1.png","f","pattern_73","f","true","","","","2376.7999999523163","true","46","","","","","","","","","","","","","","","","",""
"","","","","","html-keyboard-response","251","687104","0.0-3.0-7.0-0.10","60cff3ba91773f75c9504567","E1","batch5","pattern_show_trial_num","null","<p class=block-text>Trial 50 out of 78</p>","null","","","","","","","","","","","","","","","","","","","","","","","","","",""
"","","","","","image-keyboard-response","252","687981","0.0-3.0-7.0-1.10","60cff3ba91773f75c9504567","E1","batch5","pattern_response","873.8000001907349","stim/yes_35_dia_b1.png","f","pattern_57","f","true","","","","873.8000001907349","true","47","","","","","","","","","","","","","","","","",""
"","","","","","html-keyboard-response","253","689294","0.0-3.0-7.0-0.11","60cff3ba91773f75c9504567","E1","batch5","pattern_show_trial_num","null","<p class=block-text>Trial 51 out of 78</p>","null","","","","","","","","","","","","","","","","","","","","","","","","","",""
"","","","","","image-keyboard-response","254","690975","0.0-3.0-7.0-1.11","60cff3ba91773f75c9504567","E1","batch5","pattern_response","1677.2999999523163","stim/yes_43_ver_w1_w.png","j","pattern_65","f","false","","","","1677.2999999523163","false","47","","","","","","","","","","","","","","","","",""
"","","","","","html-keyboard-response","255","692292","0.0-3.0-7.0-0.12","60cff3ba91773f75c9504567","E1","batch5","pattern_show_trial_num","null","<p class=block-text>Trial 52 out of 78</p>","null","","","","","","","","","","","","","","","","","","","","","","","","","",""
"","","","","","image-keyboard-response","256","696087","0.0-3.0-7.0-1.12","60cff3ba91773f75c9504567","E1","batch5","pattern_response","3792.699999809265","stim/yes_50_dia_w1.png","j","pattern_71","f","false","","","","3792.699999809265","false","47","","","","","","","","","","","","","","","","",""
"","","","","","html-keyboard-response","257","697396","0.0-3.0-7.0-0.13","60cff3ba91773f75c9504567","E1","batch5","pattern_show_trial_num","null","<p class=block-text>Trial 53 out of 78</p>","null","","","","","","","","","","","","","","","","","","","","","","","","","",""
"","","","","","image-keyboard-response","258","703965","0.0-3.0-7.0-1.13","60cff3ba91773f75c9504567","E1","batch5","pattern_response","6566.099999904633","stim/no_65_1_b.png","j","pattern_38","j","true","","","","6566.099999904633","true","48","","","","","","","","","","","","","","","","",""
"","","","","","html-keyboard-response","259","705289","0.0-3.0-7.0-0.14","60cff3ba91773f75c9504567","E1","batch5","pattern_show_trial_num","null","<p class=block-text>Trial 54 out of 78</p>","null","","","","","","","","","","","","","","","","","","","","","","","","","",""
"","","","","","image-keyboard-response","260","706068","0.0-3.0-7.0-1.14","60cff3ba91773f75c9504567","E1","batch5","pattern_response","775.0999999046326","stim/yes_67_hor_b1.png","f","pattern_79","f","true","","","","775.0999999046326","true","49","","","","","","","","","","","","","","","","",""
"","","","","","html-keyboard-response","261","707381","0.0-3.0-7.0-0.15","60cff3ba91773f75c9504567","E1","batch5","pattern_show_trial_num","null","<p class=block-text>Trial 55 out of 78</p>","null","","","","","","","","","","","","","","","","","","","","","","","","","",""
"","","","","","image-keyboard-response","262","709451","0.0-3.0-7.0-1.15","60cff3ba91773f75c9504567","E1","batch5","pattern_response","2067.7999999523163","stim/no_36_2_w.png","j","pattern_18","j","true","","","","2067.7999999523163","true","50","","","","","","","","","","","","","","","","",""
"","","","","","html-keyboard-response","263","710763","0.0-3.0-7.0-0.16","60cff3ba91773f75c9504567","E1","batch5","pattern_show_trial_num","null","<p class=block-text>Trial 56 out of 78</p>","null","","","","","","","","","","","","","","","","","","","","","","","","","",""
"","","","","","image-keyboard-response","264","713159","0.0-3.0-7.0-1.16","60cff3ba91773f75c9504567","E1","batch5","pattern_response","2393.0999999046326","stim/no_50_1.png","j","pattern_30","j","true","","","","2393.0999999046326","true","51","","","","","","","","","","","","","","","","",""
"","","","","","html-keyboard-response","265","714476","0.0-3.0-7.0-0.17","60cff3ba91773f75c9504567","E1","batch5","pattern_show_trial_num","null","<p class=block-text>Trial 57 out of 78</p>","null","","","","","","","","","","","","","","","","","","","","","","","","","",""
"","","","","","image-keyboard-response","266","717200","0.0-3.0-7.0-1.17","60cff3ba91773f75c9504567","E1","batch5","pattern_response","2721.2000000476837","stim/no_46_1_b.png","j","pattern_26","j","true","","","","2721.2000000476837","true","52","","","","","","","","","","","","","","","","",""
"","","","","","html-keyboard-response","267","718518","0.0-3.0-7.0-0.18","60cff3ba91773f75c9504567","E1","batch5","pattern_show_trial_num","null","<p class=block-text>Trial 58 out of 78</p>","null","","","","","","","","","","","","","","","","","","","","","","","","","",""
"","","","","","image-keyboard-response","268","720405","0.0-3.0-7.0-1.18","60cff3ba91773f75c9504567","E1","batch5","pattern_response","1884.2000000476837","stim/no_55_1_w.png","j","pattern_34","j","true","","","","1884.2000000476837","true","53","","","","","","","","","","","","","","","","",""
"","","","","","html-keyboard-response","269","721726","0.0-3.0-7.0-0.19","60cff3ba91773f75c9504567","E1","batch5","pattern_show_trial_num","null","<p class=block-text>Trial 59 out of 78</p>","null","","","","","","","","","","","","","","","","","","","","","","","","","",""
"","","","","","image-keyboard-response","270","723624","0.0-3.0-7.0-1.19","60cff3ba91773f75c9504567","E1","batch5","pattern_response","1895.4000000953674","stim/no_34_1_b.png","j","pattern_16","j","true","","","","1895.4000000953674","true","54","","","","","","","","","","","","","","","","",""
"","","","","","html-keyboard-response","271","724934","0.0-3.0-7.0-0.20","60cff3ba91773f75c9504567","E1","batch5","pattern_show_trial_num","null","<p class=block-text>Trial 60 out of 78</p>","null","","","","","","","","","","","","","","","","","","","","","","","","","",""
"","","","","","image-keyboard-response","272","725954","0.0-3.0-7.0-1.20","60cff3ba91773f75c9504567","E1","batch5","pattern_response","1017.5999999046326","stim/yes_38_hor_b1_b.png","f","pattern_61","f","true","","","","1017.5999999046326","true","55","","","","","","","","","","","","","","","","",""
"","","","","","html-keyboard-response","273","727271","0.0-3.0-7.0-0.21","60cff3ba91773f75c9504567","E1","batch5","pattern_show_trial_num","null","<p class=block-text>Trial 61 out of 78</p>","null","","","","","","","","","","","","","","","","","","","","","","","","","",""
"","","","","","image-keyboard-response","274","730801","0.0-3.0-7.0-1.21","60cff3ba91773f75c9504567","E1","batch5","pattern_response","3531.899999856949","stim/yes_60_ver_b1_b.png","j","pattern_77","f","false","","","","3531.899999856949","false","55","","","","","","","","","","","","","","","","",""
"","","","","","html-keyboard-response","275","732113","0.0-3.0-7.0-0.22","60cff3ba91773f75c9504567","E1","batch5","pattern_show_trial_num","null","<p class=block-text>Trial 62 out of 78</p>","null","","","","","","","","","","","","","","","","","","","","","","","","","",""
"","","","","","image-keyboard-response","276","732861","0.0-3.0-7.0-1.22","60cff3ba91773f75c9504567","E1","batch5","pattern_response","745.2000000476837","stim/yes_40_dia_b1_b.png","f","pattern_63","f","true","","","","745.2000000476837","true","56","","","","","","","","","","","","","","","","",""
"","","","","","html-keyboard-response","277","734181","0.0-3.0-7.0-0.23","60cff3ba91773f75c9504567","E1","batch5","pattern_show_trial_num","null","<p class=block-text>Trial 63 out of 78</p>","null","","","","","","","","","","","","","","","","","","","","","","","","","",""
"","","","","","image-keyboard-response","278","737648","0.0-3.0-7.0-1.23","60cff3ba91773f75c9504567","E1","batch5","pattern_response","3464.2999999523163","stim/no_42_1_w.png","j","pattern_22","j","true","","","","3464.2999999523163","true","57","","","","","","","","","","","","","","","","",""
"","","","","","html-keyboard-response","279","738961","0.0-3.0-7.0-0.24","60cff3ba91773f75c9504567","E1","batch5","pattern_show_trial_num","null","<p class=block-text>Trial 64 out of 78</p>","null","","","","","","","","","","","","","","","","","","","","","","","","","",""
"","","","","","image-keyboard-response","280","740080","0.0-3.0-7.0-1.24","60cff3ba91773f75c9504567","E1","batch5","pattern_response","1116.3999998569489","stim/no_17_1_w.png","j","pattern_04","j","true","","","","1116.3999998569489","true","58","","","","","","","","","","","","","","","","",""
"","","","","","html-keyboard-response","281","741396","0.0-3.0-7.0-0.25","60cff3ba91773f75c9504567","E1","batch5","pattern_show_trial_num","null","<p class=block-text>Trial 65 out of 78</p>","null","","","","","","","","","","","","","","","","","","","","","","","","","",""
"","","","","","image-keyboard-response","282","744012","0.0-3.0-7.0-1.25","60cff3ba91773f75c9504567","E1","batch5","pattern_response","2613.2000000476837","stim/no_29_1_b.png","j","pattern_12","j","true","","","","2613.2000000476837","true","59","","","","","","","","","","","","","","","","",""
"","","","","","html-keyboard-response","283","745329","0.0-3.0-7.0-0.26","60cff3ba91773f75c9504567","E1","batch5","pattern_show_trial_num","null","<p class=block-text>Trial 66 out of 78</p>","null","","","","","","","","","","","","","","","","","","","","","","","","","",""
"","","","","","image-keyboard-response","284","746069","0.0-3.0-7.0-1.26","60cff3ba91773f75c9504567","E1","batch5","pattern_response","736.1999998092651","stim/yes_25_hor_b1_b.png","f","pattern_49","f","true","","","","736.1999998092651","true","60","","","","","","","","","","","","","","","","",""
"","","","","","html-keyboard-response","285","747386","0.0-3.0-7.0-0.27","60cff3ba91773f75c9504567","E1","batch5","pattern_show_trial_num","null","<p class=block-text>Trial 67 out of 78</p>","null","","","","","","","","","","","","","","","","","","","","","","","","","",""
"","","","","","image-keyboard-response","286","751232","0.0-3.0-7.0-1.27","60cff3ba91773f75c9504567","E1","batch5","pattern_response","3843.7999999523163","stim/no_52_1.png","j","pattern_32","j","true","","","","3843.7999999523163","true","61","","","","","","","","","","","","","","","","",""
"","","","","","html-keyboard-response","287","752539","0.0-3.0-7.0-0.28","60cff3ba91773f75c9504567","E1","batch5","pattern_show_trial_num","null","<p class=block-text>Trial 68 out of 78</p>","null","","","","","","","","","","","","","","","","","","","","","","","","","",""
"","","","","","image-keyboard-response","288","754806","0.0-3.0-7.0-1.28","60cff3ba91773f75c9504567","E1","batch5","pattern_response","2263.7000000476837","stim/yes_48_dia_w1_w.png","j","pattern_69","f","false","","","","2263.7000000476837","false","61","","","","","","","","","","","","","","","","",""
"","","","","","html-keyboard-response","289","756122","0.0-3.0-7.0-0.29","60cff3ba91773f75c9504567","E1","batch5","pattern_show_trial_num","null","<p class=block-text>Trial 69 out of 78</p>","null","","","","","","","","","","","","","","","","","","","","","","","","","",""
"","","","","","image-keyboard-response","290","756982","0.0-3.0-7.0-1.29","60cff3ba91773f75c9504567","E1","batch5","pattern_response","856.6999998092651","stim/no_26_1_w.png","j","pattern_10","j","true","","","","856.6999998092651","true","62","","","","","","","","","","","","","","","","",""
"","","","","","html-keyboard-response","291","758309","0.0-3.0-7.0-0.30","60cff3ba91773f75c9504567","E1","batch5","pattern_show_trial_num","null","<p class=block-text>Trial 70 out of 78</p>","null","","","","","","","","","","","","","","","","","","","","","","","","","",""
"","","","","","image-keyboard-response","292","759057","0.0-3.0-7.0-1.30","60cff3ba91773f75c9504567","E1","batch5","pattern_response","745.7999999523163","stim/yes_29_ver_w1.png","f","pattern_53","f","true","","","","745.7999999523163","true","63","","","","","","","","","","","","","","","","",""
"","","","","","html-keyboard-response","293","760387","0.0-3.0-7.0-0.31","60cff3ba91773f75c9504567","E1","batch5","pattern_show_trial_num","null","<p class=block-text>Trial 71 out of 78</p>","null","","","","","","","","","","","","","","","","","","","","","","","","","",""
"","","","","","image-keyboard-response","294","761323","0.0-3.0-7.0-1.31","60cff3ba91773f75c9504567","E1","batch5","pattern_response","934.1999998092651","stim/yes_17_dia_w1.png","f","pattern_45","f","true","","","","934.1999998092651","true","64","","","","","","","","","","","","","","","","",""
"","","","","","html-keyboard-response","295","762648","0.0-3.0-7.0-0.32","60cff3ba91773f75c9504567","E1","batch5","pattern_show_trial_num","null","<p class=block-text>Trial 72 out of 78</p>","null","","","","","","","","","","","","","","","","","","","","","","","","","",""
"","","","","","image-keyboard-response","296","764284","0.0-3.0-7.0-1.32","60cff3ba91773f75c9504567","E1","batch5","pattern_response","1633.6000001430511","stim/yes_31_hor_b1.png","f","pattern_55","f","true","","","","1633.6000001430511","true","65","","","","","","","","","","","","","","","","",""
"","","","","","html-keyboard-response","297","765606","0.0-3.0-7.0-0.33","60cff3ba91773f75c9504567","E1","batch5","pattern_show_trial_num","null","<p class=block-text>Trial 73 out of 78</p>","null","","","","","","","","","","","","","","","","","","","","","","","","","",""
"","","","","","image-keyboard-response","298","767943","0.0-3.0-7.0-1.33","60cff3ba91773f75c9504567","E1","batch5","pattern_response","2334.2999999523163","stim/no_32_1_w.png","j","pattern_14","j","true","","","","2334.2999999523163","true","66","","","","","","","","","","","","","","","","",""
"","","","","","html-keyboard-response","299","769260","0.0-3.0-7.0-0.34","60cff3ba91773f75c9504567","E1","batch5","pattern_show_trial_num","null","<p class=block-text>Trial 74 out of 78</p>","null","","","","","","","","","","","","","","","","","","","","","","","","","",""
"","","","","","image-keyboard-response","300","772803","0.0-3.0-7.0-1.34","60cff3ba91773f75c9504567","E1","batch5","pattern_response","3539.5","stim/no_48_1_w.png","j","pattern_28","j","true","","","","3539.5","true","67","","","","","","","","","","","","","","","","",""
"","","","","","html-keyboard-response","301","774120","0.0-3.0-7.0-0.35","60cff3ba91773f75c9504567","E1","batch5","pattern_show_trial_num","null","<p class=block-text>Trial 75 out of 78</p>","null","","","","","","","","","","","","","","","","","","","","","","","","","",""
"","","","","","image-keyboard-response","302","777499","0.0-3.0-7.0-1.35","60cff3ba91773f75c9504567","E1","batch5","pattern_response","3376","stim/no_38_1_b.png","j","pattern_20","j","true","","","","3376","true","68","","","","","","","","","","","","","","","","",""
"","","","","","html-keyboard-response","303","778822","0.0-3.0-7.0-0.36","60cff3ba91773f75c9504567","E1","batch5","pattern_show_trial_num","null","<p class=block-text>Trial 76 out of 78</p>","null","","","","","","","","","","","","","","","","","","","","","","","","","",""
"","","","","","image-keyboard-response","304","781742","0.0-3.0-7.0-1.36","60cff3ba91773f75c9504567","E1","batch5","pattern_response","2916.5999999046326","stim/no_44_1.png","f","pattern_24","j","false","","","","2916.5999999046326","false","68","","","","","","","","","","","","","","","","",""
"","","","","","html-keyboard-response","305","783052","0.0-3.0-7.0-0.37","60cff3ba91773f75c9504567","E1","batch5","pattern_show_trial_num","null","<p class=block-text>Trial 77 out of 78</p>","null","","","","","","","","","","","","","","","","","","","","","","","","","",""
"","","","","","image-keyboard-response","306","789702","0.0-3.0-7.0-1.37","60cff3ba91773f75c9504567","E1","batch5","pattern_response","6646.599999904633","stim/no_62_1_w.png","j","pattern_36","j","true","","","","6646.599999904633","true","69","","","","","","","","","","","","","","","","",""
"","","","","","html-keyboard-response","307","791032","0.0-3.0-7.0-0.38","60cff3ba91773f75c9504567","E1","batch5","pattern_show_trial_num","null","<p class=block-text>Trial 78 out of 78</p>","null","","","","","","","","","","","","","","","","","","","","","","","","","",""
"","","","","","image-keyboard-response","308","791591","0.0-3.0-7.0-1.38","60cff3ba91773f75c9504567","E1","batch5","pattern_response","555.0999999046326","stim/yes_14_hor_b1_w.png","f","pattern_43","f","true","","","","555.0999999046326","true","70","","","","","","","","","","","","","","","","",""
"","","","","","html-button-response","309","795900","0.0-3.0-8.0","60cff3ba91773f75c9504567","E1","batch5","","3799.4000000953674","<p class = block-text>This concludes the 4-in-a-row detection game.Thank you for your responses!<br>
            You responded correctly on 90% of the trials.<br>
            When you are ready, press ""Continue"" button to continue </p>","0","","","","","","","","","","","","","","","","","","","","","","","","","",""
"true","","","","","fullscreen","310","800520","0.0-4.0-0.0","60cff3ba91773f75c9504567","E1","batch5","","","","","","","","","","","","","","","","","","","","","","","","","","","","","",""
"","","","","","instructions","311","823835","0.0-4.0-1.0-0.0-0.0","60cff3ba91773f75c9504567","E1","batch5","tol-instructions","23314.299999952316","","","","","","","","[{""page_index"":0,""viewing_time"":6262},{""page_index"":1,""viewing_time"":2717.600000143051},{""page_index"":2,""viewing_time"":1283.7999999523163},{""page_index"":3,""viewing_time"":5156.599999904633},{""page_index"":4,""viewing_time"":2489.600000143051},{""page_index"":5,""viewing_time"":3728.2999999523163},{""page_index"":6,""viewing_time"":1675.8999998569489}]","","","","","","","","","","","","","","","","","","","",""
"","","","","","html-button-response","312","824641","0.0-4.0-1.0-1.0-0.0","60cff3ba91773f75c9504567","E1","batch5","tol_enter_quiz","804.1999998092651","<p class=block-text> Let's answer a few questions <br>","0","","","","","","","","","","","","","","","","","","","","","","","","","",""
"","","","","","html-button-response","313","827453","0.0-4.0-1.0-1.0-1.0","60cff3ba91773f75c9504567","E1","batch5","tol_quiz","2809.5999999046326","<p class = block-text>True or False: You can only move the ball on top of a peg. <br></p>","0","","","true","","","","","","","","","","","","","","","","","","","","","","",""
"","","","","","html-button-response","314","828165","0.0-4.0-1.0-1.0-2.0","60cff3ba91773f75c9504567","E1","batch5","tol_quiz_feedback","710.4000000953674","<p class = block-text>Correct! You can only move the ball on top of a peg.</p>","0","","","","","","","","","","","","","","","","","","","","","","","","","",""
"","","","","","html-button-response","315","830180","0.0-4.0-1.0-1.0-3.0","60cff3ba91773f75c9504567","E1","batch5","tol_quiz","2013.7999999523163","<p class = block-text>True or False: You should try to match your board with the target board with fewest moves possible. <br></p>","0","","","true","","","","","","","","","","","","","","","","","","","","","","",""
"","","","","","html-button-response","316","830751","0.0-4.0-1.0-1.0-4.0","60cff3ba91773f75c9504567","E1","batch5","tol_quiz_feedback","569.7000000476837","<p class = block-text>Correct! </p>","0","","","","","","","","","","","","","","","","","","","","","","","","","",""
"","","","","","html-button-response","317","831859","0.0-4.0-2.0","60cff3ba91773f75c9504567","E1","batch5","","1105.7999999523163","<p class=block-text> Now that you've understood the game, let's practice a few easier examples before we start!<br> <br>","0","","","","","","","","","","","","","","","","","","","","","","","","","",""
"","","","","","single-stim-button","318","835460","0.0-4.0-3.0-0.0","60cff3ba91773f75c9504567","E1","batch5","tol_practice","3598","","","","","","","","","","","","","","tol_peg_2","3598","3598","0","[[1,2,0],[0,0],[0]]","1","[[1,2,0],[0,0],[3]]","practice","3598","","","","","",""
"","","","","","single-stim-button","319","836341","0.0-4.0-3.0-1.0","60cff3ba91773f75c9504567","E1","batch5","tol_practice","881","","","","","","","","","","","","","","tol_peg_3","881","881","0","[[1,2,0],[0,0],[3]]","1","[[1,2,0],[0,0],[3]]","practice","881","","","","","",""
"","","","","","poldrack-single-stim","320","837354","0.0-4.0-4.0","60cff3ba91773f75c9504567","E1","batch5","tol_feedback","-1","","","","","true","","","","","","","","","","1000","1000","500","","","","","","-1","none","true","","0",""
"","","","","","single-stim-button","321","842449","0.0-4.0-5.0-0.0","60cff3ba91773f75c9504567","E1","batch5","tol_practice","5093","","","","","","","","","","","","","","tol_peg_1","5093","5093","0","[[1,0,0],[3,0],[0]]","2","[[0,0,0],[3,1],[2]]","practice","5093","","","","","",""
"","","","","","single-stim-button","322","843524","0.0-4.0-5.0-1.0","60cff3ba91773f75c9504567","E1","batch5","tol_practice","1074","","","","","","","","","","","","","","tol_peg_3","1074","1074","0","[[1,0,0],[3,0],[2]]","2","[[0,0,0],[3,1],[2]]","practice","1074","","","","","",""
"","","","","","single-stim-button","323","845221","0.0-4.0-5.1-0.1","60cff3ba91773f75c9504567","E1","batch5","tol_practice","1697","","","","","","","","","","","","","","tol_peg_1","1697","1697","0","[[0,0,0],[3,0],[2]]","3","[[0,0,0],[3,1],[2]]","practice","1697","","","","","",""
"","","","","","single-stim-button","324","846239","0.0-4.0-5.1-1.1","60cff3ba91773f75c9504567","E1","batch5","tol_practice","1016","","","","","","","","","","","","","","tol_peg_2","1016","1016","0","[[0,0,0],[3,1],[2]]","3","[[0,0,0],[3,1],[2]]","practice","1016","","","","","",""
"","","","","","poldrack-single-stim","325","847245","0.0-4.0-6.0","60cff3ba91773f75c9504567","E1","batch5","tol_feedback","-1","","","","","true","","","","","","","","","","1000","1000","500","","","","","","-1","none","true","","0",""
"","","","","","single-stim-button","326","850053","0.0-4.0-7.0-0.0","60cff3ba91773f75c9504567","E1","batch5","tol_practice","2806","","","","","","","","","","","","","","tol_peg_2","2806","2806","0","[[1,2,0],[0,0],[0]]","4","[[1,0,0],[2,0],[3]]","practice","2806","","","","","",""
"","","","","","single-stim-button","327","851032","0.0-4.0-7.0-1.0","60cff3ba91773f75c9504567","E1","batch5","tol_practice","978","","","","","","","","","","","","","","tol_peg_3","978","978","0","[[1,2,0],[0,0],[3]]","4","[[1,0,0],[2,0],[3]]","practice","978","","","","","",""
"","","","","","single-stim-button","328","851721","0.0-4.0-7.1-0.1","60cff3ba91773f75c9504567","E1","batch5","tol_practice","687","","","","","","","","","","","","","","tol_peg_1","687","687","0","[[1,0,0],[0,0],[3]]","5","[[1,0,0],[2,0],[3]]","practice","687","","","","","",""
"","","","","","single-stim-button","329","852348","0.0-4.0-7.1-1.1","60cff3ba91773f75c9504567","E1","batch5","tol_practice","626","","","","","","","","","","","","","","tol_peg_2","626","626","0","[[1,0,0],[2,0],[3]]","5","[[1,0,0],[2,0],[3]]","practice","626","","","","","",""
"","","","","","poldrack-single-stim","330","853361","0.0-4.0-8.0","60cff3ba91773f75c9504567","E1","batch5","tol_feedback","-1","","","","","true","","","","","","","","","","1000","1000","500","","","","","","-1","none","true","","0",""
"","","","","","html-button-response","331","855528","0.0-4.0-9.0","60cff3ba91773f75c9504567","E1","batch5","tol_instruction","2165","<div class = centerbox><p class = center-block-text>Great job! You are done with practice trials<br>You are about to start official trials.<br> <br> Problem <strong>1</strong> out of 25 problems</p></div>","0","","","","","","","","","","","","","","","","","","","","","","","","","",""
"","","","","","single-stim-button","332","860125","0.0-4.0-10.0-0.0","60cff3ba91773f75c9504567","E1","batch5","tol_tohand","3586","","","","","","","","","","","","","","tol_peg_2","3586","3586","0","[[1,2,0],[0,0],[0]]","1","[[1,3,0],[2,0],[0]]","0","0","","","","","","3"
"","","","","","single-stim-button","333","861064","0.0-4.0-10.0-1.0","60cff3ba91773f75c9504567","E1","batch5","tol_toboard","938","","","","","","","","","","","","","","tol_peg_3","938","938","0","[[1,2,0],[0,0],[3]]","1","[[1,3,0],[2,0],[0]]","0","0","","","","","","3"
"","","","","","single-stim-button","334","861777","0.0-4.0-10.1-0.1","60cff3ba91773f75c9504567","E1","batch5","tol_tohand","711","","","","","","","","","","","","","","tol_peg_1","711","711","0","[[1,0,0],[0,0],[3]]","2","[[1,3,0],[2,0],[0]]","0","0","","","","","","3"
"","","","","","single-stim-button","335","862222","0.0-4.0-10.1-1.1","60cff3ba91773f75c9504567","E1","batch5","tol_toboard","444","","","","","","","","","","","","","","tol_peg_2","444","444","0","[[1,0,0],[2,0],[3]]","2","[[1,3,0],[2,0],[0]]","0","0","","","","","","3"
"","","","","","single-stim-button","336","862913","0.0-4.0-10.2-0.2","60cff3ba91773f75c9504567","E1","batch5","tol_tohand","689","","","","","","","","","","","","","","tol_peg_3","689","689","0","[[1,0,0],[2,0],[0]]","3","[[1,3,0],[2,0],[0]]","0","0","","","","","","3"
"","","","","","single-stim-button","337","863734","0.0-4.0-10.2-1.2","60cff3ba91773f75c9504567","E1","batch5","tol_toboard","821","","","","","","","","","","","","","","tol_peg_1","821","821","0","[[1,3,0],[2,0],[0]]","3","[[1,3,0],[2,0],[0]]","0","0","","","","","","3"
"","","","","","poldrack-single-stim","338","864742","0.0-4.0-11.0","60cff3ba91773f75c9504567","E1","batch5","tol_feedback","-1","","","","","true","","","","","","","","","","1000","1000","500","","","","","","-1","none","true","3586","4986",""
"","","","","","html-button-response","339","865379","0.0-4.0-12.0","60cff3ba91773f75c9504567","E1","batch5","tol_trial_num","636","<div class = centerbox><p class = center-block-text>problem <strong>2</strong> out of 25 problems</p></div>","0","","","","","","","","","","","","","","","","","","","","","","","","","",""
"","","","","","single-stim-button","340","870869","0.0-4.0-13.0-0.0","60cff3ba91773f75c9504567","E1","batch5","tol_tohand","5488","","","","","","","","","","","","","","tol_peg_1","5488","5488","0","[[1,0,0],[3,0],[0]]","1","[[2,1,3],[0,0],[0]]","1","0","","","","","","5"
"","","","","","single-stim-button","341","871675","0.0-4.0-13.0-1.0","60cff3ba91773f75c9504567","E1","batch5","tol_toboard","804","","","","","","","","","","","","","","tol_peg_3","804","804","0","[[1,0,0],[3,0],[2]]","1","[[2,1,3],[0,0],[0]]","1","0","","","","","","5"
"","","","","","single-stim-button","342","872419","0.0-4.0-13.1-0.1","60cff3ba91773f75c9504567","E1","batch5","tol_tohand","743","","","","","","","","","","","","","","tol_peg_1","743","743","0","[[0,0,0],[3,0],[2]]","2","[[2,1,3],[0,0],[0]]","1","0","","","","","","5"
"","","","","","single-stim-button","343","872905","0.0-4.0-13.1-1.1","60cff3ba91773f75c9504567","E1","batch5","tol_toboard","484","","","","","","","","","","","","","","tol_peg_2","484","484","0","[[0,0,0],[3,1],[2]]","2","[[2,1,3],[0,0],[0]]","1","0","","","","","","5"
"","","","","","single-stim-button","344","873485","0.0-4.0-13.2-0.2","60cff3ba91773f75c9504567","E1","batch5","tol_tohand","579","","","","","","","","","","","","","","tol_peg_3","579","579","0","[[0,0,0],[3,1],[0]]","3","[[2,1,3],[0,0],[0]]","1","0","","","","","","5"
"","","","","","single-stim-button","345","874275","0.0-4.0-13.2-1.2","60cff3ba91773f75c9504567","E1","batch5","tol_toboard","789","","","","","","","","","","","","","","tol_peg_1","789","789","0","[[2,0,0],[3,1],[0]]","3","[[2,1,3],[0,0],[0]]","1","0","","","","","","5"
