"success","timeout","failed_images","failed_audio","failed_video","trial_type","trial_index","time_elapsed","internal_node_id","subject_id","study_id","session_id","task","rt","stimulus","response","item","answer","correct","spm_correct","spm_rt","view_history","fiar_detect_rt","fiar_detect_correct","total_correct_fiar_detect","post_trial_gap","choices","mouse_click","stim_duration","block_duration","timing_post_trial","current_position","tol_num_moves_made","tol_target","tol_problem_id","tol_rt","key_press","possible_responses","tol_correct","preplanning","tol_rt_per_trial","tol_min_moves"
"true","false","[]","[]","[]","preload","0","6714","0.0-0.0","60d5aea939b90bd4fbdc4251","A3","batch1","","","","","","","","","","","","","","","","","","","","","","","","","","","","","",""
"true","","","","","fullscreen","1","16445","0.0-1.0-0.0","60d5aea939b90bd4fbdc4251","A3","batch1","","","","","","","","","","","","","","","","","","","","","","","","","","","","","",""
"true","","","","","fullscreen","2","19761","0.0-2.0-0.0","60d5aea939b90bd4fbdc4251","A3","batch1","spm_fullscreen","","","","","","","","","","","","","","","","","","","","","","","","","","","","",""
"","","","","","html-button-response","3","32192","0.0-2.0-1.0","60d5aea939b90bd4fbdc4251","A3","batch1","","12430","<p class = block-text><b>Instructions</b> <br>This is a widely used intelligence test in research. <br>In this test, a figure with a missing piece will be presented.<br>Below the figure are alternative pieces to complete the figure, only one of which is correct.<br> Different figures might involve different principles for obtaining the missing piece<br>Your job is to select the most logical piece to complete the figure.</p>","0","","","","","","","","","","","","","","","","","","","","","","","","","",""
"","","","","","html-keyboard-response","4","32998","0.0-2.0-2.0-0.0","60d5aea939b90bd4fbdc4251","A3","batch1","spm_show_trial_num","null","<p class=block-text>Trial 1 out of 60</p>","null","","","","","","","","","","","","","","","","","","","","","","","","","",""
"","","","","","image-button-response","5","37534","0.0-2.0-2.0-1.0","60d5aea939b90bd4fbdc4251","A3","batch1","spm_respsonse","4533","img/question_1_1.jpeg","3","mat_01","4","1","1","4533","","","","","","","","","","","","","","","","","","","","",""
"","","","","","html-keyboard-response","6","38599","0.0-2.0-2.0-0.1","60d5aea939b90bd4fbdc4251","A3","batch1","spm_show_trial_num","null","<p class=block-text>Trial 2 out of 60</p>","null","","","","","","","","","","","","","","","","","","","","","","","","","",""
"","","","","","image-button-response","7","41230","0.0-2.0-2.0-1.1","60d5aea939b90bd4fbdc4251","A3","batch1","spm_respsonse","2629.5","img/question_1_2.jpeg","4","mat_02","5","1","1","2629.5","","","","","","","","","","","","","","","","","","","","",""
"","","","","","html-keyboard-response","8","42299","0.0-2.0-2.0-0.2","60d5aea939b90bd4fbdc4251","A3","batch1","spm_show_trial_num","null","<p class=block-text>Trial 3 out of 60</p>","null","","","","","","","","","","","","","","","","","","","","","","","","","",""
"","","","","","image-button-response","9","47917","0.0-2.0-2.0-1.2","60d5aea939b90bd4fbdc4251","A3","batch1","spm_respsonse","5616.9000000059605","img/question_1_3.jpeg","0","mat_03","1","1","1","5616.9000000059605","","","","","","","","","","","","","","","","","","","","",""
"","","","","","html-keyboard-response","10","48979","0.0-2.0-2.0-0.3","60d5aea939b90bd4fbdc4251","A3","batch1","spm_show_trial_num","null","<p class=block-text>Trial 4 out of 60</p>","null","","","","","","","","","","","","","","","","","","","","","","","","","",""
"","","","","","image-button-response","11","51801","0.0-2.0-2.0-1.3","60d5aea939b90bd4fbdc4251","A3","batch1","spm_respsonse","2821.1000000089407","img/question_1_4.jpeg","1","mat_04","2","1","1","2821.1000000089407","","","","","","","","","","","","","","","","","","","","",""
"","","","","","html-keyboard-response","12","52864","0.0-2.0-2.0-0.4","60d5aea939b90bd4fbdc4251","A3","batch1","spm_show_trial_num","null","<p class=block-text>Trial 5 out of 60</p>","null","","","","","","","","","","","","","","","","","","","","","","","","","",""
"","","","","","image-button-response","13","56840","0.0-2.0-2.0-1.4","60d5aea939b90bd4fbdc4251","A3","batch1","spm_respsonse","3974.699999988079","img/question_1_5.jpeg","5","mat_05","6","1","1","3974.699999988079","","","","","","","","","","","","","","","","","","","","",""
"","","","","","html-keyboard-response","14","57915","0.0-2.0-2.0-0.5","60d5aea939b90bd4fbdc4251","A3","batch1","spm_show_trial_num","null","<p class=block-text>Trial 6 out of 60</p>","null","","","","","","","","","","","","","","","","","","","","","","","","","",""
"","","","","","image-button-response","15","60985","0.0-2.0-2.0-1.5","60d5aea939b90bd4fbdc4251","A3","batch1","spm_respsonse","3068.3999999910593","img/question_1_6.jpeg","2","mat_06","3","1","1","3068.3999999910593","","","","","","","","","","","","","","","","","","","","",""
"","","","","","html-keyboard-response","16","62051","0.0-2.0-2.0-0.6","60d5aea939b90bd4fbdc4251","A3","batch1","spm_show_trial_num","null","<p class=block-text>Trial 7 out of 60</p>","null","","","","","","","","","","","","","","","","","","","","","","","","","",""
"","","","","","image-button-response","17","65012","0.0-2.0-2.0-1.6","60d5aea939b90bd4fbdc4251","A3","batch1","spm_respsonse","2959.5999999940395","img/question_1_7.jpeg","5","mat_07","6","1","1","2959.5999999940395","","","","","","","","","","","","","","","","","","","","",""
"","","","","","html-keyboard-response","18","66082","0.0-2.0-2.0-0.7","60d5aea939b90bd4fbdc4251","A3","batch1","spm_show_trial_num","null","<p class=block-text>Trial 8 out of 60</p>","null","","","","","","","","","","","","","","","","","","","","","","","","","",""
"","","","","","image-button-response","19","70553","0.0-2.0-2.0-1.7","60d5aea939b90bd4fbdc4251","A3","batch1","spm_respsonse","4469.0999999940395","img/question_1_8.jpeg","1","mat_08","2","1","1","4469.0999999940395","","","","","","","","","","","","","","","","","","","","",""
"","","","","","html-keyboard-response","20","71621","0.0-2.0-2.0-0.8","60d5aea939b90bd4fbdc4251","A3","batch1","spm_show_trial_num","null","<p class=block-text>Trial 9 out of 60</p>","null","","","","","","","","","","","","","","","","","","","","","","","","","",""
"","","","","","image-button-response","21","73808","0.0-2.0-2.0-1.8","60d5aea939b90bd4fbdc4251","A3","batch1","spm_respsonse","2185.1000000089407","img/question_1_9.jpeg","0","mat_09","1","1","1","2185.1000000089407","","","","","","","","","","","","","","","","","","","","",""
"","","","","","html-keyboard-response","22","74882","0.0-2.0-2.0-0.9","60d5aea939b90bd4fbdc4251","A3","batch1","spm_show_trial_num","null","<p class=block-text>Trial 10 out of 60</p>","null","","","","","","","","","","","","","","","","","","","","","","","","","",""
"","","","","","image-button-response","23","79554","0.0-2.0-2.0-1.9","60d5aea939b90bd4fbdc4251","A3","batch1","spm_respsonse","4670.4000000059605","img/question_1_10.jpeg","2","mat_10","3","1","1","4670.4000000059605","","","","","","","","","","","","","","","","","","","","",""
"","","","","","html-keyboard-response","24","80623","0.0-2.0-2.0-0.10","60d5aea939b90bd4fbdc4251","A3","batch1","spm_show_trial_num","null","<p class=block-text>Trial 11 out of 60</p>","null","","","","","","","","","","","","","","","","","","","","","","","","","",""
"","","","","","image-button-response","25","88901","0.0-2.0-2.0-1.10","60d5aea939b90bd4fbdc4251","A3","batch1","spm_respsonse","8276.5","img/question_1_11.jpeg","3","mat_11","4","1","1","8276.5","","","","","","","","","","","","","","","","","","","","",""
"","","","","","html-keyboard-response","26","89955","0.0-2.0-2.0-0.11","60d5aea939b90bd4fbdc4251","A3","batch1","spm_show_trial_num","null","<p class=block-text>Trial 12 out of 60</p>","null","","","","","","","","","","","","","","","","","","","","","","","","","",""
"","","","","","image-button-response","27","93288","0.0-2.0-2.0-1.11","60d5aea939b90bd4fbdc4251","A3","batch1","spm_respsonse","3331.300000011921","img/question_1_12.jpeg","0","mat_12","5","0","0","3331.300000011921","","","","","","","","","","","","","","","","","","","","",""
"","","","","","html-keyboard-response","28","94347","0.0-2.0-2.0-0.12","60d5aea939b90bd4fbdc4251","A3","batch1","spm_show_trial_num","null","<p class=block-text>Trial 13 out of 60</p>","null","","","","","","","","","","","","","","","","","","","","","","","","","",""
"","","","","","image-button-response","29","95951","0.0-2.0-2.0-1.12","60d5aea939b90bd4fbdc4251","A3","batch1","spm_respsonse","1602.2000000029802","img/question_2_1.jpeg","1","mat_13","2","1","1","1602.2000000029802","","","","","","","","","","","","","","","","","","","","",""
"","","","","","html-keyboard-response","30","97004","0.0-2.0-2.0-0.13","60d5aea939b90bd4fbdc4251","A3","batch1","spm_show_trial_num","null","<p class=block-text>Trial 14 out of 60</p>","null","","","","","","","","","","","","","","","","","","","","","","","","","",""
"","","","","","image-button-response","31","100464","0.0-2.0-2.0-1.13","60d5aea939b90bd4fbdc4251","A3","batch1","spm_respsonse","3458.5999999940395","img/question_2_2.jpeg","5","mat_14","6","1","1","3458.5999999940395","","","","","","","","","","","","","","","","","","","","",""
"","","","","","html-keyboard-response","32","101525","0.0-2.0-2.0-0.14","60d5aea939b90bd4fbdc4251","A3","batch1","spm_show_trial_num","null","<p class=block-text>Trial 15 out of 60</p>","null","","","","","","","","","","","","","","","","","","","","","","","","","",""
"","","","","","image-button-response","33","104309","0.0-2.0-2.0-1.14","60d5aea939b90bd4fbdc4251","A3","batch1","spm_respsonse","2781.7000000029802","img/question_2_3.jpeg","0","mat_15","1","1","1","2781.7000000029802","","","","","","","","","","","","","","","","","","","","",""
"","","","","","html-keyboard-response","34","105380","0.0-2.0-2.0-0.15","60d5aea939b90bd4fbdc4251","A3","batch1","spm_show_trial_num","null","<p class=block-text>Trial 16 out of 60</p>","null","","","","","","","","","","","","","","","","","","","","","","","","","",""
"","","","","","image-button-response","35","108122","0.0-2.0-2.0-1.15","60d5aea939b90bd4fbdc4251","A3","batch1","spm_respsonse","2740.5999999940395","img/question_2_4.jpeg","1","mat_16","2","1","1","2740.5999999940395","","","","","","","","","","","","","","","","","","","","",""
"","","","","","html-keyboard-response","36","109197","0.0-2.0-2.0-0.16","60d5aea939b90bd4fbdc4251","A3","batch1","spm_show_trial_num","null","<p class=block-text>Trial 17 out of 60</p>","null","","","","","","","","","","","","","","","","","","","","","","","","","",""
"","","","","","image-button-response","37","112161","0.0-2.0-2.0-1.16","60d5aea939b90bd4fbdc4251","A3","batch1","spm_respsonse","2962.3999999910593","img/question_2_5.jpeg","0","mat_17","1","1","1","2962.3999999910593","","","","","","","","","","","","","","","","","","","","",""
"","","","","","html-keyboard-response","38","113223","0.0-2.0-2.0-0.17","60d5aea939b90bd4fbdc4251","A3","batch1","spm_show_trial_num","null","<p class=block-text>Trial 18 out of 60</p>","null","","","","","","","","","","","","","","","","","","","","","","","","","",""
"","","","","","image-button-response","39","115976","0.0-2.0-2.0-1.17","60d5aea939b90bd4fbdc4251","A3","batch1","spm_respsonse","2751.5","img/question_2_6.jpeg","2","mat_18","3","1","1","2751.5","","","","","","","","","","","","","","","","","","","","",""
"","","","","","html-keyboard-response","40","117034","0.0-2.0-2.0-0.18","60d5aea939b90bd4fbdc4251","A3","batch1","spm_show_trial_num","null","<p class=block-text>Trial 19 out of 60</p>","null","","","","","","","","","","","","","","","","","","","","","","","","","",""
"","","","","","image-button-response","41","120848","0.0-2.0-2.0-1.18","60d5aea939b90bd4fbdc4251","A3","batch1","spm_respsonse","3812.0999999940395","img/question_2_7.jpeg","4","mat_19","5","1","1","3812.0999999940395","","","","","","","","","","","","","","","","","","","","",""
"","","","","","html-keyboard-response","42","121920","0.0-2.0-2.0-0.19","60d5aea939b90bd4fbdc4251","A3","batch1","spm_show_trial_num","null","<p class=block-text>Trial 20 out of 60</p>","null","","","","","","","","","","","","","","","","","","","","","","","","","",""
"","","","","","image-button-response","43","126784","0.0-2.0-2.0-1.19","60d5aea939b90bd4fbdc4251","A3","batch1","spm_respsonse","4862.70000000298","img/question_2_8.jpeg","5","mat_20","6","1","1","4862.70000000298","","","","","","","","","","","","","","","","","","","","",""
"","","","","","html-keyboard-response","44","127857","0.0-2.0-2.0-0.20","60d5aea939b90bd4fbdc4251","A3","batch1","spm_show_trial_num","null","<p class=block-text>Trial 21 out of 60</p>","null","","","","","","","","","","","","","","","","","","","","","","","","","",""
"","","","","","image-button-response","45","132290","0.0-2.0-2.0-1.20","60d5aea939b90bd4fbdc4251","A3","batch1","spm_respsonse","4431.29999999702","img/question_2_9.jpeg","3","mat_21","4","1","1","4431.29999999702","","","","","","","","","","","","","","","","","","","","",""
"","","","","","html-keyboard-response","46","133363","0.0-2.0-2.0-0.21","60d5aea939b90bd4fbdc4251","A3","batch1","spm_show_trial_num","null","<p class=block-text>Trial 22 out of 60</p>","null","","","","","","","","","","","","","","","","","","","","","","","","","",""
"","","","","","image-button-response","47","136791","0.0-2.0-2.0-1.21","60d5aea939b90bd4fbdc4251","A3","batch1","spm_respsonse","3426.9000000059605","img/question_2_10.jpeg","2","mat_22","3","1","1","3426.9000000059605","","","","","","","","","","","","","","","","","","","","",""
"","","","","","html-keyboard-response","48","137846","0.0-2.0-2.0-0.22","60d5aea939b90bd4fbdc4251","A3","batch1","spm_show_trial_num","null","<p class=block-text>Trial 23 out of 60</p>","null","","","","","","","","","","","","","","","","","","","","","","","","","",""
"","","","","","image-button-response","49","144136","0.0-2.0-2.0-1.22","60d5aea939b90bd4fbdc4251","A3","batch1","spm_respsonse","6288.899999991059","img/question_2_11.jpeg","5","mat_23","4","0","0","6288.899999991059","","","","","","","","","","","","","","","","","","","","",""
"","","","","","html-keyboard-response","50","145197","0.0-2.0-2.0-0.23","60d5aea939b90bd4fbdc4251","A3","batch1","spm_show_trial_num","null","<p class=block-text>Trial 24 out of 60</p>","null","","","","","","","","","","","","","","","","","","","","","","","","","",""
"","","","","","image-button-response","51","154767","0.0-2.0-2.0-1.23","60d5aea939b90bd4fbdc4251","A3","batch1","spm_respsonse","9568.29999999702","img/question_2_12.jpeg","0","mat_24","5","0","0","9568.29999999702","","","","","","","","","","","","","","","","","","","","",""
"","","","","","html-button-response","52","156381","0.0-2.0-3.0","60d5aea939b90bd4fbdc4251","A3","batch1","attention_check","1359","<p class = block-text>Attention check: Please choose 1<br></p>","0","","","true","","","","","","","","","","","","","","","","","","","","","","",""
"","","","","","html-keyboard-response","53","157187","0.0-2.0-4.0-0.0","60d5aea939b90bd4fbdc4251","A3","batch1","spm_show_trial_num","null","<p class=block-text>Trial 25 out of 60</p>","null","","","","","","","","","","","","","","","","","","","","","","","","","",""
"","","","","","image-button-response","54","162315","0.0-2.0-4.0-1.0","60d5aea939b90bd4fbdc4251","A3","batch1","spm_respsonse","5126.5","img/question_3_1.jpeg","7","mat_25","8","1","1","5126.5","","","","","","","","","","","","","","","","","","","","",""
"","","","","","html-keyboard-response","55","163371","0.0-2.0-4.0-0.1","60d5aea939b90bd4fbdc4251","A3","batch1","spm_show_trial_num","null","<p class=block-text>Trial 26 out of 60</p>","null","","","","","","","","","","","","","","","","","","","","","","","","","",""
"","","","","","image-button-response","56","168151","0.0-2.0-4.0-1.1","60d5aea939b90bd4fbdc4251","A3","batch1","spm_respsonse","4778.79999999702","img/question_3_2.jpeg","1","mat_26","2","1","1","4778.79999999702","","","","","","","","","","","","","","","","","","","","",""
"","","","","","html-keyboard-response","57","169217","0.0-2.0-4.0-0.2","60d5aea939b90bd4fbdc4251","A3","batch1","spm_show_trial_num","null","<p class=block-text>Trial 27 out of 60</p>","null","","","","","","","","","","","","","","","","","","","","","","","","","",""
"","","","","","image-button-response","58","174812","0.0-2.0-4.0-1.2","60d5aea939b90bd4fbdc4251","A3","batch1","spm_respsonse","5593.70000000298","img/question_3_3.jpeg","2","mat_27","3","1","1","5593.70000000298","","","","","","","","","","","","","","","","","","","","",""
"","","","","","html-keyboard-response","59","175871","0.0-2.0-4.0-0.3","60d5aea939b90bd4fbdc4251","A3","batch1","spm_show_trial_num","null","<p class=block-text>Trial 28 out of 60</p>","null","","","","","","","","","","","","","","","","","","","","","","","","","",""
"","","","","","image-button-response","60","183217","0.0-2.0-4.0-1.3","60d5aea939b90bd4fbdc4251","A3","batch1","spm_respsonse","7345","img/question_3_4.jpeg","7","mat_28","8","1","1","7345","","","","","","","","","","","","","","","","","","","","",""
"","","","","","html-keyboard-response","61","184289","0.0-2.0-4.0-0.4","60d5aea939b90bd4fbdc4251","A3","batch1","spm_show_trial_num","null","<p class=block-text>Trial 29 out of 60</p>","null","","","","","","","","","","","","","","","","","","","","","","","","","",""
"","","","","","image-button-response","62","190257","0.0-2.0-4.0-1.4","60d5aea939b90bd4fbdc4251","A3","batch1","spm_respsonse","5966.20000000298","img/question_3_5.jpeg","6","mat_29","7","1","1","5966.20000000298","","","","","","","","","","","","","","","","","","","","",""
"","","","","","html-keyboard-response","63","191331","0.0-2.0-4.0-0.5","60d5aea939b90bd4fbdc4251","A3","batch1","spm_show_trial_num","null","<p class=block-text>Trial 30 out of 60</p>","null","","","","","","","","","","","","","","","","","","","","","","","","","",""
"","","","","","image-button-response","64","195917","0.0-2.0-4.0-1.5","60d5aea939b90bd4fbdc4251","A3","batch1","spm_respsonse","4584.5","img/question_3_6.jpeg","3","mat_30","4","1","1","4584.5","","","","","","","","","","","","","","","","","","","","",""
"","","","","","html-keyboard-response","65","196988","0.0-2.0-4.0-0.6","60d5aea939b90bd4fbdc4251","A3","batch1","spm_show_trial_num","null","<p class=block-text>Trial 31 out of 60</p>","null","","","","","","","","","","","","","","","","","","","","","","","","","",""
"","","","","","image-button-response","66","202705","0.0-2.0-4.0-1.6","60d5aea939b90bd4fbdc4251","A3","batch1","spm_respsonse","5715.9000000059605","img/question_3_7.jpeg","4","mat_31","5","1","1","5715.9000000059605","","","","","","","","","","","","","","","","","","","","",""
"","","","","","html-keyboard-response","67","203779","0.0-2.0-4.0-0.7","60d5aea939b90bd4fbdc4251","A3","batch1","spm_show_trial_num","null","<p class=block-text>Trial 32 out of 60</p>","null","","","","","","","","","","","","","","","","","","","","","","","","","",""
"","","","","","image-button-response","68","217795","0.0-2.0-4.0-1.7","60d5aea939b90bd4fbdc4251","A3","batch1","spm_respsonse","14014.90000000596","img/question_3_8.jpeg","3","mat_32","1","0","0","14014.90000000596","","","","","","","","","","","","","","","","","","","","",""
"","","","","","html-keyboard-response","69","218859","0.0-2.0-4.0-0.8","60d5aea939b90bd4fbdc4251","A3","batch1","spm_show_trial_num","null","<p class=block-text>Trial 33 out of 60</p>","null","","","","","","","","","","","","","","","","","","","","","","","","","",""
"","","","","","image-button-response","70","233657","0.0-2.0-4.0-1.8","60d5aea939b90bd4fbdc4251","A3","batch1","spm_respsonse","14796.20000000298","img/question_3_9.jpeg","6","mat_33","7","1","1","14796.20000000298","","","","","","","","","","","","","","","","","","","","",""
"","","","","","html-keyboard-response","71","234732","0.0-2.0-4.0-0.9","60d5aea939b90bd4fbdc4251","A3","batch1","spm_show_trial_num","null","<p class=block-text>Trial 34 out of 60</p>","null","","","","","","","","","","","","","","","","","","","","","","","","","",""
"","","","","","image-button-response","72","243020","0.0-2.0-4.0-1.9","60d5aea939b90bd4fbdc4251","A3","batch1","spm_respsonse","8285.5","img/question_3_10.jpeg","7","mat_34","6","0","0","8285.5","","","","","","","","","","","","","","","","","","","","",""
"","","","","","html-keyboard-response","73","244093","0.0-2.0-4.0-0.10","60d5aea939b90bd4fbdc4251","A3","batch1","spm_show_trial_num","null","<p class=block-text>Trial 35 out of 60</p>","null","","","","","","","","","","","","","","","","","","","","","","","","","",""
"","","","","","image-button-response","74","248637","0.0-2.0-4.0-1.10","60d5aea939b90bd4fbdc4251","A3","batch1","spm_respsonse","4542.29999999702","img/question_3_11.jpeg","3","mat_35","1","0","0","4542.29999999702","","","","","","","","","","","","","","","","","","","","",""
"","","","","","html-keyboard-response","75","249703","0.0-2.0-4.0-0.11","60d5aea939b90bd4fbdc4251","A3","batch1","spm_show_trial_num","null","<p class=block-text>Trial 36 out of 60</p>","null","","","","","","","","","","","","","","","","","","","","","","","","","",""
"","","","","","image-button-response","76","265660","0.0-2.0-4.0-1.11","60d5aea939b90bd4fbdc4251","A3","batch1","spm_respsonse","15955.89999999106","img/question_3_12.jpeg","4","mat_36","2","0","0","15955.89999999106","","","","","","","","","","","","","","","","","","","","",""
"","","","","","html-keyboard-response","77","266721","0.0-2.0-4.0-0.12","60d5aea939b90bd4fbdc4251","A3","batch1","spm_show_trial_num","null","<p class=block-text>Trial 37 out of 60</p>","null","","","","","","","","","","","","","","","","","","","","","","","","","",""
"","","","","","image-button-response","78","269672","0.0-2.0-4.0-1.12","60d5aea939b90bd4fbdc4251","A3","batch1","spm_respsonse","2948.9000000059605","img/question_4_1.jpeg","2","mat_37","3","1","1","2948.9000000059605","","","","","","","","","","","","","","","","","","","","",""
"","","","","","html-keyboard-response","79","270724","0.0-2.0-4.0-0.13","60d5aea939b90bd4fbdc4251","A3","batch1","spm_show_trial_num","null","<p class=block-text>Trial 38 out of 60</p>","null","","","","","","","","","","","","","","","","","","","","","","","","","",""
"","","","","","image-button-response","80","274171","0.0-2.0-4.0-1.13","60d5aea939b90bd4fbdc4251","A3","batch1","spm_respsonse","3444.5999999940395","img/question_4_2.jpeg","3","mat_38","4","1","1","3444.5999999940395","","","","","","","","","","","","","","","","","","","","",""
"","","","","","html-keyboard-response","81","275232","0.0-2.0-4.0-0.14","60d5aea939b90bd4fbdc4251","A3","batch1","spm_show_trial_num","null","<p class=block-text>Trial 39 out of 60</p>","null","","","","","","","","","","","","","","","","","","","","","","","","","",""
"","","","","","image-button-response","82","279390","0.0-2.0-4.0-1.14","60d5aea939b90bd4fbdc4251","A3","batch1","spm_respsonse","4156.600000008941","img/question_4_3.jpeg","2","mat_39","3","1","1","4156.600000008941","","","","","","","","","","","","","","","","","","","","",""
"","","","","","html-keyboard-response","83","280459","0.0-2.0-4.0-0.15","60d5aea939b90bd4fbdc4251","A3","batch1","spm_show_trial_num","null","<p class=block-text>Trial 40 out of 60</p>","null","","","","","","","","","","","","","","","","","","","","","","","","","",""
"","","","","","image-button-response","84","286680","0.0-2.0-4.0-1.15","60d5aea939b90bd4fbdc4251","A3","batch1","spm_respsonse","6220.29999999702","img/question_4_4.jpeg","6","mat_40","7","1","1","6220.29999999702","","","","","","","","","","","","","","","","","","","","",""
"","","","","","html-keyboard-response","85","287740","0.0-2.0-4.0-0.16","60d5aea939b90bd4fbdc4251","A3","batch1","spm_show_trial_num","null","<p class=block-text>Trial 41 out of 60</p>","null","","","","","","","","","","","","","","","","","","","","","","","","","",""
"","","","","","image-button-response","86","294547","0.0-2.0-4.0-1.16","60d5aea939b90bd4fbdc4251","A3","batch1","spm_respsonse","6804.9000000059605","img/question_4_5.jpeg","7","mat_41","8","1","1","6804.9000000059605","","","","","","","","","","","","","","","","","","","","",""
"","","","","","html-keyboard-response","87","295613","0.0-2.0-4.0-0.17","60d5aea939b90bd4fbdc4251","A3","batch1","spm_show_trial_num","null","<p class=block-text>Trial 42 out of 60</p>","null","","","","","","","","","","","","","","","","","","","","","","","","","",""
"","","","","","image-button-response","88","305788","0.0-2.0-4.0-1.17","60d5aea939b90bd4fbdc4251","A3","batch1","spm_respsonse","10174.09999999404","img/question_4_6.jpeg","5","mat_42","6","1","1","10174.09999999404","","","","","","","","","","","","","","","","","","","","",""
"","","","","","html-keyboard-response","89","306840","0.0-2.0-4.0-0.18","60d5aea939b90bd4fbdc4251","A3","batch1","spm_show_trial_num","null","<p class=block-text>Trial 43 out of 60</p>","null","","","","","","","","","","","","","","","","","","","","","","","","","",""
"","","","","","image-button-response","90","312779","0.0-2.0-4.0-1.18","60d5aea939b90bd4fbdc4251","A3","batch1","spm_respsonse","5937.699999988079","img/question_4_7.jpeg","2","mat_43","5","0","0","5937.699999988079","","","","","","","","","","","","","","","","","","","","",""
"","","","","","html-keyboard-response","91","313835","0.0-2.0-4.0-0.19","60d5aea939b90bd4fbdc4251","A3","batch1","spm_show_trial_num","null","<p class=block-text>Trial 44 out of 60</p>","null","","","","","","","","","","","","","","","","","","","","","","","","","",""
"","","","","","image-button-response","92","319267","0.0-2.0-4.0-1.19","60d5aea939b90bd4fbdc4251","A3","batch1","spm_respsonse","5430.20000000298","img/question_4_8.jpeg","3","mat_44","4","1","1","5430.20000000298","","","","","","","","","","","","","","","","","","","","",""
"","","","","","html-keyboard-response","93","320331","0.0-2.0-4.0-0.20","60d5aea939b90bd4fbdc4251","A3","batch1","spm_show_trial_num","null","<p class=block-text>Trial 45 out of 60</p>","null","","","","","","","","","","","","","","","","","","","","","","","","","",""
"","","","","","image-button-response","94","329520","0.0-2.0-4.0-1.20","60d5aea939b90bd4fbdc4251","A3","batch1","spm_respsonse","9187.90000000596","img/question_4_9.jpeg","0","mat_45","1","1","1","9187.90000000596","","","","","","","","","","","","","","","","","","","","",""
"","","","","","html-keyboard-response","95","330589","0.0-2.0-4.0-0.21","60d5aea939b90bd4fbdc4251","A3","batch1","spm_show_trial_num","null","<p class=block-text>Trial 46 out of 60</p>","null","","","","","","","","","","","","","","","","","","","","","","","","","",""
"","","","","","image-button-response","96","339277","0.0-2.0-4.0-1.21","60d5aea939b90bd4fbdc4251","A3","batch1","spm_respsonse","8686.59999999404","img/question_4_10.jpeg","6","mat_46","2","0","0","8686.59999999404","","","","","","","","","","","","","","","","","","","","",""
"","","","","","html-keyboard-response","97","340348","0.0-2.0-4.0-0.22","60d5aea939b90bd4fbdc4251","A3","batch1","spm_show_trial_num","null","<p class=block-text>Trial 47 out of 60</p>","null","","","","","","","","","","","","","","","","","","","","","","","","","",""
"","","","","","image-button-response","98","352419","0.0-2.0-4.0-1.22","60d5aea939b90bd4fbdc4251","A3","batch1","spm_respsonse","12069.5","img/question_4_11.jpeg","6","mat_47","5","0","0","12069.5","","","","","","","","","","","","","","","","","","","","",""
"","","","","","html-keyboard-response","99","353471","0.0-2.0-4.0-0.23","60d5aea939b90bd4fbdc4251","A3","batch1","spm_show_trial_num","null","<p class=block-text>Trial 48 out of 60</p>","null","","","","","","","","","","","","","","","","","","","","","","","","","",""
"","","","","","image-button-response","100","366177","0.0-2.0-4.0-1.23","60d5aea939b90bd4fbdc4251","A3","batch1","spm_respsonse","12704.70000000298","img/question_4_12.jpeg","3","mat_48","6","0","0","12704.70000000298","","","","","","","","","","","","","","","","","","","","",""
"","","","","","html-keyboard-response","101","367240","0.0-2.0-4.0-0.24","60d5aea939b90bd4fbdc4251","A3","batch1","spm_show_trial_num","null","<p class=block-text>Trial 49 out of 60</p>","null","","","","","","","","","","","","","","","","","","","","","","","","","",""
"","","","","","image-button-response","102","376064","0.0-2.0-4.0-1.24","60d5aea939b90bd4fbdc4251","A3","batch1","spm_respsonse","8822.40000000596","img/question_5_1.jpeg","4","mat_49","7","0","0","8822.40000000596","","","","","","","","","","","","","","","","","","","","",""
"","","","","","html-keyboard-response","103","377125","0.0-2.0-4.0-0.25","60d5aea939b90bd4fbdc4251","A3","batch1","spm_show_trial_num","null","<p class=block-text>Trial 50 out of 60</p>","null","","","","","","","","","","","","","","","","","","","","","","","","","",""
"","","","","","image-button-response","104","388970","0.0-2.0-4.0-1.25","60d5aea939b90bd4fbdc4251","A3","batch1","spm_respsonse","11843","img/question_5_2.jpeg","0","mat_50","6","0","0","11843","","","","","","","","","","","","","","","","","","","","",""
"","","","","","html-keyboard-response","105","390022","0.0-2.0-4.0-0.26","60d5aea939b90bd4fbdc4251","A3","batch1","spm_show_trial_num","null","<p class=block-text>Trial 51 out of 60</p>","null","","","","","","","","","","","","","","","","","","","","","","","","","",""
"","","","","","image-button-response","106","395092","0.0-2.0-4.0-1.26","60d5aea939b90bd4fbdc4251","A3","batch1","spm_respsonse","5068.5","img/question_5_3.jpeg","1","mat_51","8","0","0","5068.5","","","","","","","","","","","","","","","","","","","","",""
"","","","","","html-keyboard-response","107","396145","0.0-2.0-4.0-0.27","60d5aea939b90bd4fbdc4251","A3","batch1","spm_show_trial_num","null","<p class=block-text>Trial 52 out of 60</p>","null","","","","","","","","","","","","","","","","","","","","","","","","","",""
"","","","","","image-button-response","108","400455","0.0-2.0-4.0-1.27","60d5aea939b90bd4fbdc4251","A3","batch1","spm_respsonse","4308.5","img/question_5_4.jpeg","2","mat_52","2","0","0","4308.5","","","","","","","","","","","","","","","","","","","","",""
"","","","","","html-keyboard-response","109","401509","0.0-2.0-4.0-0.28","60d5aea939b90bd4fbdc4251","A3","batch1","spm_show_trial_num","null","<p class=block-text>Trial 53 out of 60</p>","null","","","","","","","","","","","","","","","","","","","","","","","","","",""
"","","","","","image-button-response","110","407672","0.0-2.0-4.0-1.28","60d5aea939b90bd4fbdc4251","A3","batch1","spm_respsonse","6160.79999999702","img/question_5_5.jpeg","0","mat_53","1","1","1","6160.79999999702","","","","","","","","","","","","","","","","","","","","",""
"","","","","","html-keyboard-response","111","408744","0.0-2.0-4.0-0.29","60d5aea939b90bd4fbdc4251","A3","batch1","spm_show_trial_num","null","<p class=block-text>Trial 54 out of 60</p>","null","","","","","","","","","","","","","","","","","","","","","","","","","",""
"","","","","","image-button-response","112","414165","0.0-2.0-4.0-1.29","60d5aea939b90bd4fbdc4251","A3","batch1","spm_respsonse","5419.100000008941","img/question_5_6.jpeg","6","mat_54","5","0","0","5419.100000008941","","","","","","","","","","","","","","","","","","","","",""
"","","","","","html-keyboard-response","113","415233","0.0-2.0-4.0-0.30","60d5aea939b90bd4fbdc4251","A3","batch1","spm_show_trial_num","null","<p class=block-text>Trial 55 out of 60</p>","null","","","","","","","","","","","","","","","","","","","","","","","","","",""
"","","","","","image-button-response","114","425842","0.0-2.0-4.0-1.30","60d5aea939b90bd4fbdc4251","A3","batch1","spm_respsonse","10607.10000000894","img/question_5_7.jpeg","4","mat_55","1","0","0","10607.10000000894","","","","","","","","","","","","","","","","","","","","",""
"","","","","","html-keyboard-response","115","426911","0.0-2.0-4.0-0.31","60d5aea939b90bd4fbdc4251","A3","batch1","spm_show_trial_num","null","<p class=block-text>Trial 56 out of 60</p>","null","","","","","","","","","","","","","","","","","","","","","","","","","",""
"","","","","","image-button-response","116","439264","0.0-2.0-4.0-1.31","60d5aea939b90bd4fbdc4251","A3","batch1","spm_respsonse","12351.5","img/question_5_8.jpeg","0","mat_56","6","0","0","12351.5","","","","","","","","","","","","","","","","","","","","",""
"","","","","","html-keyboard-response","117","440329","0.0-2.0-4.0-0.32","60d5aea939b90bd4fbdc4251","A3","batch1","spm_show_trial_num","null","<p class=block-text>Trial 57 out of 60</p>","null","","","","","","","","","","","","","","","","","","","","","","","","","",""
"","","","","","image-button-response","118","453415","0.0-2.0-4.0-1.32","60d5aea939b90bd4fbdc4251","A3","batch1","spm_respsonse","13084.5","img/question_5_9.jpeg","7","mat_57","3","0","0","13084.5","","","","","","","","","","","","","","","","","","","","",""
"","","","","","html-keyboard-response","119","454484","0.0-2.0-4.0-0.33","60d5aea939b90bd4fbdc4251","A3","batch1","spm_show_trial_num","null","<p class=block-text>Trial 58 out of 60</p>","null","","","","","","","","","","","","","","","","","","","","","","","","","",""
"","","","","","image-button-response","120","459656","0.0-2.0-4.0-1.33","60d5aea939b90bd4fbdc4251","A3","batch1","spm_respsonse","5169.5999999940395","img/question_5_10.jpeg","0","mat_58","2","0","0","5169.5999999940395","","","","","","","","","","","","","","","","","","","","",""
"","","","","","html-keyboard-response","121","460713","0.0-2.0-4.0-0.34","60d5aea939b90bd4fbdc4251","A3","batch1","spm_show_trial_num","null","<p class=block-text>Trial 59 out of 60</p>","null","","","","","","","","","","","","","","","","","","","","","","","","","",""
"","","","","","image-button-response","122","467772","0.0-2.0-4.0-1.34","60d5aea939b90bd4fbdc4251","A3","batch1","spm_respsonse","7057","img/question_5_11.jpeg","2","mat_59","4","0","0","7057","","","","","","","","","","","","","","","","","","","","",""
"","","","","","html-keyboard-response","123","468842","0.0-2.0-4.0-0.35","60d5aea939b90bd4fbdc4251","A3","batch1","spm_show_trial_num","null","<p class=block-text>Trial 60 out of 60</p>","null","","","","","","","","","","","","","","","","","","","","","","","","","",""
"","","","","","image-button-response","124","479572","0.0-2.0-4.0-1.35","60d5aea939b90bd4fbdc4251","A3","batch1","spm_respsonse","10728.59999999404","img/question_5_12.jpeg","0","mat_60","5","0","0","10728.59999999404","","","","","","","","","","","","","","","","","","","","",""
"","","","","","html-button-response","125","481367","0.0-2.0-5.0","60d5aea939b90bd4fbdc4251","A3","batch1","spm_goodbye","1543.2999999970198","<p class= block-text>This concludes the Standard Progressive Matrix game. Thank you for your responses!<br> When you are ready, click the button continue</p>","0","","","","","","","","","","","","","","","","","","","","","","","","","",""
"true","","","","","fullscreen","126","484420","0.0-3.0-0.0","60d5aea939b90bd4fbdc4251","A3","batch1","","","","","","","","","","","","","","","","","","","","","","","","","","","","","",""
"","","","","","instructions","127","495423","0.0-3.0-1.0-0.0","60d5aea939b90bd4fbdc4251","A3","batch1","","11003.39999999106","","","","","","","","[{""page_index"":0,""viewing_time"":8819.199999988079},{""page_index"":1,""viewing_time"":2183.800000011921}]","","","","","","","","","","","","","","","","","","","",""
"","","","","","html-button-response","128","496820","0.0-3.0-1.0-1.0-0.0","60d5aea939b90bd4fbdc4251","A3","batch1","pattern_enter_quiz","1395.9000000059605","<p class=block-text> Let's answer a few questions <br>","0","","","","","","","","","","","","","","","","","","","","","","","","","",""
"","","","","","html-button-response","129","498428","0.0-3.0-1.0-1.0-1.0","60d5aea939b90bd4fbdc4251","A3","batch1","pattern_quiz","1607.2000000029802","<p class = block-text>True or False: You will have as much time as you want to make each choice. <br></p>","1","","","true","","","","","","","","","","","","","","","","","","","","","","",""
"","","","","","html-button-response","130","499104","0.0-3.0-1.0-1.0-2.0","60d5aea939b90bd4fbdc4251","A3","batch1","pattern_quiz_feedback","674.8000000119209","<p class = block-text>Correct! You should make your choice <strong> as fast as you can</strong>.</p>","0","","","","","","","","","","","","","","","","","","","","","","","","","",""
"","","","","","html-button-response","131","501574","0.0-3.0-1.0-1.0-3.0","60d5aea939b90bd4fbdc4251","A3","batch1","pattern_quiz","2469.0999999940395","<p class = block-text>True or False: You will look for 4 pieces in black or white color connected in a row either horizontally, vertically or diagonally. <br></p>","0","","","true","","","","","","","","","","","","","","","","","","","","","","",""
"","","","","","html-button-response","132","502133","0.0-3.0-1.0-1.0-4.0","60d5aea939b90bd4fbdc4251","A3","batch1","pattern_quiz_feedback","557.6999999880791","<p class = block-text>Correct! </p>","0","","","","","","","","","","","","","","","","","","","","","","","","","",""
"","","","","","html-button-response","133","503841","0.0-3.0-2.0","60d5aea939b90bd4fbdc4251","A3","batch1","pattern_enter_practice","1706.699999988079","<p class=block-text> Now that you've understood the game, let's do a few practice trials before we start!<br> <br>","0","","","","","","","","","","","","","","","","","","","","","","","","","",""
"","","","","","image-keyboard-response","134","506222","0.0-3.0-3.0-0.0","60d5aea939b90bd4fbdc4251","A3","batch1","pattern_practice","2379.5","stim/prac_no_16_1.png","j","","j","true","","","","","","","","","","","","","","","","","","","","","","",""
"","","","","","html-keyboard-response","135","507238","0.0-3.0-3.0-1.0","60d5aea939b90bd4fbdc4251","A3","batch1","pattern_feedback","null","<p style=""font-size:30px;color:green;"">Correct!</p>","null","","","","","","","","","","","","","","","","","","","","","","","","","",""
"","","","","","image-keyboard-response","136","508037","0.0-3.0-3.0-0.1","60d5aea939b90bd4fbdc4251","A3","batch1","pattern_practice","797.9000000059605","stim/prac_yes_16_ver_w1.png","f","","f","true","","","","","","","","","","","","","","","","","","","","","","",""
"","","","","","html-keyboard-response","137","509054","0.0-3.0-3.0-1.1","60d5aea939b90bd4fbdc4251","A3","batch1","pattern_feedback","null","<p style=""font-size:30px;color:green;"">Correct!</p>","null","","","","","","","","","","","","","","","","","","","","","","","","","",""
"","","","","","image-keyboard-response","138","510277","0.0-3.0-3.0-0.2","60d5aea939b90bd4fbdc4251","A3","batch1","pattern_practice","1222","stim/prac_no_18_1.png","j","","j","true","","","","","","","","","","","","","","","","","","","","","","",""
"","","","","","html-keyboard-response","139","511286","0.0-3.0-3.0-1.2","60d5aea939b90bd4fbdc4251","A3","batch1","pattern_feedback","null","<p style=""font-size:30px;color:green;"">Correct!</p>","null","","","","","","","","","","","","","","","","","","","","","","","","","",""
"","","","","","image-keyboard-response","140","511949","0.0-3.0-3.0-0.3","60d5aea939b90bd4fbdc4251","A3","batch1","pattern_practice","661.5","stim/prac_yes_18_hor_w1.png","f","","f","true","","","","","","","","","","","","","","","","","","","","","","",""
"","","","","","html-keyboard-response","141","512971","0.0-3.0-3.0-1.3","60d5aea939b90bd4fbdc4251","A3","batch1","pattern_feedback","null","<p style=""font-size:30px;color:green;"">Correct!</p>","null","","","","","","","","","","","","","","","","","","","","","","","","","",""
"","","","","","image-keyboard-response","142","513710","0.0-3.0-3.0-0.4","60d5aea939b90bd4fbdc4251","A3","batch1","pattern_practice","736.7999999970198","stim/prac_yes_20_dia_b1.png","f","","f","true","","","","","","","","","","","","","","","","","","","","","","",""
"","","","","","html-keyboard-response","143","514712","0.0-3.0-3.0-1.4","60d5aea939b90bd4fbdc4251","A3","batch1","pattern_feedback","null","<p style=""font-size:30px;color:green;"">Correct!</p>","null","","","","","","","","","","","","","","","","","","","","","","","","","",""
"","","","","","html-button-response","144","518375","0.0-3.0-4.0","60d5aea939b90bd4fbdc4251","A3","batch1","pattern_enter_official_trials","3661.3999999910593","<p class=block-text> Good job! You are done with practice trials!<br>
        You responded correctly on 100% of the trials.<br>
        Press the button below to start official trials. Now you won't see any feedback about your response</p>","0","","","","","","","","","","","","","","","","","","","","","","","","","",""
"","","","","","html-keyboard-response","145","519191","0.0-3.0-5.0-0.0","60d5aea939b90bd4fbdc4251","A3","batch1","pattern_show_trial_num","null","<p class=block-text>Trial 1 out of 78</p>","null","","","","","","","","","","","","","","","","","","","","","","","","","",""
"","","","","","image-keyboard-response","146","521247","0.0-3.0-5.0-1.0","60d5aea939b90bd4fbdc4251","A3","batch1","pattern_response","2055","stim/no_30_1_b.png","j","pattern_13","j","true","","","","2055","true","1","","","","","","","","","","","","","","","","",""
"","","","","","html-keyboard-response","147","522560","0.0-3.0-5.0-0.1","60d5aea939b90bd4fbdc4251","A3","batch1","pattern_show_trial_num","null","<p class=block-text>Trial 2 out of 78</p>","null","","","","","","","","","","","","","","","","","","","","","","","","","",""
"","","","","","image-keyboard-response","148","526944","0.0-3.0-5.0-1.1","60d5aea939b90bd4fbdc4251","A3","batch1","pattern_response","4382.79999999702","stim/yes_63_dia_b1.png","j","pattern_78","f","false","","","","4382.79999999702","false","1","","","","","","","","","","","","","","","","",""
"","","","","","html-keyboard-response","149","528260","0.0-3.0-5.0-0.2","60d5aea939b90bd4fbdc4251","A3","batch1","pattern_show_trial_num","null","<p class=block-text>Trial 3 out of 78</p>","null","","","","","","","","","","","","","","","","","","","","","","","","","",""
"","","","","","image-keyboard-response","150","530349","0.0-3.0-5.0-1.2","60d5aea939b90bd4fbdc4251","A3","batch1","pattern_response","2088.5","stim/no_36_1_b.png","j","pattern_17","j","true","","","","2088.5","true","2","","","","","","","","","","","","","","","","",""
"","","","","","html-keyboard-response","151","531669","0.0-3.0-5.0-0.3","60d5aea939b90bd4fbdc4251","A3","batch1","pattern_show_trial_num","null","<p class=block-text>Trial 4 out of 78</p>","null","","","","","","","","","","","","","","","","","","","","","","","","","",""
"","","","","","image-keyboard-response","152","533700","0.0-3.0-5.0-1.3","60d5aea939b90bd4fbdc4251","A3","batch1","pattern_response","2029.7000000029802","stim/no_28_2.png","j","pattern_11","j","true","","","","2029.7000000029802","true","3","","","","","","","","","","","","","","","","",""
"","","","","","html-keyboard-response","153","535020","0.0-3.0-5.0-0.4","60d5aea939b90bd4fbdc4251","A3","batch1","pattern_show_trial_num","null","<p class=block-text>Trial 5 out of 78</p>","null","","","","","","","","","","","","","","","","","","","","","","","","","",""
"","","","","","image-keyboard-response","154","536169","0.0-3.0-5.0-1.4","60d5aea939b90bd4fbdc4251","A3","batch1","pattern_response","1147.5","stim/yes_30_ver_b1_b.png","f","pattern_54","f","true","","","","1147.5","true","4","","","","","","","","","","","","","","","","",""
"","","","","","html-keyboard-response","155","537486","0.0-3.0-5.0-0.5","60d5aea939b90bd4fbdc4251","A3","batch1","pattern_show_trial_num","null","<p class=block-text>Trial 6 out of 78</p>","null","","","","","","","","","","","","","","","","","","","","","","","","","",""
"","","","","","image-keyboard-response","156","538287","0.0-3.0-5.0-1.5","60d5aea939b90bd4fbdc4251","A3","batch1","pattern_response","800.2000000029802","stim/yes_26_dia_w2_w.png","f","pattern_50","f","true","","","","800.2000000029802","true","5","","","","","","","","","","","","","","","","",""
"","","","","","html-keyboard-response","157","539601","0.0-3.0-5.0-0.6","60d5aea939b90bd4fbdc4251","A3","batch1","pattern_show_trial_num","null","<p class=block-text>Trial 7 out of 78</p>","null","","","","","","","","","","","","","","","","","","","","","","","","","",""
"","","","","","image-keyboard-response","158","541087","0.0-3.0-5.0-1.6","60d5aea939b90bd4fbdc4251","A3","batch1","pattern_response","1485","stim/yes_46_ver_b1_b.png","f","pattern_68","f","true","","","","1485","true","6","","","","","","","","","","","","","","","","",""
"","","","","","html-keyboard-response","159","542400","0.0-3.0-5.0-0.7","60d5aea939b90bd4fbdc4251","A3","batch1","pattern_show_trial_num","null","<p class=block-text>Trial 8 out of 78</p>","null","","","","","","","","","","","","","","","","","","","","","","","","","",""
"","","","","","image-keyboard-response","160","543731","0.0-3.0-5.0-1.7","60d5aea939b90bd4fbdc4251","A3","batch1","pattern_response","1329.8999999910593","stim/no_22_1_b.png","j","pattern_07","j","true","","","","1329.8999999910593","true","7","","","","","","","","","","","","","","","","",""
"","","","","","html-keyboard-response","161","545059","0.0-3.0-5.0-0.8","60d5aea939b90bd4fbdc4251","A3","batch1","pattern_show_trial_num","null","<p class=block-text>Trial 9 out of 78</p>","null","","","","","","","","","","","","","","","","","","","","","","","","","",""
"","","","","","image-keyboard-response","162","547097","0.0-3.0-5.0-1.8","60d5aea939b90bd4fbdc4251","A3","batch1","pattern_response","2036.7000000029802","stim/no_33_1_b.png","j","pattern_15","j","true","","","","2036.7000000029802","true","8","","","","","","","","","","","","","","","","",""
"","","","","","html-keyboard-response","163","548404","0.0-3.0-5.0-0.9","60d5aea939b90bd4fbdc4251","A3","batch1","pattern_show_trial_num","null","<p class=block-text>Trial 10 out of 78</p>","null","","","","","","","","","","","","","","","","","","","","","","","","","",""
"","","","","","image-keyboard-response","164","549255","0.0-3.0-5.0-1.9","60d5aea939b90bd4fbdc4251","A3","batch1","pattern_response","851","stim/yes_70_ver_b1.png","f","pattern_80","f","true","","","","851","true","9","","","","","","","","","","","","","","","","",""
"","","","","","html-keyboard-response","165","550558","0.0-3.0-5.0-0.10","60d5aea939b90bd4fbdc4251","A3","batch1","pattern_show_trial_num","null","<p class=block-text>Trial 11 out of 78</p>","null","","","","","","","","","","","","","","","","","","","","","","","","","",""
"","","","","","image-keyboard-response","166","554075","0.0-3.0-5.0-1.10","60d5aea939b90bd4fbdc4251","A3","batch1","pattern_response","3515.2000000029802","stim/no_37_2_w.png","j","pattern_19","j","true","","","","3515.2000000029802","true","10","","","","","","","","","","","","","","","","",""
"","","","","","html-keyboard-response","167","555384","0.0-3.0-5.0-0.11","60d5aea939b90bd4fbdc4251","A3","batch1","pattern_show_trial_num","null","<p class=block-text>Trial 12 out of 78</p>","null","","","","","","","","","","","","","","","","","","","","","","","","","",""
"","","","","","image-keyboard-response","168","556400","0.0-3.0-5.0-1.11","60d5aea939b90bd4fbdc4251","A3","batch1","pattern_response","1014.7999999970198","stim/yes_53_ver_b1_b.png","f","pattern_74","f","true","","","","1014.7999999970198","true","11","","","","","","","","","","","","","","","","",""
"","","","","","html-keyboard-response","169","557710","0.0-3.0-5.0-0.12","60d5aea939b90bd4fbdc4251","A3","batch1","pattern_show_trial_num","null","<p class=block-text>Trial 13 out of 78</p>","null","","","","","","","","","","","","","","","","","","","","","","","","","",""
"","","","","","image-keyboard-response","170","559767","0.0-3.0-5.0-1.12","60d5aea939b90bd4fbdc4251","A3","batch1","pattern_response","2056.7000000029802","stim/yes_58_dia_w1_w.png","j","pattern_76","f","false","","","","2056.7000000029802","false","11","","","","","","","","","","","","","","","","",""
"","","","","","html-keyboard-response","171","561079","0.0-3.0-5.0-0.13","60d5aea939b90bd4fbdc4251","A3","batch1","pattern_show_trial_num","null","<p class=block-text>Trial 14 out of 78</p>","null","","","","","","","","","","","","","","","","","","","","","","","","","",""
"","","","","","image-keyboard-response","172","564398","0.0-3.0-5.0-1.13","60d5aea939b90bd4fbdc4251","A3","batch1","pattern_response","3317.8999999910593","stim/no_53_1_b.png","j","pattern_33","j","true","","","","3317.8999999910593","true","12","","","","","","","","","","","","","","","","",""
"","","","","","html-keyboard-response","173","565713","0.0-3.0-5.0-0.14","60d5aea939b90bd4fbdc4251","A3","batch1","pattern_show_trial_num","null","<p class=block-text>Trial 15 out of 78</p>","null","","","","","","","","","","","","","","","","","","","","","","","","","",""
"","","","","","image-keyboard-response","174","567227","0.0-3.0-5.0-1.14","60d5aea939b90bd4fbdc4251","A3","batch1","pattern_response","1513.300000011921","stim/no_39_1_w.png","j","pattern_21","j","true","","","","1513.300000011921","true","13","","","","","","","","","","","","","","","","",""
"","","","","","html-keyboard-response","175","568529","0.0-3.0-5.0-0.15","60d5aea939b90bd4fbdc4251","A3","batch1","pattern_show_trial_num","null","<p class=block-text>Trial 16 out of 78</p>","null","","","","","","","","","","","","","","","","","","","","","","","","","",""
"","","","","","image-keyboard-response","176","569384","0.0-3.0-5.0-1.15","60d5aea939b90bd4fbdc4251","A3","batch1","pattern_response","853.4000000059605","stim/yes_33_dia_w1_w.png","f","pattern_56","f","true","","","","853.4000000059605","true","14","","","","","","","","","","","","","","","","",""
"","","","","","html-keyboard-response","177","570687","0.0-3.0-5.0-0.16","60d5aea939b90bd4fbdc4251","A3","batch1","pattern_show_trial_num","null","<p class=block-text>Trial 17 out of 78</p>","null","","","","","","","","","","","","","","","","","","","","","","","","","",""
"","","","","","image-keyboard-response","178","571453","0.0-3.0-5.0-1.16","60d5aea939b90bd4fbdc4251","A3","batch1","pattern_response","764.2000000029802","stim/yes_51_dia_b1.png","f","pattern_72","f","true","","","","764.2000000029802","true","15","","","","","","","","","","","","","","","","",""
"","","","","","html-keyboard-response","179","572760","0.0-3.0-5.0-0.17","60d5aea939b90bd4fbdc4251","A3","batch1","pattern_show_trial_num","null","<p class=block-text>Trial 18 out of 78</p>","null","","","","","","","","","","","","","","","","","","","","","","","","","",""
"","","","","","image-keyboard-response","180","573355","0.0-3.0-5.0-1.17","60d5aea939b90bd4fbdc4251","A3","batch1","pattern_response","594.2000000029802","stim/yes_17_ver_b1_b.png","f","pattern_46","f","true","","","","594.2000000029802","true","16","","","","","","","","","","","","","","","","",""
"","","","","","html-keyboard-response","181","574671","0.0-3.0-5.0-0.18","60d5aea939b90bd4fbdc4251","A3","batch1","pattern_show_trial_num","null","<p class=block-text>Trial 19 out of 78</p>","null","","","","","","","","","","","","","","","","","","","","","","","","","",""
"","","","","","image-keyboard-response","182","575882","0.0-3.0-5.0-1.18","60d5aea939b90bd4fbdc4251","A3","batch1","pattern_response","1210.2000000029802","stim/no_45_1_w.png","j","pattern_25","j","true","","","","1210.2000000029802","true","17","","","","","","","","","","","","","","","","",""
"","","","","","html-keyboard-response","183","577206","0.0-3.0-5.0-0.19","60d5aea939b90bd4fbdc4251","A3","batch1","pattern_show_trial_num","null","<p class=block-text>Trial 20 out of 78</p>","null","","","","","","","","","","","","","","","","","","","","","","","","","",""
"","","","","","image-keyboard-response","184","578532","0.0-3.0-5.0-1.19","60d5aea939b90bd4fbdc4251","A3","batch1","pattern_response","1324.7999999970198","stim/no_49_2_b.png","j","pattern_29","j","true","","","","1324.7999999970198","true","18","","","","","","","","","","","","","","","","",""
"","","","","","html-keyboard-response","185","579860","0.0-3.0-5.0-0.20","60d5aea939b90bd4fbdc4251","A3","batch1","pattern_show_trial_num","null","<p class=block-text>Trial 21 out of 78</p>","null","","","","","","","","","","","","","","","","","","","","","","","","","",""
"","","","","","image-keyboard-response","186","581240","0.0-3.0-5.0-1.20","60d5aea939b90bd4fbdc4251","A3","batch1","pattern_response","1379.0999999940395","stim/no_58_1_w.png","j","pattern_35","j","true","","","","1379.0999999940395","true","19","","","","","","","","","","","","","","","","",""
"","","","","","html-keyboard-response","187","582547","0.0-3.0-5.0-0.21","60d5aea939b90bd4fbdc4251","A3","batch1","pattern_show_trial_num","null","<p class=block-text>Trial 22 out of 78</p>","null","","","","","","","","","","","","","","","","","","","","","","","","","",""
"","","","","","image-keyboard-response","188","583108","0.0-3.0-5.0-1.21","60d5aea939b90bd4fbdc4251","A3","batch1","pattern_response","559.6000000089407","stim/yes_12_hor_w1_w.png","f","pattern_42","f","true","","","","559.6000000089407","true","20","","","","","","","","","","","","","","","","",""
"","","","","","html-keyboard-response","189","584424","0.0-3.0-5.0-0.22","60d5aea939b90bd4fbdc4251","A3","batch1","pattern_show_trial_num","null","<p class=block-text>Trial 23 out of 78</p>","null","","","","","","","","","","","","","","","","","","","","","","","","","",""
"","","","","","image-keyboard-response","190","585875","0.0-3.0-5.0-1.22","60d5aea939b90bd4fbdc4251","A3","batch1","pattern_response","1451","stim/no_47_1_b.png","j","pattern_27","j","true","","","","1451","true","21","","","","","","","","","","","","","","","","",""
"","","","","","html-keyboard-response","191","587200","0.0-3.0-5.0-0.23","60d5aea939b90bd4fbdc4251","A3","batch1","pattern_show_trial_num","null","<p class=block-text>Trial 24 out of 78</p>","null","","","","","","","","","","","","","","","","","","","","","","","","","",""
"","","","","","image-keyboard-response","192","587997","0.0-3.0-5.0-1.23","60d5aea939b90bd4fbdc4251","A3","batch1","pattern_response","790.5","stim/no_12_1.png","j","pattern_01","j","true","","","","790.5","true","22","","","","","","","","","","","","","","","","",""
"","","","","","html-keyboard-response","193","589319","0.0-3.0-5.0-0.24","60d5aea939b90bd4fbdc4251","A3","batch1","pattern_show_trial_num","null","<p class=block-text>Trial 25 out of 78</p>","null","","","","","","","","","","","","","","","","","","","","","","","","","",""
"","","","","","image-keyboard-response","194","592243","0.0-3.0-5.0-1.24","60d5aea939b90bd4fbdc4251","A3","batch1","pattern_response","2922.7000000029802","stim/no_51_1.png","j","pattern_31","j","true","","","","2922.7000000029802","true","23","","","","","","","","","","","","","","","","",""
"","","","","","html-keyboard-response","195","593563","0.0-3.0-5.0-0.25","60d5aea939b90bd4fbdc4251","A3","batch1","pattern_show_trial_num","null","<p class=block-text>Trial 26 out of 78</p>","null","","","","","","","","","","","","","","","","","","","","","","","","","",""
"","","","","","image-keyboard-response","196","594151","0.0-3.0-5.0-1.25","60d5aea939b90bd4fbdc4251","A3","batch1","pattern_response","586.7999999970198","stim/yes_36_ver_w1_w.png","f","pattern_58","f","true","","","","586.7999999970198","true","24","","","","","","","","","","","","","","","","",""
"","","","","","html-keyboard-response","197","595465","0.0-3.0-5.0-0.26","60d5aea939b90bd4fbdc4251","A3","batch1","pattern_show_trial_num","null","<p class=block-text>Trial 27 out of 78</p>","null","","","","","","","","","","","","","","","","","","","","","","","","","",""
"","","","","","image-keyboard-response","198","596733","0.0-3.0-5.0-1.26","60d5aea939b90bd4fbdc4251","A3","batch1","pattern_response","1267.7000000029802","stim/yes_44_ver_w1_w.png","j","pattern_66","f","false","","","","1267.7000000029802","false","24","","","","","","","","","","","","","","","","",""
"","","","","","html-keyboard-response","199","598048","0.0-3.0-5.0-0.27","60d5aea939b90bd4fbdc4251","A3","batch1","pattern_show_trial_num","null","<p class=block-text>Trial 28 out of 78</p>","null","","","","","","","","","","","","","","","","","","","","","","","","","",""
"","","","","","image-keyboard-response","200","600332","0.0-3.0-5.0-1.27","60d5aea939b90bd4fbdc4251","A3","batch1","pattern_response","2282.5","stim/no_67_1.png","j","pattern_39","j","true","","","","2282.5","true","25","","","","","","","","","","","","","","","","",""
"","","","","","html-keyboard-response","201","601653","0.0-3.0-5.0-0.28","60d5aea939b90bd4fbdc4251","A3","batch1","pattern_show_trial_num","null","<p class=block-text>Trial 29 out of 78</p>","null","","","","","","","","","","","","","","","","","","","","","","","","","",""
"","","","","","image-keyboard-response","202","602515","0.0-3.0-5.0-1.28","60d5aea939b90bd4fbdc4251","A3","batch1","pattern_response","860.4000000059605","stim/no_15_1_w.png","j","pattern_03","j","true","","","","860.4000000059605","true","26","","","","","","","","","","","","","","","","",""
"","","","","","html-keyboard-response","203","603833","0.0-3.0-5.0-0.29","60d5aea939b90bd4fbdc4251","A3","batch1","pattern_show_trial_num","null","<p class=block-text>Trial 30 out of 78</p>","null","","","","","","","","","","","","","","","","","","","","","","","","","",""
"","","","","","image-keyboard-response","204","604515","0.0-3.0-5.0-1.29","60d5aea939b90bd4fbdc4251","A3","batch1","pattern_response","681.3000000119209","stim/yes_29_hor_b1_b.png","f","pattern_52","f","true","","","","681.3000000119209","true","27","","","","","","","","","","","","","","","","",""
"","","","","","html-keyboard-response","205","605828","0.0-3.0-5.0-0.30","60d5aea939b90bd4fbdc4251","A3","batch1","pattern_show_trial_num","null","<p class=block-text>Trial 31 out of 78</p>","null","","","","","","","","","","","","","","","","","","","","","","","","","",""
"","","","","","image-keyboard-response","206","606479","0.0-3.0-5.0-1.30","60d5aea939b90bd4fbdc4251","A3","batch1","pattern_response","649","stim/yes_39_hor_w1_w.png","f","pattern_62","f","true","","","","649","true","28","","","","","","","","","","","","","","","","",""
"","","","","","html-keyboard-response","207","607795","0.0-3.0-5.0-0.31","60d5aea939b90bd4fbdc4251","A3","batch1","pattern_show_trial_num","null","<p class=block-text>Trial 32 out of 78</p>","null","","","","","","","","","","","","","","","","","","","","","","","","","",""
"","","","","","image-keyboard-response","208","609156","0.0-3.0-5.0-1.31","60d5aea939b90bd4fbdc4251","A3","batch1","pattern_response","1360.2999999970198","stim/no_43_2_b.png","j","pattern_23","j","true","","","","1360.2999999970198","true","29","","","","","","","","","","","","","","","","",""
"","","","","","html-keyboard-response","209","610465","0.0-3.0-5.0-0.32","60d5aea939b90bd4fbdc4251","A3","batch1","pattern_show_trial_num","null","<p class=block-text>Trial 33 out of 78</p>","null","","","","","","","","","","","","","","","","","","","","","","","","","",""
"","","","","","image-keyboard-response","210","611295","0.0-3.0-5.0-1.32","60d5aea939b90bd4fbdc4251","A3","batch1","pattern_response","829.1999999880791","stim/no_18_1_b.png","j","pattern_05","j","true","","","","829.1999999880791","true","30","","","","","","","","","","","","","","","","",""
"","","","","","html-keyboard-response","211","612611","0.0-3.0-5.0-0.33","60d5aea939b90bd4fbdc4251","A3","batch1","pattern_show_trial_num","null","<p class=block-text>Trial 34 out of 78</p>","null","","","","","","","","","","","","","","","","","","","","","","","","","",""
"","","","","","image-keyboard-response","212","613386","0.0-3.0-5.0-1.33","60d5aea939b90bd4fbdc4251","A3","batch1","pattern_response","774.4000000059605","stim/no_25_1_b.png","j","pattern_09","j","true","","","","774.4000000059605","true","31","","","","","","","","","","","","","","","","",""
"","","","","","html-keyboard-response","213","614702","0.0-3.0-5.0-0.34","60d5aea939b90bd4fbdc4251","A3","batch1","pattern_show_trial_num","null","<p class=block-text>Trial 35 out of 78</p>","null","","","","","","","","","","","","","","","","","","","","","","","","","",""
"","","","","","image-keyboard-response","214","616295","0.0-3.0-5.0-1.34","60d5aea939b90bd4fbdc4251","A3","batch1","pattern_response","1592.4000000059605","stim/yes_42_dia_w1_w.png","f","pattern_64","f","true","","","","1592.4000000059605","true","32","","","","","","","","","","","","","","","","",""
"","","","","","html-keyboard-response","215","617619","0.0-3.0-5.0-0.35","60d5aea939b90bd4fbdc4251","A3","batch1","pattern_show_trial_num","null","<p class=block-text>Trial 36 out of 78</p>","null","","","","","","","","","","","","","","","","","","","","","","","","","",""
"","","","","","image-keyboard-response","216","618433","0.0-3.0-5.0-1.35","60d5aea939b90bd4fbdc4251","A3","batch1","pattern_response","813.2000000029802","stim/yes_37_hor_w1_w.png","f","pattern_60","f","true","","","","813.2000000029802","true","33","","","","","","","","","","","","","","","","",""
"","","","","","html-keyboard-response","217","619755","0.0-3.0-5.0-0.36","60d5aea939b90bd4fbdc4251","A3","batch1","pattern_show_trial_num","null","<p class=block-text>Trial 37 out of 78</p>","null","","","","","","","","","","","","","","","","","","","","","","","","","",""
"","","","","","image-keyboard-response","218","620532","0.0-3.0-5.0-1.36","60d5aea939b90bd4fbdc4251","A3","batch1","pattern_response","776.5","stim/yes_49_hor_w1_b.png","f","pattern_70","f","true","","","","776.5","true","34","","","","","","","","","","","","","","","","",""
"","","","","","html-keyboard-response","219","621850","0.0-3.0-5.0-0.37","60d5aea939b90bd4fbdc4251","A3","batch1","pattern_show_trial_num","null","<p class=block-text>Trial 38 out of 78</p>","null","","","","","","","","","","","","","","","","","","","","","","","","","",""
"","","","","","image-keyboard-response","220","622704","0.0-3.0-5.0-1.37","60d5aea939b90bd4fbdc4251","A3","batch1","pattern_response","852.9000000059605","stim/yes_23_ver_b1.png","f","pattern_48","f","true","","","","852.9000000059605","true","35","","","","","","","","","","","","","","","","",""
"","","","","","html-keyboard-response","221","624011","0.0-3.0-5.0-0.38","60d5aea939b90bd4fbdc4251","A3","batch1","pattern_show_trial_num","null","<p class=block-text>Trial 39 out of 78</p>","null","","","","","","","","","","","","","","","","","","","","","","","","","",""
"","","","","","image-keyboard-response","222","624724","0.0-3.0-5.0-1.38","60d5aea939b90bd4fbdc4251","A3","batch1","pattern_response","712.0999999940395","stim/yes_15_dia_b1u_b.png","f","pattern_44","f","true","","","","712.0999999940395","true","36","","","","","","","","","","","","","","","","",""
"","","","","","image-keyboard-response","223","626347","0.0-3.0-6.0","60d5aea939b90bd4fbdc4251","A3","batch1","attention_check","1112.7000000029802","stim/empty_board.png","j","","j","true","","","","","","","500","[""f"",""j""]","","","","","","","","","","","","","","",""
"","","","","","html-keyboard-response","224","627152","0.0-3.0-7.0-0.0","60d5aea939b90bd4fbdc4251","A3","batch1","pattern_show_trial_num","null","<p class=block-text>Trial 40 out of 78</p>","null","","","","","","","","","","","","","","","","","","","","","","","","","",""
"","","","","","image-keyboard-response","225","628818","0.0-3.0-7.0-1.0","60d5aea939b90bd4fbdc4251","A3","batch1","pattern_response","1665.1000000089407","stim/no_50_1.png","j","pattern_30","j","true","","","","1665.1000000089407","true","37","","","","","","","","","","","","","","","","",""
"","","","","","html-keyboard-response","226","630123","0.0-3.0-7.0-0.1","60d5aea939b90bd4fbdc4251","A3","batch1","pattern_show_trial_num","null","<p class=block-text>Trial 41 out of 78</p>","null","","","","","","","","","","","","","","","","","","","","","","","","","",""
"","","","","","image-keyboard-response","227","631031","0.0-3.0-7.0-1.1","60d5aea939b90bd4fbdc4251","A3","batch1","pattern_response","906.3999999910593","stim/yes_29_ver_w1.png","f","pattern_53","f","true","","","","906.3999999910593","true","38","","","","","","","","","","","","","","","","",""
"","","","","","html-keyboard-response","228","632348","0.0-3.0-7.0-0.2","60d5aea939b90bd4fbdc4251","A3","batch1","pattern_show_trial_num","null","<p class=block-text>Trial 42 out of 78</p>","null","","","","","","","","","","","","","","","","","","","","","","","","","",""
"","","","","","image-keyboard-response","229","634559","0.0-3.0-7.0-1.2","60d5aea939b90bd4fbdc4251","A3","batch1","pattern_response","2209.8999999910593","stim/no_44_1.png","j","pattern_24","j","true","","","","2209.8999999910593","true","39","","","","","","","","","","","","","","","","",""
"","","","","","html-keyboard-response","230","635885","0.0-3.0-7.0-0.3","60d5aea939b90bd4fbdc4251","A3","batch1","pattern_show_trial_num","null","<p class=block-text>Trial 43 out of 78</p>","null","","","","","","","","","","","","","","","","","","","","","","","","","",""
"","","","","","image-keyboard-response","231","636978","0.0-3.0-7.0-1.3","60d5aea939b90bd4fbdc4251","A3","batch1","pattern_response","1092.5","stim/yes_31_hor_b1.png","f","pattern_55","f","true","","","","1092.5","true","40","","","","","","","","","","","","","","","","",""
"","","","","","html-keyboard-response","232","638281","0.0-3.0-7.0-0.4","60d5aea939b90bd4fbdc4251","A3","batch1","pattern_show_trial_num","null","<p class=block-text>Trial 44 out of 78</p>","null","","","","","","","","","","","","","","","","","","","","","","","","","",""
"","","","","","image-keyboard-response","233","639053","0.0-3.0-7.0-1.4","60d5aea939b90bd4fbdc4251","A3","batch1","pattern_response","771.2000000029802","stim/no_17_1_w.png","j","pattern_04","j","true","","","","771.2000000029802","true","41","","","","","","","","","","","","","","","","",""
"","","","","","html-keyboard-response","234","640363","0.0-3.0-7.0-0.5","60d5aea939b90bd4fbdc4251","A3","batch1","pattern_show_trial_num","null","<p class=block-text>Trial 45 out of 78</p>","null","","","","","","","","","","","","","","","","","","","","","","","","","",""
"","","","","","image-keyboard-response","235","641742","0.0-3.0-7.0-1.5","60d5aea939b90bd4fbdc4251","A3","batch1","pattern_response","1377.7000000029802","stim/no_46_1_b.png","j","pattern_26","j","true","","","","1377.7000000029802","true","42","","","","","","","","","","","","","","","","",""
"","","","","","html-keyboard-response","236","643058","0.0-3.0-7.0-0.6","60d5aea939b90bd4fbdc4251","A3","batch1","pattern_show_trial_num","null","<p class=block-text>Trial 46 out of 78</p>","null","","","","","","","","","","","","","","","","","","","","","","","","","",""
"","","","","","image-keyboard-response","237","644588","0.0-3.0-7.0-1.6","60d5aea939b90bd4fbdc4251","A3","batch1","pattern_response","1528.9000000059605","stim/no_62_1_w.png","j","pattern_36","j","true","","","","1528.9000000059605","true","43","","","","","","","","","","","","","","","","",""
"","","","","","html-keyboard-response","238","645898","0.0-3.0-7.0-0.7","60d5aea939b90bd4fbdc4251","A3","batch1","pattern_show_trial_num","null","<p class=block-text>Trial 47 out of 78</p>","null","","","","","","","","","","","","","","","","","","","","","","","","","",""
"","","","","","image-keyboard-response","239","646735","0.0-3.0-7.0-1.7","60d5aea939b90bd4fbdc4251","A3","batch1","pattern_response","835.5999999940395","stim/yes_45_hor_b2_b.png","f","pattern_67","f","true","","","","835.5999999940395","true","44","","","","","","","","","","","","","","","","",""
"","","","","","html-keyboard-response","240","648051","0.0-3.0-7.0-0.8","60d5aea939b90bd4fbdc4251","A3","batch1","pattern_show_trial_num","null","<p class=block-text>Trial 48 out of 78</p>","null","","","","","","","","","","","","","","","","","","","","","","","","","",""
"","","","","","image-keyboard-response","241","648795","0.0-3.0-7.0-1.8","60d5aea939b90bd4fbdc4251","A3","batch1","pattern_response","743.2999999970198","stim/yes_28_ver_b1.png","f","pattern_51","f","true","","","","743.2999999970198","true","45","","","","","","","","","","","","","","","","",""
"","","","","","html-keyboard-response","242","650126","0.0-3.0-7.0-0.9","60d5aea939b90bd4fbdc4251","A3","batch1","pattern_show_trial_num","null","<p class=block-text>Trial 49 out of 78</p>","null","","","","","","","","","","","","","","","","","","","","","","","","","",""
"","","","","","image-keyboard-response","243","651155","0.0-3.0-7.0-1.9","60d5aea939b90bd4fbdc4251","A3","batch1","pattern_response","1027.5","stim/no_52_1.png","j","pattern_32","j","true","","","","1027.5","true","46","","","","","","","","","","","","","","","","",""
"","","","","","html-keyboard-response","244","652464","0.0-3.0-7.0-0.10","60d5aea939b90bd4fbdc4251","A3","batch1","pattern_show_trial_num","null","<p class=block-text>Trial 50 out of 78</p>","null","","","","","","","","","","","","","","","","","","","","","","","","","",""
"","","","","","image-keyboard-response","245","653029","0.0-3.0-7.0-1.10","60d5aea939b90bd4fbdc4251","A3","batch1","pattern_response","563.4000000059605","stim/yes_22_ver_w1.png","f","pattern_47","f","true","","","","563.4000000059605","true","47","","","","","","","","","","","","","","","","",""
"","","","","","html-keyboard-response","246","654347","0.0-3.0-7.0-0.11","60d5aea939b90bd4fbdc4251","A3","batch1","pattern_show_trial_num","null","<p class=block-text>Trial 51 out of 78</p>","null","","","","","","","","","","","","","","","","","","","","","","","","","",""
"","","","","","image-keyboard-response","247","655327","0.0-3.0-7.0-1.11","60d5aea939b90bd4fbdc4251","A3","batch1","pattern_response","978.7999999970198","stim/no_42_1_w.png","j","pattern_22","j","true","","","","978.7999999970198","true","48","","","","","","","","","","","","","","","","",""
"","","","","","html-keyboard-response","248","656653","0.0-3.0-7.0-0.12","60d5aea939b90bd4fbdc4251","A3","batch1","pattern_show_trial_num","null","<p class=block-text>Trial 52 out of 78</p>","null","","","","","","","","","","","","","","","","","","","","","","","","","",""
"","","","","","image-keyboard-response","249","658435","0.0-3.0-7.0-1.12","60d5aea939b90bd4fbdc4251","A3","batch1","pattern_response","1781","stim/yes_48_dia_w1_w.png","j","pattern_69","f","false","","","","1781","false","48","","","","","","","","","","","","","","","","",""
"","","","","","html-keyboard-response","250","659761","0.0-3.0-7.0-0.13","60d5aea939b90bd4fbdc4251","A3","batch1","pattern_show_trial_num","null","<p class=block-text>Trial 53 out of 78</p>","null","","","","","","","","","","","","","","","","","","","","","","","","","",""
"","","","","","image-keyboard-response","251","660934","0.0-3.0-7.0-1.13","60d5aea939b90bd4fbdc4251","A3","batch1","pattern_response","1171.5","stim/no_32_1_w.png","j","pattern_14","j","true","","","","1171.5","true","49","","","","","","","","","","","","","","","","",""
"","","","","","html-keyboard-response","252","662248","0.0-3.0-7.0-0.14","60d5aea939b90bd4fbdc4251","A3","batch1","pattern_show_trial_num","null","<p class=block-text>Trial 54 out of 78</p>","null","","","","","","","","","","","","","","","","","","","","","","","","","",""
"","","","","","image-keyboard-response","253","663076","0.0-3.0-7.0-1.14","60d5aea939b90bd4fbdc4251","A3","batch1","pattern_response","827.5","stim/no_26_1_w.png","j","pattern_10","j","true","","","","827.5","true","50","","","","","","","","","","","","","","","","",""
"","","","","","html-keyboard-response","254","664379","0.0-3.0-7.0-0.15","60d5aea939b90bd4fbdc4251","A3","batch1","pattern_show_trial_num","null","<p class=block-text>Trial 55 out of 78</p>","null","","","","","","","","","","","","","","","","","","","","","","","","","",""
"","","","","","image-keyboard-response","255","665401","0.0-3.0-7.0-1.15","60d5aea939b90bd4fbdc4251","A3","batch1","pattern_response","1021","stim/no_34_1_b.png","j","pattern_16","j","true","","","","1021","true","51","","","","","","","","","","","","","","","","",""
"","","","","","html-keyboard-response","256","666709","0.0-3.0-7.0-0.16","60d5aea939b90bd4fbdc4251","A3","batch1","pattern_show_trial_num","null","<p class=block-text>Trial 56 out of 78</p>","null","","","","","","","","","","","","","","","","","","","","","","","","","",""
"","","","","","image-keyboard-response","257","668648","0.0-3.0-7.0-1.16","60d5aea939b90bd4fbdc4251","A3","batch1","pattern_response","1937.699999988079","stim/no_70_2.png","j","pattern_40","j","true","","","","1937.699999988079","true","52","","","","","","","","","","","","","","","","",""
"","","","","","html-keyboard-response","258","669966","0.0-3.0-7.0-0.17","60d5aea939b90bd4fbdc4251","A3","batch1","pattern_show_trial_num","null","<p class=block-text>Trial 57 out of 78</p>","null","","","","","","","","","","","","","","","","","","","","","","","","","",""
"","","","","","image-keyboard-response","259","670954","0.0-3.0-7.0-1.17","60d5aea939b90bd4fbdc4251","A3","batch1","pattern_response","987","stim/no_29_1_b.png","j","pattern_12","j","true","","","","987","true","53","","","","","","","","","","","","","","","","",""
"","","","","","html-keyboard-response","260","672265","0.0-3.0-7.0-0.18","60d5aea939b90bd4fbdc4251","A3","batch1","pattern_show_trial_num","null","<p class=block-text>Trial 58 out of 78</p>","null","","","","","","","","","","","","","","","","","","","","","","","","","",""
"","","","","","image-keyboard-response","261","672862","0.0-3.0-7.0-1.18","60d5aea939b90bd4fbdc4251","A3","batch1","pattern_response","596","stim/yes_17_dia_w1.png","f","pattern_45","f","true","","","","596","true","54","","","","","","","","","","","","","","","","",""
"","","","","","html-keyboard-response","262","674180","0.0-3.0-7.0-0.19","60d5aea939b90bd4fbdc4251","A3","batch1","pattern_show_trial_num","null","<p class=block-text>Trial 59 out of 78</p>","null","","","","","","","","","","","","","","","","","","","","","","","","","",""
"","","","","","image-keyboard-response","263","675091","0.0-3.0-7.0-1.19","60d5aea939b90bd4fbdc4251","A3","batch1","pattern_response","910.2000000029802","stim/yes_52_ver_w1.png","f","pattern_73","f","true","","","","910.2000000029802","true","55","","","","","","","","","","","","","","","","",""
"","","","","","html-keyboard-response","264","676401","0.0-3.0-7.0-0.20","60d5aea939b90bd4fbdc4251","A3","batch1","pattern_show_trial_num","null","<p class=block-text>Trial 60 out of 78</p>","null","","","","","","","","","","","","","","","","","","","","","","","","","",""
"","","","","","image-keyboard-response","265","677157","0.0-3.0-7.0-1.20","60d5aea939b90bd4fbdc4251","A3","batch1","pattern_response","754.7000000029802","stim/yes_35_dia_b1.png","f","pattern_57","f","true","","","","754.7000000029802","true","56","","","","","","","","","","","","","","","","",""
"","","","","","html-keyboard-response","266","678459","0.0-3.0-7.0-0.21","60d5aea939b90bd4fbdc4251","A3","batch1","pattern_show_trial_num","null","<p class=block-text>Trial 61 out of 78</p>","null","","","","","","","","","","","","","","","","","","","","","","","","","",""
"","","","","","image-keyboard-response","267","679697","0.0-3.0-7.0-1.21","60d5aea939b90bd4fbdc4251","A3","batch1","pattern_response","1236.7999999970198","stim/yes_55_hor_w1_w.png","f","pattern_75","f","true","","","","1236.7999999970198","true","57","","","","","","","","","","","","","","","","",""
"","","","","","html-keyboard-response","268","681004","0.0-3.0-7.0-0.22","60d5aea939b90bd4fbdc4251","A3","batch1","pattern_show_trial_num","null","<p class=block-text>Trial 62 out of 78</p>","null","","","","","","","","","","","","","","","","","","","","","","","","","",""
"","","","","","image-keyboard-response","269","682440","0.0-3.0-7.0-1.22","60d5aea939b90bd4fbdc4251","A3","batch1","pattern_response","1435.2999999970198","stim/yes_37_dia_w1.png","j","pattern_59","f","false","","","","1435.2999999970198","false","57","","","","","","","","","","","","","","","","",""
"","","","","","html-keyboard-response","270","683758","0.0-3.0-7.0-0.23","60d5aea939b90bd4fbdc4251","A3","batch1","pattern_show_trial_num","null","<p class=block-text>Trial 63 out of 78</p>","null","","","","","","","","","","","","","","","","","","","","","","","","","",""
"","","","","","image-keyboard-response","271","684405","0.0-3.0-7.0-1.23","60d5aea939b90bd4fbdc4251","A3","batch1","pattern_response","645.9000000059605","stim/yes_43_ver_w1_w.png","f","pattern_65","f","true","","","","645.9000000059605","true","58","","","","","","","","","","","","","","","","",""
"","","","","","html-keyboard-response","272","685729","0.0-3.0-7.0-0.24","60d5aea939b90bd4fbdc4251","A3","batch1","pattern_show_trial_num","null","<p class=block-text>Trial 64 out of 78</p>","null","","","","","","","","","","","","","","","","","","","","","","","","","",""
"","","","","","image-keyboard-response","273","686306","0.0-3.0-7.0-1.24","60d5aea939b90bd4fbdc4251","A3","batch1","pattern_response","576.0999999940395","stim/yes_14_hor_b1_w.png","f","pattern_43","f","true","","","","576.0999999940395","true","59","","","","","","","","","","","","","","","","",""
"","","","","","html-keyboard-response","274","687619","0.0-3.0-7.0-0.25","60d5aea939b90bd4fbdc4251","A3","batch1","pattern_show_trial_num","null","<p class=block-text>Trial 65 out of 78</p>","null","","","","","","","","","","","","","","","","","","","","","","","","","",""
"","","","","","image-keyboard-response","275","688903","0.0-3.0-7.0-1.25","60d5aea939b90bd4fbdc4251","A3","batch1","pattern_response","1282.7000000029802","stim/yes_67_hor_b1.png","f","pattern_79","f","true","","","","1282.7000000029802","true","60","","","","","","","","","","","","","","","","",""
"","","","","","html-keyboard-response","276","690212","0.0-3.0-7.0-0.26","60d5aea939b90bd4fbdc4251","A3","batch1","pattern_show_trial_num","null","<p class=block-text>Trial 66 out of 78</p>","null","","","","","","","","","","","","","","","","","","","","","","","","","",""
"","","","","","image-keyboard-response","277","691036","0.0-3.0-7.0-1.26","60d5aea939b90bd4fbdc4251","A3","batch1","pattern_response","823.7000000029802","stim/yes_40_dia_b1_b.png","f","pattern_63","f","true","","","","823.7000000029802","true","61","","","","","","","","","","","","","","","","",""
"","","","","","html-keyboard-response","278","692350","0.0-3.0-7.0-0.27","60d5aea939b90bd4fbdc4251","A3","batch1","pattern_show_trial_num","null","<p class=block-text>Trial 67 out of 78</p>","null","","","","","","","","","","","","","","","","","","","","","","","","","",""
"","","","","","image-keyboard-response","279","693017","0.0-3.0-7.0-1.27","60d5aea939b90bd4fbdc4251","A3","batch1","pattern_response","666.2999999970198","stim/yes_25_hor_b1_b.png","f","pattern_49","f","true","","","","666.2999999970198","true","62","","","","","","","","","","","","","","","","",""
"","","","","","html-keyboard-response","280","694332","0.0-3.0-7.0-0.28","60d5aea939b90bd4fbdc4251","A3","batch1","pattern_show_trial_num","null","<p class=block-text>Trial 68 out of 78</p>","null","","","","","","","","","","","","","","","","","","","","","","","","","",""
"","","","","","image-keyboard-response","281","695065","0.0-3.0-7.0-1.28","60d5aea939b90bd4fbdc4251","A3","batch1","pattern_response","732","stim/no_23_1.png","j","pattern_08","j","true","","","","732","true","63","","","","","","","","","","","","","","","","",""
"","","","","","html-keyboard-response","282","696388","0.0-3.0-7.0-0.29","60d5aea939b90bd4fbdc4251","A3","batch1","pattern_show_trial_num","null","<p class=block-text>Trial 69 out of 78</p>","null","","","","","","","","","","","","","","","","","","","","","","","","","",""
"","","","","","image-keyboard-response","283","697603","0.0-3.0-7.0-1.29","60d5aea939b90bd4fbdc4251","A3","batch1","pattern_response","1214.2999999970198","stim/yes_50_dia_w1.png","j","pattern_71","f","false","","","","1214.2999999970198","false","63","","","","","","","","","","","","","","","","",""
"","","","","","html-keyboard-response","284","698909","0.0-3.0-7.0-0.30","60d5aea939b90bd4fbdc4251","A3","batch1","pattern_show_trial_num","null","<p class=block-text>Trial 70 out of 78</p>","null","","","","","","","","","","","","","","","","","","","","","","","","","",""
"","","","","","image-keyboard-response","285","700515","0.0-3.0-7.0-1.30","60d5aea939b90bd4fbdc4251","A3","batch1","pattern_response","1605","stim/no_38_1_b.png","j","pattern_20","j","true","","","","1605","true","64","","","","","","","","","","","","","","","","",""
"","","","","","html-keyboard-response","286","701833","0.0-3.0-7.0-0.31","60d5aea939b90bd4fbdc4251","A3","batch1","pattern_show_trial_num","null","<p class=block-text>Trial 71 out of 78</p>","null","","","","","","","","","","","","","","","","","","","","","","","","","",""
"","","","","","image-keyboard-response","287","703500","0.0-3.0-7.0-1.31","60d5aea939b90bd4fbdc4251","A3","batch1","pattern_response","1666.2000000029802","stim/no_48_1_w.png","j","pattern_28","j","true","","","","1666.2000000029802","true","65","","","","","","","","","","","","","","","","",""
"","","","","","html-keyboard-response","288","704813","0.0-3.0-7.0-0.32","60d5aea939b90bd4fbdc4251","A3","batch1","pattern_show_trial_num","null","<p class=block-text>Trial 72 out of 78</p>","null","","","","","","","","","","","","","","","","","","","","","","","","","",""
"","","","","","image-keyboard-response","289","706341","0.0-3.0-7.0-1.32","60d5aea939b90bd4fbdc4251","A3","batch1","pattern_response","1527.5","stim/no_65_1_b.png","j","pattern_38","j","true","","","","1527.5","true","66","","","","","","","","","","","","","","","","",""
"","","","","","html-keyboard-response","290","707663","0.0-3.0-7.0-0.33","60d5aea939b90bd4fbdc4251","A3","batch1","pattern_show_trial_num","null","<p class=block-text>Trial 73 out of 78</p>","null","","","","","","","","","","","","","","","","","","","","","","","","","",""
"","","","","","image-keyboard-response","291","709583","0.0-3.0-7.0-1.33","60d5aea939b90bd4fbdc4251","A3","batch1","pattern_response","1918.8999999910593","stim/no_55_1_w.png","j","pattern_34","j","true","","","","1918.8999999910593","true","67","","","","","","","","","","","","","","","","",""
"","","","","","html-keyboard-response","292","710901","0.0-3.0-7.0-0.34","60d5aea939b90bd4fbdc4251","A3","batch1","pattern_show_trial_num","null","<p class=block-text>Trial 74 out of 78</p>","null","","","","","","","","","","","","","","","","","","","","","","","","","",""
"","","","","","image-keyboard-response","293","712828","0.0-3.0-7.0-1.34","60d5aea939b90bd4fbdc4251","A3","batch1","pattern_response","1925.5","stim/yes_60_ver_b1_b.png","j","pattern_77","f","false","","","","1925.5","false","67","","","","","","","","","","","","","","","","",""
"","","","","","html-keyboard-response","294","714140","0.0-3.0-7.0-0.35","60d5aea939b90bd4fbdc4251","A3","batch1","pattern_show_trial_num","null","<p class=block-text>Trial 75 out of 78</p>","null","","","","","","","","","","","","","","","","","","","","","","","","","",""
"","","","","","image-keyboard-response","295","714811","0.0-3.0-7.0-1.35","60d5aea939b90bd4fbdc4251","A3","batch1","pattern_response","670.1000000089407","stim/yes_38_hor_b1_b.png","f","pattern_61","f","true","","","","670.1000000089407","true","68","","","","","","","","","","","","","","","","",""
"","","","","","html-keyboard-response","296","716134","0.0-3.0-7.0-0.36","60d5aea939b90bd4fbdc4251","A3","batch1","pattern_show_trial_num","null","<p class=block-text>Trial 76 out of 78</p>","null","","","","","","","","","","","","","","","","","","","","","","","","","",""
"","","","","","image-keyboard-response","297","716932","0.0-3.0-7.0-1.36","60d5aea939b90bd4fbdc4251","A3","batch1","pattern_response","797.1000000089407","stim/no_20_1_w.png","j","pattern_06","j","true","","","","797.1000000089407","true","69","","","","","","","","","","","","","","","","",""
"","","","","","html-keyboard-response","298","718259","0.0-3.0-7.0-0.37","60d5aea939b90bd4fbdc4251","A3","batch1","pattern_show_trial_num","null","<p class=block-text>Trial 77 out of 78</p>","null","","","","","","","","","","","","","","","","","","","","","","","","","",""
"","","","","","image-keyboard-response","299","718932","0.0-3.0-7.0-1.37","60d5aea939b90bd4fbdc4251","A3","batch1","pattern_response","672.7000000029802","stim/no_13_2_b.png","j","pattern_02","j","true","","","","672.7000000029802","true","70","","","","","","","","","","","","","","","","",""
"","","","","","html-keyboard-response","300","720245","0.0-3.0-7.0-0.38","60d5aea939b90bd4fbdc4251","A3","batch1","pattern_show_trial_num","null","<p class=block-text>Trial 78 out of 78</p>","null","","","","","","","","","","","","","","","","","","","","","","","","","",""
"","","","","","image-keyboard-response","301","722933","0.0-3.0-7.0-1.38","60d5aea939b90bd4fbdc4251","A3","batch1","pattern_response","2687.7000000029802","stim/no_36_2_w.png","j","pattern_18","j","true","","","","2687.7000000029802","true","71","","","","","","","","","","","","","","","","",""
"","","","","","html-button-response","302","725913","0.0-3.0-8.0","60d5aea939b90bd4fbdc4251","A3","batch1","","2466","<p class = block-text>This concludes the 4-in-a-row detection game.Thank you for your responses!<br>
            You responded correctly on 91% of the trials.<br>
            When you are ready, press ""Continue"" button to continue </p>","0","","","","","","","","","","","","","","","","","","","","","","","","","",""
"true","","","","","fullscreen","303","728277","0.0-4.0-0.0","60d5aea939b90bd4fbdc4251","A3","batch1","","","","","","","","","","","","","","","","","","","","","","","","","","","","","",""
"","","","","","instructions","304","759057","0.0-4.0-1.0-0.0-0.0","60d5aea939b90bd4fbdc4251","A3","batch1","tol-instructions","30779.69999998808","","","","","","","","[{""page_index"":0,""viewing_time"":9606.59999999404},{""page_index"":1,""viewing_time"":3940.7000000029802},{""page_index"":2,""viewing_time"":2344.5},{""page_index"":3,""viewing_time"":6981.5999999940395},{""page_index"":4,""viewing_time"":3827},{""page_index"":5,""viewing_time"":2613.1000000089407},{""page_index"":6,""viewing_time"":1466}]","","","","","","","","","","","","","","","","","","","",""
"","","","","","html-button-response","305","759778","0.0-4.0-1.0-1.0-0.0","60d5aea939b90bd4fbdc4251","A3","batch1","tol_enter_quiz","720.1000000089407","<p class=block-text> Let's answer a few questions <br>","0","","","","","","","","","","","","","","","","","","","","","","","","","",""
"","","","","","html-button-response","306","762117","0.0-4.0-1.0-1.0-1.0","60d5aea939b90bd4fbdc4251","A3","batch1","tol_quiz","2337.7999999970198","<p class = block-text>True or False: You can only move the ball on top of a peg. <br></p>","0","","","true","","","","","","","","","","","","","","","","","","","","","","",""
"","","","","","html-button-response","307","762798","0.0-4.0-1.0-1.0-2.0","60d5aea939b90bd4fbdc4251","A3","batch1","tol_quiz_feedback","679.5999999940395","<p class = block-text>Correct! You can only move the ball on top of a peg.</p>","0","","","","","","","","","","","","","","","","","","","","","","","","","",""
"","","","","","html-button-response","308","764749","0.0-4.0-1.0-1.0-3.0","60d5aea939b90bd4fbdc4251","A3","batch1","tol_quiz","1950.5","<p class = block-text>True or False: You should try to match your board with the target board with fewest moves possible. <br></p>","0","","","true","","","","","","","","","","","","","","","","","","","","","","",""
"","","","","","html-button-response","309","765224","0.0-4.0-1.0-1.0-4.0","60d5aea939b90bd4fbdc4251","A3","batch1","tol_quiz_feedback","474.29999999701977","<p class = block-text>Correct! </p>","0","","","","","","","","","","","","","","","","","","","","","","","","","",""
"","","","","","html-button-response","310","765886","0.0-4.0-2.0","60d5aea939b90bd4fbdc4251","A3","batch1","","660.8999999910593","<p class=block-text> Now that you've understood the game, let's practice a few easier examples before we start!<br> <br>","0","","","","","","","","","","","","","","","","","","","","","","","","","",""
"","","","","","single-stim-button","311","767159","0.0-4.0-3.0-0.0","60d5aea939b90bd4fbdc4251","A3","batch1","tol_practice","1272","","","","","","","","","","","","","","tol_peg_2","1272","1272","0","[[1,2,0],[0,0],[0]]","1","[[1,2,0],[0,0],[3]]","practice","1272","","","","","",""
"","","","","","single-stim-button","312","767905","0.0-4.0-3.0-1.0","60d5aea939b90bd4fbdc4251","A3","batch1","tol_practice","745","","","","","","","","","","","","","","tol_peg_3","745","745","0","[[1,2,0],[0,0],[3]]","1","[[1,2,0],[0,0],[3]]","practice","745","","","","","",""
"","","","","","poldrack-single-stim","313","768918","0.0-4.0-4.0","60d5aea939b90bd4fbdc4251","A3","batch1","tol_feedback","-1","","","","","true","","","","","","","","","","1000","1000","500","","","","","","-1","none","true","","0",""
"","","","","","single-stim-button","314","774024","0.0-4.0-5.0-0.0","60d5aea939b90bd4fbdc4251","A3","batch1","tol_practice","5106","","","","","","","","","","","","","","tol_peg_1","5106","5106","0","[[1,0,0],[3,0],[0]]","2","[[0,0,0],[3,1],[2]]","practice","5106","","","","","",""
"","","","","","single-stim-button","315","774739","0.0-4.0-5.0-1.0","60d5aea939b90bd4fbdc4251","A3","batch1","tol_practice","714","","","","","","","","","","","","","","tol_peg_3","714","714","0","[[1,0,0],[3,0],[2]]","2","[[0,0,0],[3,1],[2]]","practice","714","","","","","",""
"","","","","","single-stim-button","316","775212","0.0-4.0-5.1-0.1","60d5aea939b90bd4fbdc4251","A3","batch1","tol_practice","472","","","","","","","","","","","","","","tol_peg_1","472","472","0","[[0,0,0],[3,0],[2]]","3","[[0,0,0],[3,1],[2]]","practice","472","","","","","",""
"","","","","","single-stim-button","317","775684","0.0-4.0-5.1-1.1","60d5aea939b90bd4fbdc4251","A3","batch1","tol_practice","471","","","","","","","","","","","","","","tol_peg_2","471","471","0","[[0,0,0],[3,1],[2]]","3","[[0,0,0],[3,1],[2]]","practice","471","","","","","",""
"","","","","","poldrack-single-stim","318","776686","0.0-4.0-6.0","60d5aea939b90bd4fbdc4251","A3","batch1","tol_feedback","-1","","","","","true","","","","","","","","","","1000","1000","500","","","","","","-1","none","true","","0",""
"","","","","","single-stim-button","319","778474","0.0-4.0-7.0-0.0","60d5aea939b90bd4fbdc4251","A3","batch1","tol_practice","1788","","","","","","","","","","","","","","tol_peg_2","1788","1788","0","[[1,2,0],[0,0],[0]]","4","[[1,0,0],[2,0],[3]]","practice","1788","","","","","",""
"","","","","","single-stim-button","320","778949","0.0-4.0-7.0-1.0","60d5aea939b90bd4fbdc4251","A3","batch1","tol_practice","474","","","","","","","","","","","","","","tol_peg_3","474","474","0","[[1,2,0],[0,0],[3]]","4","[[1,0,0],[2,0],[3]]","practice","474","","","","","",""
"","","","","","single-stim-button","321","779684","0.0-4.0-7.1-0.1","60d5aea939b90bd4fbdc4251","A3","batch1","tol_practice","733","","","","","","","","","","","","","","tol_peg_1","733","733","0","[[1,0,0],[0,0],[3]]","5","[[1,0,0],[2,0],[3]]","practice","733","","","","","",""
"","","","","","single-stim-button","322","780525","0.0-4.0-7.1-1.1","60d5aea939b90bd4fbdc4251","A3","batch1","tol_practice","841","","","","","","","","","","","","","","tol_peg_2","841","841","0","[[1,0,0],[2,0],[3]]","5","[[1,0,0],[2,0],[3]]","practice","841","","","","","",""
"","","","","","poldrack-single-stim","323","781526","0.0-4.0-8.0","60d5aea939b90bd4fbdc4251","A3","batch1","tol_feedback","-1","","","","","true","","","","","","","","","","1000","1000","500","","","","","","-1","none","true","","0",""
"","","","","","html-button-response","324","783754","0.0-4.0-9.0","60d5aea939b90bd4fbdc4251","A3","batch1","tol_instruction","2227.2999999970198","<div class = centerbox><p class = center-block-text>Great job! You are done with practice trials<br>You are about to start official trials.<br> <br> Problem <strong>1</strong> out of 25 problems</p></div>","0","","","","","","","","","","","","","","","","","","","","","","","","","",""
"","","","","","single-stim-button","325","787010","0.0-4.0-10.0-0.0","60d5aea939b90bd4fbdc4251","A3","batch1","tol_tohand","2246","","","","","","","","","","","","","","tol_peg_1","2246","2246","0","[[1,0,0],[3,0],[0]]","1","[[1,3,0],[2,0],[0]]","0","0","","","","","","3"
"","","","","","single-stim-button","326","788095","0.0-4.0-10.0-1.0","60d5aea939b90bd4fbdc4251","A3","batch1","tol_toboard","1084","","","","","","","","","","","","","","tol_peg_3","1084","1084","0","[[1,0,0],[3,0],[2]]","1","[[1,3,0],[2,0],[0]]","0","0","","","","","","3"
"","","","","","single-stim-button","327","788554","0.0-4.0-10.1-0.1","60d5aea939b90bd4fbdc4251","A3","batch1","tol_tohand","458","","","","","","","","","","","","","","tol_peg_2","458","458","0","[[1,0,0],[0,0],[2]]","2","[[1,3,0],[2,0],[0]]","0","0","","","","","","3"
"","","","","","single-stim-button","328","788837","0.0-4.0-10.1-1.1","60d5aea939b90bd4fbdc4251","A3","batch1","tol_toboard","283","","","","","","","","","","","","","","tol_peg_1","283","283","0","[[1,3,0],[0,0],[2]]","2","[[1,3,0],[2,0],[0]]","0","0","","","","","","3"
"","","","","","single-stim-button","329","789243","0.0-4.0-10.2-0.2","60d5aea939b90bd4fbdc4251","A3","batch1","tol_tohand","405","","","","","","","","","","","","","","tol_peg_3","405","405","0","[[1,3,0],[0,0],[0]]","3","[[1,3,0],[2,0],[0]]","0","0","","","","","","3"
"","","","","","single-stim-button","330","789551","0.0-4.0-10.2-1.2","60d5aea939b90bd4fbdc4251","A3","batch1","tol_toboard","307","","","","","","","","","","","","","","tol_peg_2","307","307","0","[[1,3,0],[2,0],[0]]","3","[[1,3,0],[2,0],[0]]","0","0","","","","","","3"
"","","","","","poldrack-single-stim","331","790553","0.0-4.0-11.0","60d5aea939b90bd4fbdc4251","A3","batch1","tol_feedback","-1","","","","","true","","","","","","","","","","1000","1000","500","","","","","","-1","none","true","2246","3109",""
"","","","","","html-button-response","332","791361","0.0-4.0-12.0","60d5aea939b90bd4fbdc4251","A3","batch1","tol_trial_num","807.7999999970198","<div class = centerbox><p class = center-block-text>problem <strong>2</strong> out of 25 problems</p></div>","0","","","","","","","","","","","","","","","","","","","","","","","","","",""
"","","","","","single-stim-button","333","794483","0.0-4.0-13.0-0.0","60d5aea939b90bd4fbdc4251","A3","batch1","tol_tohand","3121","","","","","","","","","","","","","","tol_peg_1","3121","3121","0","[[1,0,0],[3,0],[0]]","1","[[2,1,3],[0,0],[0]]","1","0","","","","","","5"
"","","","","","single-stim-button","334","799707","0.0-4.0-13.0-1.0","60d5aea939b90bd4fbdc4251","A3","batch1","tol_toboard","5223","","","","","","","","","","","","","","tol_peg_3","5223","5223","0","[[1,0,0],[3,0],[2]]","1","[[2,1,3],[0,0],[0]]","1","0","","","","","","5"
"","","","","","single-stim-button","335","802388","0.0-4.0-13.1-0.1","60d5aea939b90bd4fbdc4251","A3","batch1","tol_tohand","2680","","","","","","","","","","","","","","tol_peg_1","2680","2680","0","[[0,0,0],[3,0],[2]]","2","[[2,1,3],[0,0],[0]]","1","0","","","","","","5"
"","","","","","single-stim-button","336","802968","0.0-4.0-13.1-1.1","60d5aea939b90bd4fbdc4251","A3","batch1","tol_toboard","579","","","","","","","","","","","","","","tol_peg_2","579","579","0","[[0,0,0],[3,1],[2]]","2","[[2,1,3],[0,0],[0]]","1","0","","","","","","5"
"","","","","","single-stim-button","337","803517","0.0-4.0-13.2-0.2","60d5aea939b90bd4fbdc4251","A3","batch1","tol_tohand","549","","","","","","","","","","","","","","tol_peg_3","549","549","0","[[0,0,0],[3,1],[0]]","3","[[2,1,3],[0,0],[0]]","1","0","","","","","","5"
"","","","","","single-stim-button","338","804091","0.0-4.0-13.2-1.2","60d5aea939b90bd4fbdc4251","A3","batch1","tol_toboard","574","","","","","","","","","","","","","","tol_peg_1","574","574","0","[[2,0,0],[3,1],[0]]","3","[[2,1,3],[0,0],[0]]","1","0","","","","","","5"
"","","","","","single-stim-button","339","804472","0.0-4.0-13.3-0.3","60d5aea939b90bd4fbdc4251","A3","batch1","tol_tohand","380","","","","","","","","","","","","","","tol_peg_2","380","380","0","[[2,0,0],[3,0],[0]]","4","[[2,1,3],[0,0],[0]]","1","0","","","","","","5"
"","","","","","single-stim-button","340","804794","0.0-4.0-13.3-1.3","60d5aea939b90bd4fbdc4251","A3","batch1","tol_toboard","321","","","","","","","","","","","","","","tol_peg_1","321","321","0","[[2,1,0],[3,0],[0]]","4","[[2,1,3],[0,0],[0]]","1","0","","","","","","5"
"","","","","","single-stim-button","341","805135","0.0-4.0-13.4-0.4","60d5aea939b90bd4fbdc4251","A3","batch1","tol_tohand","340","","","","","","","","","","","","","","tol_peg_2","340","340","0","[[2,1,0],[0,0],[0]]","5","[[2,1,3],[0,0],[0]]","1","0","","","","","","5"
"","","","","","single-stim-button","342","805504","0.0-4.0-13.4-1.4","60d5aea939b90bd4fbdc4251","A3","batch1","tol_toboard","369","","","","","","","","","","","","","","tol_peg_1","369","369","0","[[2,1,3],[0,0],[0]]","5","[[2,1,3],[0,0],[0]]","1","0","","","","","","5"
"","","","","","poldrack-single-stim","343","806511","0.0-4.0-14.0","60d5aea939b90bd4fbdc4251","A3","batch1","tol_feedback","-1","","","","","true","","","","","","","","","","1000","1000","500","","","","","","-1","none","true","3121","7070",""
"","","","","","html-button-response","344","807299","0.0-4.0-15.0","60d5aea939b90bd4fbdc4251","A3","batch1","tol_trial_num","787.2000000029802","<div class = centerbox><p class = center-block-text>problem <strong>3</strong> out of 25 problems</p></div>","0","","","","","","","","","","","","","","","","","","","","","","","","","",""
"","","","","","single-stim-button","345","809811","0.0-4.0-16.0-0.0","60d5aea939b90bd4fbdc4251","A3","batch1","tol_tohand","2512","","","","","","","","","","","","","","tol_peg_1","2512","2512","0","[[2,0,0],[0,0],[1]]","1","[[1,2,0],[3,0],[0]]","2","0","","","","","","4"
"","","","","","single-stim-button","346","811939","0.0-4.0-16.0-1.0","60d5aea939b90bd4fbdc4251","A3","batch1","tol_toboard","2128","","","","","","","","","","","","","","tol_peg_2","2128","2128","0","[[2,0,0],[3,0],[1]]","1","[[1,2,0],[3,0],[0]]","2","0","","","","","","4"
"","","","","","single-stim-button","347","812220","0.0-4.0-16.1-0.1","60d5aea939b90bd4fbdc4251","A3","batch1","tol_tohand","280","","","","","","","","","","","","","","tol_peg_1","280","280","0","[[0,0,0],[3,0],[1]]","2","[[1,2,0],[3,0],[0]]","2","0","","","","","","4"
"","","","","","single-stim-button","348","812709","0.0-4.0-16.1-1.1","60d5aea939b90bd4fbdc4251","A3","batch1","tol_toboard","489","","","","","","","","","","","","","","tol_peg_2","489","489","0","[[0,0,0],[3,2],[1]]","2","[[1,2,0],[3,0],[0]]","2","0","","","","","","4"
"","","","","","single-stim-button","349","813157","0.0-4.0-16.2-0.2","60d5aea939b90bd4fbdc4251","A3","batch1","tol_tohand","447","","","","","","","","","","","","","","tol_peg_3","447","447","0","[[0,0,0],[3,2],[0]]","3","[[1,2,0],[3,0],[0]]","2","0","","","","","","4"
