"success","timeout","failed_images","failed_audio","failed_video","trial_type","trial_index","time_elapsed","internal_node_id","subject_id","study_id","session_id","task","rt","stimulus","response","item","answer","correct","spm_correct","spm_rt","view_history","fiar_detect_rt","fiar_detect_correct","total_correct_fiar_detect","post_trial_gap","choices","mouse_click","stim_duration","block_duration","timing_post_trial","current_position","tol_num_moves_made","tol_target","tol_problem_id","tol_rt","key_press","possible_responses","tol_correct","preplanning","tol_rt_per_trial","tol_min_moves"
"true","false","[]","[]","[]","preload","0","24683","0.0-0.0","60d9faa609c8dcb9e5e05481","F1","batch6","","","","","","","","","","","","","","","","","","","","","","","","","","","","","",""
"true","","","","","fullscreen","1","440095","0.0-1.0-0.0","60d9faa609c8dcb9e5e05481","F1","batch6","","","","","","","","","","","","","","","","","","","","","","","","","","","","","",""
"true","","","","","fullscreen","2","449366","0.0-2.0-0.0","60d9faa609c8dcb9e5e05481","F1","batch6","spm_fullscreen","","","","","","","","","","","","","","","","","","","","","","","","","","","","",""
"","","","","","html-button-response","3","469700","0.0-2.0-1.0","60d9faa609c8dcb9e5e05481","F1","batch6","","20331.200000047684","<p class = block-text><b>Instructions</b> <br>This is a widely used intelligence test in research. <br>In this test, a figure with a missing piece will be presented.<br>Below the figure are alternative pieces to complete the figure, only one of which is correct.<br> Different figures might involve different principles for obtaining the missing piece<br>Your job is to select the most logical piece to complete the figure.</p>","0","","","","","","","","","","","","","","","","","","","","","","","","","",""
"","","","","","html-keyboard-response","4","470503","0.0-2.0-2.0-0.0","60d9faa609c8dcb9e5e05481","F1","batch6","spm_show_trial_num","null","<p class=block-text>Trial 1 out of 60</p>","null","","","","","","","","","","","","","","","","","","","","","","","","","",""
"","","","","","image-button-response","5","479284","0.0-2.0-2.0-1.0","60d9faa609c8dcb9e5e05481","F1","batch6","spm_respsonse","8772.799999952316","img/question_1_1.jpeg","3","mat_01","4","1","1","8772.799999952316","","","","","","","","","","","","","","","","","","","","",""
"","","","","","html-keyboard-response","6","480342","0.0-2.0-2.0-0.1","60d9faa609c8dcb9e5e05481","F1","batch6","spm_show_trial_num","null","<p class=block-text>Trial 2 out of 60</p>","null","","","","","","","","","","","","","","","","","","","","","","","","","",""
"","","","","","image-button-response","7","485126","0.0-2.0-2.0-1.1","60d9faa609c8dcb9e5e05481","F1","batch6","spm_respsonse","4780.299999952316","img/question_1_2.jpeg","4","mat_02","5","1","1","4780.299999952316","","","","","","","","","","","","","","","","","","","","",""
"","","","","","html-keyboard-response","8","486195","0.0-2.0-2.0-0.2","60d9faa609c8dcb9e5e05481","F1","batch6","spm_show_trial_num","null","<p class=block-text>Trial 3 out of 60</p>","null","","","","","","","","","","","","","","","","","","","","","","","","","",""
"","","","","","image-button-response","9","494020","0.0-2.0-2.0-1.2","60d9faa609c8dcb9e5e05481","F1","batch6","spm_respsonse","7820.5","img/question_1_3.jpeg","0","mat_03","1","1","1","7820.5","","","","","","","","","","","","","","","","","","","","",""
"","","","","","html-keyboard-response","10","495076","0.0-2.0-2.0-0.3","60d9faa609c8dcb9e5e05481","F1","batch6","spm_show_trial_num","null","<p class=block-text>Trial 4 out of 60</p>","null","","","","","","","","","","","","","","","","","","","","","","","","","",""
"","","","","","image-button-response","11","503852","0.0-2.0-2.0-1.3","60d9faa609c8dcb9e5e05481","F1","batch6","spm_respsonse","8772.100000023842","img/question_1_4.jpeg","1","mat_04","2","1","1","8772.100000023842","","","","","","","","","","","","","","","","","","","","",""
"","","","","","html-keyboard-response","12","504909","0.0-2.0-2.0-0.4","60d9faa609c8dcb9e5e05481","F1","batch6","spm_show_trial_num","null","<p class=block-text>Trial 5 out of 60</p>","null","","","","","","","","","","","","","","","","","","","","","","","","","",""
"","","","","","image-button-response","13","513672","0.0-2.0-2.0-1.4","60d9faa609c8dcb9e5e05481","F1","batch6","spm_respsonse","8759.299999952316","img/question_1_5.jpeg","5","mat_05","6","1","1","8759.299999952316","","","","","","","","","","","","","","","","","","","","",""
"","","","","","html-keyboard-response","14","514734","0.0-2.0-2.0-0.5","60d9faa609c8dcb9e5e05481","F1","batch6","spm_show_trial_num","null","<p class=block-text>Trial 6 out of 60</p>","null","","","","","","","","","","","","","","","","","","","","","","","","","",""
"","","","","","image-button-response","15","518564","0.0-2.0-2.0-1.5","60d9faa609c8dcb9e5e05481","F1","batch6","spm_respsonse","3826.2000000476837","img/question_1_6.jpeg","2","mat_06","3","1","1","3826.2000000476837","","","","","","","","","","","","","","","","","","","","",""
"","","","","","html-keyboard-response","16","519624","0.0-2.0-2.0-0.6","60d9faa609c8dcb9e5e05481","F1","batch6","spm_show_trial_num","null","<p class=block-text>Trial 7 out of 60</p>","null","","","","","","","","","","","","","","","","","","","","","","","","","",""
"","","","","","image-button-response","17","530878","0.0-2.0-2.0-1.6","60d9faa609c8dcb9e5e05481","F1","batch6","spm_respsonse","11250.899999976158","img/question_1_7.jpeg","5","mat_07","6","1","1","11250.899999976158","","","","","","","","","","","","","","","","","","","","",""
"","","","","","html-keyboard-response","18","531944","0.0-2.0-2.0-0.7","60d9faa609c8dcb9e5e05481","F1","batch6","spm_show_trial_num","null","<p class=block-text>Trial 8 out of 60</p>","null","","","","","","","","","","","","","","","","","","","","","","","","","",""
"","","","","","image-button-response","19","543765","0.0-2.0-2.0-1.7","60d9faa609c8dcb9e5e05481","F1","batch6","spm_respsonse","11815.5","img/question_1_8.jpeg","1","mat_08","2","1","1","11815.5","","","","","","","","","","","","","","","","","","","","",""
"","","","","","html-keyboard-response","20","544830","0.0-2.0-2.0-0.8","60d9faa609c8dcb9e5e05481","F1","batch6","spm_show_trial_num","null","<p class=block-text>Trial 9 out of 60</p>","null","","","","","","","","","","","","","","","","","","","","","","","","","",""
"","","","","","image-button-response","21","550805","0.0-2.0-2.0-1.8","60d9faa609c8dcb9e5e05481","F1","batch6","spm_respsonse","5970.5","img/question_1_9.jpeg","0","mat_09","1","1","1","5970.5","","","","","","","","","","","","","","","","","","","","",""
"","","","","","html-keyboard-response","22","551864","0.0-2.0-2.0-0.9","60d9faa609c8dcb9e5e05481","F1","batch6","spm_show_trial_num","null","<p class=block-text>Trial 10 out of 60</p>","null","","","","","","","","","","","","","","","","","","","","","","","","","",""
"","","","","","image-button-response","23","564371","0.0-2.0-2.0-1.9","60d9faa609c8dcb9e5e05481","F1","batch6","spm_respsonse","12503.100000023842","img/question_1_10.jpeg","2","mat_10","3","1","1","12503.100000023842","","","","","","","","","","","","","","","","","","","","",""
"","","","","","html-keyboard-response","24","565426","0.0-2.0-2.0-0.10","60d9faa609c8dcb9e5e05481","F1","batch6","spm_show_trial_num","null","<p class=block-text>Trial 11 out of 60</p>","null","","","","","","","","","","","","","","","","","","","","","","","","","",""
"","","","","","image-button-response","25","584289","0.0-2.0-2.0-1.10","60d9faa609c8dcb9e5e05481","F1","batch6","spm_respsonse","18858.600000023842","img/question_1_11.jpeg","4","mat_11","4","0","0","18858.600000023842","","","","","","","","","","","","","","","","","","","","",""
"","","","","","html-keyboard-response","26","585341","0.0-2.0-2.0-0.11","60d9faa609c8dcb9e5e05481","F1","batch6","spm_show_trial_num","null","<p class=block-text>Trial 12 out of 60</p>","null","","","","","","","","","","","","","","","","","","","","","","","","","",""
"","","","","","image-button-response","27","600115","0.0-2.0-2.0-1.11","60d9faa609c8dcb9e5e05481","F1","batch6","spm_respsonse","14770.300000071526","img/question_1_12.jpeg","0","mat_12","5","0","0","14770.300000071526","","","","","","","","","","","","","","","","","","","","",""
"","","","","","html-keyboard-response","28","601174","0.0-2.0-2.0-0.12","60d9faa609c8dcb9e5e05481","F1","batch6","spm_show_trial_num","null","<p class=block-text>Trial 13 out of 60</p>","null","","","","","","","","","","","","","","","","","","","","","","","","","",""
"","","","","","image-button-response","29","605498","0.0-2.0-2.0-1.12","60d9faa609c8dcb9e5e05481","F1","batch6","spm_respsonse","4320.199999928474","img/question_2_1.jpeg","1","mat_13","2","1","1","4320.199999928474","","","","","","","","","","","","","","","","","","","","",""
"","","","","","html-keyboard-response","30","606555","0.0-2.0-2.0-0.13","60d9faa609c8dcb9e5e05481","F1","batch6","spm_show_trial_num","null","<p class=block-text>Trial 14 out of 60</p>","null","","","","","","","","","","","","","","","","","","","","","","","","","",""
"","","","","","image-button-response","31","612428","0.0-2.0-2.0-1.13","60d9faa609c8dcb9e5e05481","F1","batch6","spm_respsonse","5869.899999976158","img/question_2_2.jpeg","5","mat_14","6","1","1","5869.899999976158","","","","","","","","","","","","","","","","","","","","",""
"","","","","","html-keyboard-response","32","613482","0.0-2.0-2.0-0.14","60d9faa609c8dcb9e5e05481","F1","batch6","spm_show_trial_num","null","<p class=block-text>Trial 15 out of 60</p>","null","","","","","","","","","","","","","","","","","","","","","","","","","",""
"","","","","","image-button-response","33","618178","0.0-2.0-2.0-1.14","60d9faa609c8dcb9e5e05481","F1","batch6","spm_respsonse","4692.800000071526","img/question_2_3.jpeg","0","mat_15","1","1","1","4692.800000071526","","","","","","","","","","","","","","","","","","","","",""
"","","","","","html-keyboard-response","34","619231","0.0-2.0-2.0-0.15","60d9faa609c8dcb9e5e05481","F1","batch6","spm_show_trial_num","null","<p class=block-text>Trial 16 out of 60</p>","null","","","","","","","","","","","","","","","","","","","","","","","","","",""
"","","","","","image-button-response","35","626248","0.0-2.0-2.0-1.15","60d9faa609c8dcb9e5e05481","F1","batch6","spm_respsonse","7013.800000071526","img/question_2_4.jpeg","1","mat_16","2","1","1","7013.800000071526","","","","","","","","","","","","","","","","","","","","",""
"","","","","","html-keyboard-response","36","627308","0.0-2.0-2.0-0.16","60d9faa609c8dcb9e5e05481","F1","batch6","spm_show_trial_num","null","<p class=block-text>Trial 17 out of 60</p>","null","","","","","","","","","","","","","","","","","","","","","","","","","",""
"","","","","","image-button-response","37","635794","0.0-2.0-2.0-1.16","60d9faa609c8dcb9e5e05481","F1","batch6","spm_respsonse","8482.399999976158","img/question_2_5.jpeg","0","mat_17","1","1","1","8482.399999976158","","","","","","","","","","","","","","","","","","","","",""
"","","","","","html-keyboard-response","38","636861","0.0-2.0-2.0-0.17","60d9faa609c8dcb9e5e05481","F1","batch6","spm_show_trial_num","null","<p class=block-text>Trial 18 out of 60</p>","null","","","","","","","","","","","","","","","","","","","","","","","","","",""
"","","","","","image-button-response","39","648493","0.0-2.0-2.0-1.17","60d9faa609c8dcb9e5e05481","F1","batch6","spm_respsonse","11627.800000071526","img/question_2_6.jpeg","2","mat_18","3","1","1","11627.800000071526","","","","","","","","","","","","","","","","","","","","",""
"","","","","","html-keyboard-response","40","649565","0.0-2.0-2.0-0.18","60d9faa609c8dcb9e5e05481","F1","batch6","spm_show_trial_num","null","<p class=block-text>Trial 19 out of 60</p>","null","","","","","","","","","","","","","","","","","","","","","","","","","",""
"","","","","","image-button-response","41","658314","0.0-2.0-2.0-1.18","60d9faa609c8dcb9e5e05481","F1","batch6","spm_respsonse","8746.600000023842","img/question_2_7.jpeg","4","mat_19","5","1","1","8746.600000023842","","","","","","","","","","","","","","","","","","","","",""
"","","","","","html-keyboard-response","42","659370","0.0-2.0-2.0-0.19","60d9faa609c8dcb9e5e05481","F1","batch6","spm_show_trial_num","null","<p class=block-text>Trial 20 out of 60</p>","null","","","","","","","","","","","","","","","","","","","","","","","","","",""
"","","","","","image-button-response","43","669273","0.0-2.0-2.0-1.19","60d9faa609c8dcb9e5e05481","F1","batch6","spm_respsonse","9898.5","img/question_2_8.jpeg","5","mat_20","6","1","1","9898.5","","","","","","","","","","","","","","","","","","","","",""
"","","","","","html-keyboard-response","44","670332","0.0-2.0-2.0-0.20","60d9faa609c8dcb9e5e05481","F1","batch6","spm_show_trial_num","null","<p class=block-text>Trial 21 out of 60</p>","null","","","","","","","","","","","","","","","","","","","","","","","","","",""
"","","","","","image-button-response","45","676339","0.0-2.0-2.0-1.20","60d9faa609c8dcb9e5e05481","F1","batch6","spm_respsonse","6002.300000071526","img/question_2_9.jpeg","3","mat_21","4","1","1","6002.300000071526","","","","","","","","","","","","","","","","","","","","",""
"","","","","","html-keyboard-response","46","677396","0.0-2.0-2.0-0.21","60d9faa609c8dcb9e5e05481","F1","batch6","spm_show_trial_num","null","<p class=block-text>Trial 22 out of 60</p>","null","","","","","","","","","","","","","","","","","","","","","","","","","",""
"","","","","","image-button-response","47","686683","0.0-2.0-2.0-1.21","60d9faa609c8dcb9e5e05481","F1","batch6","spm_respsonse","9283.200000047684","img/question_2_10.jpeg","2","mat_22","3","1","1","9283.200000047684","","","","","","","","","","","","","","","","","","","","",""
"","","","","","html-keyboard-response","48","687736","0.0-2.0-2.0-0.22","60d9faa609c8dcb9e5e05481","F1","batch6","spm_show_trial_num","null","<p class=block-text>Trial 23 out of 60</p>","null","","","","","","","","","","","","","","","","","","","","","","","","","",""
"","","","","","image-button-response","49","692569","0.0-2.0-2.0-1.22","60d9faa609c8dcb9e5e05481","F1","batch6","spm_respsonse","4827.899999976158","img/question_2_11.jpeg","3","mat_23","4","1","1","4827.899999976158","","","","","","","","","","","","","","","","","","","","",""
"","","","","","html-keyboard-response","50","693629","0.0-2.0-2.0-0.23","60d9faa609c8dcb9e5e05481","F1","batch6","spm_show_trial_num","null","<p class=block-text>Trial 24 out of 60</p>","null","","","","","","","","","","","","","","","","","","","","","","","","","",""
"","","","","","image-button-response","51","702910","0.0-2.0-2.0-1.23","60d9faa609c8dcb9e5e05481","F1","batch6","spm_respsonse","9277.299999952316","img/question_2_12.jpeg","1","mat_24","5","0","0","9277.299999952316","","","","","","","","","","","","","","","","","","","","",""
"","","","","","html-button-response","52","707451","0.0-2.0-3.0","60d9faa609c8dcb9e5e05481","F1","batch6","attention_check","4287.600000023842","<p class = block-text>Attention check: Please choose 1<br></p>","0","","","true","","","","","","","","","","","","","","","","","","","","","","",""
"","","","","","html-keyboard-response","53","708252","0.0-2.0-4.0-0.0","60d9faa609c8dcb9e5e05481","F1","batch6","spm_show_trial_num","null","<p class=block-text>Trial 25 out of 60</p>","null","","","","","","","","","","","","","","","","","","","","","","","","","",""
"","","","","","image-button-response","54","717517","0.0-2.0-4.0-1.0","60d9faa609c8dcb9e5e05481","F1","batch6","spm_respsonse","9260.399999976158","img/question_3_1.jpeg","7","mat_25","8","1","1","9260.399999976158","","","","","","","","","","","","","","","","","","","","",""
"","","","","","html-keyboard-response","55","718586","0.0-2.0-4.0-0.1","60d9faa609c8dcb9e5e05481","F1","batch6","spm_show_trial_num","null","<p class=block-text>Trial 26 out of 60</p>","null","","","","","","","","","","","","","","","","","","","","","","","","","",""
"","","","","","image-button-response","56","766093","0.0-2.0-4.0-1.1","60d9faa609c8dcb9e5e05481","F1","batch6","spm_respsonse","47502.39999997616","img/question_3_2.jpeg","1","mat_26","2","1","1","47502.39999997616","","","","","","","","","","","","","","","","","","","","",""
"","","","","","html-keyboard-response","57","767156","0.0-2.0-4.0-0.2","60d9faa609c8dcb9e5e05481","F1","batch6","spm_show_trial_num","null","<p class=block-text>Trial 27 out of 60</p>","null","","","","","","","","","","","","","","","","","","","","","","","","","",""
"","","","","","image-button-response","58","778393","0.0-2.0-4.0-1.2","60d9faa609c8dcb9e5e05481","F1","batch6","spm_respsonse","11232.600000023842","img/question_3_3.jpeg","2","mat_27","3","1","1","11232.600000023842","","","","","","","","","","","","","","","","","","","","",""
"","","","","","html-keyboard-response","59","779445","0.0-2.0-4.0-0.3","60d9faa609c8dcb9e5e05481","F1","batch6","spm_show_trial_num","null","<p class=block-text>Trial 28 out of 60</p>","null","","","","","","","","","","","","","","","","","","","","","","","","","",""
"","","","","","image-button-response","60","817093","0.0-2.0-4.0-1.3","60d9faa609c8dcb9e5e05481","F1","batch6","spm_respsonse","37643.299999952316","img/question_3_4.jpeg","7","mat_28","8","1","1","37643.299999952316","","","","","","","","","","","","","","","","","","","","",""
"","","","","","html-keyboard-response","61","818158","0.0-2.0-4.0-0.4","60d9faa609c8dcb9e5e05481","F1","batch6","spm_show_trial_num","null","<p class=block-text>Trial 29 out of 60</p>","null","","","","","","","","","","","","","","","","","","","","","","","","","",""
"","","","","","image-button-response","62","832371","0.0-2.0-4.0-1.4","60d9faa609c8dcb9e5e05481","F1","batch6","spm_respsonse","14208.200000047684","img/question_3_5.jpeg","6","mat_29","7","1","1","14208.200000047684","","","","","","","","","","","","","","","","","","","","",""
"","","","","","html-keyboard-response","63","833430","0.0-2.0-4.0-0.5","60d9faa609c8dcb9e5e05481","F1","batch6","spm_show_trial_num","null","<p class=block-text>Trial 30 out of 60</p>","null","","","","","","","","","","","","","","","","","","","","","","","","","",""
"","","","","","image-button-response","64","851599","0.0-2.0-4.0-1.5","60d9faa609c8dcb9e5e05481","F1","batch6","spm_respsonse","18164.200000047684","img/question_3_6.jpeg","3","mat_30","4","1","1","18164.200000047684","","","","","","","","","","","","","","","","","","","","",""
"","","","","","html-keyboard-response","65","852657","0.0-2.0-4.0-0.6","60d9faa609c8dcb9e5e05481","F1","batch6","spm_show_trial_num","null","<p class=block-text>Trial 31 out of 60</p>","null","","","","","","","","","","","","","","","","","","","","","","","","","",""
"","","","","","image-button-response","66","876384","0.0-2.0-4.0-1.6","60d9faa609c8dcb9e5e05481","F1","batch6","spm_respsonse","23725.100000023842","img/question_3_7.jpeg","4","mat_31","5","1","1","23725.100000023842","","","","","","","","","","","","","","","","","","","","",""
"","","","","","html-keyboard-response","67","877437","0.0-2.0-4.0-0.7","60d9faa609c8dcb9e5e05481","F1","batch6","spm_show_trial_num","null","<p class=block-text>Trial 32 out of 60</p>","null","","","","","","","","","","","","","","","","","","","","","","","","","",""
"","","","","","image-button-response","68","940741","0.0-2.0-4.0-1.7","60d9faa609c8dcb9e5e05481","F1","batch6","spm_respsonse","63299.39999997616","img/question_3_8.jpeg","0","mat_32","1","1","1","63299.39999997616","","","","","","","","","","","","","","","","","","","","",""
"","","","","","html-keyboard-response","69","941804","0.0-2.0-4.0-0.8","60d9faa609c8dcb9e5e05481","F1","batch6","spm_show_trial_num","null","<p class=block-text>Trial 33 out of 60</p>","null","","","","","","","","","","","","","","","","","","","","","","","","","",""
"","","","","","image-button-response","70","952205","0.0-2.0-4.0-1.8","60d9faa609c8dcb9e5e05481","F1","batch6","spm_respsonse","10398.800000071526","img/question_3_9.jpeg","6","mat_33","7","1","1","10398.800000071526","","","","","","","","","","","","","","","","","","","","",""
"","","","","","html-keyboard-response","71","953258","0.0-2.0-4.0-0.9","60d9faa609c8dcb9e5e05481","F1","batch6","spm_show_trial_num","null","<p class=block-text>Trial 34 out of 60</p>","null","","","","","","","","","","","","","","","","","","","","","","","","","",""
"","","","","","image-button-response","72","982641","0.0-2.0-4.0-1.9","60d9faa609c8dcb9e5e05481","F1","batch6","spm_respsonse","29379","img/question_3_10.jpeg","5","mat_34","6","1","1","29379","","","","","","","","","","","","","","","","","","","","",""
"","","","","","html-keyboard-response","73","983694","0.0-2.0-4.0-0.10","60d9faa609c8dcb9e5e05481","F1","batch6","spm_show_trial_num","null","<p class=block-text>Trial 35 out of 60</p>","null","","","","","","","","","","","","","","","","","","","","","","","","","",""
"","","","","","image-button-response","74","1060577","0.0-2.0-4.0-1.10","60d9faa609c8dcb9e5e05481","F1","batch6","spm_respsonse","76878.60000002384","img/question_3_11.jpeg","1","mat_35","1","0","0","76878.60000002384","","","","","","","","","","","","","","","","","","","","",""
"","","","","","html-keyboard-response","75","1061634","0.0-2.0-4.0-0.11","60d9faa609c8dcb9e5e05481","F1","batch6","spm_show_trial_num","null","<p class=block-text>Trial 36 out of 60</p>","null","","","","","","","","","","","","","","","","","","","","","","","","","",""
"","","","","","image-button-response","76","1097055","0.0-2.0-4.0-1.11","60d9faa609c8dcb9e5e05481","F1","batch6","spm_respsonse","35416.39999997616","img/question_3_12.jpeg","2","mat_36","2","0","0","35416.39999997616","","","","","","","","","","","","","","","","","","","","",""
"","","","","","html-keyboard-response","77","1098114","0.0-2.0-4.0-0.12","60d9faa609c8dcb9e5e05481","F1","batch6","spm_show_trial_num","null","<p class=block-text>Trial 37 out of 60</p>","null","","","","","","","","","","","","","","","","","","","","","","","","","",""
"","","","","","image-button-response","78","1103099","0.0-2.0-4.0-1.12","60d9faa609c8dcb9e5e05481","F1","batch6","spm_respsonse","4980.5","img/question_4_1.jpeg","2","mat_37","3","1","1","4980.5","","","","","","","","","","","","","","","","","","","","",""
"","","","","","html-keyboard-response","79","1104155","0.0-2.0-4.0-0.13","60d9faa609c8dcb9e5e05481","F1","batch6","spm_show_trial_num","null","<p class=block-text>Trial 38 out of 60</p>","null","","","","","","","","","","","","","","","","","","","","","","","","","",""
"","","","","","image-button-response","80","1109693","0.0-2.0-4.0-1.13","60d9faa609c8dcb9e5e05481","F1","batch6","spm_respsonse","5533.600000023842","img/question_4_2.jpeg","3","mat_38","4","1","1","5533.600000023842","","","","","","","","","","","","","","","","","","","","",""
"","","","","","html-keyboard-response","81","1110744","0.0-2.0-4.0-0.14","60d9faa609c8dcb9e5e05481","F1","batch6","spm_show_trial_num","null","<p class=block-text>Trial 39 out of 60</p>","null","","","","","","","","","","","","","","","","","","","","","","","","","",""
"","","","","","image-button-response","82","1122665","0.0-2.0-4.0-1.14","60d9faa609c8dcb9e5e05481","F1","batch6","spm_respsonse","11916.5","img/question_4_3.jpeg","2","mat_39","3","1","1","11916.5","","","","","","","","","","","","","","","","","","","","",""
"","","","","","html-keyboard-response","83","1123736","0.0-2.0-4.0-0.15","60d9faa609c8dcb9e5e05481","F1","batch6","spm_show_trial_num","null","<p class=block-text>Trial 40 out of 60</p>","null","","","","","","","","","","","","","","","","","","","","","","","","","",""
"","","","","","image-button-response","84","1151139","0.0-2.0-4.0-1.15","60d9faa609c8dcb9e5e05481","F1","batch6","spm_respsonse","27398.399999976158","img/question_4_4.jpeg","6","mat_40","7","1","1","27398.399999976158","","","","","","","","","","","","","","","","","","","","",""
"","","","","","html-keyboard-response","85","1152191","0.0-2.0-4.0-0.16","60d9faa609c8dcb9e5e05481","F1","batch6","spm_show_trial_num","null","<p class=block-text>Trial 41 out of 60</p>","null","","","","","","","","","","","","","","","","","","","","","","","","","",""
"","","","","","image-button-response","86","1167029","0.0-2.0-4.0-1.16","60d9faa609c8dcb9e5e05481","F1","batch6","spm_respsonse","14833.200000047684","img/question_4_5.jpeg","7","mat_41","8","1","1","14833.200000047684","","","","","","","","","","","","","","","","","","","","",""
"","","","","","html-keyboard-response","87","1168086","0.0-2.0-4.0-0.17","60d9faa609c8dcb9e5e05481","F1","batch6","spm_show_trial_num","null","<p class=block-text>Trial 42 out of 60</p>","null","","","","","","","","","","","","","","","","","","","","","","","","","",""
"","","","","","image-button-response","88","1194423","0.0-2.0-4.0-1.17","60d9faa609c8dcb9e5e05481","F1","batch6","spm_respsonse","26332.799999952316","img/question_4_6.jpeg","5","mat_42","6","1","1","26332.799999952316","","","","","","","","","","","","","","","","","","","","",""
"","","","","","html-keyboard-response","89","1195478","0.0-2.0-4.0-0.18","60d9faa609c8dcb9e5e05481","F1","batch6","spm_show_trial_num","null","<p class=block-text>Trial 43 out of 60</p>","null","","","","","","","","","","","","","","","","","","","","","","","","","",""
"","","","","","image-button-response","90","1225582","0.0-2.0-4.0-1.18","60d9faa609c8dcb9e5e05481","F1","batch6","spm_respsonse","30100.899999976158","img/question_4_7.jpeg","4","mat_43","5","1","1","30100.899999976158","","","","","","","","","","","","","","","","","","","","",""
"","","","","","html-keyboard-response","91","1226656","0.0-2.0-4.0-0.19","60d9faa609c8dcb9e5e05481","F1","batch6","spm_show_trial_num","null","<p class=block-text>Trial 44 out of 60</p>","null","","","","","","","","","","","","","","","","","","","","","","","","","",""
"","","","","","image-button-response","92","1245005","0.0-2.0-4.0-1.19","60d9faa609c8dcb9e5e05481","F1","batch6","spm_respsonse","18345","img/question_4_8.jpeg","3","mat_44","4","1","1","18345","","","","","","","","","","","","","","","","","","","","",""
"","","","","","html-keyboard-response","93","1246067","0.0-2.0-4.0-0.20","60d9faa609c8dcb9e5e05481","F1","batch6","spm_show_trial_num","null","<p class=block-text>Trial 45 out of 60</p>","null","","","","","","","","","","","","","","","","","","","","","","","","","",""
"","","","","","image-button-response","94","1293869","0.0-2.0-4.0-1.20","60d9faa609c8dcb9e5e05481","F1","batch6","spm_respsonse","47797.89999997616","img/question_4_9.jpeg","0","mat_45","1","1","1","47797.89999997616","","","","","","","","","","","","","","","","","","","","",""
"","","","","","html-keyboard-response","95","1294922","0.0-2.0-4.0-0.21","60d9faa609c8dcb9e5e05481","F1","batch6","spm_show_trial_num","null","<p class=block-text>Trial 46 out of 60</p>","null","","","","","","","","","","","","","","","","","","","","","","","","","",""
"","","","","","image-button-response","96","1322505","0.0-2.0-4.0-1.21","60d9faa609c8dcb9e5e05481","F1","batch6","spm_respsonse","27578.5","img/question_4_10.jpeg","4","mat_46","2","0","0","27578.5","","","","","","","","","","","","","","","","","","","","",""
"","","","","","html-keyboard-response","97","1323569","0.0-2.0-4.0-0.22","60d9faa609c8dcb9e5e05481","F1","batch6","spm_show_trial_num","null","<p class=block-text>Trial 47 out of 60</p>","null","","","","","","","","","","","","","","","","","","","","","","","","","",""
"","","","","","image-button-response","98","1374939","0.0-2.0-4.0-1.22","60d9faa609c8dcb9e5e05481","F1","batch6","spm_respsonse","51366.5","img/question_4_11.jpeg","4","mat_47","5","1","1","51366.5","","","","","","","","","","","","","","","","","","","","",""
"","","","","","html-keyboard-response","99","1375996","0.0-2.0-4.0-0.23","60d9faa609c8dcb9e5e05481","F1","batch6","spm_show_trial_num","null","<p class=block-text>Trial 48 out of 60</p>","null","","","","","","","","","","","","","","","","","","","","","","","","","",""
"","","","","","image-button-response","100","1437451","0.0-2.0-4.0-1.23","60d9faa609c8dcb9e5e05481","F1","batch6","spm_respsonse","61450.09999990463","img/question_4_12.jpeg","6","mat_48","6","0","0","61450.09999990463","","","","","","","","","","","","","","","","","","","","",""
"","","","","","html-keyboard-response","101","1438505","0.0-2.0-4.0-0.24","60d9faa609c8dcb9e5e05481","F1","batch6","spm_show_trial_num","null","<p class=block-text>Trial 49 out of 60</p>","null","","","","","","","","","","","","","","","","","","","","","","","","","",""
"","","","","","image-button-response","102","1445031","0.0-2.0-4.0-1.24","60d9faa609c8dcb9e5e05481","F1","batch6","spm_respsonse","6522.699999928474","img/question_5_1.jpeg","0","mat_49","7","0","0","6522.699999928474","","","","","","","","","","","","","","","","","","","","",""
"","","","","","html-keyboard-response","103","1446086","0.0-2.0-4.0-0.25","60d9faa609c8dcb9e5e05481","F1","batch6","spm_show_trial_num","null","<p class=block-text>Trial 50 out of 60</p>","null","","","","","","","","","","","","","","","","","","","","","","","","","",""
"","","","","","image-button-response","104","1506911","0.0-2.0-4.0-1.25","60d9faa609c8dcb9e5e05481","F1","batch6","spm_respsonse","60820.39999997616","img/question_5_2.jpeg","2","mat_50","6","0","0","60820.39999997616","","","","","","","","","","","","","","","","","","","","",""
"","","","","","html-keyboard-response","105","1507963","0.0-2.0-4.0-0.26","60d9faa609c8dcb9e5e05481","F1","batch6","spm_show_trial_num","null","<p class=block-text>Trial 51 out of 60</p>","null","","","","","","","","","","","","","","","","","","","","","","","","","",""
"","","","","","image-button-response","106","1609269","0.0-2.0-4.0-1.26","60d9faa609c8dcb9e5e05481","F1","batch6","spm_respsonse","101304","img/question_5_3.jpeg","7","mat_51","8","1","1","101304","","","","","","","","","","","","","","","","","","","","",""
"","","","","","html-keyboard-response","107","1610328","0.0-2.0-4.0-0.27","60d9faa609c8dcb9e5e05481","F1","batch6","spm_show_trial_num","null","<p class=block-text>Trial 52 out of 60</p>","null","","","","","","","","","","","","","","","","","","","","","","","","","",""
"","","","","","image-button-response","108","1640017","0.0-2.0-4.0-1.27","60d9faa609c8dcb9e5e05481","F1","batch6","spm_respsonse","29685.700000047684","img/question_5_4.jpeg","3","mat_52","2","0","0","29685.700000047684","","","","","","","","","","","","","","","","","","","","",""
"","","","","","html-keyboard-response","109","1641078","0.0-2.0-4.0-0.28","60d9faa609c8dcb9e5e05481","F1","batch6","spm_show_trial_num","null","<p class=block-text>Trial 53 out of 60</p>","null","","","","","","","","","","","","","","","","","","","","","","","","","",""
"","","","","","image-button-response","110","1661069","0.0-2.0-4.0-1.28","60d9faa609c8dcb9e5e05481","F1","batch6","spm_respsonse","19986.700000047684","img/question_5_5.jpeg","6","mat_53","1","0","0","19986.700000047684","","","","","","","","","","","","","","","","","","","","",""
"","","","","","html-keyboard-response","111","1662135","0.0-2.0-4.0-0.29","60d9faa609c8dcb9e5e05481","F1","batch6","spm_show_trial_num","null","<p class=block-text>Trial 54 out of 60</p>","null","","","","","","","","","","","","","","","","","","","","","","","","","",""
"","","","","","image-button-response","112","1752801","0.0-2.0-4.0-1.29","60d9faa609c8dcb9e5e05481","F1","batch6","spm_respsonse","90661.29999995232","img/question_5_6.jpeg","1","mat_54","5","0","0","90661.29999995232","","","","","","","","","","","","","","","","","","","","",""
"","","","","","html-keyboard-response","113","1753865","0.0-2.0-4.0-0.30","60d9faa609c8dcb9e5e05481","F1","batch6","spm_show_trial_num","null","<p class=block-text>Trial 55 out of 60</p>","null","","","","","","","","","","","","","","","","","","","","","","","","","",""
"","","","","","image-button-response","114","1828935","0.0-2.0-4.0-1.30","60d9faa609c8dcb9e5e05481","F1","batch6","spm_respsonse","75065.79999995232","img/question_5_7.jpeg","5","mat_55","1","0","0","75065.79999995232","","","","","","","","","","","","","","","","","","","","",""
"","","","","","html-keyboard-response","115","1830006","0.0-2.0-4.0-0.31","60d9faa609c8dcb9e5e05481","F1","batch6","spm_show_trial_num","null","<p class=block-text>Trial 56 out of 60</p>","null","","","","","","","","","","","","","","","","","","","","","","","","","",""
"","","","","","image-button-response","116","1861571","0.0-2.0-4.0-1.31","60d9faa609c8dcb9e5e05481","F1","batch6","spm_respsonse","31560.799999952316","img/question_5_8.jpeg","5","mat_56","6","1","1","31560.799999952316","","","","","","","","","","","","","","","","","","","","",""
"","","","","","html-keyboard-response","117","1862632","0.0-2.0-4.0-0.32","60d9faa609c8dcb9e5e05481","F1","batch6","spm_show_trial_num","null","<p class=block-text>Trial 57 out of 60</p>","null","","","","","","","","","","","","","","","","","","","","","","","","","",""
"","","","","","image-button-response","118","1892457","0.0-2.0-4.0-1.32","60d9faa609c8dcb9e5e05481","F1","batch6","spm_respsonse","29820.600000023842","img/question_5_9.jpeg","3","mat_57","3","0","0","29820.600000023842","","","","","","","","","","","","","","","","","","","","",""
"","","","","","html-keyboard-response","119","1893509","0.0-2.0-4.0-0.33","60d9faa609c8dcb9e5e05481","F1","batch6","spm_show_trial_num","null","<p class=block-text>Trial 58 out of 60</p>","null","","","","","","","","","","","","","","","","","","","","","","","","","",""
"","","","","","image-button-response","120","1916135","0.0-2.0-4.0-1.33","60d9faa609c8dcb9e5e05481","F1","batch6","spm_respsonse","22621.700000047684","img/question_5_10.jpeg","6","mat_58","2","0","0","22621.700000047684","","","","","","","","","","","","","","","","","","","","",""
"","","","","","html-keyboard-response","121","1917187","0.0-2.0-4.0-0.34","60d9faa609c8dcb9e5e05481","F1","batch6","spm_show_trial_num","null","<p class=block-text>Trial 59 out of 60</p>","null","","","","","","","","","","","","","","","","","","","","","","","","","",""
"","","","","","image-button-response","122","1951387","0.0-2.0-4.0-1.34","60d9faa609c8dcb9e5e05481","F1","batch6","spm_respsonse","34195.799999952316","img/question_5_11.jpeg","4","mat_59","4","0","0","34195.799999952316","","","","","","","","","","","","","","","","","","","","",""
"","","","","","html-keyboard-response","123","1952446","0.0-2.0-4.0-0.35","60d9faa609c8dcb9e5e05481","F1","batch6","spm_show_trial_num","null","<p class=block-text>Trial 60 out of 60</p>","null","","","","","","","","","","","","","","","","","","","","","","","","","",""
"","","","","","image-button-response","124","1977075","0.0-2.0-4.0-1.35","60d9faa609c8dcb9e5e05481","F1","batch6","spm_respsonse","24624.899999976158","img/question_5_12.jpeg","6","mat_60","5","0","0","24624.899999976158","","","","","","","","","","","","","","","","","","","","",""
"","","","","","html-button-response","125","1997913","0.0-2.0-5.0","60d9faa609c8dcb9e5e05481","F1","batch6","spm_goodbye","20585.899999976158","<p class= block-text>This concludes the Standard Progressive Matrix game. Thank you for your responses!<br> When you are ready, click the button continue</p>","0","","","","","","","","","","","","","","","","","","","","","","","","","",""
"true","","","","","fullscreen","126","2005710","0.0-3.0-0.0","60d9faa609c8dcb9e5e05481","F1","batch6","","","","","","","","","","","","","","","","","","","","","","","","","","","","","",""
"","","","","","instructions","127","2043007","0.0-3.0-1.0-0.0","60d9faa609c8dcb9e5e05481","F1","batch6","","37295.299999952316","","","","","","","","[{""page_index"":0,""viewing_time"":27057},{""page_index"":1,""viewing_time"":10238}]","","","","","","","","","","","","","","","","","","","",""
"","","","","","html-button-response","128","2046245","0.0-3.0-1.0-1.0-0.0","60d9faa609c8dcb9e5e05481","F1","batch6","pattern_enter_quiz","3237.600000023842","<p class=block-text> Let's answer a few questions <br>","0","","","","","","","","","","","","","","","","","","","","","","","","","",""
"","","","","","html-button-response","129","2052943","0.0-3.0-1.0-1.0-1.0","60d9faa609c8dcb9e5e05481","F1","batch6","pattern_quiz","6697.100000023842","<p class = block-text>True or False: You will have as much time as you want to make each choice. <br></p>","1","","","true","","","","","","","","","","","","","","","","","","","","","","",""
"","","","","","html-button-response","130","2055863","0.0-3.0-1.0-1.0-2.0","60d9faa609c8dcb9e5e05481","F1","batch6","pattern_quiz_feedback","2918.7000000476837","<p class = block-text>Correct! You should make your choice <strong> as fast as you can</strong>.</p>","0","","","","","","","","","","","","","","","","","","","","","","","","","",""
"","","","","","html-button-response","131","2061633","0.0-3.0-1.0-1.0-3.0","60d9faa609c8dcb9e5e05481","F1","batch6","pattern_quiz","5769.399999976158","<p class = block-text>True or False: You will look for 4 pieces in black or white color connected in a row either horizontally, vertically or diagonally. <br></p>","0","","","true","","","","","","","","","","","","","","","","","","","","","","",""
"","","","","","html-button-response","132","2063953","0.0-3.0-1.0-1.0-4.0","60d9faa609c8dcb9e5e05481","F1","batch6","pattern_quiz_feedback","2319.3000000715256","<p class = block-text>Correct! </p>","0","","","","","","","","","","","","","","","","","","","","","","","","","",""
"","","","","","html-button-response","133","2068163","0.0-3.0-2.0","60d9faa609c8dcb9e5e05481","F1","batch6","pattern_enter_practice","4208.5","<p class=block-text> Now that you've understood the game, let's do a few practice trials before we start!<br> <br>","0","","","","","","","","","","","","","","","","","","","","","","","","","",""
"","","","","","image-keyboard-response","134","2071012","0.0-3.0-3.0-0.0","60d9faa609c8dcb9e5e05481","F1","batch6","pattern_practice","2846.1999999284744","stim/prac_no_16_1.png","j","","j","true","","","","","","","","","","","","","","","","","","","","","","",""
"","","","","","html-keyboard-response","135","2072030","0.0-3.0-3.0-1.0","60d9faa609c8dcb9e5e05481","F1","batch6","pattern_feedback","null","<p style=""font-size:30px;color:green;"">Correct!</p>","null","","","","","","","","","","","","","","","","","","","","","","","","","",""
"","","","","","image-keyboard-response","136","2073122","0.0-3.0-3.0-0.1","60d9faa609c8dcb9e5e05481","F1","batch6","pattern_practice","1089.1999999284744","stim/prac_no_18_1.png","j","","j","true","","","","","","","","","","","","","","","","","","","","","","",""
"","","","","","html-keyboard-response","137","2074134","0.0-3.0-3.0-1.1","60d9faa609c8dcb9e5e05481","F1","batch6","pattern_feedback","null","<p style=""font-size:30px;color:green;"">Correct!</p>","null","","","","","","","","","","","","","","","","","","","","","","","","","",""
"","","","","","image-keyboard-response","138","2075140","0.0-3.0-3.0-0.2","60d9faa609c8dcb9e5e05481","F1","batch6","pattern_practice","1002.7999999523163","stim/prac_yes_16_ver_w1.png","f","","f","true","","","","","","","","","","","","","","","","","","","","","","",""
"","","","","","html-keyboard-response","139","2076148","0.0-3.0-3.0-1.2","60d9faa609c8dcb9e5e05481","F1","batch6","pattern_feedback","null","<p style=""font-size:30px;color:green;"">Correct!</p>","null","","","","","","","","","","","","","","","","","","","","","","","","","",""
"","","","","","image-keyboard-response","140","2077152","0.0-3.0-3.0-0.3","60d9faa609c8dcb9e5e05481","F1","batch6","pattern_practice","1000.9000000953674","stim/prac_yes_20_dia_b1.png","f","","f","true","","","","","","","","","","","","","","","","","","","","","","",""
"","","","","","html-keyboard-response","141","2078170","0.0-3.0-3.0-1.3","60d9faa609c8dcb9e5e05481","F1","batch6","pattern_feedback","null","<p style=""font-size:30px;color:green;"">Correct!</p>","null","","","","","","","","","","","","","","","","","","","","","","","","","",""
"","","","","","image-keyboard-response","142","2079063","0.0-3.0-3.0-0.4","60d9faa609c8dcb9e5e05481","F1","batch6","pattern_practice","889.5","stim/prac_yes_18_hor_w1.png","f","","f","true","","","","","","","","","","","","","","","","","","","","","","",""
"","","","","","html-keyboard-response","143","2080080","0.0-3.0-3.0-1.4","60d9faa609c8dcb9e5e05481","F1","batch6","pattern_feedback","null","<p style=""font-size:30px;color:green;"">Correct!</p>","null","","","","","","","","","","","","","","","","","","","","","","","","","",""
"","","","","","html-button-response","144","2089411","0.0-3.0-4.0","60d9faa609c8dcb9e5e05481","F1","batch6","pattern_enter_official_trials","9329","<p class=block-text> Good job! You are done with practice trials!<br>
        You responded correctly on 100% of the trials.<br>
        Press the button below to start official trials. Now you won't see any feedback about your response</p>","0","","","","","","","","","","","","","","","","","","","","","","","","","",""
"","","","","","html-keyboard-response","145","2090213","0.0-3.0-5.0-0.0","60d9faa609c8dcb9e5e05481","F1","batch6","pattern_show_trial_num","null","<p class=block-text>Trial 1 out of 78</p>","null","","","","","","","","","","","","","","","","","","","","","","","","","",""
"","","","","","image-keyboard-response","146","2091100","0.0-3.0-5.0-1.0","60d9faa609c8dcb9e5e05481","F1","batch6","pattern_response","882.5999999046326","stim/yes_44_ver_w1_w.png","f","pattern_66","f","true","","","","882.5999999046326","true","1","","","","","","","","","","","","","","","","",""
"","","","","","html-keyboard-response","147","2092410","0.0-3.0-5.0-0.1","60d9faa609c8dcb9e5e05481","F1","batch6","pattern_show_trial_num","null","<p class=block-text>Trial 2 out of 78</p>","null","","","","","","","","","","","","","","","","","","","","","","","","","",""
"","","","","","image-keyboard-response","148","2095100","0.0-3.0-5.0-1.1","60d9faa609c8dcb9e5e05481","F1","batch6","pattern_response","2687.1999999284744","stim/no_53_1_b.png","f","pattern_33","j","false","","","","2687.1999999284744","false","1","","","","","","","","","","","","","","","","",""
"","","","","","html-keyboard-response","149","2096416","0.0-3.0-5.0-0.2","60d9faa609c8dcb9e5e05481","F1","batch6","pattern_show_trial_num","null","<p class=block-text>Trial 3 out of 78</p>","null","","","","","","","","","","","","","","","","","","","","","","","","","",""
"","","","","","image-keyboard-response","150","2098000","0.0-3.0-5.0-1.2","60d9faa609c8dcb9e5e05481","F1","batch6","pattern_response","1579.5999999046326","stim/no_22_1_b.png","j","pattern_07","j","true","","","","1579.5999999046326","true","2","","","","","","","","","","","","","","","","",""
"","","","","","html-keyboard-response","151","2099315","0.0-3.0-5.0-0.3","60d9faa609c8dcb9e5e05481","F1","batch6","pattern_show_trial_num","null","<p class=block-text>Trial 4 out of 78</p>","null","","","","","","","","","","","","","","","","","","","","","","","","","",""
"","","","","","image-keyboard-response","152","2100775","0.0-3.0-5.0-1.3","60d9faa609c8dcb9e5e05481","F1","batch6","pattern_response","1457.1999999284744","stim/yes_23_ver_b1.png","j","pattern_48","f","false","","","","1457.1999999284744","false","2","","","","","","","","","","","","","","","","",""
"","","","","","html-keyboard-response","153","2102098","0.0-3.0-5.0-0.4","60d9faa609c8dcb9e5e05481","F1","batch6","pattern_show_trial_num","null","<p class=block-text>Trial 5 out of 78</p>","null","","","","","","","","","","","","","","","","","","","","","","","","","",""
"","","","","","image-keyboard-response","154","2103480","0.0-3.0-5.0-1.4","60d9faa609c8dcb9e5e05481","F1","batch6","pattern_response","1378","stim/no_33_1_b.png","f","pattern_15","j","false","","","","1378","false","2","","","","","","","","","","","","","","","","",""
"","","","","","html-keyboard-response","155","2104799","0.0-3.0-5.0-0.5","60d9faa609c8dcb9e5e05481","F1","batch6","pattern_show_trial_num","null","<p class=block-text>Trial 6 out of 78</p>","null","","","","","","","","","","","","","","","","","","","","","","","","","",""
"","","","","","image-keyboard-response","156","2108716","0.0-3.0-5.0-1.5","60d9faa609c8dcb9e5e05481","F1","batch6","pattern_response","3913.8000000715256","stim/yes_42_dia_w1_w.png","j","pattern_64","f","false","","","","3913.8000000715256","false","2","","","","","","","","","","","","","","","","",""
"","","","","","html-keyboard-response","157","2110033","0.0-3.0-5.0-0.6","60d9faa609c8dcb9e5e05481","F1","batch6","pattern_show_trial_num","null","<p class=block-text>Trial 7 out of 78</p>","null","","","","","","","","","","","","","","","","","","","","","","","","","",""
"","","","","","image-keyboard-response","158","2113562","0.0-3.0-5.0-1.6","60d9faa609c8dcb9e5e05481","F1","batch6","pattern_response","3527.6999999284744","stim/yes_39_hor_w1_w.png","j","pattern_62","f","false","","","","3527.6999999284744","false","2","","","","","","","","","","","","","","","","",""
"","","","","","html-keyboard-response","159","2114869","0.0-3.0-5.0-0.7","60d9faa609c8dcb9e5e05481","F1","batch6","pattern_show_trial_num","null","<p class=block-text>Trial 8 out of 78</p>","null","","","","","","","","","","","","","","","","","","","","","","","","","",""
"","","","","","image-keyboard-response","160","2121448","0.0-3.0-5.0-1.7","60d9faa609c8dcb9e5e05481","F1","batch6","pattern_response","6575.899999976158","stim/yes_49_hor_w1_b.png","f","pattern_70","f","true","","","","6575.899999976158","true","3","","","","","","","","","","","","","","","","",""
"","","","","","html-keyboard-response","161","2122777","0.0-3.0-5.0-0.8","60d9faa609c8dcb9e5e05481","F1","batch6","pattern_show_trial_num","null","<p class=block-text>Trial 9 out of 78</p>","null","","","","","","","","","","","","","","","","","","","","","","","","","",""
"","","","","","image-keyboard-response","162","2123876","0.0-3.0-5.0-1.8","60d9faa609c8dcb9e5e05481","F1","batch6","pattern_response","1095.5","stim/yes_17_ver_b1_b.png","f","pattern_46","f","true","","","","1095.5","true","4","","","","","","","","","","","","","","","","",""
"","","","","","html-keyboard-response","163","2125188","0.0-3.0-5.0-0.9","60d9faa609c8dcb9e5e05481","F1","batch6","pattern_show_trial_num","null","<p class=block-text>Trial 10 out of 78</p>","null","","","","","","","","","","","","","","","","","","","","","","","","","",""
"","","","","","image-keyboard-response","164","2125966","0.0-3.0-5.0-1.9","60d9faa609c8dcb9e5e05481","F1","batch6","pattern_response","775.7000000476837","stim/yes_15_dia_b1u_b.png","f","pattern_44","f","true","","","","775.7000000476837","true","5","","","","","","","","","","","","","","","","",""
"","","","","","html-keyboard-response","165","2127283","0.0-3.0-5.0-0.10","60d9faa609c8dcb9e5e05481","F1","batch6","pattern_show_trial_num","null","<p class=block-text>Trial 11 out of 78</p>","null","","","","","","","","","","","","","","","","","","","","","","","","","",""
"","","","","","image-keyboard-response","166","2128442","0.0-3.0-5.0-1.10","60d9faa609c8dcb9e5e05481","F1","batch6","pattern_response","1157.2000000476837","stim/no_12_1.png","j","pattern_01","j","true","","","","1157.2000000476837","true","6","","","","","","","","","","","","","","","","",""
"","","","","","html-keyboard-response","167","2129760","0.0-3.0-5.0-0.11","60d9faa609c8dcb9e5e05481","F1","batch6","pattern_show_trial_num","null","<p class=block-text>Trial 12 out of 78</p>","null","","","","","","","","","","","","","","","","","","","","","","","","","",""
"","","","","","image-keyboard-response","168","2134540","0.0-3.0-5.0-1.11","60d9faa609c8dcb9e5e05481","F1","batch6","pattern_response","4776.899999976158","stim/no_45_1_w.png","f","pattern_25","j","false","","","","4776.899999976158","false","6","","","","","","","","","","","","","","","","",""
"","","","","","html-keyboard-response","169","2135860","0.0-3.0-5.0-0.12","60d9faa609c8dcb9e5e05481","F1","batch6","pattern_show_trial_num","null","<p class=block-text>Trial 13 out of 78</p>","null","","","","","","","","","","","","","","","","","","","","","","","","","",""
"","","","","","image-keyboard-response","170","2138445","0.0-3.0-5.0-1.12","60d9faa609c8dcb9e5e05481","F1","batch6","pattern_response","2581.2000000476837","stim/no_67_1.png","f","pattern_39","j","false","","","","2581.2000000476837","false","6","","","","","","","","","","","","","","","","",""
"","","","","","html-keyboard-response","171","2139761","0.0-3.0-5.0-0.13","60d9faa609c8dcb9e5e05481","F1","batch6","pattern_show_trial_num","null","<p class=block-text>Trial 14 out of 78</p>","null","","","","","","","","","","","","","","","","","","","","","","","","","",""
"","","","","","image-keyboard-response","172","2146278","0.0-3.0-5.0-1.13","60d9faa609c8dcb9e5e05481","F1","batch6","pattern_response","6513.5","stim/yes_63_dia_b1.png","f","pattern_78","f","true","","","","6513.5","true","7","","","","","","","","","","","","","","","","",""
"","","","","","html-keyboard-response","173","2147594","0.0-3.0-5.0-0.14","60d9faa609c8dcb9e5e05481","F1","batch6","pattern_show_trial_num","null","<p class=block-text>Trial 15 out of 78</p>","null","","","","","","","","","","","","","","","","","","","","","","","","","",""
"","","","","","image-keyboard-response","174","2149602","0.0-3.0-5.0-1.14","60d9faa609c8dcb9e5e05481","F1","batch6","pattern_response","2012.6999999284744","stim/no_49_2_b.png","f","pattern_29","j","false","","","","2012.6999999284744","false","7","","","","","","","","","","","","","","","","",""
"","","","","","html-keyboard-response","175","2150926","0.0-3.0-5.0-0.15","60d9faa609c8dcb9e5e05481","F1","batch6","pattern_show_trial_num","null","<p class=block-text>Trial 16 out of 78</p>","null","","","","","","","","","","","","","","","","","","","","","","","","","",""
"","","","","","image-keyboard-response","176","2152590","0.0-3.0-5.0-1.15","60d9faa609c8dcb9e5e05481","F1","batch6","pattern_response","1660.8000000715256","stim/yes_30_ver_b1_b.png","f","pattern_54","f","true","","","","1660.8000000715256","true","8","","","","","","","","","","","","","","","","",""
"","","","","","html-keyboard-response","177","2153920","0.0-3.0-5.0-0.16","60d9faa609c8dcb9e5e05481","F1","batch6","pattern_show_trial_num","null","<p class=block-text>Trial 17 out of 78</p>","null","","","","","","","","","","","","","","","","","","","","","","","","","",""
"","","","","","image-keyboard-response","178","2154924","0.0-3.0-5.0-1.16","60d9faa609c8dcb9e5e05481","F1","batch6","pattern_response","1000.8000000715256","stim/yes_12_hor_w1_w.png","f","pattern_42","f","true","","","","1000.8000000715256","true","9","","","","","","","","","","","","","","","","",""
"","","","","","html-keyboard-response","179","2156241","0.0-3.0-5.0-0.17","60d9faa609c8dcb9e5e05481","F1","batch6","pattern_show_trial_num","null","<p class=block-text>Trial 18 out of 78</p>","null","","","","","","","","","","","","","","","","","","","","","","","","","",""
"","","","","","image-keyboard-response","180","2159099","0.0-3.0-5.0-1.17","60d9faa609c8dcb9e5e05481","F1","batch6","pattern_response","2854.899999976158","stim/yes_37_hor_w1_w.png","f","pattern_60","f","true","","","","2854.899999976158","true","10","","","","","","","","","","","","","","","","",""
"","","","","","html-keyboard-response","181","2160419","0.0-3.0-5.0-0.18","60d9faa609c8dcb9e5e05481","F1","batch6","pattern_show_trial_num","null","<p class=block-text>Trial 19 out of 78</p>","null","","","","","","","","","","","","","","","","","","","","","","","","","",""
"","","","","","image-keyboard-response","182","2161700","0.0-3.0-5.0-1.18","60d9faa609c8dcb9e5e05481","F1","batch6","pattern_response","1278.3999999761581","stim/yes_36_ver_w1_w.png","f","pattern_58","f","true","","","","1278.3999999761581","true","11","","","","","","","","","","","","","","","","",""
"","","","","","html-keyboard-response","183","2163009","0.0-3.0-5.0-0.19","60d9faa609c8dcb9e5e05481","F1","batch6","pattern_show_trial_num","null","<p class=block-text>Trial 20 out of 78</p>","null","","","","","","","","","","","","","","","","","","","","","","","","","",""
"","","","","","image-keyboard-response","184","2171199","0.0-3.0-5.0-1.19","60d9faa609c8dcb9e5e05481","F1","batch6","pattern_response","8187.399999976158","stim/yes_51_dia_b1.png","f","pattern_72","f","true","","","","8187.399999976158","true","12","","","","","","","","","","","","","","","","",""
"","","","","","html-keyboard-response","185","2172519","0.0-3.0-5.0-0.20","60d9faa609c8dcb9e5e05481","F1","batch6","pattern_show_trial_num","null","<p class=block-text>Trial 21 out of 78</p>","null","","","","","","","","","","","","","","","","","","","","","","","","","",""
"","","","","","image-keyboard-response","186","2179100","0.0-3.0-5.0-1.20","60d9faa609c8dcb9e5e05481","F1","batch6","pattern_response","6577.199999928474","stim/no_51_1.png","f","pattern_31","j","false","","","","6577.199999928474","false","12","","","","","","","","","","","","","","","","",""
"","","","","","html-keyboard-response","187","2180411","0.0-3.0-5.0-0.21","60d9faa609c8dcb9e5e05481","F1","batch6","pattern_show_trial_num","null","<p class=block-text>Trial 22 out of 78</p>","null","","","","","","","","","","","","","","","","","","","","","","","","","",""
"","","","","","image-keyboard-response","188","2186157","0.0-3.0-5.0-1.21","60d9faa609c8dcb9e5e05481","F1","batch6","pattern_response","5741.700000047684","stim/yes_46_ver_b1_b.png","f","pattern_68","f","true","","","","5741.700000047684","true","13","","","","","","","","","","","","","","","","",""
"","","","","","html-keyboard-response","189","2187474","0.0-3.0-5.0-0.22","60d9faa609c8dcb9e5e05481","F1","batch6","pattern_show_trial_num","null","<p class=block-text>Trial 23 out of 78</p>","null","","","","","","","","","","","","","","","","","","","","","","","","","",""
"","","","","","image-keyboard-response","190","2190936","0.0-3.0-5.0-1.22","60d9faa609c8dcb9e5e05481","F1","batch6","pattern_response","3459.1999999284744","stim/no_47_1_b.png","f","pattern_27","j","false","","","","3459.1999999284744","false","13","","","","","","","","","","","","","","","","",""
"","","","","","html-keyboard-response","191","2192253","0.0-3.0-5.0-0.23","60d9faa609c8dcb9e5e05481","F1","batch6","pattern_show_trial_num","null","<p class=block-text>Trial 24 out of 78</p>","null","","","","","","","","","","","","","","","","","","","","","","","","","",""
"","","","","","image-keyboard-response","192","2206365","0.0-3.0-5.0-1.23","60d9faa609c8dcb9e5e05481","F1","batch6","pattern_response","14110.100000023842","stim/yes_58_dia_w1_w.png","f","pattern_76","f","true","","","","14110.100000023842","true","14","","","","","","","","","","","","","","","","",""
"","","","","","html-keyboard-response","193","2207687","0.0-3.0-5.0-0.24","60d9faa609c8dcb9e5e05481","F1","batch6","pattern_show_trial_num","null","<p class=block-text>Trial 25 out of 78</p>","null","","","","","","","","","","","","","","","","","","","","","","","","","",""
"","","","","","image-keyboard-response","194","2210009","0.0-3.0-5.0-1.24","60d9faa609c8dcb9e5e05481","F1","batch6","pattern_response","2320.2000000476837","stim/yes_33_dia_w1_w.png","f","pattern_56","f","true","","","","2320.2000000476837","true","15","","","","","","","","","","","","","","","","",""
"","","","","","html-keyboard-response","195","2211335","0.0-3.0-5.0-0.25","60d9faa609c8dcb9e5e05481","F1","batch6","pattern_show_trial_num","null","<p class=block-text>Trial 26 out of 78</p>","null","","","","","","","","","","","","","","","","","","","","","","","","","",""
"","","","","","image-keyboard-response","196","2219243","0.0-3.0-5.0-1.25","60d9faa609c8dcb9e5e05481","F1","batch6","pattern_response","7905.299999952316","stim/no_37_2_w.png","j","pattern_19","j","true","","","","7905.299999952316","true","16","","","","","","","","","","","","","","","","",""
"","","","","","html-keyboard-response","197","2220560","0.0-3.0-5.0-0.26","60d9faa609c8dcb9e5e05481","F1","batch6","pattern_show_trial_num","null","<p class=block-text>Trial 27 out of 78</p>","null","","","","","","","","","","","","","","","","","","","","","","","","","",""
"","","","","","image-keyboard-response","198","2224376","0.0-3.0-5.0-1.26","60d9faa609c8dcb9e5e05481","F1","batch6","pattern_response","3812.600000023842","stim/yes_29_hor_b1_b.png","j","pattern_52","f","false","","","","3812.600000023842","false","16","","","","","","","","","","","","","","","","",""
"","","","","","html-keyboard-response","199","2225689","0.0-3.0-5.0-0.27","60d9faa609c8dcb9e5e05481","F1","batch6","pattern_show_trial_num","null","<p class=block-text>Trial 28 out of 78</p>","null","","","","","","","","","","","","","","","","","","","","","","","","","",""
"","","","","","image-keyboard-response","200","2228866","0.0-3.0-5.0-1.27","60d9faa609c8dcb9e5e05481","F1","batch6","pattern_response","3174","stim/no_30_1_b.png","j","pattern_13","j","true","","","","3174","true","17","","","","","","","","","","","","","","","","",""
"","","","","","html-keyboard-response","201","2230189","0.0-3.0-5.0-0.28","60d9faa609c8dcb9e5e05481","F1","batch6","pattern_show_trial_num","null","<p class=block-text>Trial 29 out of 78</p>","null","","","","","","","","","","","","","","","","","","","","","","","","","",""
"","","","","","image-keyboard-response","202","2235499","0.0-3.0-5.0-1.28","60d9faa609c8dcb9e5e05481","F1","batch6","pattern_response","5305.799999952316","stim/no_43_2_b.png","j","pattern_23","j","true","","","","5305.799999952316","true","18","","","","","","","","","","","","","","","","",""
"","","","","","html-keyboard-response","203","2236821","0.0-3.0-5.0-0.29","60d9faa609c8dcb9e5e05481","F1","batch6","pattern_show_trial_num","null","<p class=block-text>Trial 30 out of 78</p>","null","","","","","","","","","","","","","","","","","","","","","","","","","",""
"","","","","","image-keyboard-response","204","2238615","0.0-3.0-5.0-1.29","60d9faa609c8dcb9e5e05481","F1","batch6","pattern_response","1791","stim/no_15_1_w.png","j","pattern_03","j","true","","","","1791","true","19","","","","","","","","","","","","","","","","",""
"","","","","","html-keyboard-response","205","2239932","0.0-3.0-5.0-0.30","60d9faa609c8dcb9e5e05481","F1","batch6","pattern_show_trial_num","null","<p class=block-text>Trial 31 out of 78</p>","null","","","","","","","","","","","","","","","","","","","","","","","","","",""
"","","","","","image-keyboard-response","206","2248547","0.0-3.0-5.0-1.30","60d9faa609c8dcb9e5e05481","F1","batch6","pattern_response","8611.299999952316","stim/yes_53_ver_b1_b.png","j","pattern_74","f","false","","","","8611.299999952316","false","19","","","","","","","","","","","","","","","","",""
"","","","","","html-keyboard-response","207","2249853","0.0-3.0-5.0-0.31","60d9faa609c8dcb9e5e05481","F1","batch6","pattern_show_trial_num","null","<p class=block-text>Trial 32 out of 78</p>","null","","","","","","","","","","","","","","","","","","","","","","","","","",""
"","","","","","image-keyboard-response","208","2252798","0.0-3.0-5.0-1.31","60d9faa609c8dcb9e5e05481","F1","batch6","pattern_response","2941.2999999523163","stim/no_36_1_b.png","j","pattern_17","j","true","","","","2941.2999999523163","true","20","","","","","","","","","","","","","","","","",""
"","","","","","html-keyboard-response","209","2254119","0.0-3.0-5.0-0.32","60d9faa609c8dcb9e5e05481","F1","batch6","pattern_show_trial_num","null","<p class=block-text>Trial 33 out of 78</p>","null","","","","","","","","","","","","","","","","","","","","","","","","","",""
"","","","","","image-keyboard-response","210","2256973","0.0-3.0-5.0-1.32","60d9faa609c8dcb9e5e05481","F1","batch6","pattern_response","2850.2999999523163","stim/no_18_1_b.png","j","pattern_05","j","true","","","","2850.2999999523163","true","21","","","","","","","","","","","","","","","","",""
"","","","","","html-keyboard-response","211","2258290","0.0-3.0-5.0-0.33","60d9faa609c8dcb9e5e05481","F1","batch6","pattern_show_trial_num","null","<p class=block-text>Trial 34 out of 78</p>","null","","","","","","","","","","","","","","","","","","","","","","","","","",""
"","","","","","image-keyboard-response","212","2261681","0.0-3.0-5.0-1.33","60d9faa609c8dcb9e5e05481","F1","batch6","pattern_response","3389.5","stim/no_28_2.png","j","pattern_11","j","true","","","","3389.5","true","22","","","","","","","","","","","","","","","","",""
"","","","","","html-keyboard-response","213","2262991","0.0-3.0-5.0-0.34","60d9faa609c8dcb9e5e05481","F1","batch6","pattern_show_trial_num","null","<p class=block-text>Trial 35 out of 78</p>","null","","","","","","","","","","","","","","","","","","","","","","","","","",""
"","","","","","image-keyboard-response","214","2269845","0.0-3.0-5.0-1.34","60d9faa609c8dcb9e5e05481","F1","batch6","pattern_response","6849.699999928474","stim/no_58_1_w.png","j","pattern_35","j","true","","","","6849.699999928474","true","23","","","","","","","","","","","","","","","","",""
"","","","","","html-keyboard-response","215","2271167","0.0-3.0-5.0-0.35","60d9faa609c8dcb9e5e05481","F1","batch6","pattern_show_trial_num","null","<p class=block-text>Trial 36 out of 78</p>","null","","","","","","","","","","","","","","","","","","","","","","","","","",""
"","","","","","image-keyboard-response","216","2272495","0.0-3.0-5.0-1.35","60d9faa609c8dcb9e5e05481","F1","batch6","pattern_response","1324","stim/yes_26_dia_w2_w.png","f","pattern_50","f","true","","","","1324","true","24","","","","","","","","","","","","","","","","",""
"","","","","","html-keyboard-response","217","2273817","0.0-3.0-5.0-0.36","60d9faa609c8dcb9e5e05481","F1","batch6","pattern_show_trial_num","null","<p class=block-text>Trial 37 out of 78</p>","null","","","","","","","","","","","","","","","","","","","","","","","","","",""
"","","","","","image-keyboard-response","218","2277032","0.0-3.0-5.0-1.36","60d9faa609c8dcb9e5e05481","F1","batch6","pattern_response","3212.8000000715256","stim/no_25_1_b.png","j","pattern_09","j","true","","","","3212.8000000715256","true","25","","","","","","","","","","","","","","","","",""
"","","","","","html-keyboard-response","219","2278345","0.0-3.0-5.0-0.37","60d9faa609c8dcb9e5e05481","F1","batch6","pattern_show_trial_num","null","<p class=block-text>Trial 38 out of 78</p>","null","","","","","","","","","","","","","","","","","","","","","","","","","",""
"","","","","","image-keyboard-response","220","2283537","0.0-3.0-5.0-1.37","60d9faa609c8dcb9e5e05481","F1","batch6","pattern_response","5188.200000047684","stim/no_39_1_w.png","j","pattern_21","j","true","","","","5188.200000047684","true","26","","","","","","","","","","","","","","","","",""
"","","","","","html-keyboard-response","221","2284867","0.0-3.0-5.0-0.38","60d9faa609c8dcb9e5e05481","F1","batch6","pattern_show_trial_num","null","<p class=block-text>Trial 39 out of 78</p>","null","","","","","","","","","","","","","","","","","","","","","","","","","",""
"","","","","","image-keyboard-response","222","2293197","0.0-3.0-5.0-1.38","60d9faa609c8dcb9e5e05481","F1","batch6","pattern_response","8326.099999904633","stim/yes_70_ver_b1.png","j","pattern_80","f","false","","","","8326.099999904633","false","26","","","","","","","","","","","","","","","","",""
"","","","","","image-keyboard-response","223","2297181","0.0-3.0-6.0","60d9faa609c8dcb9e5e05481","F1","batch6","attention_check","3475.8000000715256","stim/empty_board.png","j","","j","true","","","","","","","500","[""f"",""j""]","","","","","","","","","","","","","","",""
"","","","","","html-keyboard-response","224","2297984","0.0-3.0-7.0-0.0","60d9faa609c8dcb9e5e05481","F1","batch6","pattern_show_trial_num","null","<p class=block-text>Trial 40 out of 78</p>","null","","","","","","","","","","","","","","","","","","","","","","","","","",""
"","","","","","image-keyboard-response","225","2301803","0.0-3.0-7.0-1.0","60d9faa609c8dcb9e5e05481","F1","batch6","pattern_response","3814.3000000715256","stim/yes_50_dia_w1.png","f","pattern_71","f","true","","","","3814.3000000715256","true","27","","","","","","","","","","","","","","","","",""
"","","","","","html-keyboard-response","226","2303128","0.0-3.0-7.0-0.1","60d9faa609c8dcb9e5e05481","F1","batch6","pattern_show_trial_num","null","<p class=block-text>Trial 41 out of 78</p>","null","","","","","","","","","","","","","","","","","","","","","","","","","",""
"","","","","","image-keyboard-response","227","2311619","0.0-3.0-7.0-1.1","60d9faa609c8dcb9e5e05481","F1","batch6","pattern_response","8488.399999976158","stim/no_48_1_w.png","j","pattern_28","j","true","","","","8488.399999976158","true","28","","","","","","","","","","","","","","","","",""
"","","","","","html-keyboard-response","228","2312945","0.0-3.0-7.0-0.2","60d9faa609c8dcb9e5e05481","F1","batch6","pattern_show_trial_num","null","<p class=block-text>Trial 42 out of 78</p>","null","","","","","","","","","","","","","","","","","","","","","","","","","",""
"","","","","","image-keyboard-response","229","2316170","0.0-3.0-7.0-1.2","60d9faa609c8dcb9e5e05481","F1","batch6","pattern_response","3221.5","stim/no_23_1.png","j","pattern_08","j","true","","","","3221.5","true","29","","","","","","","","","","","","","","","","",""
"","","","","","html-keyboard-response","230","2317489","0.0-3.0-7.0-0.3","60d9faa609c8dcb9e5e05481","F1","batch6","pattern_show_trial_num","null","<p class=block-text>Trial 43 out of 78</p>","null","","","","","","","","","","","","","","","","","","","","","","","","","",""
"","","","","","image-keyboard-response","231","2319355","0.0-3.0-7.0-1.3","60d9faa609c8dcb9e5e05481","F1","batch6","pattern_response","1861.7999999523163","stim/no_20_1_w.png","j","pattern_06","j","true","","","","1861.7999999523163","true","30","","","","","","","","","","","","","","","","",""
"","","","","","html-keyboard-response","232","2320678","0.0-3.0-7.0-0.4","60d9faa609c8dcb9e5e05481","F1","batch6","pattern_show_trial_num","null","<p class=block-text>Trial 44 out of 78</p>","null","","","","","","","","","","","","","","","","","","","","","","","","","",""
"","","","","","image-keyboard-response","233","2327753","0.0-3.0-7.0-1.4","60d9faa609c8dcb9e5e05481","F1","batch6","pattern_response","7071","stim/no_52_1.png","j","pattern_32","j","true","","","","7071","true","31","","","","","","","","","","","","","","","","",""
"","","","","","html-keyboard-response","234","2329074","0.0-3.0-7.0-0.5","60d9faa609c8dcb9e5e05481","F1","batch6","pattern_show_trial_num","null","<p class=block-text>Trial 45 out of 78</p>","null","","","","","","","","","","","","","","","","","","","","","","","","","",""
"","","","","","image-keyboard-response","235","2331442","0.0-3.0-7.0-1.5","60d9faa609c8dcb9e5e05481","F1","batch6","pattern_response","2370.0999999046326","stim/yes_29_ver_w1.png","f","pattern_53","f","true","","","","2370.0999999046326","true","32","","","","","","","","","","","","","","","","",""
"","","","","","html-keyboard-response","236","2332752","0.0-3.0-7.0-0.6","60d9faa609c8dcb9e5e05481","F1","batch6","pattern_show_trial_num","null","<p class=block-text>Trial 46 out of 78</p>","null","","","","","","","","","","","","","","","","","","","","","","","","","",""
"","","","","","image-keyboard-response","237","2334716","0.0-3.0-7.0-1.6","60d9faa609c8dcb9e5e05481","F1","batch6","pattern_response","1960.5","stim/no_17_1_w.png","j","pattern_04","j","true","","","","1960.5","true","33","","","","","","","","","","","","","","","","",""
"","","","","","html-keyboard-response","238","2336043","0.0-3.0-7.0-0.7","60d9faa609c8dcb9e5e05481","F1","batch6","pattern_show_trial_num","null","<p class=block-text>Trial 47 out of 78</p>","null","","","","","","","","","","","","","","","","","","","","","","","","","",""
"","","","","","image-keyboard-response","239","2342035","0.0-3.0-7.0-1.7","60d9faa609c8dcb9e5e05481","F1","batch6","pattern_response","5989","stim/no_38_1_b.png","j","pattern_20","j","true","","","","5989","true","34","","","","","","","","","","","","","","","","",""
"","","","","","html-keyboard-response","240","2343356","0.0-3.0-7.0-0.8","60d9faa609c8dcb9e5e05481","F1","batch6","pattern_show_trial_num","null","<p class=block-text>Trial 48 out of 78</p>","null","","","","","","","","","","","","","","","","","","","","","","","","","",""
"","","","","","image-keyboard-response","241","2350224","0.0-3.0-7.0-1.8","60d9faa609c8dcb9e5e05481","F1","batch6","pattern_response","6865.5","stim/no_32_1_w.png","j","pattern_14","j","true","","","","6865.5","true","35","","","","","","","","","","","","","","","","",""
"","","","","","html-keyboard-response","242","2351541","0.0-3.0-7.0-0.9","60d9faa609c8dcb9e5e05481","F1","batch6","pattern_show_trial_num","null","<p class=block-text>Trial 49 out of 78</p>","null","","","","","","","","","","","","","","","","","","","","","","","","","",""
"","","","","","image-keyboard-response","243","2355991","0.0-3.0-7.0-1.9","60d9faa609c8dcb9e5e05481","F1","batch6","pattern_response","4446.600000023842","stim/yes_67_hor_b1.png","f","pattern_79","f","true","","","","4446.600000023842","true","36","","","","","","","","","","","","","","","","",""
"","","","","","html-keyboard-response","244","2357297","0.0-3.0-7.0-0.10","60d9faa609c8dcb9e5e05481","F1","batch6","pattern_show_trial_num","null","<p class=block-text>Trial 50 out of 78</p>","null","","","","","","","","","","","","","","","","","","","","","","","","","",""
"","","","","","image-keyboard-response","245","2362090","0.0-3.0-7.0-1.10","60d9faa609c8dcb9e5e05481","F1","batch6","pattern_response","4789.5","stim/no_44_1.png","j","pattern_24","j","true","","","","4789.5","true","37","","","","","","","","","","","","","","","","",""
"","","","","","html-keyboard-response","246","2363401","0.0-3.0-7.0-0.11","60d9faa609c8dcb9e5e05481","F1","batch6","pattern_show_trial_num","null","<p class=block-text>Trial 51 out of 78</p>","null","","","","","","","","","","","","","","","","","","","","","","","","","",""
"","","","","","image-keyboard-response","247","2365434","0.0-3.0-7.0-1.11","60d9faa609c8dcb9e5e05481","F1","batch6","pattern_response","2029.6000000238419","stim/yes_17_dia_w1.png","f","pattern_45","f","true","","","","2029.6000000238419","true","38","","","","","","","","","","","","","","","","",""
"","","","","","html-keyboard-response","248","2366752","0.0-3.0-7.0-0.12","60d9faa609c8dcb9e5e05481","F1","batch6","pattern_show_trial_num","null","<p class=block-text>Trial 52 out of 78</p>","null","","","","","","","","","","","","","","","","","","","","","","","","","",""
"","","","","","image-keyboard-response","249","2368197","0.0-3.0-7.0-1.12","60d9faa609c8dcb9e5e05481","F1","batch6","pattern_response","1441.3000000715256","stim/yes_43_ver_w1_w.png","f","pattern_65","f","true","","","","1441.3000000715256","true","39","","","","","","","","","","","","","","","","",""
"","","","","","html-keyboard-response","250","2369524","0.0-3.0-7.0-0.13","60d9faa609c8dcb9e5e05481","F1","batch6","pattern_show_trial_num","null","<p class=block-text>Trial 53 out of 78</p>","null","","","","","","","","","","","","","","","","","","","","","","","","","",""
"","","","","","image-keyboard-response","251","2373768","0.0-3.0-7.0-1.13","60d9faa609c8dcb9e5e05481","F1","batch6","pattern_response","4241.399999976158","stim/yes_48_dia_w1_w.png","j","pattern_69","f","false","","","","4241.399999976158","false","39","","","","","","","","","","","","","","","","",""
"","","","","","html-keyboard-response","252","2375087","0.0-3.0-7.0-0.14","60d9faa609c8dcb9e5e05481","F1","batch6","pattern_show_trial_num","null","<p class=block-text>Trial 54 out of 78</p>","null","","","","","","","","","","","","","","","","","","","","","","","","","",""
"","","","","","image-keyboard-response","253","2377450","0.0-3.0-7.0-1.14","60d9faa609c8dcb9e5e05481","F1","batch6","pattern_response","2359.100000023842","stim/yes_40_dia_b1_b.png","j","pattern_63","f","false","","","","2359.100000023842","false","39","","","","","","","","","","","","","","","","",""
"","","","","","html-keyboard-response","254","2378775","0.0-3.0-7.0-0.15","60d9faa609c8dcb9e5e05481","F1","batch6","pattern_show_trial_num","null","<p class=block-text>Trial 55 out of 78</p>","null","","","","","","","","","","","","","","","","","","","","","","","","","",""
"","","","","","image-keyboard-response","255","2380241","0.0-3.0-7.0-1.15","60d9faa609c8dcb9e5e05481","F1","batch6","pattern_response","1462.5","stim/yes_28_ver_b1.png","f","pattern_51","f","true","","","","1462.5","true","40","","","","","","","","","","","","","","","","",""
"","","","","","html-keyboard-response","256","2381547","0.0-3.0-7.0-0.16","60d9faa609c8dcb9e5e05481","F1","batch6","pattern_show_trial_num","null","<p class=block-text>Trial 56 out of 78</p>","null","","","","","","","","","","","","","","","","","","","","","","","","","",""
"","","","","","image-keyboard-response","257","2387075","0.0-3.0-7.0-1.16","60d9faa609c8dcb9e5e05481","F1","batch6","pattern_response","5525.5","stim/no_55_1_w.png","j","pattern_34","j","true","","","","5525.5","true","41","","","","","","","","","","","","","","","","",""
"","","","","","html-keyboard-response","258","2388380","0.0-3.0-7.0-0.17","60d9faa609c8dcb9e5e05481","F1","batch6","pattern_show_trial_num","null","<p class=block-text>Trial 57 out of 78</p>","null","","","","","","","","","","","","","","","","","","","","","","","","","",""
"","","","","","image-keyboard-response","259","2392242","0.0-3.0-7.0-1.17","60d9faa609c8dcb9e5e05481","F1","batch6","pattern_response","3869.2999999523163","stim/yes_37_dia_w1.png","j","pattern_59","f","false","","","","3869.2999999523163","false","41","","","","","","","","","","","","","","","","",""
"","","","","","html-keyboard-response","260","2393554","0.0-3.0-7.0-0.18","60d9faa609c8dcb9e5e05481","F1","batch6","pattern_show_trial_num","null","<p class=block-text>Trial 58 out of 78</p>","null","","","","","","","","","","","","","","","","","","","","","","","","","",""
"","","","","","image-keyboard-response","261","2396427","0.0-3.0-7.0-1.18","60d9faa609c8dcb9e5e05481","F1","batch6","pattern_response","2869.8000000715256","stim/yes_35_dia_b1.png","j","pattern_57","f","false","","","","2869.8000000715256","false","41","","","","","","","","","","","","","","","","",""
"","","","","","html-keyboard-response","262","2397746","0.0-3.0-7.0-0.19","60d9faa609c8dcb9e5e05481","F1","batch6","pattern_show_trial_num","null","<p class=block-text>Trial 59 out of 78</p>","null","","","","","","","","","","","","","","","","","","","","","","","","","",""
"","","","","","image-keyboard-response","263","2401889","0.0-3.0-7.0-1.19","60d9faa609c8dcb9e5e05481","F1","batch6","pattern_response","4139.600000023842","stim/no_50_1.png","j","pattern_30","j","true","","","","4139.600000023842","true","42","","","","","","","","","","","","","","","","",""
"","","","","","html-keyboard-response","264","2403207","0.0-3.0-7.0-0.20","60d9faa609c8dcb9e5e05481","F1","batch6","pattern_show_trial_num","null","<p class=block-text>Trial 60 out of 78</p>","null","","","","","","","","","","","","","","","","","","","","","","","","","",""
"","","","","","image-keyboard-response","265","2405684","0.0-3.0-7.0-1.20","60d9faa609c8dcb9e5e05481","F1","batch6","pattern_response","2472.399999976158","stim/yes_55_hor_w1_w.png","f","pattern_75","f","true","","","","2472.399999976158","true","43","","","","","","","","","","","","","","","","",""
"","","","","","html-keyboard-response","266","2406987","0.0-3.0-7.0-0.21","60d9faa609c8dcb9e5e05481","F1","batch6","pattern_show_trial_num","null","<p class=block-text>Trial 61 out of 78</p>","null","","","","","","","","","","","","","","","","","","","","","","","","","",""
"","","","","","image-keyboard-response","267","2411614","0.0-3.0-7.0-1.21","60d9faa609c8dcb9e5e05481","F1","batch6","pattern_response","4623.100000023842","stim/no_36_2_w.png","j","pattern_18","j","true","","","","4623.100000023842","true","44","","","","","","","","","","","","","","","","",""
"","","","","","html-keyboard-response","268","2412927","0.0-3.0-7.0-0.22","60d9faa609c8dcb9e5e05481","F1","batch6","pattern_show_trial_num","null","<p class=block-text>Trial 62 out of 78</p>","null","","","","","","","","","","","","","","","","","","","","","","","","","",""
"","","","","","image-keyboard-response","269","2416216","0.0-3.0-7.0-1.22","60d9faa609c8dcb9e5e05481","F1","batch6","pattern_response","3284.4000000953674","stim/no_29_1_b.png","j","pattern_12","j","true","","","","3284.4000000953674","true","45","","","","","","","","","","","","","","","","",""
"","","","","","html-keyboard-response","270","2417525","0.0-3.0-7.0-0.23","60d9faa609c8dcb9e5e05481","F1","batch6","pattern_show_trial_num","null","<p class=block-text>Trial 63 out of 78</p>","null","","","","","","","","","","","","","","","","","","","","","","","","","",""
"","","","","","image-keyboard-response","271","2419268","0.0-3.0-7.0-1.23","60d9faa609c8dcb9e5e05481","F1","batch6","pattern_response","1739.3999999761581","stim/yes_31_hor_b1.png","f","pattern_55","f","true","","","","1739.3999999761581","true","46","","","","","","","","","","","","","","","","",""
"","","","","","html-keyboard-response","272","2420574","0.0-3.0-7.0-0.24","60d9faa609c8dcb9e5e05481","F1","batch6","pattern_show_trial_num","null","<p class=block-text>Trial 64 out of 78</p>","null","","","","","","","","","","","","","","","","","","","","","","","","","",""
"","","","","","image-keyboard-response","273","2422383","0.0-3.0-7.0-1.24","60d9faa609c8dcb9e5e05481","F1","batch6","pattern_response","1805.6000000238419","stim/yes_22_ver_w1.png","f","pattern_47","f","true","","","","1805.6000000238419","true","47","","","","","","","","","","","","","","","","",""
"","","","","","html-keyboard-response","274","2423697","0.0-3.0-7.0-0.25","60d9faa609c8dcb9e5e05481","F1","batch6","pattern_show_trial_num","null","<p class=block-text>Trial 65 out of 78</p>","null","","","","","","","","","","","","","","","","","","","","","","","","","",""
"","","","","","image-keyboard-response","275","2430554","0.0-3.0-7.0-1.25","60d9faa609c8dcb9e5e05481","F1","batch6","pattern_response","6854.199999928474","stim/no_62_1_w.png","j","pattern_36","j","true","","","","6854.199999928474","true","48","","","","","","","","","","","","","","","","",""
"","","","","","html-keyboard-response","276","2431871","0.0-3.0-7.0-0.26","60d9faa609c8dcb9e5e05481","F1","batch6","pattern_show_trial_num","null","<p class=block-text>Trial 66 out of 78</p>","null","","","","","","","","","","","","","","","","","","","","","","","","","",""
"","","","","","image-keyboard-response","277","2433469","0.0-3.0-7.0-1.26","60d9faa609c8dcb9e5e05481","F1","batch6","pattern_response","1594.6999999284744","stim/yes_45_hor_b2_b.png","f","pattern_67","f","true","","","","1594.6999999284744","true","49","","","","","","","","","","","","","","","","",""
"","","","","","html-keyboard-response","278","2434783","0.0-3.0-7.0-0.27","60d9faa609c8dcb9e5e05481","F1","batch6","pattern_show_trial_num","null","<p class=block-text>Trial 67 out of 78</p>","null","","","","","","","","","","","","","","","","","","","","","","","","","",""
"","","","","","image-keyboard-response","279","2441118","0.0-3.0-7.0-1.27","60d9faa609c8dcb9e5e05481","F1","batch6","pattern_response","6330.900000095367","stim/no_65_1_b.png","j","pattern_38","j","true","","","","6330.900000095367","true","50","","","","","","","","","","","","","","","","",""
"","","","","","html-keyboard-response","280","2442430","0.0-3.0-7.0-0.28","60d9faa609c8dcb9e5e05481","F1","batch6","pattern_show_trial_num","null","<p class=block-text>Trial 68 out of 78</p>","null","","","","","","","","","","","","","","","","","","","","","","","","","",""
"","","","","","image-keyboard-response","281","2444119","0.0-3.0-7.0-1.28","60d9faa609c8dcb9e5e05481","F1","batch6","pattern_response","1685.5","stim/yes_52_ver_w1.png","f","pattern_73","f","true","","","","1685.5","true","51","","","","","","","","","","","","","","","","",""
"","","","","","html-keyboard-response","282","2445442","0.0-3.0-7.0-0.29","60d9faa609c8dcb9e5e05481","F1","batch6","pattern_show_trial_num","null","<p class=block-text>Trial 69 out of 78</p>","null","","","","","","","","","","","","","","","","","","","","","","","","","",""
"","","","","","image-keyboard-response","283","2446641","0.0-3.0-7.0-1.29","60d9faa609c8dcb9e5e05481","F1","batch6","pattern_response","1195.8000000715256","stim/yes_25_hor_b1_b.png","f","pattern_49","f","true","","","","1195.8000000715256","true","52","","","","","","","","","","","","","","","","",""
"","","","","","html-keyboard-response","284","2447963","0.0-3.0-7.0-0.30","60d9faa609c8dcb9e5e05481","F1","batch6","pattern_show_trial_num","null","<p class=block-text>Trial 70 out of 78</p>","null","","","","","","","","","","","","","","","","","","","","","","","","","",""
"","","","","","image-keyboard-response","285","2449421","0.0-3.0-7.0-1.30","60d9faa609c8dcb9e5e05481","F1","batch6","pattern_response","1456.6999999284744","stim/no_13_2_b.png","j","pattern_02","j","true","","","","1456.6999999284744","true","53","","","","","","","","","","","","","","","","",""
"","","","","","html-keyboard-response","286","2450748","0.0-3.0-7.0-0.31","60d9faa609c8dcb9e5e05481","F1","batch6","pattern_show_trial_num","null","<p class=block-text>Trial 71 out of 78</p>","null","","","","","","","","","","","","","","","","","","","","","","","","","",""
"","","","","","image-keyboard-response","287","2452526","0.0-3.0-7.0-1.31","60d9faa609c8dcb9e5e05481","F1","batch6","pattern_response","1774.5","stim/no_26_1_w.png","j","pattern_10","j","true","","","","1774.5","true","54","","","","","","","","","","","","","","","","",""
"","","","","","html-keyboard-response","288","2453841","0.0-3.0-7.0-0.32","60d9faa609c8dcb9e5e05481","F1","batch6","pattern_show_trial_num","null","<p class=block-text>Trial 72 out of 78</p>","null","","","","","","","","","","","","","","","","","","","","","","","","","",""
"","","","","","image-keyboard-response","289","2457800","0.0-3.0-7.0-1.32","60d9faa609c8dcb9e5e05481","F1","batch6","pattern_response","3955.7000000476837","stim/no_42_1_w.png","j","pattern_22","j","true","","","","3955.7000000476837","true","55","","","","","","","","","","","","","","","","",""
"","","","","","html-keyboard-response","290","2459119","0.0-3.0-7.0-0.33","60d9faa609c8dcb9e5e05481","F1","batch6","pattern_show_trial_num","null","<p class=block-text>Trial 73 out of 78</p>","null","","","","","","","","","","","","","","","","","","","","","","","","","",""
"","","","","","image-keyboard-response","291","2462200","0.0-3.0-7.0-1.33","60d9faa609c8dcb9e5e05481","F1","batch6","pattern_response","3077.399999976158","stim/no_34_1_b.png","j","pattern_16","j","true","","","","3077.399999976158","true","56","","","","","","","","","","","","","","","","",""
"","","","","","html-keyboard-response","292","2463504","0.0-3.0-7.0-0.34","60d9faa609c8dcb9e5e05481","F1","batch6","pattern_show_trial_num","null","<p class=block-text>Trial 74 out of 78</p>","null","","","","","","","","","","","","","","","","","","","","","","","","","",""
"","","","","","image-keyboard-response","293","2471626","0.0-3.0-7.0-1.34","60d9faa609c8dcb9e5e05481","F1","batch6","pattern_response","8118.600000023842","stim/no_70_2.png","j","pattern_40","j","true","","","","8118.600000023842","true","57","","","","","","","","","","","","","","","","",""
"","","","","","html-keyboard-response","294","2472939","0.0-3.0-7.0-0.35","60d9faa609c8dcb9e5e05481","F1","batch6","pattern_show_trial_num","null","<p class=block-text>Trial 75 out of 78</p>","null","","","","","","","","","","","","","","","","","","","","","","","","","",""
"","","","","","image-keyboard-response","295","2478848","0.0-3.0-7.0-1.35","60d9faa609c8dcb9e5e05481","F1","batch6","pattern_response","5905.599999904633","stim/yes_60_ver_b1_b.png","f","pattern_77","f","true","","","","5905.599999904633","true","58","","","","","","","","","","","","","","","","",""
"","","","","","html-keyboard-response","296","2480171","0.0-3.0-7.0-0.36","60d9faa609c8dcb9e5e05481","F1","batch6","pattern_show_trial_num","null","<p class=block-text>Trial 76 out of 78</p>","null","","","","","","","","","","","","","","","","","","","","","","","","","",""
"","","","","","image-keyboard-response","297","2484843","0.0-3.0-7.0-1.36","60d9faa609c8dcb9e5e05481","F1","batch6","pattern_response","4668.5","stim/yes_38_hor_b1_b.png","f","pattern_61","f","true","","","","4668.5","true","59","","","","","","","","","","","","","","","","",""
"","","","","","html-keyboard-response","298","2486157","0.0-3.0-7.0-0.37","60d9faa609c8dcb9e5e05481","F1","batch6","pattern_show_trial_num","null","<p class=block-text>Trial 77 out of 78</p>","null","","","","","","","","","","","","","","","","","","","","","","","","","",""
"","","","","","image-keyboard-response","299","2487196","0.0-3.0-7.0-1.37","60d9faa609c8dcb9e5e05481","F1","batch6","pattern_response","1035.1000000238419","stim/yes_14_hor_b1_w.png","f","pattern_43","f","true","","","","1035.1000000238419","true","60","","","","","","","","","","","","","","","","",""
"","","","","","html-keyboard-response","300","2488504","0.0-3.0-7.0-0.38","60d9faa609c8dcb9e5e05481","F1","batch6","pattern_show_trial_num","null","<p class=block-text>Trial 78 out of 78</p>","null","","","","","","","","","","","","","","","","","","","","","","","","","",""
"","","","","","image-keyboard-response","301","2492558","0.0-3.0-7.0-1.38","60d9faa609c8dcb9e5e05481","F1","batch6","pattern_response","4053","stim/no_46_1_b.png","j","pattern_26","j","true","","","","4053","true","61","","","","","","","","","","","","","","","","",""
"","","","","","html-button-response","302","2516789","0.0-3.0-8.0","60d9faa609c8dcb9e5e05481","F1","batch6","","23705.100000023842","<p class = block-text>This concludes the 4-in-a-row detection game.Thank you for your responses!<br>
            You responded correctly on 78% of the trials.<br>
            When you are ready, press ""Continue"" button to continue </p>","0","","","","","","","","","","","","","","","","","","","","","","","","","",""
"true","","","","","fullscreen","303","2521657","0.0-4.0-0.0","60d9faa609c8dcb9e5e05481","F1","batch6","","","","","","","","","","","","","","","","","","","","","","","","","","","","","",""
"","","","","","instructions","304","2657057","0.0-4.0-1.0-0.0-0.0","60d9faa609c8dcb9e5e05481","F1","batch6","tol-instructions","135399.5","","","","","","","","[{""page_index"":0,""viewing_time"":29498.899999976158},{""page_index"":1,""viewing_time"":10654.300000071526},{""page_index"":2,""viewing_time"":14024.099999904633},{""page_index"":3,""viewing_time"":43662},{""page_index"":4,""viewing_time"":8458},{""page_index"":5,""viewing_time"":22856.100000023842},{""page_index"":6,""viewing_time"":6245.899999976158}]","","","","","","","","","","","","","","","","","","","",""
"","","","","","html-button-response","305","2659039","0.0-4.0-1.0-1.0-0.0","60d9faa609c8dcb9e5e05481","F1","batch6","tol_enter_quiz","1981.3999999761581","<p class=block-text> Let's answer a few questions <br>","0","","","","","","","","","","","","","","","","","","","","","","","","","",""
"","","","","","html-button-response","306","2667607","0.0-4.0-1.0-1.0-1.0","60d9faa609c8dcb9e5e05481","F1","batch6","tol_quiz","8566.899999976158","<p class = block-text>True or False: You can only move the ball on top of a peg. <br></p>","0","","","true","","","","","","","","","","","","","","","","","","","","","","",""
"","","","","","html-button-response","307","2669977","0.0-4.0-1.0-1.0-2.0","60d9faa609c8dcb9e5e05481","F1","batch6","tol_quiz_feedback","2369.5","<p class = block-text>Correct! You can only move the ball on top of a peg.</p>","0","","","","","","","","","","","","","","","","","","","","","","","","","",""
"","","","","","html-button-response","308","2674433","0.0-4.0-1.0-1.0-3.0","60d9faa609c8dcb9e5e05481","F1","batch6","tol_quiz","4455.5","<p class = block-text>True or False: You should try to match your board with the target board with fewest moves possible. <br></p>","0","","","true","","","","","","","","","","","","","","","","","","","","","","",""
"","","","","","html-button-response","309","2676145","0.0-4.0-1.0-1.0-4.0","60d9faa609c8dcb9e5e05481","F1","batch6","tol_quiz_feedback","1711.1000000238419","<p class = block-text>Correct! </p>","0","","","","","","","","","","","","","","","","","","","","","","","","","",""
"","","","","","html-button-response","310","2680143","0.0-4.0-2.0","60d9faa609c8dcb9e5e05481","F1","batch6","","3997.2000000476837","<p class=block-text> Now that you've understood the game, let's practice a few easier examples before we start!<br> <br>","0","","","","","","","","","","","","","","","","","","","","","","","","","",""
"","","","","","single-stim-button","311","2686237","0.0-4.0-3.0-0.0","60d9faa609c8dcb9e5e05481","F1","batch6","tol_practice","6092","","","","","","","","","","","","","","tol_peg_2","6092","6092","0","[[1,2,0],[0,0],[0]]","1","[[1,2,0],[0,0],[3]]","practice","6092","","","","","",""
"","","","","","single-stim-button","312","2688491","0.0-4.0-3.0-1.0","60d9faa609c8dcb9e5e05481","F1","batch6","tol_practice","2254","","","","","","","","","","","","","","tol_peg_3","2254","2254","0","[[1,2,0],[0,0],[3]]","1","[[1,2,0],[0,0],[3]]","practice","2254","","","","","",""
"","","","","","poldrack-single-stim","313","2689495","0.0-4.0-4.0","60d9faa609c8dcb9e5e05481","F1","batch6","tol_feedback","-1","","","","","true","","","","","","","","","","1000","1000","500","","","","","","-1","none","true","","0",""
"","","","","","single-stim-button","314","2697961","0.0-4.0-5.0-0.0","60d9faa609c8dcb9e5e05481","F1","batch6","tol_practice","8465","","","","","","","","","","","","","","tol_peg_1","8465","8465","0","[[1,0,0],[3,0],[0]]","2","[[0,0,0],[3,1],[2]]","practice","8465","","","","","",""
"","","","","","single-stim-button","315","2699911","0.0-4.0-5.0-1.0","60d9faa609c8dcb9e5e05481","F1","batch6","tol_practice","1949","","","","","","","","","","","","","","tol_peg_3","1949","1949","0","[[1,0,0],[3,0],[2]]","2","[[0,0,0],[3,1],[2]]","practice","1949","","","","","",""
"","","","","","single-stim-button","316","2701645","0.0-4.0-5.1-0.1","60d9faa609c8dcb9e5e05481","F1","batch6","tol_practice","1733","","","","","","","","","","","","","","tol_peg_1","1733","1733","0","[[0,0,0],[3,0],[2]]","3","[[0,0,0],[3,1],[2]]","practice","1733","","","","","",""
"","","","","","single-stim-button","317","2702647","0.0-4.0-5.1-1.1","60d9faa609c8dcb9e5e05481","F1","batch6","tol_practice","1001","","","","","","","","","","","","","","tol_peg_2","1001","1001","0","[[0,0,0],[3,1],[2]]","3","[[0,0,0],[3,1],[2]]","practice","1001","","","","","",""
"","","","","","poldrack-single-stim","318","2703648","0.0-4.0-6.0","60d9faa609c8dcb9e5e05481","F1","batch6","tol_feedback","-1","","","","","true","","","","","","","","","","1000","1000","500","","","","","","-1","none","true","","0",""
"","","","","","single-stim-button","319","2708377","0.0-4.0-7.0-0.0","60d9faa609c8dcb9e5e05481","F1","batch6","tol_practice","4728","","","","","","","","","","","","","","tol_peg_2","4728","4728","0","[[1,2,0],[0,0],[0]]","4","[[1,0,0],[2,0],[3]]","practice","4728","","","","","",""
"","","","","","single-stim-button","320","2709728","0.0-4.0-7.0-1.0","60d9faa609c8dcb9e5e05481","F1","batch6","tol_practice","1350","","","","","","","","","","","","","","tol_peg_3","1350","1350","0","[[1,2,0],[0,0],[3]]","4","[[1,0,0],[2,0],[3]]","practice","1350","","","","","",""
"","","","","","single-stim-button","321","2711304","0.0-4.0-7.1-0.1","60d9faa609c8dcb9e5e05481","F1","batch6","tol_practice","1575","","","","","","","","","","","","","","tol_peg_1","1575","1575","0","[[1,0,0],[0,0],[3]]","5","[[1,0,0],[2,0],[3]]","practice","1575","","","","","",""
"","","","","","single-stim-button","322","2712408","0.0-4.0-7.1-1.1","60d9faa609c8dcb9e5e05481","F1","batch6","tol_practice","1104","","","","","","","","","","","","","","tol_peg_2","1104","1104","0","[[1,0,0],[2,0],[3]]","5","[[1,0,0],[2,0],[3]]","practice","1104","","","","","",""
"","","","","","poldrack-single-stim","323","2713417","0.0-4.0-8.0","60d9faa609c8dcb9e5e05481","F1","batch6","tol_feedback","-1","","","","","true","","","","","","","","","","1000","1000","500","","","","","","-1","none","true","","0",""
"","","","","","html-button-response","324","2719522","0.0-4.0-9.0","60d9faa609c8dcb9e5e05481","F1","batch6","tol_instruction","6103.899999976158","<div class = centerbox><p class = center-block-text>Great job! You are done with practice trials<br>You are about to start official trials.<br> <br> Problem <strong>1</strong> out of 25 problems</p></div>","0","","","","","","","","","","","","","","","","","","","","","","","","","",""
"","","","","","single-stim-button","325","2724814","0.0-4.0-10.0-0.0","60d9faa609c8dcb9e5e05481","F1","batch6","tol_tohand","4276","","","","","","","","","","","","","","tol_peg_1","4276","4276","0","[[1,0,0],[3,0],[0]]","1","[[1,3,0],[2,0],[0]]","0","0","","","","","","3"
"","","","","","single-stim-button","326","2729420","0.0-4.0-10.0-1.0","60d9faa609c8dcb9e5e05481","F1","batch6","tol_toboard","4605","","","","","","","","","","","","","","tol_peg_3","4605","4605","0","[[1,0,0],[3,0],[2]]","1","[[1,3,0],[2,0],[0]]","0","0","","","","","","3"
"","","","","","single-stim-button","327","2731208","0.0-4.0-10.1-0.1","60d9faa609c8dcb9e5e05481","F1","batch6","tol_tohand","1787","","","","","","","","","","","","","","tol_peg_2","1787","1787","0","[[1,0,0],[0,0],[2]]","2","[[1,3,0],[2,0],[0]]","0","0","","","","","","3"
"","","","","","single-stim-button","328","2732474","0.0-4.0-10.1-1.1","60d9faa609c8dcb9e5e05481","F1","batch6","tol_toboard","1265","","","","","","","","","","","","","","tol_peg_1","1265","1265","0","[[1,3,0],[0,0],[2]]","2","[[1,3,0],[2,0],[0]]","0","0","","","","","","3"
"","","","","","single-stim-button","329","2733750","0.0-4.0-10.2-0.2","60d9faa609c8dcb9e5e05481","F1","batch6","tol_tohand","1275","","","","","","","","","","","","","","tol_peg_3","1275","1275","0","[[1,3,0],[0,0],[0]]","3","[[1,3,0],[2,0],[0]]","0","0","","","","","","3"
"","","","","","single-stim-button","330","2734956","0.0-4.0-10.2-1.2","60d9faa609c8dcb9e5e05481","F1","batch6","tol_toboard","1205","","","","","","","","","","","","","","tol_peg_2","1205","1205","0","[[1,3,0],[2,0],[0]]","3","[[1,3,0],[2,0],[0]]","0","0","","","","","","3"
"","","","","","poldrack-single-stim","331","2735960","0.0-4.0-11.0","60d9faa609c8dcb9e5e05481","F1","batch6","tol_feedback","-1","","","","","true","","","","","","","","","","1000","1000","500","","","","","","-1","none","true","4276","7338",""
"","","","","","html-button-response","332","2737248","0.0-4.0-12.0","60d9faa609c8dcb9e5e05481","F1","batch6","tol_trial_num","1286.5","<div class = centerbox><p class = center-block-text>problem <strong>2</strong> out of 25 problems</p></div>","0","","","","","","","","","","","","","","","","","","","","","","","","","",""
"","","","","","single-stim-button","333","2744368","0.0-4.0-13.0-0.0","60d9faa609c8dcb9e5e05481","F1","batch6","tol_tohand","7119","","","","","","","","","","","","","","tol_peg_1","7119","7119","0","[[1,0,0],[3,0],[0]]","1","[[2,1,3],[0,0],[0]]","1","0","","","","","","5"
"","","","","","single-stim-button","334","2747966","0.0-4.0-13.0-1.0","60d9faa609c8dcb9e5e05481","F1","batch6","tol_toboard","3597","","","","","","","","","","","","","","tol_peg_3","3597","3597","0","[[1,0,0],[3,0],[2]]","1","[[2,1,3],[0,0],[0]]","1","0","","","","","","5"
"","","","","","single-stim-button","335","2749208","0.0-4.0-13.1-0.1","60d9faa609c8dcb9e5e05481","F1","batch6","tol_tohand","1241","","","","","","","","","","","","","","tol_peg_1","1241","1241","0","[[0,0,0],[3,0],[2]]","2","[[2,1,3],[0,0],[0]]","1","0","","","","","","5"
"","","","","","single-stim-button","336","2759104","0.0-4.0-13.1-1.1","60d9faa609c8dcb9e5e05481","F1","batch6","tol_toboard","9895","","","","","","","","","","","","","","tol_peg_1","9895","9895","0","[[1,0,0],[3,0],[2]]","2","[[2,1,3],[0,0],[0]]","1","0","","","","","","5"
"","","","","","single-stim-button","337","2761074","0.0-4.0-13.2-0.2","60d9faa609c8dcb9e5e05481","F1","batch6","tol_tohand","1970","","","","","","","","","","","","","","tol_peg_2","1970","1970","0","[[1,0,0],[0,0],[2]]","3","[[2,1,3],[0,0],[0]]","1","0","","","","","","5"
"","","","","","single-stim-button","338","2769282","0.0-4.0-13.2-1.2","60d9faa609c8dcb9e5e05481","F1","batch6","tol_toboard","8207","","","","","","","","","","","","","","tol_peg_2","8207","8207","0","[[1,0,0],[3,0],[2]]","3","[[2,1,3],[0,0],[0]]","1","0","","","","","","5"
"","","","","","single-stim-button","339","2777739","0.0-4.0-13.3-0.3","60d9faa609c8dcb9e5e05481","F1","batch6","tol_tohand","8457","","","","","","","","","","","","","","tol_peg_1","8457","8457","0","[[0,0,0],[3,0],[2]]","4","[[2,1,3],[0,0],[0]]","1","0","","","","","","5"
"","","","","","single-stim-button","340","2784759","0.0-4.0-13.3-1.3","60d9faa609c8dcb9e5e05481","F1","batch6","tol_toboard","7019","","","","","","","","","","","","","","tol_peg_1","7019","7019","0","[[1,0,0],[3,0],[2]]","4","[[2,1,3],[0,0],[0]]","1","0","","","","","","5"
"","","","","","single-stim-button","341","2788047","0.0-4.0-13.4-0.4","60d9faa609c8dcb9e5e05481","F1","batch6","tol_tohand","3288","","","","","","","","","","","","","","tol_peg_3","3288","3288","0","[[1,0,0],[3,0],[0]]","5","[[2,1,3],[0,0],[0]]","1","0","","","","","","5"
"","","","","","single-stim-button","342","2797951","0.0-4.0-13.4-1.4","60d9faa609c8dcb9e5e05481","F1","batch6","tol_toboard","9903","","","","","","","","","","","","","","tol_peg_3","9903","9903","0","[[1,0,0],[3,0],[2]]","5","[[2,1,3],[0,0],[0]]","1","0","","","","","","5"
"","","","","","single-stim-button","343","2799159","0.0-4.0-13.5-0.5","60d9faa609c8dcb9e5e05481","F1","batch6","tol_tohand","1207","","","","","","","","","","","","","","tol_peg_1","1207","1207","0","[[0,0,0],[3,0],[2]]","6","[[2,1,3],[0,0],[0]]","1","0","","","","","","5"
"","","","","","single-stim-button","344","2801961","0.0-4.0-13.5-1.5","60d9faa609c8dcb9e5e05481","F1","batch6","tol_toboard","2802","","","","","","","","","","","","","","tol_peg_2","2802","2802","0","[[0,0,0],[3,1],[2]]","6","[[2,1,3],[0,0],[0]]","1","0","","","","","","5"
"","","","","","single-stim-button","345","2803209","0.0-4.0-13.6-0.6","60d9faa609c8dcb9e5e05481","F1","batch6","tol_tohand","1248","","","","","","","","","","","","","","tol_peg_3","1248","1248","0","[[0,0,0],[3,1],[0]]","7","[[2,1,3],[0,0],[0]]","1","0","","","","","","5"
"","","","","","single-stim-button","346","2804761","0.0-4.0-13.6-1.6","60d9faa609c8dcb9e5e05481","F1","batch6","tol_toboard","1552","","","","","","","","","","","","","","tol_peg_1","1552","1552","0","[[2,0,0],[3,1],[0]]","7","[[2,1,3],[0,0],[0]]","1","0","","","","","","5"
