"success","timeout","failed_images","failed_audio","failed_video","trial_type","trial_index","time_elapsed","internal_node_id","subject_id","study_id","session_id","task","rt","stimulus","response","item","answer","correct","spm_correct","spm_rt","view_history","mouse_click","stim_duration","block_duration","timing_post_trial","current_position","tol_num_moves_made","tol_target","tol_problem_id","tol_rt","key_press","possible_responses","tol_correct","preplanning","tol_rt_per_trial","tol_min_moves","fiar_detect_rt","fiar_detect_correct","total_correct_fiar_detect","post_trial_gap","choices"
"true","false","[]","[]","[]","preload","0","6001","0.0-0.0","60de50896b0ce86b84a2ee24","A3","batch1","","","","","","","","","","","","","","","","","","","","","","","","","","","","","",""
"true","","","","","fullscreen","1","27988","0.0-1.0-0.0","60de50896b0ce86b84a2ee24","A3","batch1","","","","","","","","","","","","","","","","","","","","","","","","","","","","","",""
"true","","","","","fullscreen","2","33854","0.0-2.0-0.0","60de50896b0ce86b84a2ee24","A3","batch1","spm_fullscreen","","","","","","","","","","","","","","","","","","","","","","","","","","","","",""
"","","","","","html-button-response","3","50313","0.0-2.0-1.0","60de50896b0ce86b84a2ee24","A3","batch1","","16456.69999998808","<p class = block-text><b>Instructions</b> <br>This is a widely used intelligence test in research. <br>In this test, a figure with a missing piece will be presented.<br>Below the figure are alternative pieces to complete the figure, only one of which is correct.<br> Different figures might involve different principles for obtaining the missing piece<br>Your job is to select the most logical piece to complete the figure.</p>","0","","","","","","","","","","","","","","","","","","","","","","","","","",""
"","","","","","html-keyboard-response","4","51120","0.0-2.0-2.0-0.0","60de50896b0ce86b84a2ee24","A3","batch1","spm_show_trial_num","null","<p class=block-text>Trial 1 out of 60</p>","null","","","","","","","","","","","","","","","","","","","","","","","","","",""
"","","","","","image-button-response","5","58617","0.0-2.0-2.0-1.0","60de50896b0ce86b84a2ee24","A3","batch1","spm_respsonse","7493.199999988079","img/question_1_1.jpeg","3","mat_01","4","1","1","7493.199999988079","","","","","","","","","","","","","","","","","","","","",""
"","","","","","html-keyboard-response","6","59690","0.0-2.0-2.0-0.1","60de50896b0ce86b84a2ee24","A3","batch1","spm_show_trial_num","null","<p class=block-text>Trial 2 out of 60</p>","null","","","","","","","","","","","","","","","","","","","","","","","","","",""
"","","","","","image-button-response","7","65049","0.0-2.0-2.0-1.1","60de50896b0ce86b84a2ee24","A3","batch1","spm_respsonse","5356.9000000059605","img/question_1_2.jpeg","4","mat_02","5","1","1","5356.9000000059605","","","","","","","","","","","","","","","","","","","","",""
"","","","","","html-keyboard-response","8","66121","0.0-2.0-2.0-0.2","60de50896b0ce86b84a2ee24","A3","batch1","spm_show_trial_num","null","<p class=block-text>Trial 3 out of 60</p>","null","","","","","","","","","","","","","","","","","","","","","","","","","",""
"","","","","","image-button-response","9","70409","0.0-2.0-2.0-1.2","60de50896b0ce86b84a2ee24","A3","batch1","spm_respsonse","4286.0999999940395","img/question_1_3.jpeg","0","mat_03","1","1","1","4286.0999999940395","","","","","","","","","","","","","","","","","","","","",""
"","","","","","html-keyboard-response","10","71486","0.0-2.0-2.0-0.3","60de50896b0ce86b84a2ee24","A3","batch1","spm_show_trial_num","null","<p class=block-text>Trial 4 out of 60</p>","null","","","","","","","","","","","","","","","","","","","","","","","","","",""
"","","","","","image-button-response","11","77625","0.0-2.0-2.0-1.3","60de50896b0ce86b84a2ee24","A3","batch1","spm_respsonse","6136.5999999940395","img/question_1_4.jpeg","1","mat_04","2","1","1","6136.5999999940395","","","","","","","","","","","","","","","","","","","","",""
"","","","","","html-keyboard-response","12","78686","0.0-2.0-2.0-0.4","60de50896b0ce86b84a2ee24","A3","batch1","spm_show_trial_num","null","<p class=block-text>Trial 5 out of 60</p>","null","","","","","","","","","","","","","","","","","","","","","","","","","",""
"","","","","","image-button-response","13","83929","0.0-2.0-2.0-1.4","60de50896b0ce86b84a2ee24","A3","batch1","spm_respsonse","5240.9000000059605","img/question_1_5.jpeg","5","mat_05","6","1","1","5240.9000000059605","","","","","","","","","","","","","","","","","","","","",""
"","","","","","html-keyboard-response","14","84990","0.0-2.0-2.0-0.5","60de50896b0ce86b84a2ee24","A3","batch1","spm_show_trial_num","null","<p class=block-text>Trial 6 out of 60</p>","null","","","","","","","","","","","","","","","","","","","","","","","","","",""
"","","","","","image-button-response","15","90488","0.0-2.0-2.0-1.5","60de50896b0ce86b84a2ee24","A3","batch1","spm_respsonse","5496.200000017881","img/question_1_6.jpeg","2","mat_06","3","1","1","5496.200000017881","","","","","","","","","","","","","","","","","","","","",""
"","","","","","html-keyboard-response","16","91558","0.0-2.0-2.0-0.6","60de50896b0ce86b84a2ee24","A3","batch1","spm_show_trial_num","null","<p class=block-text>Trial 7 out of 60</p>","null","","","","","","","","","","","","","","","","","","","","","","","","","",""
"","","","","","image-button-response","17","95425","0.0-2.0-2.0-1.6","60de50896b0ce86b84a2ee24","A3","batch1","spm_respsonse","3865.0999999940395","img/question_1_7.jpeg","5","mat_07","6","1","1","3865.0999999940395","","","","","","","","","","","","","","","","","","","","",""
"","","","","","html-keyboard-response","18","96498","0.0-2.0-2.0-0.7","60de50896b0ce86b84a2ee24","A3","batch1","spm_show_trial_num","null","<p class=block-text>Trial 8 out of 60</p>","null","","","","","","","","","","","","","","","","","","","","","","","","","",""
"","","","","","image-button-response","19","103210","0.0-2.0-2.0-1.7","60de50896b0ce86b84a2ee24","A3","batch1","spm_respsonse","6710.0999999940395","img/question_1_8.jpeg","1","mat_08","2","1","1","6710.0999999940395","","","","","","","","","","","","","","","","","","","","",""
"","","","","","html-keyboard-response","20","104276","0.0-2.0-2.0-0.8","60de50896b0ce86b84a2ee24","A3","batch1","spm_show_trial_num","null","<p class=block-text>Trial 9 out of 60</p>","null","","","","","","","","","","","","","","","","","","","","","","","","","",""
"","","","","","image-button-response","21","109906","0.0-2.0-2.0-1.8","60de50896b0ce86b84a2ee24","A3","batch1","spm_respsonse","5627.800000011921","img/question_1_9.jpeg","0","mat_09","1","1","1","5627.800000011921","","","","","","","","","","","","","","","","","","","","",""
"","","","","","html-keyboard-response","22","110963","0.0-2.0-2.0-0.9","60de50896b0ce86b84a2ee24","A3","batch1","spm_show_trial_num","null","<p class=block-text>Trial 10 out of 60</p>","null","","","","","","","","","","","","","","","","","","","","","","","","","",""
"","","","","","image-button-response","23","123271","0.0-2.0-2.0-1.9","60de50896b0ce86b84a2ee24","A3","batch1","spm_respsonse","12307","img/question_1_10.jpeg","2","mat_10","3","1","1","12307","","","","","","","","","","","","","","","","","","","","",""
"","","","","","html-keyboard-response","24","124339","0.0-2.0-2.0-0.10","60de50896b0ce86b84a2ee24","A3","batch1","spm_show_trial_num","null","<p class=block-text>Trial 11 out of 60</p>","null","","","","","","","","","","","","","","","","","","","","","","","","","",""
"","","","","","image-button-response","25","130336","0.0-2.0-2.0-1.10","60de50896b0ce86b84a2ee24","A3","batch1","spm_respsonse","5995","img/question_1_11.jpeg","3","mat_11","4","1","1","5995","","","","","","","","","","","","","","","","","","","","",""
"","","","","","html-keyboard-response","26","131403","0.0-2.0-2.0-0.11","60de50896b0ce86b84a2ee24","A3","batch1","spm_show_trial_num","null","<p class=block-text>Trial 12 out of 60</p>","null","","","","","","","","","","","","","","","","","","","","","","","","","",""
"","","","","","image-button-response","27","166880","0.0-2.0-2.0-1.11","60de50896b0ce86b84a2ee24","A3","batch1","spm_respsonse","35475.30000001192","img/question_1_12.jpeg","3","mat_12","5","0","0","35475.30000001192","","","","","","","","","","","","","","","","","","","","",""
"","","","","","html-keyboard-response","28","167948","0.0-2.0-2.0-0.12","60de50896b0ce86b84a2ee24","A3","batch1","spm_show_trial_num","null","<p class=block-text>Trial 13 out of 60</p>","null","","","","","","","","","","","","","","","","","","","","","","","","","",""
"","","","","","image-button-response","29","170890","0.0-2.0-2.0-1.12","60de50896b0ce86b84a2ee24","A3","batch1","spm_respsonse","2939.5","img/question_2_1.jpeg","1","mat_13","2","1","1","2939.5","","","","","","","","","","","","","","","","","","","","",""
"","","","","","html-keyboard-response","30","171968","0.0-2.0-2.0-0.13","60de50896b0ce86b84a2ee24","A3","batch1","spm_show_trial_num","null","<p class=block-text>Trial 14 out of 60</p>","null","","","","","","","","","","","","","","","","","","","","","","","","","",""
"","","","","","image-button-response","31","176968","0.0-2.0-2.0-1.13","60de50896b0ce86b84a2ee24","A3","batch1","spm_respsonse","4998.5999999940395","img/question_2_2.jpeg","5","mat_14","6","1","1","4998.5999999940395","","","","","","","","","","","","","","","","","","","","",""
"","","","","","html-keyboard-response","32","178044","0.0-2.0-2.0-0.14","60de50896b0ce86b84a2ee24","A3","batch1","spm_show_trial_num","null","<p class=block-text>Trial 15 out of 60</p>","null","","","","","","","","","","","","","","","","","","","","","","","","","",""
"","","","","","image-button-response","33","183192","0.0-2.0-2.0-1.14","60de50896b0ce86b84a2ee24","A3","batch1","spm_respsonse","5146.5999999940395","img/question_2_3.jpeg","0","mat_15","1","1","1","5146.5999999940395","","","","","","","","","","","","","","","","","","","","",""
"","","","","","html-keyboard-response","34","184256","0.0-2.0-2.0-0.15","60de50896b0ce86b84a2ee24","A3","batch1","spm_show_trial_num","null","<p class=block-text>Trial 16 out of 60</p>","null","","","","","","","","","","","","","","","","","","","","","","","","","",""
"","","","","","image-button-response","35","188080","0.0-2.0-2.0-1.15","60de50896b0ce86b84a2ee24","A3","batch1","spm_respsonse","3821.5999999940395","img/question_2_4.jpeg","1","mat_16","2","1","1","3821.5999999940395","","","","","","","","","","","","","","","","","","","","",""
"","","","","","html-keyboard-response","36","189147","0.0-2.0-2.0-0.16","60de50896b0ce86b84a2ee24","A3","batch1","spm_show_trial_num","null","<p class=block-text>Trial 17 out of 60</p>","null","","","","","","","","","","","","","","","","","","","","","","","","","",""
"","","","","","image-button-response","37","201040","0.0-2.0-2.0-1.16","60de50896b0ce86b84a2ee24","A3","batch1","spm_respsonse","11891.200000017881","img/question_2_5.jpeg","0","mat_17","1","1","1","11891.200000017881","","","","","","","","","","","","","","","","","","","","",""
"","","","","","html-keyboard-response","38","202113","0.0-2.0-2.0-0.17","60de50896b0ce86b84a2ee24","A3","batch1","spm_show_trial_num","null","<p class=block-text>Trial 18 out of 60</p>","null","","","","","","","","","","","","","","","","","","","","","","","","","",""
"","","","","","image-button-response","39","209888","0.0-2.0-2.0-1.17","60de50896b0ce86b84a2ee24","A3","batch1","spm_respsonse","7773.5999999940395","img/question_2_6.jpeg","2","mat_18","3","1","1","7773.5999999940395","","","","","","","","","","","","","","","","","","","","",""
"","","","","","html-keyboard-response","40","210944","0.0-2.0-2.0-0.18","60de50896b0ce86b84a2ee24","A3","batch1","spm_show_trial_num","null","<p class=block-text>Trial 19 out of 60</p>","null","","","","","","","","","","","","","","","","","","","","","","","","","",""
"","","","","","image-button-response","41","220983","0.0-2.0-2.0-1.18","60de50896b0ce86b84a2ee24","A3","batch1","spm_respsonse","10037.199999988079","img/question_2_7.jpeg","4","mat_19","5","1","1","10037.199999988079","","","","","","","","","","","","","","","","","","","","",""
"","","","","","html-keyboard-response","42","222043","0.0-2.0-2.0-0.19","60de50896b0ce86b84a2ee24","A3","batch1","spm_show_trial_num","null","<p class=block-text>Trial 20 out of 60</p>","null","","","","","","","","","","","","","","","","","","","","","","","","","",""
"","","","","","image-button-response","43","229466","0.0-2.0-2.0-1.19","60de50896b0ce86b84a2ee24","A3","batch1","spm_respsonse","7420.300000011921","img/question_2_8.jpeg","5","mat_20","6","1","1","7420.300000011921","","","","","","","","","","","","","","","","","","","","",""
"","","","","","html-keyboard-response","44","230541","0.0-2.0-2.0-0.20","60de50896b0ce86b84a2ee24","A3","batch1","spm_show_trial_num","null","<p class=block-text>Trial 21 out of 60</p>","null","","","","","","","","","","","","","","","","","","","","","","","","","",""
"","","","","","image-button-response","45","236658","0.0-2.0-2.0-1.20","60de50896b0ce86b84a2ee24","A3","batch1","spm_respsonse","6114.600000023842","img/question_2_9.jpeg","3","mat_21","4","1","1","6114.600000023842","","","","","","","","","","","","","","","","","","","","",""
"","","","","","html-keyboard-response","46","237734","0.0-2.0-2.0-0.21","60de50896b0ce86b84a2ee24","A3","batch1","spm_show_trial_num","null","<p class=block-text>Trial 22 out of 60</p>","null","","","","","","","","","","","","","","","","","","","","","","","","","",""
"","","","","","image-button-response","47","245065","0.0-2.0-2.0-1.21","60de50896b0ce86b84a2ee24","A3","batch1","spm_respsonse","7328.299999982119","img/question_2_10.jpeg","2","mat_22","3","1","1","7328.299999982119","","","","","","","","","","","","","","","","","","","","",""
"","","","","","html-keyboard-response","48","246130","0.0-2.0-2.0-0.22","60de50896b0ce86b84a2ee24","A3","batch1","spm_show_trial_num","null","<p class=block-text>Trial 23 out of 60</p>","null","","","","","","","","","","","","","","","","","","","","","","","","","",""
"","","","","","image-button-response","49","253609","0.0-2.0-2.0-1.22","60de50896b0ce86b84a2ee24","A3","batch1","spm_respsonse","7477.800000011921","img/question_2_11.jpeg","3","mat_23","4","1","1","7477.800000011921","","","","","","","","","","","","","","","","","","","","",""
"","","","","","html-keyboard-response","50","254672","0.0-2.0-2.0-0.23","60de50896b0ce86b84a2ee24","A3","batch1","spm_show_trial_num","null","<p class=block-text>Trial 24 out of 60</p>","null","","","","","","","","","","","","","","","","","","","","","","","","","",""
"","","","","","image-button-response","51","273408","0.0-2.0-2.0-1.23","60de50896b0ce86b84a2ee24","A3","batch1","spm_respsonse","18733.69999998808","img/question_2_12.jpeg","4","mat_24","5","1","1","18733.69999998808","","","","","","","","","","","","","","","","","","","","",""
"","","","","","html-button-response","52","276320","0.0-2.0-3.0","60de50896b0ce86b84a2ee24","A3","batch1","attention_check","2659.7999999821186","<p class = block-text>Attention check: Please choose 1<br></p>","0","","","true","","","","","","","","","","","","","","","","","","","","","","",""
"","","","","","html-keyboard-response","53","277122","0.0-2.0-4.0-0.0","60de50896b0ce86b84a2ee24","A3","batch1","spm_show_trial_num","null","<p class=block-text>Trial 25 out of 60</p>","null","","","","","","","","","","","","","","","","","","","","","","","","","",""
"","","","","","image-button-response","54","283401","0.0-2.0-4.0-1.0","60de50896b0ce86b84a2ee24","A3","batch1","spm_respsonse","6276.200000017881","img/question_3_1.jpeg","7","mat_25","8","1","1","6276.200000017881","","","","","","","","","","","","","","","","","","","","",""
"","","","","","html-keyboard-response","55","284469","0.0-2.0-4.0-0.1","60de50896b0ce86b84a2ee24","A3","batch1","spm_show_trial_num","null","<p class=block-text>Trial 26 out of 60</p>","null","","","","","","","","","","","","","","","","","","","","","","","","","",""
"","","","","","image-button-response","56","291336","0.0-2.0-4.0-1.1","60de50896b0ce86b84a2ee24","A3","batch1","spm_respsonse","6866.100000023842","img/question_3_2.jpeg","1","mat_26","2","1","1","6866.100000023842","","","","","","","","","","","","","","","","","","","","",""
"","","","","","html-keyboard-response","57","292401","0.0-2.0-4.0-0.2","60de50896b0ce86b84a2ee24","A3","batch1","spm_show_trial_num","null","<p class=block-text>Trial 27 out of 60</p>","null","","","","","","","","","","","","","","","","","","","","","","","","","",""
"","","","","","image-button-response","58","308088","0.0-2.0-4.0-1.2","60de50896b0ce86b84a2ee24","A3","batch1","spm_respsonse","15684.800000011921","img/question_3_3.jpeg","2","mat_27","3","1","1","15684.800000011921","","","","","","","","","","","","","","","","","","","","",""
"","","","","","html-keyboard-response","59","309152","0.0-2.0-4.0-0.3","60de50896b0ce86b84a2ee24","A3","batch1","spm_show_trial_num","null","<p class=block-text>Trial 28 out of 60</p>","null","","","","","","","","","","","","","","","","","","","","","","","","","",""
"","","","","","image-button-response","60","333249","0.0-2.0-4.0-1.3","60de50896b0ce86b84a2ee24","A3","batch1","spm_respsonse","24094.09999999404","img/question_3_4.jpeg","7","mat_28","8","1","1","24094.09999999404","","","","","","","","","","","","","","","","","","","","",""
"","","","","","html-keyboard-response","61","334309","0.0-2.0-4.0-0.4","60de50896b0ce86b84a2ee24","A3","batch1","spm_show_trial_num","null","<p class=block-text>Trial 29 out of 60</p>","null","","","","","","","","","","","","","","","","","","","","","","","","","",""
"","","","","","image-button-response","62","340705","0.0-2.0-4.0-1.4","60de50896b0ce86b84a2ee24","A3","batch1","spm_respsonse","6394.5","img/question_3_5.jpeg","6","mat_29","7","1","1","6394.5","","","","","","","","","","","","","","","","","","","","",""
"","","","","","html-keyboard-response","63","341769","0.0-2.0-4.0-0.5","60de50896b0ce86b84a2ee24","A3","batch1","spm_show_trial_num","null","<p class=block-text>Trial 30 out of 60</p>","null","","","","","","","","","","","","","","","","","","","","","","","","","",""
"","","","","","image-button-response","64","355129","0.0-2.0-4.0-1.5","60de50896b0ce86b84a2ee24","A3","batch1","spm_respsonse","13357.800000011921","img/question_3_6.jpeg","3","mat_30","4","1","1","13357.800000011921","","","","","","","","","","","","","","","","","","","","",""
"","","","","","html-keyboard-response","65","356205","0.0-2.0-4.0-0.6","60de50896b0ce86b84a2ee24","A3","batch1","spm_show_trial_num","null","<p class=block-text>Trial 31 out of 60</p>","null","","","","","","","","","","","","","","","","","","","","","","","","","",""
"","","","","","image-button-response","66","370752","0.0-2.0-4.0-1.6","60de50896b0ce86b84a2ee24","A3","batch1","spm_respsonse","14545.300000011921","img/question_3_7.jpeg","4","mat_31","5","1","1","14545.300000011921","","","","","","","","","","","","","","","","","","","","",""
"","","","","","html-keyboard-response","67","371806","0.0-2.0-4.0-0.7","60de50896b0ce86b84a2ee24","A3","batch1","spm_show_trial_num","null","<p class=block-text>Trial 32 out of 60</p>","null","","","","","","","","","","","","","","","","","","","","","","","","","",""
"","","","","","image-button-response","68","385448","0.0-2.0-4.0-1.7","60de50896b0ce86b84a2ee24","A3","batch1","spm_respsonse","13639.800000011921","img/question_3_8.jpeg","0","mat_32","1","1","1","13639.800000011921","","","","","","","","","","","","","","","","","","","","",""
"","","","","","html-keyboard-response","69","386513","0.0-2.0-4.0-0.8","60de50896b0ce86b84a2ee24","A3","batch1","spm_show_trial_num","null","<p class=block-text>Trial 33 out of 60</p>","null","","","","","","","","","","","","","","","","","","","","","","","","","",""
"","","","","","image-button-response","70","392864","0.0-2.0-4.0-1.8","60de50896b0ce86b84a2ee24","A3","batch1","spm_respsonse","6349","img/question_3_9.jpeg","6","mat_33","7","1","1","6349","","","","","","","","","","","","","","","","","","","","",""
"","","","","","html-keyboard-response","71","393923","0.0-2.0-4.0-0.9","60de50896b0ce86b84a2ee24","A3","batch1","spm_show_trial_num","null","<p class=block-text>Trial 34 out of 60</p>","null","","","","","","","","","","","","","","","","","","","","","","","","","",""
"","","","","","image-button-response","72","424536","0.0-2.0-4.0-1.9","60de50896b0ce86b84a2ee24","A3","batch1","spm_respsonse","30610.40000000596","img/question_3_10.jpeg","5","mat_34","6","1","1","30610.40000000596","","","","","","","","","","","","","","","","","","","","",""
"","","","","","html-keyboard-response","73","425597","0.0-2.0-4.0-0.10","60de50896b0ce86b84a2ee24","A3","batch1","spm_show_trial_num","null","<p class=block-text>Trial 35 out of 60</p>","null","","","","","","","","","","","","","","","","","","","","","","","","","",""
"","","","","","image-button-response","74","471568","0.0-2.0-4.0-1.10","60de50896b0ce86b84a2ee24","A3","batch1","spm_respsonse","45968.5","img/question_3_11.jpeg","4","mat_35","1","0","0","45968.5","","","","","","","","","","","","","","","","","","","","",""
"","","","","","html-keyboard-response","75","472632","0.0-2.0-4.0-0.11","60de50896b0ce86b84a2ee24","A3","batch1","spm_show_trial_num","null","<p class=block-text>Trial 36 out of 60</p>","null","","","","","","","","","","","","","","","","","","","","","","","","","",""
"","","","","","image-button-response","76","494736","0.0-2.0-4.0-1.11","60de50896b0ce86b84a2ee24","A3","batch1","spm_respsonse","22102","img/question_3_12.jpeg","2","mat_36","2","0","0","22102","","","","","","","","","","","","","","","","","","","","",""
"","","","","","html-keyboard-response","77","495792","0.0-2.0-4.0-0.12","60de50896b0ce86b84a2ee24","A3","batch1","spm_show_trial_num","null","<p class=block-text>Trial 37 out of 60</p>","null","","","","","","","","","","","","","","","","","","","","","","","","","",""
"","","","","","image-button-response","78","500768","0.0-2.0-4.0-1.12","60de50896b0ce86b84a2ee24","A3","batch1","spm_respsonse","4974.4000000059605","img/question_4_1.jpeg","2","mat_37","3","1","1","4974.4000000059605","","","","","","","","","","","","","","","","","","","","",""
"","","","","","html-keyboard-response","79","501839","0.0-2.0-4.0-0.13","60de50896b0ce86b84a2ee24","A3","batch1","spm_show_trial_num","null","<p class=block-text>Trial 38 out of 60</p>","null","","","","","","","","","","","","","","","","","","","","","","","","","",""
"","","","","","image-button-response","80","507920","0.0-2.0-4.0-1.13","60de50896b0ce86b84a2ee24","A3","batch1","spm_respsonse","6079.300000011921","img/question_4_2.jpeg","3","mat_38","4","1","1","6079.300000011921","","","","","","","","","","","","","","","","","","","","",""
"","","","","","html-keyboard-response","81","508994","0.0-2.0-4.0-0.14","60de50896b0ce86b84a2ee24","A3","batch1","spm_show_trial_num","null","<p class=block-text>Trial 39 out of 60</p>","null","","","","","","","","","","","","","","","","","","","","","","","","","",""
"","","","","","image-button-response","82","514856","0.0-2.0-4.0-1.14","60de50896b0ce86b84a2ee24","A3","batch1","spm_respsonse","5860.200000017881","img/question_4_3.jpeg","2","mat_39","3","1","1","5860.200000017881","","","","","","","","","","","","","","","","","","","","",""
"","","","","","html-keyboard-response","83","515932","0.0-2.0-4.0-0.15","60de50896b0ce86b84a2ee24","A3","batch1","spm_show_trial_num","null","<p class=block-text>Trial 40 out of 60</p>","null","","","","","","","","","","","","","","","","","","","","","","","","","",""
"","","","","","image-button-response","84","525680","0.0-2.0-4.0-1.15","60de50896b0ce86b84a2ee24","A3","batch1","spm_respsonse","9746.100000023842","img/question_4_4.jpeg","6","mat_40","7","1","1","9746.100000023842","","","","","","","","","","","","","","","","","","","","",""
"","","","","","html-keyboard-response","85","526749","0.0-2.0-4.0-0.16","60de50896b0ce86b84a2ee24","A3","batch1","spm_show_trial_num","null","<p class=block-text>Trial 41 out of 60</p>","null","","","","","","","","","","","","","","","","","","","","","","","","","",""
"","","","","","image-button-response","86","541440","0.0-2.0-4.0-1.16","60de50896b0ce86b84a2ee24","A3","batch1","spm_respsonse","14688.40000000596","img/question_4_5.jpeg","7","mat_41","8","1","1","14688.40000000596","","","","","","","","","","","","","","","","","","","","",""
"","","","","","html-keyboard-response","87","542505","0.0-2.0-4.0-0.17","60de50896b0ce86b84a2ee24","A3","batch1","spm_show_trial_num","null","<p class=block-text>Trial 42 out of 60</p>","null","","","","","","","","","","","","","","","","","","","","","","","","","",""
"","","","","","image-button-response","88","555929","0.0-2.0-4.0-1.17","60de50896b0ce86b84a2ee24","A3","batch1","spm_respsonse","13420.699999988079","img/question_4_6.jpeg","5","mat_42","6","1","1","13420.699999988079","","","","","","","","","","","","","","","","","","","","",""
"","","","","","html-keyboard-response","89","557004","0.0-2.0-4.0-0.18","60de50896b0ce86b84a2ee24","A3","batch1","spm_show_trial_num","null","<p class=block-text>Trial 43 out of 60</p>","null","","","","","","","","","","","","","","","","","","","","","","","","","",""
"","","","","","image-button-response","90","577344","0.0-2.0-4.0-1.18","60de50896b0ce86b84a2ee24","A3","batch1","spm_respsonse","20338.40000000596","img/question_4_7.jpeg","4","mat_43","5","1","1","20338.40000000596","","","","","","","","","","","","","","","","","","","","",""
"","","","","","html-keyboard-response","91","578397","0.0-2.0-4.0-0.19","60de50896b0ce86b84a2ee24","A3","batch1","spm_show_trial_num","null","<p class=block-text>Trial 44 out of 60</p>","null","","","","","","","","","","","","","","","","","","","","","","","","","",""
"","","","","","image-button-response","92","587393","0.0-2.0-4.0-1.19","60de50896b0ce86b84a2ee24","A3","batch1","spm_respsonse","8994.299999982119","img/question_4_8.jpeg","3","mat_44","4","1","1","8994.299999982119","","","","","","","","","","","","","","","","","","","","",""
"","","","","","html-keyboard-response","93","588458","0.0-2.0-4.0-0.20","60de50896b0ce86b84a2ee24","A3","batch1","spm_show_trial_num","null","<p class=block-text>Trial 45 out of 60</p>","null","","","","","","","","","","","","","","","","","","","","","","","","","",""
"","","","","","image-button-response","94","604523","0.0-2.0-4.0-1.20","60de50896b0ce86b84a2ee24","A3","batch1","spm_respsonse","16062.200000017881","img/question_4_9.jpeg","0","mat_45","1","1","1","16062.200000017881","","","","","","","","","","","","","","","","","","","","",""
"","","","","","html-keyboard-response","95","605587","0.0-2.0-4.0-0.21","60de50896b0ce86b84a2ee24","A3","batch1","spm_show_trial_num","null","<p class=block-text>Trial 46 out of 60</p>","null","","","","","","","","","","","","","","","","","","","","","","","","","",""
"","","","","","image-button-response","96","628233","0.0-2.0-4.0-1.21","60de50896b0ce86b84a2ee24","A3","batch1","spm_respsonse","22644.09999999404","img/question_4_10.jpeg","1","mat_46","2","1","1","22644.09999999404","","","","","","","","","","","","","","","","","","","","",""
"","","","","","html-keyboard-response","97","629315","0.0-2.0-4.0-0.22","60de50896b0ce86b84a2ee24","A3","batch1","spm_show_trial_num","null","<p class=block-text>Trial 47 out of 60</p>","null","","","","","","","","","","","","","","","","","","","","","","","","","",""
"","","","","","image-button-response","98","687096","0.0-2.0-4.0-1.22","60de50896b0ce86b84a2ee24","A3","batch1","spm_respsonse","57779.60000002384","img/question_4_11.jpeg","7","mat_47","5","0","0","57779.60000002384","","","","","","","","","","","","","","","","","","","","",""
"","","","","","html-keyboard-response","99","688152","0.0-2.0-4.0-0.23","60de50896b0ce86b84a2ee24","A3","batch1","spm_show_trial_num","null","<p class=block-text>Trial 48 out of 60</p>","null","","","","","","","","","","","","","","","","","","","","","","","","","",""
"","","","","","image-button-response","100","782440","0.0-2.0-4.0-1.23","60de50896b0ce86b84a2ee24","A3","batch1","spm_respsonse","94285.90000000596","img/question_4_12.jpeg","5","mat_48","6","1","1","94285.90000000596","","","","","","","","","","","","","","","","","","","","",""
"","","","","","html-keyboard-response","101","783492","0.0-2.0-4.0-0.24","60de50896b0ce86b84a2ee24","A3","batch1","spm_show_trial_num","null","<p class=block-text>Trial 49 out of 60</p>","null","","","","","","","","","","","","","","","","","","","","","","","","","",""
"","","","","","image-button-response","102","793360","0.0-2.0-4.0-1.24","60de50896b0ce86b84a2ee24","A3","batch1","spm_respsonse","9866.300000011921","img/question_5_1.jpeg","6","mat_49","7","1","1","9866.300000011921","","","","","","","","","","","","","","","","","","","","",""
"","","","","","html-keyboard-response","103","794425","0.0-2.0-4.0-0.25","60de50896b0ce86b84a2ee24","A3","batch1","spm_show_trial_num","null","<p class=block-text>Trial 50 out of 60</p>","null","","","","","","","","","","","","","","","","","","","","","","","","","",""
"","","","","","image-button-response","104","823376","0.0-2.0-4.0-1.25","60de50896b0ce86b84a2ee24","A3","batch1","spm_respsonse","28948.899999976158","img/question_5_2.jpeg","5","mat_50","6","1","1","28948.899999976158","","","","","","","","","","","","","","","","","","","","",""
"","","","","","html-keyboard-response","105","824443","0.0-2.0-4.0-0.26","60de50896b0ce86b84a2ee24","A3","batch1","spm_show_trial_num","null","<p class=block-text>Trial 51 out of 60</p>","null","","","","","","","","","","","","","","","","","","","","","","","","","",""
"","","","","","image-button-response","106","847321","0.0-2.0-4.0-1.26","60de50896b0ce86b84a2ee24","A3","batch1","spm_respsonse","22875.40000000596","img/question_5_3.jpeg","7","mat_51","8","1","1","22875.40000000596","","","","","","","","","","","","","","","","","","","","",""
"","","","","","html-keyboard-response","107","848392","0.0-2.0-4.0-0.27","60de50896b0ce86b84a2ee24","A3","batch1","spm_show_trial_num","null","<p class=block-text>Trial 52 out of 60</p>","null","","","","","","","","","","","","","","","","","","","","","","","","","",""
"","","","","","image-button-response","108","903801","0.0-2.0-4.0-1.27","60de50896b0ce86b84a2ee24","A3","batch1","spm_respsonse","55406.40000000596","img/question_5_4.jpeg","6","mat_52","2","0","0","55406.40000000596","","","","","","","","","","","","","","","","","","","","",""
"","","","","","html-keyboard-response","109","904864","0.0-2.0-4.0-0.28","60de50896b0ce86b84a2ee24","A3","batch1","spm_show_trial_num","null","<p class=block-text>Trial 53 out of 60</p>","null","","","","","","","","","","","","","","","","","","","","","","","","","",""
"","","","","","image-button-response","110","931863","0.0-2.0-4.0-1.28","60de50896b0ce86b84a2ee24","A3","batch1","spm_respsonse","26998","img/question_5_5.jpeg","0","mat_53","1","1","1","26998","","","","","","","","","","","","","","","","","","","","",""
"","","","","","html-keyboard-response","111","932930","0.0-2.0-4.0-0.29","60de50896b0ce86b84a2ee24","A3","batch1","spm_show_trial_num","null","<p class=block-text>Trial 54 out of 60</p>","null","","","","","","","","","","","","","","","","","","","","","","","","","",""
"","","","","","image-button-response","112","976352","0.0-2.0-4.0-1.29","60de50896b0ce86b84a2ee24","A3","batch1","spm_respsonse","43420","img/question_5_6.jpeg","1","mat_54","5","0","0","43420","","","","","","","","","","","","","","","","","","","","",""
"","","","","","html-keyboard-response","113","977427","0.0-2.0-4.0-0.30","60de50896b0ce86b84a2ee24","A3","batch1","spm_show_trial_num","null","<p class=block-text>Trial 55 out of 60</p>","null","","","","","","","","","","","","","","","","","","","","","","","","","",""
"","","","","","image-button-response","114","1029248","0.0-2.0-4.0-1.30","60de50896b0ce86b84a2ee24","A3","batch1","spm_respsonse","51819","img/question_5_7.jpeg","0","mat_55","1","1","1","51819","","","","","","","","","","","","","","","","","","","","",""
"","","","","","html-keyboard-response","115","1030306","0.0-2.0-4.0-0.31","60de50896b0ce86b84a2ee24","A3","batch1","spm_show_trial_num","null","<p class=block-text>Trial 56 out of 60</p>","null","","","","","","","","","","","","","","","","","","","","","","","","","",""
"","","","","","image-button-response","116","1048456","0.0-2.0-4.0-1.31","60de50896b0ce86b84a2ee24","A3","batch1","spm_respsonse","18148.40000000596","img/question_5_8.jpeg","5","mat_56","6","1","1","18148.40000000596","","","","","","","","","","","","","","","","","","","","",""
"","","","","","html-keyboard-response","117","1049520","0.0-2.0-4.0-0.32","60de50896b0ce86b84a2ee24","A3","batch1","spm_show_trial_num","null","<p class=block-text>Trial 57 out of 60</p>","null","","","","","","","","","","","","","","","","","","","","","","","","","",""
"","","","","","image-button-response","118","1107823","0.0-2.0-4.0-1.32","60de50896b0ce86b84a2ee24","A3","batch1","spm_respsonse","58301.69999998808","img/question_5_9.jpeg","7","mat_57","3","0","0","58301.69999998808","","","","","","","","","","","","","","","","","","","","",""
"","","","","","html-keyboard-response","119","1108889","0.0-2.0-4.0-0.33","60de50896b0ce86b84a2ee24","A3","batch1","spm_show_trial_num","null","<p class=block-text>Trial 58 out of 60</p>","null","","","","","","","","","","","","","","","","","","","","","","","","","",""
"","","","","","image-button-response","120","1148943","0.0-2.0-4.0-1.33","60de50896b0ce86b84a2ee24","A3","batch1","spm_respsonse","40052","img/question_5_10.jpeg","5","mat_58","2","0","0","40052","","","","","","","","","","","","","","","","","","","","",""
"","","","","","html-keyboard-response","121","1150017","0.0-2.0-4.0-0.34","60de50896b0ce86b84a2ee24","A3","batch1","spm_show_trial_num","null","<p class=block-text>Trial 59 out of 60</p>","null","","","","","","","","","","","","","","","","","","","","","","","","","",""
"","","","","","image-button-response","122","1193415","0.0-2.0-4.0-1.34","60de50896b0ce86b84a2ee24","A3","batch1","spm_respsonse","43395.69999998808","img/question_5_11.jpeg","6","mat_59","4","0","0","43395.69999998808","","","","","","","","","","","","","","","","","","","","",""
"","","","","","html-keyboard-response","123","1194483","0.0-2.0-4.0-0.35","60de50896b0ce86b84a2ee24","A3","batch1","spm_show_trial_num","null","<p class=block-text>Trial 60 out of 60</p>","null","","","","","","","","","","","","","","","","","","","","","","","","","",""
"","","","","","image-button-response","124","1235207","0.0-2.0-4.0-1.35","60de50896b0ce86b84a2ee24","A3","batch1","spm_respsonse","40723.59999999404","img/question_5_12.jpeg","4","mat_60","5","1","1","40723.59999999404","","","","","","","","","","","","","","","","","","","","",""
"","","","","","html-button-response","125","1238464","0.0-2.0-5.0","60de50896b0ce86b84a2ee24","A3","batch1","spm_goodbye","2994.600000023842","<p class= block-text>This concludes the Standard Progressive Matrix game. Thank you for your responses!<br> When you are ready, click the button continue</p>","0","","","","","","","","","","","","","","","","","","","","","","","","","",""
"true","","","","","fullscreen","126","1241546","0.0-3.0-0.0","60de50896b0ce86b84a2ee24","A3","batch1","","","","","","","","","","","","","","","","","","","","","","","","","","","","","",""
"","","","","","instructions","127","1309183","0.0-3.0-1.0-0.0-0.0","60de50896b0ce86b84a2ee24","A3","batch1","tol-instructions","67636","","","","","","","","[{""page_index"":0,""viewing_time"":14571.90000000596},{""page_index"":1,""viewing_time"":7952.300000011921},{""page_index"":2,""viewing_time"":7903.5},{""page_index"":3,""viewing_time"":10224.299999982119},{""page_index"":4,""viewing_time"":7823.700000017881},{""page_index"":5,""viewing_time"":15176.699999988079},{""page_index"":6,""viewing_time"":3983.2000000178814}]","","","","","","","","","","","","","","","","","","","",""
"","","","","","html-button-response","128","1310575","0.0-3.0-1.0-1.0-0.0","60de50896b0ce86b84a2ee24","A3","batch1","tol_enter_quiz","1390.800000011921","<p class=block-text> Let's answer a few questions <br>","0","","","","","","","","","","","","","","","","","","","","","","","","","",""
"","","","","","html-button-response","129","1322624","0.0-3.0-1.0-1.0-1.0","60de50896b0ce86b84a2ee24","A3","batch1","tol_quiz","12047.09999999404","<p class = block-text>True or False: You can only move the ball on top of a peg. <br></p>","1","","","false","","","","","","","","","","","","","","","","","","","","","","",""
"","","","","","html-button-response","130","1324768","0.0-3.0-1.0-1.0-2.0","60de50896b0ce86b84a2ee24","A3","batch1","tol_quiz_feedback","2142.199999988079","<p class = block-text>Incorrect. Remember, you can only move the ball on top of a peg.</p>","0","","","","","","","","","","","","","","","","","","","","","","","","","",""
"","","","","","html-button-response","131","1327999","0.0-3.0-1.0-1.0-3.0","60de50896b0ce86b84a2ee24","A3","batch1","tol_quiz","3230.2000000178814","<p class = block-text>True or False: You should try to match your board with the target board with fewest moves possible. <br></p>","0","","","true","","","","","","","","","","","","","","","","","","","","","","",""
"","","","","","html-button-response","132","1328847","0.0-3.0-1.0-1.0-4.0","60de50896b0ce86b84a2ee24","A3","batch1","tol_quiz_feedback","846.5999999940395","<p class = block-text>Correct! </p>","0","","","","","","","","","","","","","","","","","","","","","","","","","",""
"","","","","","html-button-response","133","1331160","0.0-3.0-1.0-2.0-0.0","60de50896b0ce86b84a2ee24","A3","batch1","","2311.199999988079","<p class = block-text>You made too many incorrect choices.</p><p class = block-text>You will now repeat the instructions and quiz</p>","0","","","","","","","","","","","","","","","","","","","","","","","","","",""
"","","","","","instructions","134","1346103","0.0-3.0-1.1-0.1-0.1","60de50896b0ce86b84a2ee24","A3","batch1","tol-instructions","14942.300000011921","","","","","","","","[{""page_index"":0,""viewing_time"":3542.300000011921},{""page_index"":1,""viewing_time"":1840.199999988079},{""page_index"":2,""viewing_time"":1119.800000011921},{""page_index"":3,""viewing_time"":3111.5999999940395},{""page_index"":4,""viewing_time"":1784.4000000059605},{""page_index"":5,""viewing_time"":1431.4000000059605},{""page_index"":6,""viewing_time"":2112.2999999821186}]","","","","","","","","","","","","","","","","","","","",""
"","","","","","html-button-response","135","1347063","0.0-3.0-1.1-1.1-0.1","60de50896b0ce86b84a2ee24","A3","batch1","tol_enter_quiz","958.9000000059605","<p class=block-text> Let's answer a few questions <br>","0","","","","","","","","","","","","","","","","","","","","","","","","","",""
"","","","","","html-button-response","136","1349279","0.0-3.0-1.1-1.1-1.1","60de50896b0ce86b84a2ee24","A3","batch1","tol_quiz","2214.300000011921","<p class = block-text>True or False: You can only move the ball on top of a peg. <br></p>","0","","","true","","","","","","","","","","","","","","","","","","","","","","",""
"","","","","","html-button-response","137","1350776","0.0-3.0-1.1-1.1-2.1","60de50896b0ce86b84a2ee24","A3","batch1","tol_quiz_feedback","1495.300000011921","<p class = block-text>Correct! You can only move the ball on top of a peg.</p>","0","","","","","","","","","","","","","","","","","","","","","","","","","",""
"","","","","","html-button-response","138","1353967","0.0-3.0-1.1-1.1-3.1","60de50896b0ce86b84a2ee24","A3","batch1","tol_quiz","3190.7000000178814","<p class = block-text>True or False: You should try to match your board with the target board with fewest moves possible. <br></p>","0","","","true","","","","","","","","","","","","","","","","","","","","","","",""
"","","","","","html-button-response","139","1355138","0.0-3.0-1.1-1.1-4.1","60de50896b0ce86b84a2ee24","A3","batch1","tol_quiz_feedback","1169.4000000059605","<p class = block-text>Correct! </p>","0","","","","","","","","","","","","","","","","","","","","","","","","","",""
"","","","","","html-button-response","140","1357047","0.0-3.0-2.0","60de50896b0ce86b84a2ee24","A3","batch1","","1908.5999999940395","<p class=block-text> Now that you've understood the game, let's practice a few easier examples before we start!<br> <br>","0","","","","","","","","","","","","","","","","","","","","","","","","","",""
"","","","","","single-stim-button","141","1363770","0.0-3.0-3.0-0.0","60de50896b0ce86b84a2ee24","A3","batch1","tol_practice","6720","","","","","","","","","tol_peg_2","6720","6720","0","[[1,2,0],[0,0],[0]]","1","[[1,2,0],[0,0],[3]]","practice","6720","","","","","","","","","","",""
"","","","","","single-stim-button","142","1368800","0.0-3.0-3.0-1.0","60de50896b0ce86b84a2ee24","A3","batch1","tol_practice","5028","","","","","","","","","tol_peg_3","5028","5028","0","[[1,2,0],[0,0],[3]]","1","[[1,2,0],[0,0],[3]]","practice","5028","","","","","","","","","","",""
"","","","","","poldrack-single-stim","143","1369802","0.0-3.0-4.0","60de50896b0ce86b84a2ee24","A3","batch1","tol_feedback","-1","","","","","true","","","","","1000","1000","500","","","","","","-1","none","true","","0","","","","","",""
"","","","","","single-stim-button","144","1373960","0.0-3.0-5.0-0.0","60de50896b0ce86b84a2ee24","A3","batch1","tol_practice","4156","","","","","","","","","tol_peg_1","4156","4156","0","[[1,0,0],[3,0],[0]]","2","[[0,0,0],[3,1],[2]]","practice","4156","","","","","","","","","","",""
"","","","","","single-stim-button","145","1376600","0.0-3.0-5.0-1.0","60de50896b0ce86b84a2ee24","A3","batch1","tol_practice","2639","","","","","","","","","tol_peg_3","2639","2639","0","[[1,0,0],[3,0],[2]]","2","[[0,0,0],[3,1],[2]]","practice","2639","","","","","","","","","","",""
"","","","","","single-stim-button","146","1378224","0.0-3.0-5.1-0.1","60de50896b0ce86b84a2ee24","A3","batch1","tol_practice","1624","","","","","","","","","tol_peg_1","1624","1624","0","[[0,0,0],[3,0],[2]]","3","[[0,0,0],[3,1],[2]]","practice","1624","","","","","","","","","","",""
"","","","","","single-stim-button","147","1379319","0.0-3.0-5.1-1.1","60de50896b0ce86b84a2ee24","A3","batch1","tol_practice","1094","","","","","","","","","tol_peg_2","1094","1094","0","[[0,0,0],[3,1],[2]]","3","[[0,0,0],[3,1],[2]]","practice","1094","","","","","","","","","","",""
"","","","","","poldrack-single-stim","148","1380321","0.0-3.0-6.0","60de50896b0ce86b84a2ee24","A3","batch1","tol_feedback","-1","","","","","true","","","","","1000","1000","500","","","","","","-1","none","true","","0","","","","","",""
"","","","","","single-stim-button","149","1385280","0.0-3.0-7.0-0.0","60de50896b0ce86b84a2ee24","A3","batch1","tol_practice","4958","","","","","","","","","tol_peg_2","4958","4958","0","[[1,2,0],[0,0],[0]]","4","[[1,0,0],[2,0],[3]]","practice","4958","","","","","","","","","","",""
"","","","","","single-stim-button","150","1386352","0.0-3.0-7.0-1.0","60de50896b0ce86b84a2ee24","A3","batch1","tol_practice","1071","","","","","","","","","tol_peg_3","1071","1071","0","[[1,2,0],[0,0],[3]]","4","[[1,0,0],[2,0],[3]]","practice","1071","","","","","","","","","","",""
"","","","","","single-stim-button","151","1387217","0.0-3.0-7.1-0.1","60de50896b0ce86b84a2ee24","A3","batch1","tol_practice","863","","","","","","","","","tol_peg_1","863","863","0","[[1,0,0],[0,0],[3]]","5","[[1,0,0],[2,0],[3]]","practice","863","","","","","","","","","","",""
"","","","","","single-stim-button","152","1388088","0.0-3.0-7.1-1.1","60de50896b0ce86b84a2ee24","A3","batch1","tol_practice","871","","","","","","","","","tol_peg_2","871","871","0","[[1,0,0],[2,0],[3]]","5","[[1,0,0],[2,0],[3]]","practice","871","","","","","","","","","","",""
"","","","","","poldrack-single-stim","153","1389091","0.0-3.0-8.0","60de50896b0ce86b84a2ee24","A3","batch1","tol_feedback","-1","","","","","true","","","","","1000","1000","500","","","","","","-1","none","true","","0","","","","","",""
"","","","","","html-button-response","154","1392639","0.0-3.0-9.0","60de50896b0ce86b84a2ee24","A3","batch1","tol_instruction","3547.2000000178814","<div class = centerbox><p class = center-block-text>Great job! You are done with practice trials<br>You are about to start official trials.<br> <br> Problem <strong>1</strong> out of 25 problems</p></div>","0","","","","","","","","","","","","","","","","","","","","","","","","","",""
"","","","","","single-stim-button","155","1403960","0.0-3.0-10.0-0.0","60de50896b0ce86b84a2ee24","A3","batch1","tol_tohand","10309","","","","","","","","","tol_peg_1","10309","10309","0","[[1,0,0],[3,0],[0]]","1","[[1,3,0],[2,0],[0]]","0","0","","","","","","3","","","","",""
"","","","","","single-stim-button","156","1405079","0.0-3.0-10.0-1.0","60de50896b0ce86b84a2ee24","A3","batch1","tol_toboard","1118","","","","","","","","","tol_peg_3","1118","1118","0","[[1,0,0],[3,0],[2]]","1","[[1,3,0],[2,0],[0]]","0","0","","","","","","3","","","","",""
"","","","","","single-stim-button","157","1406688","0.0-3.0-10.1-0.1","60de50896b0ce86b84a2ee24","A3","batch1","tol_tohand","1608","","","","","","","","","tol_peg_2","1608","1608","0","[[1,0,0],[0,0],[2]]","2","[[1,3,0],[2,0],[0]]","0","0","","","","","","3","","","","",""
"","","","","","single-stim-button","158","1408087","0.0-3.0-10.1-1.1","60de50896b0ce86b84a2ee24","A3","batch1","tol_toboard","1398","","","","","","","","","tol_peg_1","1398","1398","0","[[1,3,0],[0,0],[2]]","2","[[1,3,0],[2,0],[0]]","0","0","","","","","","3","","","","",""
"","","","","","single-stim-button","159","1410720","0.0-3.0-10.2-0.2","60de50896b0ce86b84a2ee24","A3","batch1","tol_tohand","2631","","","","","","","","","tol_peg_3","2631","2631","0","[[1,3,0],[0,0],[0]]","3","[[1,3,0],[2,0],[0]]","0","0","","","","","","3","","","","",""
"","","","","","single-stim-button","160","1411402","0.0-3.0-10.2-1.2","60de50896b0ce86b84a2ee24","A3","batch1","tol_toboard","682","","","","","","","","","tol_peg_2","682","682","0","[[1,3,0],[2,0],[0]]","3","[[1,3,0],[2,0],[0]]","0","0","","","","","","3","","","","",""
"","","","","","poldrack-single-stim","161","1412413","0.0-3.0-11.0","60de50896b0ce86b84a2ee24","A3","batch1","tol_feedback","-1","","","","","true","","","","","1000","1000","500","","","","","","-1","none","true","10309","14548","","","","","",""
"","","","","","html-button-response","162","1413991","0.0-3.0-12.0","60de50896b0ce86b84a2ee24","A3","batch1","tol_trial_num","1577.0999999940395","<div class = centerbox><p class = center-block-text>problem <strong>2</strong> out of 25 problems</p></div>","0","","","","","","","","","","","","","","","","","","","","","","","","","",""
"","","","","","single-stim-button","163","1463225","0.0-3.0-13.0-0.0","60de50896b0ce86b84a2ee24","A3","batch1","tol_tohand","49232","","","","","","","","","tol_peg_1","49232","49232","0","[[1,0,0],[3,0],[0]]","1","[[2,1,3],[0,0],[0]]","1","0","","","","","","5","","","","",""
"","","","","","single-stim-button","164","1464120","0.0-3.0-13.0-1.0","60de50896b0ce86b84a2ee24","A3","batch1","tol_toboard","895","","","","","","","","","tol_peg_2","895","895","0","[[1,0,0],[3,2],[0]]","1","[[2,1,3],[0,0],[0]]","1","0","","","","","","5","","","","",""
"","","","","","single-stim-button","165","1465120","0.0-3.0-13.1-0.1","60de50896b0ce86b84a2ee24","A3","batch1","tol_tohand","999","","","","","","","","","tol_peg_1","999","999","0","[[0,0,0],[3,2],[0]]","2","[[2,1,3],[0,0],[0]]","1","0","","","","","","5","","","","",""
"","","","","","single-stim-button","166","1466048","0.0-3.0-13.1-1.1","60de50896b0ce86b84a2ee24","A3","batch1","tol_toboard","926","","","","","","","","","tol_peg_3","926","926","0","[[0,0,0],[3,2],[1]]","2","[[2,1,3],[0,0],[0]]","1","0","","","","","","5","","","","",""
"","","","","","single-stim-button","167","1467496","0.0-3.0-13.2-0.2","60de50896b0ce86b84a2ee24","A3","batch1","tol_tohand","1448","","","","","","","","","tol_peg_2","1448","1448","0","[[0,0,0],[3,0],[1]]","3","[[2,1,3],[0,0],[0]]","1","0","","","","","","5","","","","",""
"","","","","","single-stim-button","168","1468256","0.0-3.0-13.2-1.2","60de50896b0ce86b84a2ee24","A3","batch1","tol_toboard","760","","","","","","","","","tol_peg_1","760","760","0","[[2,0,0],[3,0],[1]]","3","[[2,1,3],[0,0],[0]]","1","0","","","","","","5","","","","",""
"","","","","","single-stim-button","169","1469627","0.0-3.0-13.3-0.3","60de50896b0ce86b84a2ee24","A3","batch1","tol_tohand","1370","","","","","","","","","tol_peg_3","1370","1370","0","[[2,0,0],[3,0],[0]]","4","[[2,1,3],[0,0],[0]]","1","0","","","","","","5","","","","",""
"","","","","","single-stim-button","170","1470464","0.0-3.0-13.3-1.3","60de50896b0ce86b84a2ee24","A3","batch1","tol_toboard","837","","","","","","","","","tol_peg_1","837","837","0","[[2,1,0],[3,0],[0]]","4","[[2,1,3],[0,0],[0]]","1","0","","","","","","5","","","","",""
"","","","","","single-stim-button","171","1471512","0.0-3.0-13.4-0.4","60de50896b0ce86b84a2ee24","A3","batch1","tol_tohand","1047","","","","","","","","","tol_peg_2","1047","1047","0","[[2,1,0],[0,0],[0]]","5","[[2,1,3],[0,0],[0]]","1","0","","","","","","5","","","","",""
"","","","","","single-stim-button","172","1472136","0.0-3.0-13.4-1.4","60de50896b0ce86b84a2ee24","A3","batch1","tol_toboard","624","","","","","","","","","tol_peg_1","624","624","0","[[2,1,3],[0,0],[0]]","5","[[2,1,3],[0,0],[0]]","1","0","","","","","","5","","","","",""
"","","","","","poldrack-single-stim","173","1473149","0.0-3.0-14.0","60de50896b0ce86b84a2ee24","A3","batch1","tol_feedback","-1","","","","","true","","","","","1000","1000","500","","","","","","-1","none","true","49232","54096","","","","","",""
"","","","","","html-button-response","174","1474776","0.0-3.0-15.0","60de50896b0ce86b84a2ee24","A3","batch1","tol_trial_num","1625.699999988079","<div class = centerbox><p class = center-block-text>problem <strong>3</strong> out of 25 problems</p></div>","0","","","","","","","","","","","","","","","","","","","","","","","","","",""
"","","","","","single-stim-button","175","1485056","0.0-3.0-16.0-0.0","60de50896b0ce86b84a2ee24","A3","batch1","tol_tohand","10279","","","","","","","","","tol_peg_1","10279","10279","0","[[2,0,0],[0,0],[1]]","1","[[1,2,0],[3,0],[0]]","2","0","","","","","","4","","","","",""
"","","","","","single-stim-button","176","1486960","0.0-3.0-16.0-1.0","60de50896b0ce86b84a2ee24","A3","batch1","tol_toboard","1903","","","","","","","","","tol_peg_2","1903","1903","0","[[2,0,0],[3,0],[1]]","1","[[1,2,0],[3,0],[0]]","2","0","","","","","","4","","","","",""
"","","","","","single-stim-button","177","1488121","0.0-3.0-16.1-0.1","60de50896b0ce86b84a2ee24","A3","batch1","tol_tohand","1159","","","","","","","","","tol_peg_1","1159","1159","0","[[0,0,0],[3,0],[1]]","2","[[1,2,0],[3,0],[0]]","2","0","","","","","","4","","","","",""
"","","","","","single-stim-button","178","1489304","0.0-3.0-16.1-1.1","60de50896b0ce86b84a2ee24","A3","batch1","tol_toboard","1183","","","","","","","","","tol_peg_2","1183","1183","0","[[0,0,0],[3,2],[1]]","2","[[1,2,0],[3,0],[0]]","2","0","","","","","","4","","","","",""
"","","","","","single-stim-button","179","1489880","0.0-3.0-16.2-0.2","60de50896b0ce86b84a2ee24","A3","batch1","tol_tohand","574","","","","","","","","","tol_peg_3","574","574","0","[[0,0,0],[3,2],[0]]","3","[[1,2,0],[3,0],[0]]","2","0","","","","","","4","","","","",""
"","","","","","single-stim-button","180","1490816","0.0-3.0-16.2-1.2","60de50896b0ce86b84a2ee24","A3","batch1","tol_toboard","935","","","","","","","","","tol_peg_1","935","935","0","[[1,0,0],[3,2],[0]]","3","[[1,2,0],[3,0],[0]]","2","0","","","","","","4","","","","",""
"","","","","","single-stim-button","181","1491392","0.0-3.0-16.3-0.3","60de50896b0ce86b84a2ee24","A3","batch1","tol_tohand","575","","","","","","","","","tol_peg_2","575","575","0","[[1,0,0],[3,0],[0]]","4","[[1,2,0],[3,0],[0]]","2","0","","","","","","4","","","","",""
"","","","","","single-stim-button","182","1492138","0.0-3.0-16.3-1.3","60de50896b0ce86b84a2ee24","A3","batch1","tol_toboard","746","","","","","","","","","tol_peg_1","746","746","0","[[1,2,0],[3,0],[0]]","4","[[1,2,0],[3,0],[0]]","2","0","","","","","","4","","","","",""
"","","","","","poldrack-single-stim","183","1493140","0.0-3.0-17.0","60de50896b0ce86b84a2ee24","A3","batch1","tol_feedback","-1","","","","","true","","","","","1000","1000","500","","","","","","-1","none","true","10279","12587","","","","","",""
"","","","","","html-button-response","184","1494216","0.0-3.0-18.0","60de50896b0ce86b84a2ee24","A3","batch1","tol_trial_num","1074.5999999940395","<div class = centerbox><p class = center-block-text>problem <strong>4</strong> out of 25 problems</p></div>","0","","","","","","","","","","","","","","","","","","","","","","","","","",""
"","","","","","single-stim-button","185","1504440","0.0-3.0-19.0-0.0","60de50896b0ce86b84a2ee24","A3","batch1","tol_tohand","10223","","","","","","","","","tol_peg_2","10223","10223","0","[[3,0,0],[2,0],[0]]","1","[[3,0,0],[1,0],[2]]","3","0","","","","","","3","","","","",""
"","","","","","single-stim-button","186","1505544","0.0-3.0-19.0-1.0","60de50896b0ce86b84a2ee24","A3","batch1","tol_toboard","1102","","","","","","","","","tol_peg_1","1102","1102","0","[[3,1,0],[2,0],[0]]","1","[[3,0,0],[1,0],[2]]","3","0","","","","","","3","","","","",""
"","","","","","single-stim-button","187","1506641","0.0-3.0-19.1-0.1","60de50896b0ce86b84a2ee24","A3","batch1","tol_tohand","1096","","","","","","","","","tol_peg_2","1096","1096","0","[[3,1,0],[0,0],[0]]","2","[[3,0,0],[1,0],[2]]","3","0","","","","","","3","","","","",""
"","","","","","single-stim-button","188","1507416","0.0-3.0-19.1-1.1","60de50896b0ce86b84a2ee24","A3","batch1","tol_toboard","774","","","","","","","","","tol_peg_3","774","774","0","[[3,1,0],[0,0],[2]]","2","[[3,0,0],[1,0],[2]]","3","0","","","","","","3","","","","",""
"","","","","","single-stim-button","189","1508280","0.0-3.0-19.2-0.2","60de50896b0ce86b84a2ee24","A3","batch1","tol_tohand","862","","","","","","","","","tol_peg_1","862","862","0","[[3,0,0],[0,0],[2]]","3","[[3,0,0],[1,0],[2]]","3","0","","","","","","3","","","","",""
"","","","","","single-stim-button","190","1508775","0.0-3.0-19.2-1.2","60de50896b0ce86b84a2ee24","A3","batch1","tol_toboard","495","","","","","","","","","tol_peg_2","495","495","0","[[3,0,0],[1,0],[2]]","3","[[3,0,0],[1,0],[2]]","3","0","","","","","","3","","","","",""
"","","","","","poldrack-single-stim","191","1509778","0.0-3.0-20.0","60de50896b0ce86b84a2ee24","A3","batch1","tol_feedback","-1","","","","","true","","","","","1000","1000","500","","","","","","-1","none","true","10223","12181","","","","","",""
"","","","","","html-button-response","192","1511151","0.0-3.0-21.0","60de50896b0ce86b84a2ee24","A3","batch1","tol_trial_num","1372","<div class = centerbox><p class = center-block-text>problem <strong>5</strong> out of 25 problems</p></div>","0","","","","","","","","","","","","","","","","","","","","","","","","","",""
"","","","","","single-stim-button","193","1541872","0.0-3.0-22.0-0.0","60de50896b0ce86b84a2ee24","A3","batch1","tol_tohand","30720","","","","","","","","","tol_peg_3","30720","30720","0","[[1,0,0],[2,0],[0]]","1","[[0,0,0],[1,2],[3]]","4","0","","","","","","7","","","","",""
"","","","","","single-stim-button","194","1563872","0.0-3.0-22.0-1.0","60de50896b0ce86b84a2ee24","A3","batch1","tol_toboard","22000","","","","","","","","","tol_peg_2","22000","22000","0","[[1,0,0],[2,3],[0]]","1","[[0,0,0],[1,2],[3]]","4","0","","","","","","7","","","","",""
"","","","","","single-stim-button","195","1565104","0.0-3.0-22.1-0.1","60de50896b0ce86b84a2ee24","A3","batch1","tol_tohand","1231","","","","","","","","","tol_peg_1","1231","1231","0","[[0,0,0],[2,3],[0]]","2","[[0,0,0],[1,2],[3]]","4","0","","","","","","7","","","","",""
"","","","","","single-stim-button","196","1566432","0.0-3.0-22.1-1.1","60de50896b0ce86b84a2ee24","A3","batch1","tol_toboard","1327","","","","","","","","","tol_peg_3","1327","1327","0","[[0,0,0],[2,3],[1]]","2","[[0,0,0],[1,2],[3]]","4","0","","","","","","7","","","","",""
"","","","","","single-stim-button","197","1567408","0.0-3.0-22.2-0.2","60de50896b0ce86b84a2ee24","A3","batch1","tol_tohand","975","","","","","","","","","tol_peg_2","975","975","0","[[0,0,0],[2,0],[1]]","3","[[0,0,0],[1,2],[3]]","4","0","","","","","","7","","","","",""
"","","","","","single-stim-button","198","1568512","0.0-3.0-22.2-1.2","60de50896b0ce86b84a2ee24","A3","batch1","tol_toboard","1104","","","","","","","","","tol_peg_1","1104","1104","0","[[3,0,0],[2,0],[1]]","3","[[0,0,0],[1,2],[3]]","4","0","","","","","","7","","","","",""
"","","","","","single-stim-button","199","1570648","0.0-3.0-22.3-0.3","60de50896b0ce86b84a2ee24","A3","batch1","tol_tohand","2135","","","","","","","","","tol_peg_2","2135","2135","0","[[3,0,0],[0,0],[1]]","4","[[0,0,0],[1,2],[3]]","4","0","","","","","","7","","","","",""
"","","","","","single-stim-button","200","1571728","0.0-3.0-22.3-1.3","60de50896b0ce86b84a2ee24","A3","batch1","tol_toboard","1079","","","","","","","","","tol_peg_1","1079","1079","0","[[3,2,0],[0,0],[1]]","4","[[0,0,0],[1,2],[3]]","4","0","","","","","","7","","","","",""
"","","","","","single-stim-button","201","1572642","0.0-3.0-22.4-0.4","60de50896b0ce86b84a2ee24","A3","batch1","tol_tohand","914","","","","","","","","","tol_peg_3","914","914","0","[[3,2,0],[0,0],[0]]","5","[[0,0,0],[1,2],[3]]","4","0","","","","","","7","","","","",""
"","","","","","single-stim-button","202","1573712","0.0-3.0-22.4-1.4","60de50896b0ce86b84a2ee24","A3","batch1","tol_toboard","1070","","","","","","","","","tol_peg_2","1070","1070","0","[[3,2,0],[1,0],[0]]","5","[[0,0,0],[1,2],[3]]","4","0","","","","","","7","","","","",""
"","","","","","single-stim-button","203","1574424","0.0-3.0-22.5-0.5","60de50896b0ce86b84a2ee24","A3","batch1","tol_tohand","710","","","","","","","","","tol_peg_1","710","710","0","[[3,0,0],[1,0],[0]]","6","[[0,0,0],[1,2],[3]]","4","0","","","","","","7","","","","",""
"","","","","","single-stim-button","204","1575272","0.0-3.0-22.5-1.5","60de50896b0ce86b84a2ee24","A3","batch1","tol_toboard","848","","","","","","","","","tol_peg_2","848","848","0","[[3,0,0],[1,2],[0]]","6","[[0,0,0],[1,2],[3]]","4","0","","","","","","7","","","","",""
"","","","","","single-stim-button","205","1576008","0.0-3.0-22.6-0.6","60de50896b0ce86b84a2ee24","A3","batch1","tol_tohand","735","","","","","","","","","tol_peg_1","735","735","0","[[0,0,0],[1,2],[0]]","7","[[0,0,0],[1,2],[3]]","4","0","","","","","","7","","","","",""
"","","","","","single-stim-button","206","1576897","0.0-3.0-22.6-1.6","60de50896b0ce86b84a2ee24","A3","batch1","tol_toboard","887","","","","","","","","","tol_peg_3","887","887","0","[[0,0,0],[1,2],[3]]","7","[[0,0,0],[1,2],[3]]","4","0","","","","","","7","","","","",""
"","","","","","poldrack-single-stim","207","1577899","0.0-3.0-23.0","60de50896b0ce86b84a2ee24","A3","batch1","tol_feedback","-1","","","","","true","","","","","1000","1000","500","","","","","","-1","none","true","30720","37420","","","","","",""
"","","","","","html-button-response","208","1578864","0.0-3.0-24.0","60de50896b0ce86b84a2ee24","A3","batch1","tol_trial_num","964.5999999940395","<div class = centerbox><p class = center-block-text>problem <strong>6</strong> out of 25 problems</p></div>","0","","","","","","","","","","","","","","","","","","","","","","","","","",""
"","","","","","single-stim-button","209","1646551","0.0-3.0-25.0-0.0","60de50896b0ce86b84a2ee24","A3","batch1","tol_tohand","67686","","","","","","","","","tol_peg_2","67686","67686","0","[[0,0,0],[1,0],[3]]","1","[[1,0,0],[2,3],[0]]","5","0","","","","","","6","","","","",""
"","","","","","single-stim-button","210","1647776","0.0-3.0-25.0-1.0","60de50896b0ce86b84a2ee24","A3","batch1","tol_toboard","1223","","","","","","","","","tol_peg_1","1223","1223","0","[[2,0,0],[1,0],[3]]","1","[[1,0,0],[2,3],[0]]","5","0","","","","","","6","","","","",""
"","","","","","single-stim-button","211","1648424","0.0-3.0-25.1-0.1","60de50896b0ce86b84a2ee24","A3","batch1","tol_tohand","647","","","","","","","","","tol_peg_3","647","647","0","[[2,0,0],[1,0],[0]]","2","[[1,0,0],[2,3],[0]]","5","0","","","","","","6","","","","",""
"","","","","","single-stim-button","212","1649264","0.0-3.0-25.1-1.1","60de50896b0ce86b84a2ee24","A3","batch1","tol_toboard","839","","","","","","","","","tol_peg_2","839","839","0","[[2,0,0],[1,3],[0]]","2","[[1,0,0],[2,3],[0]]","5","0","","","","","","6","","","","",""
"","","","","","single-stim-button","213","1652103","0.0-3.0-25.2-0.2","60de50896b0ce86b84a2ee24","A3","batch1","tol_tohand","2839","","","","","","","","","tol_peg_1","2839","2839","0","[[0,0,0],[1,3],[0]]","3","[[1,0,0],[2,3],[0]]","5","0","","","","","","6","","","","",""
"","","","","","single-stim-button","214","1653330","0.0-3.0-25.2-1.2","60de50896b0ce86b84a2ee24","A3","batch1","tol_toboard","1225","","","","","","","","","tol_peg_3","1225","1225","0","[[0,0,0],[1,3],[2]]","3","[[1,0,0],[2,3],[0]]","5","0","","","","","","6","","","","",""
"","","","","","single-stim-button","215","1663864","0.0-3.0-25.3-0.3","60de50896b0ce86b84a2ee24","A3","batch1","tol_tohand","10533","","","","","","","","","tol_peg_2","10533","10533","0","[[0,0,0],[1,0],[2]]","4","[[1,0,0],[2,3],[0]]","5","0","","","","","","6","","","","",""
"","","","","","single-stim-button","216","1664624","0.0-3.0-25.3-1.3","60de50896b0ce86b84a2ee24","A3","batch1","tol_toboard","759","","","","","","","","","tol_peg_1","759","759","0","[[3,0,0],[1,0],[2]]","4","[[1,0,0],[2,3],[0]]","5","0","","","","","","6","","","","",""
"","","","","","single-stim-button","217","1665384","0.0-3.0-25.4-0.4","60de50896b0ce86b84a2ee24","A3","batch1","tol_tohand","759","","","","","","","","","tol_peg_2","759","759","0","[[3,0,0],[0,0],[2]]","5","[[1,0,0],[2,3],[0]]","5","0","","","","","","6","","","","",""
"","","","","","single-stim-button","218","1666120","0.0-3.0-25.4-1.4","60de50896b0ce86b84a2ee24","A3","batch1","tol_toboard","735","","","","","","","","","tol_peg_1","735","735","0","[[3,1,0],[0,0],[2]]","5","[[1,0,0],[2,3],[0]]","5","0","","","","","","6","","","","",""
"","","","","","single-stim-button","219","1666840","0.0-3.0-25.5-0.5","60de50896b0ce86b84a2ee24","A3","batch1","tol_tohand","719","","","","","","","","","tol_peg_3","719","719","0","[[3,1,0],[0,0],[0]]","6","[[1,0,0],[2,3],[0]]","5","0","","","","","","6","","","","",""
"","","","","","single-stim-button","220","1668056","0.0-3.0-25.5-1.5","60de50896b0ce86b84a2ee24","A3","batch1","tol_toboard","1215","","","","","","","","","tol_peg_2","1215","1215","0","[[3,1,0],[2,0],[0]]","6","[[1,0,0],[2,3],[0]]","5","0","","","","","","6","","","","",""
"","","","","","single-stim-button","221","1669135","0.0-3.0-25.6-0.6","60de50896b0ce86b84a2ee24","A3","batch1","tol_tohand","1079","","","","","","","","","tol_peg_1","1079","1079","0","[[3,0,0],[2,0],[0]]","7","[[1,0,0],[2,3],[0]]","5","0","","","","","","6","","","","",""
"","","","","","single-stim-button","222","1669887","0.0-3.0-25.6-1.6","60de50896b0ce86b84a2ee24","A3","batch1","tol_toboard","751","","","","","","","","","tol_peg_3","751","751","0","[[3,0,0],[2,0],[1]]","7","[[1,0,0],[2,3],[0]]","5","0","","","","","","6","","","","",""
"","","","","","single-stim-button","223","1670591","0.0-3.0-25.7-0.7","60de50896b0ce86b84a2ee24","A3","batch1","tol_tohand","703","","","","","","","","","tol_peg_1","703","703","0","[[0,0,0],[2,0],[1]]","8","[[1,0,0],[2,3],[0]]","5","0","","","","","","6","","","","",""
"","","","","","single-stim-button","224","1671168","0.0-3.0-25.7-1.7","60de50896b0ce86b84a2ee24","A3","batch1","tol_toboard","576","","","","","","","","","tol_peg_2","576","576","0","[[0,0,0],[2,3],[1]]","8","[[1,0,0],[2,3],[0]]","5","0","","","","","","6","","","","",""
"","","","","","single-stim-button","225","1671904","0.0-3.0-25.8-0.8","60de50896b0ce86b84a2ee24","A3","batch1","tol_tohand","734","","","","","","","","","tol_peg_3","734","734","0","[[0,0,0],[2,3],[0]]","9","[[1,0,0],[2,3],[0]]","5","0","","","","","","6","","","","",""
"","","","","","single-stim-button","226","1672600","0.0-3.0-25.8-1.8","60de50896b0ce86b84a2ee24","A3","batch1","tol_toboard","695","","","","","","","","","tol_peg_1","695","695","0","[[1,0,0],[2,3],[0]]","9","[[1,0,0],[2,3],[0]]","5","0","","","","","","6","","","","",""
"","","","","","poldrack-single-stim","227","1673601","0.0-3.0-26.0","60de50896b0ce86b84a2ee24","A3","batch1","tol_feedback","-1","","","","","true","","","","","1000","1000","500","","","","","","-1","none","true","67686","85699","","","","","",""
"","","","","","html-button-response","228","1674399","0.0-3.0-27.0","60de50896b0ce86b84a2ee24","A3","batch1","tol_trial_num","797.2000000178814","<div class = centerbox><p class = center-block-text>problem <strong>7</strong> out of 25 problems</p></div>","0","","","","","","","","","","","","","","","","","","","","","","","","","",""
"","","","","","single-stim-button","229","1685553","0.0-3.0-28.0-0.0","60de50896b0ce86b84a2ee24","A3","batch1","tol_tohand","11153","","","","","","","","","tol_peg_3","11153","11153","0","[[2,1,0],[0,0],[0]]","1","[[1,2,0],[3,0],[0]]","6","0","","","","","","5","","","","",""
"","","","","","single-stim-button","230","1686167","0.0-3.0-28.0-1.0","60de50896b0ce86b84a2ee24","A3","batch1","tol_toboard","613","","","","","","","","","tol_peg_2","613","613","0","[[2,1,0],[3,0],[0]]","1","[[1,2,0],[3,0],[0]]","6","0","","","","","","5","","","","",""
"","","","","","single-stim-button","231","1694600","0.0-3.0-28.1-0.1","60de50896b0ce86b84a2ee24","A3","batch1","tol_tohand","8431","","","","","","","","","tol_peg_1","8431","8431","0","[[2,0,0],[3,0],[0]]","2","[[1,2,0],[3,0],[0]]","6","0","","","","","","5","","","","",""
"","","","","","single-stim-button","232","1695303","0.0-3.0-28.1-1.1","60de50896b0ce86b84a2ee24","A3","batch1","tol_toboard","703","","","","","","","","","tol_peg_2","703","703","0","[[2,0,0],[3,1],[0]]","2","[[1,2,0],[3,0],[0]]","6","0","","","","","","5","","","","",""
"","","","","","single-stim-button","233","1695831","0.0-3.0-28.2-0.2","60de50896b0ce86b84a2ee24","A3","batch1","tol_tohand","527","","","","","","","","","tol_peg_1","527","527","0","[[0,0,0],[3,1],[0]]","3","[[1,2,0],[3,0],[0]]","6","0","","","","","","5","","","","",""
"","","","","","single-stim-button","234","1697759","0.0-3.0-28.2-1.2","60de50896b0ce86b84a2ee24","A3","batch1","tol_toboard","1927","","","","","","","","","tol_peg_3","1927","1927","0","[[0,0,0],[3,1],[2]]","3","[[1,2,0],[3,0],[0]]","6","0","","","","","","5","","","","",""
"","","","","","single-stim-button","235","1698231","0.0-3.0-28.3-0.3","60de50896b0ce86b84a2ee24","A3","batch1","tol_tohand","472","","","","","","","","","tol_peg_2","472","472","0","[[0,0,0],[3,0],[2]]","4","[[1,2,0],[3,0],[0]]","6","0","","","","","","5","","","","",""
"","","","","","single-stim-button","236","1699159","0.0-3.0-28.3-1.3","60de50896b0ce86b84a2ee24","A3","batch1","tol_toboard","927","","","","","","","","","tol_peg_1","927","927","0","[[1,0,0],[3,0],[2]]","4","[[1,2,0],[3,0],[0]]","6","0","","","","","","5","","","","",""
"","","","","","single-stim-button","237","1699927","0.0-3.0-28.4-0.4","60de50896b0ce86b84a2ee24","A3","batch1","tol_tohand","768","","","","","","","","","tol_peg_3","768","768","0","[[1,0,0],[3,0],[0]]","5","[[1,2,0],[3,0],[0]]","6","0","","","","","","5","","","","",""
"","","","","","single-stim-button","238","1700536","0.0-3.0-28.4-1.4","60de50896b0ce86b84a2ee24","A3","batch1","tol_toboard","607","","","","","","","","","tol_peg_1","607","607","0","[[1,2,0],[3,0],[0]]","5","[[1,2,0],[3,0],[0]]","6","0","","","","","","5","","","","",""
"","","","","","poldrack-single-stim","239","1701546","0.0-3.0-29.0","60de50896b0ce86b84a2ee24","A3","batch1","tol_feedback","-1","","","","","true","","","","","1000","1000","500","","","","","","-1","none","true","11153","21351","","","","","",""
"","","","","","html-button-response","240","1702248","0.0-3.0-30.0","60de50896b0ce86b84a2ee24","A3","batch1","tol_trial_num","701.6999999880791","<div class = centerbox><p class = center-block-text>problem <strong>8</strong> out of 25 problems</p></div>","0","","","","","","","","","","","","","","","","","","","","","","","","","",""
"","","","","","single-stim-button","241","1708552","0.0-3.0-31.0-0.0","60de50896b0ce86b84a2ee24","A3","batch1","tol_tohand","6302","","","","","","","","","tol_peg_3","6302","6302","0","[[0,0,0],[2,3],[0]]","1","[[1,2,0],[3,0],[0]]","7","0","","","","","","4","","","","",""
"","","","","","single-stim-button","242","1709799","0.0-3.0-31.0-1.0","60de50896b0ce86b84a2ee24","A3","batch1","tol_toboard","1247","","","","","","","","","tol_peg_1","1247","1247","0","[[1,0,0],[2,3],[0]]","1","[[1,2,0],[3,0],[0]]","7","0","","","","","","4","","","","",""
"","","","","","single-stim-button","243","1710799","0.0-3.0-31.1-0.1","60de50896b0ce86b84a2ee24","A3","batch1","tol_tohand","999","","","","","","","","","tol_peg_2","999","999","0","[[1,0,0],[2,0],[0]]","2","[[1,2,0],[3,0],[0]]","7","0","","","","","","4","","","","",""
"","","","","","single-stim-button","244","1711455","0.0-3.0-31.1-1.1","60de50896b0ce86b84a2ee24","A3","batch1","tol_toboard","655","","","","","","","","","tol_peg_3","655","655","0","[[1,0,0],[2,0],[3]]","2","[[1,2,0],[3,0],[0]]","7","0","","","","","","4","","","","",""
"","","","","","single-stim-button","245","1712151","0.0-3.0-31.2-0.2","60de50896b0ce86b84a2ee24","A3","batch1","tol_tohand","695","","","","","","","","","tol_peg_2","695","695","0","[[1,0,0],[0,0],[3]]","3","[[1,2,0],[3,0],[0]]","7","0","","","","","","4","","","","",""
"","","","","","single-stim-button","246","1712527","0.0-3.0-31.2-1.2","60de50896b0ce86b84a2ee24","A3","batch1","tol_toboard","376","","","","","","","","","tol_peg_1","376","376","0","[[1,2,0],[0,0],[3]]","3","[[1,2,0],[3,0],[0]]","7","0","","","","","","4","","","","",""
"","","","","","single-stim-button","247","1713431","0.0-3.0-31.3-0.3","60de50896b0ce86b84a2ee24","A3","batch1","tol_tohand","903","","","","","","","","","tol_peg_3","903","903","0","[[1,2,0],[0,0],[0]]","4","[[1,2,0],[3,0],[0]]","7","0","","","","","","4","","","","",""
"","","","","","single-stim-button","248","1714184","0.0-3.0-31.3-1.3","60de50896b0ce86b84a2ee24","A3","batch1","tol_toboard","752","","","","","","","","","tol_peg_2","752","752","0","[[1,2,0],[3,0],[0]]","4","[[1,2,0],[3,0],[0]]","7","0","","","","","","4","","","","",""
"","","","","","poldrack-single-stim","249","1715196","0.0-3.0-32.0","60de50896b0ce86b84a2ee24","A3","batch1","tol_feedback","-1","","","","","true","","","","","1000","1000","500","","","","","","-1","none","true","6302","8899","","","","","",""
"","","","","","html-button-response","250","1716168","0.0-3.0-33.0","60de50896b0ce86b84a2ee24","A3","batch1","tol_trial_num","970.7999999821186","<div class = centerbox><p class = center-block-text>problem <strong>9</strong> out of 25 problems</p></div>","0","","","","","","","","","","","","","","","","","","","","","","","","","",""
"","","","","","single-stim-button","251","1725480","0.0-3.0-34.0-0.0","60de50896b0ce86b84a2ee24","A3","batch1","tol_tohand","9312","","","","","","","","","tol_peg_1","9312","9312","0","[[3,0,0],[0,0],[1]]","1","[[2,1,0],[3,0],[0]]","8","0","","","","","","6","","","","",""
"","","","","","single-stim-button","252","1729438","0.0-3.0-34.0-1.0","60de50896b0ce86b84a2ee24","A3","batch1","tol_toboard","3957","","","","","","","","","tol_peg_2","3957","3957","0","[[3,0,0],[2,0],[1]]","1","[[2,1,0],[3,0],[0]]","8","0","","","","","","6","","","","",""
"","","","","","single-stim-button","253","1732639","0.0-3.0-34.1-0.1","60de50896b0ce86b84a2ee24","A3","batch1","tol_tohand","3200","","","","","","","","","tol_peg_1","3200","3200","0","[[0,0,0],[2,0],[1]]","2","[[2,1,0],[3,0],[0]]","8","0","","","","","","6","","","","",""
"","","","","","single-stim-button","254","1733239","0.0-3.0-34.1-1.1","60de50896b0ce86b84a2ee24","A3","batch1","tol_toboard","598","","","","","","","","","tol_peg_2","598","598","0","[[0,0,0],[2,3],[1]]","2","[[2,1,0],[3,0],[0]]","8","0","","","","","","6","","","","",""
"","","","","","single-stim-button","255","1733960","0.0-3.0-34.2-0.2","60de50896b0ce86b84a2ee24","A3","batch1","tol_tohand","720","","","","","","","","","tol_peg_3","720","720","0","[[0,0,0],[2,3],[0]]","3","[[2,1,0],[3,0],[0]]","8","0","","","","","","6","","","","",""
"","","","","","single-stim-button","256","1734759","0.0-3.0-34.2-1.2","60de50896b0ce86b84a2ee24","A3","batch1","tol_toboard","799","","","","","","","","","tol_peg_1","799","799","0","[[1,0,0],[2,3],[0]]","3","[[2,1,0],[3,0],[0]]","8","0","","","","","","6","","","","",""
"","","","","","single-stim-button","257","1735327","0.0-3.0-34.3-0.3","60de50896b0ce86b84a2ee24","A3","batch1","tol_tohand","567","","","","","","","","","tol_peg_2","567","567","0","[[1,0,0],[2,0],[0]]","4","[[2,1,0],[3,0],[0]]","8","0","","","","","","6","","","","",""
"","","","","","single-stim-button","258","1735967","0.0-3.0-34.3-1.3","60de50896b0ce86b84a2ee24","A3","batch1","tol_toboard","639","","","","","","","","","tol_peg_3","639","639","0","[[1,0,0],[2,0],[3]]","4","[[2,1,0],[3,0],[0]]","8","0","","","","","","6","","","","",""
"","","","","","single-stim-button","259","1736623","0.0-3.0-34.4-0.4","60de50896b0ce86b84a2ee24","A3","batch1","tol_tohand","656","","","","","","","","","tol_peg_2","656","656","0","[[1,0,0],[0,0],[3]]","5","[[2,1,0],[3,0],[0]]","8","0","","","","","","6","","","","",""
"","","","","","single-stim-button","260","1739807","0.0-3.0-34.4-1.4","60de50896b0ce86b84a2ee24","A3","batch1","tol_toboard","3183","","","","","","","","","tol_peg_2","3183","3183","0","[[1,0,0],[2,0],[3]]","5","[[2,1,0],[3,0],[0]]","8","0","","","","","","6","","","","",""
"","","","","","single-stim-button","261","1740288","0.0-3.0-34.5-0.5","60de50896b0ce86b84a2ee24","A3","batch1","tol_tohand","479","","","","","","","","","tol_peg_1","479","479","0","[[0,0,0],[2,0],[3]]","6","[[2,1,0],[3,0],[0]]","8","0","","","","","","6","","","","",""
"","","","","","single-stim-button","262","1741079","0.0-3.0-34.5-1.5","60de50896b0ce86b84a2ee24","A3","batch1","tol_toboard","791","","","","","","","","","tol_peg_2","791","791","0","[[0,0,0],[2,1],[3]]","6","[[2,1,0],[3,0],[0]]","8","0","","","","","","6","","","","",""
"","","","","","single-stim-button","263","1743642","0.0-3.0-34.6-0.6","60de50896b0ce86b84a2ee24","A3","batch1","tol_tohand","2561","","","","","","","","","tol_peg_3","2561","2561","0","[[0,0,0],[2,1],[0]]","7","[[2,1,0],[3,0],[0]]","8","0","","","","","","6","","","","",""
"","","","","","single-stim-button","264","1744495","0.0-3.0-34.6-1.6","60de50896b0ce86b84a2ee24","A3","batch1","tol_toboard","853","","","","","","","","","tol_peg_1","853","853","0","[[3,0,0],[2,1],[0]]","7","[[2,1,0],[3,0],[0]]","8","0","","","","","","6","","","","",""
"","","","","","single-stim-button","265","1750023","0.0-3.0-34.7-0.7","60de50896b0ce86b84a2ee24","A3","batch1","tol_tohand","5527","","","","","","","","","tol_peg_2","5527","5527","0","[[3,0,0],[2,0],[0]]","8","[[2,1,0],[3,0],[0]]","8","0","","","","","","6","","","","",""
"","","","","","single-stim-button","266","1750575","0.0-3.0-34.7-1.7","60de50896b0ce86b84a2ee24","A3","batch1","tol_toboard","550","","","","","","","","","tol_peg_3","550","550","0","[[3,0,0],[2,0],[1]]","8","[[2,1,0],[3,0],[0]]","8","0","","","","","","6","","","","",""
"","","","","","single-stim-button","267","1773288","0.0-3.0-34.8-0.8","60de50896b0ce86b84a2ee24","A3","batch1","tol_tohand","22712","","","","","","","","","tol_peg_3","22712","22712","0","[[3,0,0],[2,0],[0]]","9","[[2,1,0],[3,0],[0]]","8","0","","","","","","6","","","","",""
"","","","","","single-stim-button","268","1783167","0.0-3.0-34.8-1.8","60de50896b0ce86b84a2ee24","A3","batch1","tol_toboard","9879","","","","","","","","","tol_peg_1","9879","9879","0","[[3,1,0],[2,0],[0]]","9","[[2,1,0],[3,0],[0]]","8","0","","","","","","6","","","","",""
"","","","","","single-stim-button","269","1783919","0.0-3.0-34.9-0.9","60de50896b0ce86b84a2ee24","A3","batch1","tol_tohand","751","","","","","","","","","tol_peg_2","751","751","0","[[3,1,0],[0,0],[0]]","10","[[2,1,0],[3,0],[0]]","8","0","","","","","","6","","","","",""
"","","","","","single-stim-button","270","1784514","0.0-3.0-34.9-1.9","60de50896b0ce86b84a2ee24","A3","batch1","tol_toboard","593","","","","","","","","","tol_peg_3","593","593","0","[[3,1,0],[0,0],[2]]","10","[[2,1,0],[3,0],[0]]","8","0","","","","","","6","","","","",""
"","","","","","single-stim-button","271","1791394","0.0-3.0-34.10-0.10","60de50896b0ce86b84a2ee24","A3","batch1","tol_tohand","6879","","","","","","","","","tol_peg_1","6879","6879","0","[[3,0,0],[0,0],[2]]","11","[[2,1,0],[3,0],[0]]","8","0","","","","","","6","","","","",""
"","","","","","single-stim-button","272","1792040","0.0-3.0-34.10-1.10","60de50896b0ce86b84a2ee24","A3","batch1","tol_toboard","645","","","","","","","","","tol_peg_2","645","645","0","[[3,0,0],[1,0],[2]]","11","[[2,1,0],[3,0],[0]]","8","0","","","","","","6","","","","",""
"","","","","","single-stim-button","273","1792463","0.0-3.0-34.11-0.11","60de50896b0ce86b84a2ee24","A3","batch1","tol_tohand","423","","","","","","","","","tol_peg_1","423","423","0","[[0,0,0],[1,0],[2]]","12","[[2,1,0],[3,0],[0]]","8","0","","","","","","6","","","","",""
"","","","","","single-stim-button","274","1793087","0.0-3.0-34.11-1.11","60de50896b0ce86b84a2ee24","A3","batch1","tol_toboard","623","","","","","","","","","tol_peg_2","623","623","0","[[0,0,0],[1,3],[2]]","12","[[2,1,0],[3,0],[0]]","8","0","","","","","","6","","","","",""
"","","","","","single-stim-button","275","1793919","0.0-3.0-34.12-0.12","60de50896b0ce86b84a2ee24","A3","batch1","tol_tohand","831","","","","","","","","","tol_peg_3","831","831","0","[[0,0,0],[1,3],[0]]","13","[[2,1,0],[3,0],[0]]","8","0","","","","","","6","","","","",""
"","","","","","single-stim-button","276","1795192","0.0-3.0-34.12-1.12","60de50896b0ce86b84a2ee24","A3","batch1","tol_toboard","1271","","","","","","","","","tol_peg_1","1271","1271","0","[[2,0,0],[1,3],[0]]","13","[[2,1,0],[3,0],[0]]","8","0","","","","","","6","","","","",""
"","","","","","single-stim-button","277","1796095","0.0-3.0-34.13-0.13","60de50896b0ce86b84a2ee24","A3","batch1","tol_tohand","903","","","","","","","","","tol_peg_2","903","903","0","[[2,0,0],[1,0],[0]]","14","[[2,1,0],[3,0],[0]]","8","0","","","","","","6","","","","",""
"","","","","","single-stim-button","278","1796600","0.0-3.0-34.13-1.13","60de50896b0ce86b84a2ee24","A3","batch1","tol_toboard","504","","","","","","","","","tol_peg_3","504","504","0","[[2,0,0],[1,0],[3]]","14","[[2,1,0],[3,0],[0]]","8","0","","","","","","6","","","","",""
"","","","","","single-stim-button","279","1797224","0.0-3.0-34.14-0.14","60de50896b0ce86b84a2ee24","A3","batch1","tol_tohand","622","","","","","","","","","tol_peg_2","622","622","0","[[2,0,0],[0,0],[3]]","15","[[2,1,0],[3,0],[0]]","8","0","","","","","","6","","","","",""
"","","","","","single-stim-button","280","1798008","0.0-3.0-34.14-1.14","60de50896b0ce86b84a2ee24","A3","batch1","tol_toboard","783","","","","","","","","","tol_peg_1","783","783","0","[[2,1,0],[0,0],[3]]","15","[[2,1,0],[3,0],[0]]","8","0","","","","","","6","","","","",""
"","","","","","single-stim-button","281","1798855","0.0-3.0-34.15-0.15","60de50896b0ce86b84a2ee24","A3","batch1","tol_tohand","846","","","","","","","","","tol_peg_3","846","846","0","[[2,1,0],[0,0],[0]]","16","[[2,1,0],[3,0],[0]]","8","0","","","","","","6","","","","",""
"","","","","","single-stim-button","282","1799288","0.0-3.0-34.15-1.15","60de50896b0ce86b84a2ee24","A3","batch1","tol_toboard","431","","","","","","","","","tol_peg_2","431","431","0","[[2,1,0],[3,0],[0]]","16","[[2,1,0],[3,0],[0]]","8","0","","","","","","6","","","","",""
"","","","","","poldrack-single-stim","283","1800290","0.0-3.0-35.0","60de50896b0ce86b84a2ee24","A3","batch1","tol_feedback","-1","","","","","true","","","","","1000","1000","500","","","","","","-1","none","true","9312","56989","","","","","",""
"","","","","","html-button-response","284","1801016","0.0-3.0-36.0","60de50896b0ce86b84a2ee24","A3","batch1","tol_trial_num","724.6999999880791","<div class = centerbox><p class = center-block-text>problem <strong>10</strong> out of 25 problems</p></div>","0","","","","","","","","","","","","","","","","","","","","","","","","","",""
"","","","","","single-stim-button","285","1809783","0.0-3.0-37.0-0.0","60de50896b0ce86b84a2ee24","A3","batch1","tol_tohand","8767","","","","","","","","","tol_peg_2","8767","8767","0","[[3,0,0],[0,0],[2]]","1","[[3,0,0],[2,1],[0]]","9","0","","","","","","3","","","","",""
"","","","","","single-stim-button","286","1810642","0.0-3.0-37.0-1.0","60de50896b0ce86b84a2ee24","A3","batch1","tol_toboard","858","","","","","","","","","tol_peg_1","858","858","0","[[3,1,0],[0,0],[2]]","1","[[3,0,0],[2,1],[0]]","9","0","","","","","","3","","","","",""
"","","","","","single-stim-button","287","1811257","0.0-3.0-37.1-0.1","60de50896b0ce86b84a2ee24","A3","batch1","tol_tohand","613","","","","","","","","","tol_peg_3","613","613","0","[[3,1,0],[0,0],[0]]","2","[[3,0,0],[2,1],[0]]","9","0","","","","","","3","","","","",""
"","","","","","single-stim-button","288","1812089","0.0-3.0-37.1-1.1","60de50896b0ce86b84a2ee24","A3","batch1","tol_toboard","832","","","","","","","","","tol_peg_2","832","832","0","[[3,1,0],[2,0],[0]]","2","[[3,0,0],[2,1],[0]]","9","0","","","","","","3","","","","",""
"","","","","","single-stim-button","289","1812728","0.0-3.0-37.2-0.2","60de50896b0ce86b84a2ee24","A3","batch1","tol_tohand","637","","","","","","","","","tol_peg_1","637","637","0","[[3,0,0],[2,0],[0]]","3","[[3,0,0],[2,1],[0]]","9","0","","","","","","3","","","","",""
"","","","","","single-stim-button","290","1813368","0.0-3.0-37.2-1.2","60de50896b0ce86b84a2ee24","A3","batch1","tol_toboard","640","","","","","","","","","tol_peg_2","640","640","0","[[3,0,0],[2,1],[0]]","3","[[3,0,0],[2,1],[0]]","9","0","","","","","","3","","","","",""
"","","","","","poldrack-single-stim","291","1814375","0.0-3.0-38.0","60de50896b0ce86b84a2ee24","A3","batch1","tol_feedback","-1","","","","","true","","","","","1000","1000","500","","","","","","-1","none","true","8767","10017","","","","","",""
"","","","","","html-button-response","292","1815200","0.0-3.0-39.0","60de50896b0ce86b84a2ee24","A3","batch1","tol_trial_num","824.0999999940395","<div class = centerbox><p class = center-block-text>problem <strong>11</strong> out of 25 problems</p></div>","0","","","","","","","","","","","","","","","","","","","","","","","","","",""
"","","","","","single-stim-button","293","1857945","0.0-3.0-40.0-0.0","60de50896b0ce86b84a2ee24","A3","batch1","tol_tohand","42745","","","","","","","","","tol_peg_1","42745","42745","0","[[1,0,0],[3,0],[0]]","1","[[2,0,0],[1,3],[0]]","10","0","","","","","","6","","","","",""
"","","","","","single-stim-button","294","1858752","0.0-3.0-40.0-1.0","60de50896b0ce86b84a2ee24","A3","batch1","tol_toboard","806","","","","","","","","","tol_peg_2","806","806","0","[[1,0,0],[3,2],[0]]","1","[[2,0,0],[1,3],[0]]","10","0","","","","","","6","","","","",""
"","","","","","single-stim-button","295","1859544","0.0-3.0-40.1-0.1","60de50896b0ce86b84a2ee24","A3","batch1","tol_tohand","790","","","","","","","","","tol_peg_1","790","790","0","[[0,0,0],[3,2],[0]]","2","[[2,0,0],[1,3],[0]]","10","0","","","","","","6","","","","",""
"","","","","","single-stim-button","296","1860360","0.0-3.0-40.1-1.1","60de50896b0ce86b84a2ee24","A3","batch1","tol_toboard","816","","","","","","","","","tol_peg_3","816","816","0","[[0,0,0],[3,2],[1]]","2","[[2,0,0],[1,3],[0]]","10","0","","","","","","6","","","","",""
"","","","","","single-stim-button","297","1861408","0.0-3.0-40.2-0.2","60de50896b0ce86b84a2ee24","A3","batch1","tol_tohand","1047","","","","","","","","","tol_peg_2","1047","1047","0","[[0,0,0],[3,0],[1]]","3","[[2,0,0],[1,3],[0]]","10","0","","","","","","6","","","","",""
"","","","","","single-stim-button","298","1862160","0.0-3.0-40.2-1.2","60de50896b0ce86b84a2ee24","A3","batch1","tol_toboard","752","","","","","","","","","tol_peg_1","752","752","0","[[2,0,0],[3,0],[1]]","3","[[2,0,0],[1,3],[0]]","10","0","","","","","","6","","","","",""
"","","","","","single-stim-button","299","1866048","0.0-3.0-40.3-0.3","60de50896b0ce86b84a2ee24","A3","batch1","tol_tohand","3887","","","","","","","","","tol_peg_2","3887","3887","0","[[2,0,0],[0,0],[1]]","4","[[2,0,0],[1,3],[0]]","10","0","","","","","","6","","","","",""
"","","","","","single-stim-button","300","1866840","0.0-3.0-40.3-1.3","60de50896b0ce86b84a2ee24","A3","batch1","tol_toboard","791","","","","","","","","","tol_peg_1","791","791","0","[[2,3,0],[0,0],[1]]","4","[[2,0,0],[1,3],[0]]","10","0","","","","","","6","","","","",""
"","","","","","single-stim-button","301","1867424","0.0-3.0-40.4-0.4","60de50896b0ce86b84a2ee24","A3","batch1","tol_tohand","582","","","","","","","","","tol_peg_3","582","582","0","[[2,3,0],[0,0],[0]]","5","[[2,0,0],[1,3],[0]]","10","0","","","","","","6","","","","",""
"","","","","","single-stim-button","302","1868088","0.0-3.0-40.4-1.4","60de50896b0ce86b84a2ee24","A3","batch1","tol_toboard","664","","","","","","","","","tol_peg_2","664","664","0","[[2,3,0],[1,0],[0]]","5","[[2,0,0],[1,3],[0]]","10","0","","","","","","6","","","","",""
"","","","","","single-stim-button","303","1868504","0.0-3.0-40.5-0.5","60de50896b0ce86b84a2ee24","A3","batch1","tol_tohand","415","","","","","","","","","tol_peg_1","415","415","0","[[2,0,0],[1,0],[0]]","6","[[2,0,0],[1,3],[0]]","10","0","","","","","","6","","","","",""
"","","","","","single-stim-button","304","1869455","0.0-3.0-40.5-1.5","60de50896b0ce86b84a2ee24","A3","batch1","tol_toboard","951","","","","","","","","","tol_peg_2","951","951","0","[[2,0,0],[1,3],[0]]","6","[[2,0,0],[1,3],[0]]","10","0","","","","","","6","","","","",""
"","","","","","poldrack-single-stim","305","1870457","0.0-3.0-41.0","60de50896b0ce86b84a2ee24","A3","batch1","tol_feedback","-1","","","","","true","","","","","1000","1000","500","","","","","","-1","none","true","42745","49466","","","","","",""
"","","","","","html-button-response","306","1871335","0.0-3.0-42.0","60de50896b0ce86b84a2ee24","A3","batch1","tol_trial_num","877.3999999761581","<div class = centerbox><p class = center-block-text>problem <strong>12</strong> out of 25 problems</p></div>","0","","","","","","","","","","","","","","","","","","","","","","","","","",""
"","","","","","single-stim-button","307","1878864","0.0-3.0-43.0-0.0","60de50896b0ce86b84a2ee24","A3","batch1","tol_tohand","7527","","","","","","","","","tol_peg_1","7527","7527","0","[[1,0,0],[3,0],[0]]","1","[[2,3,0],[0,0],[1]]","11","0","","","","","","4","","","","",""
"","","","","","single-stim-button","308","1879504","0.0-3.0-43.0-1.0","60de50896b0ce86b84a2ee24","A3","batch1","tol_toboard","639","","","","","","","","","tol_peg_2","639","639","0","[[1,0,0],[3,2],[0]]","1","[[2,3,0],[0,0],[1]]","11","0","","","","","","4","","","","",""
"","","","","","single-stim-button","309","1880241","0.0-3.0-43.1-0.1","60de50896b0ce86b84a2ee24","A3","batch1","tol_tohand","736","","","","","","","","","tol_peg_1","736","736","0","[[0,0,0],[3,2],[0]]","2","[[2,3,0],[0,0],[1]]","11","0","","","","","","4","","","","",""
"","","","","","single-stim-button","310","1882337","0.0-3.0-43.1-1.1","60de50896b0ce86b84a2ee24","A3","batch1","tol_toboard","2096","","","","","","","","","tol_peg_3","2096","2096","0","[[0,0,0],[3,2],[1]]","2","[[2,3,0],[0,0],[1]]","11","0","","","","","","4","","","","",""
"","","","","","single-stim-button","311","1885344","0.0-3.0-43.2-0.2","60de50896b0ce86b84a2ee24","A3","batch1","tol_tohand","3006","","","","","","","","","tol_peg_2","3006","3006","0","[[0,0,0],[3,0],[1]]","3","[[2,3,0],[0,0],[1]]","11","0","","","","","","4","","","","",""
"","","","","","single-stim-button","312","1886135","0.0-3.0-43.2-1.2","60de50896b0ce86b84a2ee24","A3","batch1","tol_toboard","791","","","","","","","","","tol_peg_1","791","791","0","[[2,0,0],[3,0],[1]]","3","[[2,3,0],[0,0],[1]]","11","0","","","","","","4","","","","",""
"","","","","","single-stim-button","313","1886648","0.0-3.0-43.3-0.3","60de50896b0ce86b84a2ee24","A3","batch1","tol_tohand","511","","","","","","","","","tol_peg_2","511","511","0","[[2,0,0],[0,0],[1]]","4","[[2,3,0],[0,0],[1]]","11","0","","","","","","4","","","","",""
"","","","","","single-stim-button","314","1887192","0.0-3.0-43.3-1.3","60de50896b0ce86b84a2ee24","A3","batch1","tol_toboard","543","","","","","","","","","tol_peg_1","543","543","0","[[2,3,0],[0,0],[1]]","4","[[2,3,0],[0,0],[1]]","11","0","","","","","","4","","","","",""
"","","","","","poldrack-single-stim","315","1888199","0.0-3.0-44.0","60de50896b0ce86b84a2ee24","A3","batch1","tol_feedback","-1","","","","","true","","","","","1000","1000","500","","","","","","-1","none","true","7527","11780","","","","","",""
"","","","","","html-button-response","316","1888960","0.0-3.0-45.0","60de50896b0ce86b84a2ee24","A3","batch1","tol_trial_num","759.4000000059605","<div class = centerbox><p class = center-block-text>problem <strong>13</strong> out of 25 problems</p></div>","0","","","","","","","","","","","","","","","","","","","","","","","","","",""
"","","","","","single-stim-button","317","1897458","0.0-3.0-46.0-0.0","60de50896b0ce86b84a2ee24","A3","batch1","tol_tohand","8498","","","","","","","","","tol_peg_1","8498","8498","0","[[1,0,0],[3,0],[0]]","1","[[0,0,0],[2,3],[1]]","12","0","","","","","","4","","","","",""
"","","","","","single-stim-button","318","1900784","0.0-3.0-46.0-1.0","60de50896b0ce86b84a2ee24","A3","batch1","tol_toboard","3325","","","","","","","","","tol_peg_3","3325","3325","0","[[1,0,0],[3,0],[2]]","1","[[0,0,0],[2,3],[1]]","12","0","","","","","","4","","","","",""
"","","","","","single-stim-button","319","1901770","0.0-3.0-46.1-0.1","60de50896b0ce86b84a2ee24","A3","batch1","tol_tohand","985","","","","","","","","","tol_peg_2","985","985","0","[[1,0,0],[0,0],[2]]","2","[[0,0,0],[2,3],[1]]","12","0","","","","","","4","","","","",""
"","","","","","single-stim-button","320","1902368","0.0-3.0-46.1-1.1","60de50896b0ce86b84a2ee24","A3","batch1","tol_toboard","597","","","","","","","","","tol_peg_1","597","597","0","[[1,3,0],[0,0],[2]]","2","[[0,0,0],[2,3],[1]]","12","0","","","","","","4","","","","",""
"","","","","","single-stim-button","321","1903407","0.0-3.0-46.2-0.2","60de50896b0ce86b84a2ee24","A3","batch1","tol_tohand","1039","","","","","","","","","tol_peg_3","1039","1039","0","[[1,3,0],[0,0],[0]]","3","[[0,0,0],[2,3],[1]]","12","0","","","","","","4","","","","",""
"","","","","","single-stim-button","322","1903992","0.0-3.0-46.2-1.2","60de50896b0ce86b84a2ee24","A3","batch1","tol_toboard","585","","","","","","","","","tol_peg_2","585","585","0","[[1,3,0],[2,0],[0]]","3","[[0,0,0],[2,3],[1]]","12","0","","","","","","4","","","","",""
"","","","","","single-stim-button","323","1904671","0.0-3.0-46.3-0.3","60de50896b0ce86b84a2ee24","A3","batch1","tol_tohand","678","","","","","","","","","tol_peg_1","678","678","0","[[1,0,0],[2,0],[0]]","4","[[0,0,0],[2,3],[1]]","12","0","","","","","","4","","","","",""
"","","","","","single-stim-button","324","1905215","0.0-3.0-46.3-1.3","60de50896b0ce86b84a2ee24","A3","batch1","tol_toboard","544","","","","","","","","","tol_peg_2","544","544","0","[[1,0,0],[2,3],[0]]","4","[[0,0,0],[2,3],[1]]","12","0","","","","","","4","","","","",""
"","","","","","single-stim-button","325","1905784","0.0-3.0-46.4-0.4","60de50896b0ce86b84a2ee24","A3","batch1","tol_tohand","567","","","","","","","","","tol_peg_1","567","567","0","[[0,0,0],[2,3],[0]]","5","[[0,0,0],[2,3],[1]]","12","0","","","","","","4","","","","",""
"","","","","","single-stim-button","326","1906328","0.0-3.0-46.4-1.4","60de50896b0ce86b84a2ee24","A3","batch1","tol_toboard","543","","","","","","","","","tol_peg_3","543","543","0","[[0,0,0],[2,3],[1]]","5","[[0,0,0],[2,3],[1]]","12","0","","","","","","4","","","","",""
"","","","","","poldrack-single-stim","327","1907331","0.0-3.0-47.0","60de50896b0ce86b84a2ee24","A3","batch1","tol_feedback","-1","","","","","true","","","","","1000","1000","500","","","","","","-1","none","true","8498","11767","","","","","",""
"","","","","","html-button-response","328","1912776","0.0-3.0-48.0","60de50896b0ce86b84a2ee24","A3","batch1","attention_check","5443.9000000059605","<p class = block-text>How many balls are in your board<br></p>","1","","","true","","","","","","","","","","","","","","","","","","","","","","",""
"","","","","","html-button-response","329","1914679","0.0-3.0-49.0","60de50896b0ce86b84a2ee24","A3","batch1","tol_trial_num","1902.199999988079","<div class = centerbox><p class = center-block-text>problem <strong>14</strong> out of 25 problems</p></div>","0","","","","","","","","","","","","","","","","","","","","","","","","","",""
"","","","","","single-stim-button","330","1920575","0.0-3.0-50.0-0.0","60de50896b0ce86b84a2ee24","A3","batch1","tol_tohand","5895","","","","","","","","","tol_peg_1","5895","5895","0","[[2,0,0],[3,0],[0]]","1","[[1,2,0],[3,0],[0]]","13","0","","","","","","4","","","","",""
"","","","","","single-stim-button","331","1921234","0.0-3.0-50.0-1.0","60de50896b0ce86b84a2ee24","A3","batch1","tol_toboard","658","","","","","","","","","tol_peg_2","658","658","0","[[2,0,0],[3,1],[0]]","1","[[1,2,0],[3,0],[0]]","13","0","","","","","","4","","","","",""
"","","","","","single-stim-button","332","1921704","0.0-3.0-50.1-0.1","60de50896b0ce86b84a2ee24","A3","batch1","tol_tohand","468","","","","","","","","","tol_peg_1","468","468","0","[[0,0,0],[3,1],[0]]","2","[[1,2,0],[3,0],[0]]","13","0","","","","","","4","","","","",""
"","","","","","single-stim-button","333","1922448","0.0-3.0-50.1-1.1","60de50896b0ce86b84a2ee24","A3","batch1","tol_toboard","744","","","","","","","","","tol_peg_3","744","744","0","[[0,0,0],[3,1],[2]]","2","[[1,2,0],[3,0],[0]]","13","0","","","","","","4","","","","",""
"","","","","","single-stim-button","334","1922951","0.0-3.0-50.2-0.2","60de50896b0ce86b84a2ee24","A3","batch1","tol_tohand","502","","","","","","","","","tol_peg_2","502","502","0","[[0,0,0],[3,0],[2]]","3","[[1,2,0],[3,0],[0]]","13","0","","","","","","4","","","","",""
"","","","","","single-stim-button","335","1923656","0.0-3.0-50.2-1.2","60de50896b0ce86b84a2ee24","A3","batch1","tol_toboard","703","","","","","","","","","tol_peg_1","703","703","0","[[1,0,0],[3,0],[2]]","3","[[1,2,0],[3,0],[0]]","13","0","","","","","","4","","","","",""
"","","","","","single-stim-button","336","1924248","0.0-3.0-50.3-0.3","60de50896b0ce86b84a2ee24","A3","batch1","tol_tohand","590","","","","","","","","","tol_peg_3","590","590","0","[[1,0,0],[3,0],[0]]","4","[[1,2,0],[3,0],[0]]","13","0","","","","","","4","","","","",""
"","","","","","single-stim-button","337","1924991","0.0-3.0-50.3-1.3","60de50896b0ce86b84a2ee24","A3","batch1","tol_toboard","743","","","","","","","","","tol_peg_1","743","743","0","[[1,2,0],[3,0],[0]]","4","[[1,2,0],[3,0],[0]]","13","0","","","","","","4","","","","",""
"","","","","","poldrack-single-stim","338","1925993","0.0-3.0-51.0","60de50896b0ce86b84a2ee24","A3","batch1","tol_feedback","-1","","","","","true","","","","","1000","1000","500","","","","","","-1","none","true","5895","7455","","","","","",""
"","","","","","html-button-response","339","1926599","0.0-3.0-52.0","60de50896b0ce86b84a2ee24","A3","batch1","tol_trial_num","605.8999999761581","<div class = centerbox><p class = center-block-text>problem <strong>15</strong> out of 25 problems</p></div>","0","","","","","","","","","","","","","","","","","","","","","","","","","",""
"","","","","","single-stim-button","340","1930344","0.0-3.0-53.0-0.0","60de50896b0ce86b84a2ee24","A3","batch1","tol_tohand","3743","","","","","","","","","tol_peg_1","3743","3743","0","[[1,0,0],[3,0],[0]]","1","[[2,0,0],[3,0],[1]]","14","0","","","","","","3","","","","",""
"","","","","","single-stim-button","341","1930864","0.0-3.0-53.0-1.0","60de50896b0ce86b84a2ee24","A3","batch1","tol_toboard","520","","","","","","","","","tol_peg_2","520","520","0","[[1,0,0],[3,2],[0]]","1","[[2,0,0],[3,0],[1]]","14","0","","","","","","3","","","","",""
"","","","","","single-stim-button","342","1931351","0.0-3.0-53.1-0.1","60de50896b0ce86b84a2ee24","A3","batch1","tol_tohand","487","","","","","","","","","tol_peg_1","487","487","0","[[0,0,0],[3,2],[0]]","2","[[2,0,0],[3,0],[1]]","14","0","","","","","","3","","","","",""
"","","","","","single-stim-button","343","1931889","0.0-3.0-53.1-1.1","60de50896b0ce86b84a2ee24","A3","batch1","tol_toboard","537","","","","","","","","","tol_peg_3","537","537","0","[[0,0,0],[3,2],[1]]","2","[[2,0,0],[3,0],[1]]","14","0","","","","","","3","","","","",""
"","","","","","single-stim-button","344","1932505","0.0-3.0-53.2-0.2","60de50896b0ce86b84a2ee24","A3","batch1","tol_tohand","615","","","","","","","","","tol_peg_2","615","615","0","[[0,0,0],[3,0],[1]]","3","[[2,0,0],[3,0],[1]]","14","0","","","","","","3","","","","",""
"","","","","","single-stim-button","345","1933160","0.0-3.0-53.2-1.2","60de50896b0ce86b84a2ee24","A3","batch1","tol_toboard","655","","","","","","","","","tol_peg_1","655","655","0","[[2,0,0],[3,0],[1]]","3","[[2,0,0],[3,0],[1]]","14","0","","","","","","3","","","","",""
"","","","","","poldrack-single-stim","346","1934162","0.0-3.0-54.0","60de50896b0ce86b84a2ee24","A3","batch1","tol_feedback","-1","","","","","true","","","","","1000","1000","500","","","","","","-1","none","true","3743","4845","","","","","",""
"","","","","","html-button-response","347","1934792","0.0-3.0-55.0","60de50896b0ce86b84a2ee24","A3","batch1","tol_trial_num","629.1999999880791","<div class = centerbox><p class = center-block-text>problem <strong>16</strong> out of 25 problems</p></div>","0","","","","","","","","","","","","","","","","","","","","","","","","","",""
"","","","","","single-stim-button","348","1976992","0.0-3.0-56.0-0.0","60de50896b0ce86b84a2ee24","A3","batch1","tol_tohand","42198","","","","","","","","","tol_peg_2","42198","42198","0","[[0,0,0],[2,0],[1]]","1","[[2,3,0],[1,0],[0]]","15","0","","","","","","7","","","","",""
"","","","","","single-stim-button","349","1980752","0.0-3.0-56.0-1.0","60de50896b0ce86b84a2ee24","A3","batch1","tol_toboard","3760","","","","","","","","","tol_peg_1","3760","3760","0","[[3,0,0],[2,0],[1]]","1","[[2,3,0],[1,0],[0]]","15","0","","","","","","7","","","","",""
"","","","","","single-stim-button","350","1981399","0.0-3.0-56.1-0.1","60de50896b0ce86b84a2ee24","A3","batch1","tol_tohand","646","","","","","","","","","tol_peg_2","646","646","0","[[3,0,0],[0,0],[1]]","2","[[2,3,0],[1,0],[0]]","15","0","","","","","","7","","","","",""
"","","","","","single-stim-button","351","1982152","0.0-3.0-56.1-1.1","60de50896b0ce86b84a2ee24","A3","batch1","tol_toboard","753","","","","","","","","","tol_peg_1","753","753","0","[[3,2,0],[0,0],[1]]","2","[[2,3,0],[1,0],[0]]","15","0","","","","","","7","","","","",""
