"success","timeout","failed_images","failed_audio","failed_video","trial_type","trial_index","time_elapsed","internal_node_id","subject_id","study_id","session_id","task","rt","stimulus","response","item","answer","correct","spm_correct","spm_rt","view_history","fiar_detect_rt","fiar_detect_correct","total_correct_fiar_detect","post_trial_gap","choices","mouse_click","stim_duration","block_duration","timing_post_trial","current_position","tol_num_moves_made","tol_target","tol_problem_id","tol_rt","key_press","possible_responses","tol_correct","preplanning","tol_rt_per_trial","tol_min_moves"
"true","false","[]","[]","[]","preload","0","3172","0.0-0.0","60de263c69ce74cd6a2d11d8","A3","batch1","","","","","","","","","","","","","","","","","","","","","","","","","","","","","",""
"true","","","","","fullscreen","1","14441","0.0-1.0-0.0","60de263c69ce74cd6a2d11d8","A3","batch1","","","","","","","","","","","","","","","","","","","","","","","","","","","","","",""
"true","","","","","fullscreen","2","19020","0.0-2.0-0.0","60de263c69ce74cd6a2d11d8","A3","batch1","spm_fullscreen","","","","","","","","","","","","","","","","","","","","","","","","","","","","",""
"","","","","","html-button-response","3","27957","0.0-2.0-1.0","60de263c69ce74cd6a2d11d8","A3","batch1","","8934.5","<p class = block-text><b>Instructions</b> <br>This is a widely used intelligence test in research. <br>In this test, a figure with a missing piece will be presented.<br>Below the figure are alternative pieces to complete the figure, only one of which is correct.<br> Different figures might involve different principles for obtaining the missing piece<br>Your job is to select the most logical piece to complete the figure.</p>","0","","","","","","","","","","","","","","","","","","","","","","","","","",""
"","","","","","html-keyboard-response","4","28769","0.0-2.0-2.0-0.0","60de263c69ce74cd6a2d11d8","A3","batch1","spm_show_trial_num","null","<p class=block-text>Trial 1 out of 60</p>","null","","","","","","","","","","","","","","","","","","","","","","","","","",""
"","","","","","image-button-response","5","33396","0.0-2.0-2.0-1.0","60de263c69ce74cd6a2d11d8","A3","batch1","spm_respsonse","4624.400000095367","img/question_1_1.jpeg","3","mat_01","4","1","1","4624.400000095367","","","","","","","","","","","","","","","","","","","","",""
"","","","","","html-keyboard-response","6","34459","0.0-2.0-2.0-0.1","60de263c69ce74cd6a2d11d8","A3","batch1","spm_show_trial_num","null","<p class=block-text>Trial 2 out of 60</p>","null","","","","","","","","","","","","","","","","","","","","","","","","","",""
"","","","","","image-button-response","7","39051","0.0-2.0-2.0-1.1","60de263c69ce74cd6a2d11d8","A3","batch1","spm_respsonse","4590.700000047684","img/question_1_2.jpeg","4","mat_02","5","1","1","4590.700000047684","","","","","","","","","","","","","","","","","","","","",""
"","","","","","html-keyboard-response","8","40118","0.0-2.0-2.0-0.2","60de263c69ce74cd6a2d11d8","A3","batch1","spm_show_trial_num","null","<p class=block-text>Trial 3 out of 60</p>","null","","","","","","","","","","","","","","","","","","","","","","","","","",""
"","","","","","image-button-response","9","43386","0.0-2.0-2.0-1.2","60de263c69ce74cd6a2d11d8","A3","batch1","spm_respsonse","3267","img/question_1_3.jpeg","0","mat_03","1","1","1","3267","","","","","","","","","","","","","","","","","","","","",""
"","","","","","html-keyboard-response","10","44449","0.0-2.0-2.0-0.3","60de263c69ce74cd6a2d11d8","A3","batch1","spm_show_trial_num","null","<p class=block-text>Trial 4 out of 60</p>","null","","","","","","","","","","","","","","","","","","","","","","","","","",""
"","","","","","image-button-response","11","48021","0.0-2.0-2.0-1.3","60de263c69ce74cd6a2d11d8","A3","batch1","spm_respsonse","3570.9000000953674","img/question_1_4.jpeg","1","mat_04","2","1","1","3570.9000000953674","","","","","","","","","","","","","","","","","","","","",""
"","","","","","html-keyboard-response","12","49099","0.0-2.0-2.0-0.4","60de263c69ce74cd6a2d11d8","A3","batch1","spm_show_trial_num","null","<p class=block-text>Trial 5 out of 60</p>","null","","","","","","","","","","","","","","","","","","","","","","","","","",""
"","","","","","image-button-response","13","52299","0.0-2.0-2.0-1.4","60de263c69ce74cd6a2d11d8","A3","batch1","spm_respsonse","3198.7000000476837","img/question_1_5.jpeg","5","mat_05","6","1","1","3198.7000000476837","","","","","","","","","","","","","","","","","","","","",""
"","","","","","html-keyboard-response","14","53365","0.0-2.0-2.0-0.5","60de263c69ce74cd6a2d11d8","A3","batch1","spm_show_trial_num","null","<p class=block-text>Trial 6 out of 60</p>","null","","","","","","","","","","","","","","","","","","","","","","","","","",""
"","","","","","image-button-response","15","58644","0.0-2.0-2.0-1.5","60de263c69ce74cd6a2d11d8","A3","batch1","spm_respsonse","5277","img/question_1_6.jpeg","2","mat_06","3","1","1","5277","","","","","","","","","","","","","","","","","","","","",""
"","","","","","html-keyboard-response","16","59711","0.0-2.0-2.0-0.6","60de263c69ce74cd6a2d11d8","A3","batch1","spm_show_trial_num","null","<p class=block-text>Trial 7 out of 60</p>","null","","","","","","","","","","","","","","","","","","","","","","","","","",""
"","","","","","image-button-response","17","63631","0.0-2.0-2.0-1.6","60de263c69ce74cd6a2d11d8","A3","batch1","spm_respsonse","3918","img/question_1_7.jpeg","5","mat_07","6","1","1","3918","","","","","","","","","","","","","","","","","","","","",""
"","","","","","html-keyboard-response","18","64697","0.0-2.0-2.0-0.7","60de263c69ce74cd6a2d11d8","A3","batch1","spm_show_trial_num","null","<p class=block-text>Trial 8 out of 60</p>","null","","","","","","","","","","","","","","","","","","","","","","","","","",""
"","","","","","image-button-response","19","72508","0.0-2.0-2.0-1.7","60de263c69ce74cd6a2d11d8","A3","batch1","spm_respsonse","7808.400000095367","img/question_1_8.jpeg","1","mat_08","2","1","1","7808.400000095367","","","","","","","","","","","","","","","","","","","","",""
"","","","","","html-keyboard-response","20","73562","0.0-2.0-2.0-0.8","60de263c69ce74cd6a2d11d8","A3","batch1","spm_show_trial_num","null","<p class=block-text>Trial 9 out of 60</p>","null","","","","","","","","","","","","","","","","","","","","","","","","","",""
"","","","","","image-button-response","21","77531","0.0-2.0-2.0-1.8","60de263c69ce74cd6a2d11d8","A3","batch1","spm_respsonse","3966.7999999523163","img/question_1_9.jpeg","0","mat_09","1","1","1","3966.7999999523163","","","","","","","","","","","","","","","","","","","","",""
"","","","","","html-keyboard-response","22","78598","0.0-2.0-2.0-0.9","60de263c69ce74cd6a2d11d8","A3","batch1","spm_show_trial_num","null","<p class=block-text>Trial 10 out of 60</p>","null","","","","","","","","","","","","","","","","","","","","","","","","","",""
"","","","","","image-button-response","23","84184","0.0-2.0-2.0-1.9","60de263c69ce74cd6a2d11d8","A3","batch1","spm_respsonse","5583.700000047684","img/question_1_10.jpeg","2","mat_10","3","1","1","5583.700000047684","","","","","","","","","","","","","","","","","","","","",""
"","","","","","html-keyboard-response","24","85239","0.0-2.0-2.0-0.10","60de263c69ce74cd6a2d11d8","A3","batch1","spm_show_trial_num","null","<p class=block-text>Trial 11 out of 60</p>","null","","","","","","","","","","","","","","","","","","","","","","","","","",""
"","","","","","image-button-response","25","93406","0.0-2.0-2.0-1.10","60de263c69ce74cd6a2d11d8","A3","batch1","spm_respsonse","8164.900000095367","img/question_1_11.jpeg","3","mat_11","4","1","1","8164.900000095367","","","","","","","","","","","","","","","","","","","","",""
"","","","","","html-keyboard-response","26","94483","0.0-2.0-2.0-0.11","60de263c69ce74cd6a2d11d8","A3","batch1","spm_show_trial_num","null","<p class=block-text>Trial 12 out of 60</p>","null","","","","","","","","","","","","","","","","","","","","","","","","","",""
"","","","","","image-button-response","27","104470","0.0-2.0-2.0-1.11","60de263c69ce74cd6a2d11d8","A3","batch1","spm_respsonse","9984.799999952316","img/question_1_12.jpeg","4","mat_12","5","1","1","9984.799999952316","","","","","","","","","","","","","","","","","","","","",""
"","","","","","html-keyboard-response","28","105532","0.0-2.0-2.0-0.12","60de263c69ce74cd6a2d11d8","A3","batch1","spm_show_trial_num","null","<p class=block-text>Trial 13 out of 60</p>","null","","","","","","","","","","","","","","","","","","","","","","","","","",""
"","","","","","image-button-response","29","114114","0.0-2.0-2.0-1.12","60de263c69ce74cd6a2d11d8","A3","batch1","spm_respsonse","8580.399999856949","img/question_2_1.jpeg","1","mat_13","2","1","1","8580.399999856949","","","","","","","","","","","","","","","","","","","","",""
"","","","","","html-keyboard-response","30","115173","0.0-2.0-2.0-0.13","60de263c69ce74cd6a2d11d8","A3","batch1","spm_show_trial_num","null","<p class=block-text>Trial 14 out of 60</p>","null","","","","","","","","","","","","","","","","","","","","","","","","","",""
"","","","","","image-button-response","31","122982","0.0-2.0-2.0-1.13","60de263c69ce74cd6a2d11d8","A3","batch1","spm_respsonse","7807.5","img/question_2_2.jpeg","5","mat_14","6","1","1","7807.5","","","","","","","","","","","","","","","","","","","","",""
"","","","","","html-keyboard-response","32","124044","0.0-2.0-2.0-0.14","60de263c69ce74cd6a2d11d8","A3","batch1","spm_show_trial_num","null","<p class=block-text>Trial 15 out of 60</p>","null","","","","","","","","","","","","","","","","","","","","","","","","","",""
"","","","","","image-button-response","33","126685","0.0-2.0-2.0-1.14","60de263c69ce74cd6a2d11d8","A3","batch1","spm_respsonse","2639.2999999523163","img/question_2_3.jpeg","0","mat_15","1","1","1","2639.2999999523163","","","","","","","","","","","","","","","","","","","","",""
"","","","","","html-keyboard-response","34","127759","0.0-2.0-2.0-0.15","60de263c69ce74cd6a2d11d8","A3","batch1","spm_show_trial_num","null","<p class=block-text>Trial 16 out of 60</p>","null","","","","","","","","","","","","","","","","","","","","","","","","","",""
"","","","","","image-button-response","35","130768","0.0-2.0-2.0-1.15","60de263c69ce74cd6a2d11d8","A3","batch1","spm_respsonse","3007.5","img/question_2_4.jpeg","1","mat_16","2","1","1","3007.5","","","","","","","","","","","","","","","","","","","","",""
"","","","","","html-keyboard-response","36","131836","0.0-2.0-2.0-0.16","60de263c69ce74cd6a2d11d8","A3","batch1","spm_show_trial_num","null","<p class=block-text>Trial 17 out of 60</p>","null","","","","","","","","","","","","","","","","","","","","","","","","","",""
"","","","","","image-button-response","37","134809","0.0-2.0-2.0-1.16","60de263c69ce74cd6a2d11d8","A3","batch1","spm_respsonse","2970","img/question_2_5.jpeg","0","mat_17","1","1","1","2970","","","","","","","","","","","","","","","","","","","","",""
"","","","","","html-keyboard-response","38","135876","0.0-2.0-2.0-0.17","60de263c69ce74cd6a2d11d8","A3","batch1","spm_show_trial_num","null","<p class=block-text>Trial 18 out of 60</p>","null","","","","","","","","","","","","","","","","","","","","","","","","","",""
"","","","","","image-button-response","39","142285","0.0-2.0-2.0-1.17","60de263c69ce74cd6a2d11d8","A3","batch1","spm_respsonse","6407.5","img/question_2_6.jpeg","2","mat_18","3","1","1","6407.5","","","","","","","","","","","","","","","","","","","","",""
"","","","","","html-keyboard-response","40","143352","0.0-2.0-2.0-0.18","60de263c69ce74cd6a2d11d8","A3","batch1","spm_show_trial_num","null","<p class=block-text>Trial 19 out of 60</p>","null","","","","","","","","","","","","","","","","","","","","","","","","","",""
"","","","","","image-button-response","41","149626","0.0-2.0-2.0-1.18","60de263c69ce74cd6a2d11d8","A3","batch1","spm_respsonse","6271.900000095367","img/question_2_7.jpeg","4","mat_19","5","1","1","6271.900000095367","","","","","","","","","","","","","","","","","","","","",""
"","","","","","html-keyboard-response","42","150686","0.0-2.0-2.0-0.19","60de263c69ce74cd6a2d11d8","A3","batch1","spm_show_trial_num","null","<p class=block-text>Trial 20 out of 60</p>","null","","","","","","","","","","","","","","","","","","","","","","","","","",""
"","","","","","image-button-response","43","155933","0.0-2.0-2.0-1.19","60de263c69ce74cd6a2d11d8","A3","batch1","spm_respsonse","5245.200000047684","img/question_2_8.jpeg","2","mat_20","6","0","0","5245.200000047684","","","","","","","","","","","","","","","","","","","","",""
"","","","","","html-keyboard-response","44","157011","0.0-2.0-2.0-0.20","60de263c69ce74cd6a2d11d8","A3","batch1","spm_show_trial_num","null","<p class=block-text>Trial 21 out of 60</p>","null","","","","","","","","","","","","","","","","","","","","","","","","","",""
"","","","","","image-button-response","45","160627","0.0-2.0-2.0-1.20","60de263c69ce74cd6a2d11d8","A3","batch1","spm_respsonse","3614","img/question_2_9.jpeg","4","mat_21","4","0","0","3614","","","","","","","","","","","","","","","","","","","","",""
"","","","","","html-keyboard-response","46","161695","0.0-2.0-2.0-0.21","60de263c69ce74cd6a2d11d8","A3","batch1","spm_show_trial_num","null","<p class=block-text>Trial 22 out of 60</p>","null","","","","","","","","","","","","","","","","","","","","","","","","","",""
"","","","","","image-button-response","47","162055","0.0-2.0-2.0-1.21","60de263c69ce74cd6a2d11d8","A3","batch1","spm_respsonse","358.7999999523163","img/question_2_10.jpeg","4","mat_22","3","0","0","358.7999999523163","","","","","","","","","","","","","","","","","","","","",""
"","","","","","html-keyboard-response","48","163116","0.0-2.0-2.0-0.22","60de263c69ce74cd6a2d11d8","A3","batch1","spm_show_trial_num","null","<p class=block-text>Trial 23 out of 60</p>","null","","","","","","","","","","","","","","","","","","","","","","","","","",""
"","","","","","image-button-response","49","168428","0.0-2.0-2.0-1.22","60de263c69ce74cd6a2d11d8","A3","batch1","spm_respsonse","5310.399999856949","img/question_2_11.jpeg","3","mat_23","4","1","1","5310.399999856949","","","","","","","","","","","","","","","","","","","","",""
"","","","","","html-keyboard-response","50","169488","0.0-2.0-2.0-0.23","60de263c69ce74cd6a2d11d8","A3","batch1","spm_show_trial_num","null","<p class=block-text>Trial 24 out of 60</p>","null","","","","","","","","","","","","","","","","","","","","","","","","","",""
"","","","","","image-button-response","51","181201","0.0-2.0-2.0-1.23","60de263c69ce74cd6a2d11d8","A3","batch1","spm_respsonse","11711.299999952316","img/question_2_12.jpeg","2","mat_24","5","0","0","11711.299999952316","","","","","","","","","","","","","","","","","","","","",""
"","","","","","html-button-response","52","183425","0.0-2.0-3.0","60de263c69ce74cd6a2d11d8","A3","batch1","attention_check","1971.9000000953674","<p class = block-text>Attention check: Please choose 1<br></p>","0","","","true","","","","","","","","","","","","","","","","","","","","","","",""
"","","","","","html-keyboard-response","53","184233","0.0-2.0-4.0-0.0","60de263c69ce74cd6a2d11d8","A3","batch1","spm_show_trial_num","null","<p class=block-text>Trial 25 out of 60</p>","null","","","","","","","","","","","","","","","","","","","","","","","","","",""
"","","","","","image-button-response","54","192783","0.0-2.0-4.0-1.0","60de263c69ce74cd6a2d11d8","A3","batch1","spm_respsonse","8547.299999952316","img/question_3_1.jpeg","7","mat_25","8","1","1","8547.299999952316","","","","","","","","","","","","","","","","","","","","",""
"","","","","","html-keyboard-response","55","193853","0.0-2.0-4.0-0.1","60de263c69ce74cd6a2d11d8","A3","batch1","spm_show_trial_num","null","<p class=block-text>Trial 26 out of 60</p>","null","","","","","","","","","","","","","","","","","","","","","","","","","",""
"","","","","","image-button-response","56","203144","0.0-2.0-4.0-1.1","60de263c69ce74cd6a2d11d8","A3","batch1","spm_respsonse","9289.399999856949","img/question_3_2.jpeg","1","mat_26","2","1","1","9289.399999856949","","","","","","","","","","","","","","","","","","","","",""
"","","","","","html-keyboard-response","57","204208","0.0-2.0-4.0-0.2","60de263c69ce74cd6a2d11d8","A3","batch1","spm_show_trial_num","null","<p class=block-text>Trial 27 out of 60</p>","null","","","","","","","","","","","","","","","","","","","","","","","","","",""
"","","","","","image-button-response","58","217797","0.0-2.0-4.0-1.2","60de263c69ce74cd6a2d11d8","A3","batch1","spm_respsonse","13584.299999952316","img/question_3_3.jpeg","2","mat_27","3","1","1","13584.299999952316","","","","","","","","","","","","","","","","","","","","",""
"","","","","","html-keyboard-response","59","218859","0.0-2.0-4.0-0.3","60de263c69ce74cd6a2d11d8","A3","batch1","spm_show_trial_num","null","<p class=block-text>Trial 28 out of 60</p>","null","","","","","","","","","","","","","","","","","","","","","","","","","",""
"","","","","","image-button-response","60","228385","0.0-2.0-4.0-1.3","60de263c69ce74cd6a2d11d8","A3","batch1","spm_respsonse","9524.400000095367","img/question_3_4.jpeg","7","mat_28","8","1","1","9524.400000095367","","","","","","","","","","","","","","","","","","","","",""
"","","","","","html-keyboard-response","61","229445","0.0-2.0-4.0-0.4","60de263c69ce74cd6a2d11d8","A3","batch1","spm_show_trial_num","null","<p class=block-text>Trial 29 out of 60</p>","null","","","","","","","","","","","","","","","","","","","","","","","","","",""
"","","","","","image-button-response","62","232584","0.0-2.0-4.0-1.4","60de263c69ce74cd6a2d11d8","A3","batch1","spm_respsonse","3136.4000000953674","img/question_3_5.jpeg","6","mat_29","7","1","1","3136.4000000953674","","","","","","","","","","","","","","","","","","","","",""
"","","","","","html-keyboard-response","63","233645","0.0-2.0-4.0-0.5","60de263c69ce74cd6a2d11d8","A3","batch1","spm_show_trial_num","null","<p class=block-text>Trial 30 out of 60</p>","null","","","","","","","","","","","","","","","","","","","","","","","","","",""
"","","","","","image-button-response","64","240654","0.0-2.0-4.0-1.5","60de263c69ce74cd6a2d11d8","A3","batch1","spm_respsonse","7007.799999952316","img/question_3_6.jpeg","3","mat_30","4","1","1","7007.799999952316","","","","","","","","","","","","","","","","","","","","",""
"","","","","","html-keyboard-response","65","241720","0.0-2.0-4.0-0.6","60de263c69ce74cd6a2d11d8","A3","batch1","spm_show_trial_num","null","<p class=block-text>Trial 31 out of 60</p>","null","","","","","","","","","","","","","","","","","","","","","","","","","",""
"","","","","","image-button-response","66","249618","0.0-2.0-4.0-1.6","60de263c69ce74cd6a2d11d8","A3","batch1","spm_respsonse","7895.699999809265","img/question_3_7.jpeg","4","mat_31","5","1","1","7895.699999809265","","","","","","","","","","","","","","","","","","","","",""
"","","","","","html-keyboard-response","67","250697","0.0-2.0-4.0-0.7","60de263c69ce74cd6a2d11d8","A3","batch1","spm_show_trial_num","null","<p class=block-text>Trial 32 out of 60</p>","null","","","","","","","","","","","","","","","","","","","","","","","","","",""
"","","","","","image-button-response","68","269684","0.0-2.0-4.0-1.7","60de263c69ce74cd6a2d11d8","A3","batch1","spm_respsonse","18984.799999952316","img/question_3_8.jpeg","0","mat_32","1","1","1","18984.799999952316","","","","","","","","","","","","","","","","","","","","",""
"","","","","","html-keyboard-response","69","270756","0.0-2.0-4.0-0.8","60de263c69ce74cd6a2d11d8","A3","batch1","spm_show_trial_num","null","<p class=block-text>Trial 33 out of 60</p>","null","","","","","","","","","","","","","","","","","","","","","","","","","",""
"","","","","","image-button-response","70","281053","0.0-2.0-4.0-1.8","60de263c69ce74cd6a2d11d8","A3","batch1","spm_respsonse","10295.600000143051","img/question_3_9.jpeg","6","mat_33","7","1","1","10295.600000143051","","","","","","","","","","","","","","","","","","","","",""
"","","","","","html-keyboard-response","71","282112","0.0-2.0-4.0-0.9","60de263c69ce74cd6a2d11d8","A3","batch1","spm_show_trial_num","null","<p class=block-text>Trial 34 out of 60</p>","null","","","","","","","","","","","","","","","","","","","","","","","","","",""
"","","","","","image-button-response","72","306262","0.0-2.0-4.0-1.9","60de263c69ce74cd6a2d11d8","A3","batch1","spm_respsonse","24147.200000047684","img/question_3_10.jpeg","5","mat_34","6","1","1","24147.200000047684","","","","","","","","","","","","","","","","","","","","",""
"","","","","","html-keyboard-response","73","307329","0.0-2.0-4.0-0.10","60de263c69ce74cd6a2d11d8","A3","batch1","spm_show_trial_num","null","<p class=block-text>Trial 35 out of 60</p>","null","","","","","","","","","","","","","","","","","","","","","","","","","",""
"","","","","","image-button-response","74","344306","0.0-2.0-4.0-1.10","60de263c69ce74cd6a2d11d8","A3","batch1","spm_respsonse","36974.700000047684","img/question_3_11.jpeg","2","mat_35","1","0","0","36974.700000047684","","","","","","","","","","","","","","","","","","","","",""
"","","","","","html-keyboard-response","75","345380","0.0-2.0-4.0-0.11","60de263c69ce74cd6a2d11d8","A3","batch1","spm_show_trial_num","null","<p class=block-text>Trial 36 out of 60</p>","null","","","","","","","","","","","","","","","","","","","","","","","","","",""
"","","","","","image-button-response","76","384317","0.0-2.0-4.0-1.11","60de263c69ce74cd6a2d11d8","A3","batch1","spm_respsonse","38935.799999952316","img/question_3_12.jpeg","0","mat_36","2","0","0","38935.799999952316","","","","","","","","","","","","","","","","","","","","",""
"","","","","","html-keyboard-response","77","385385","0.0-2.0-4.0-0.12","60de263c69ce74cd6a2d11d8","A3","batch1","spm_show_trial_num","null","<p class=block-text>Trial 37 out of 60</p>","null","","","","","","","","","","","","","","","","","","","","","","","","","",""
"","","","","","image-button-response","78","388297","0.0-2.0-4.0-1.12","60de263c69ce74cd6a2d11d8","A3","batch1","spm_respsonse","2910.2999999523163","img/question_4_1.jpeg","2","mat_37","3","1","1","2910.2999999523163","","","","","","","","","","","","","","","","","","","","",""
"","","","","","html-keyboard-response","79","389365","0.0-2.0-4.0-0.13","60de263c69ce74cd6a2d11d8","A3","batch1","spm_show_trial_num","null","<p class=block-text>Trial 38 out of 60</p>","null","","","","","","","","","","","","","","","","","","","","","","","","","",""
"","","","","","image-button-response","80","398547","0.0-2.0-4.0-1.13","60de263c69ce74cd6a2d11d8","A3","batch1","spm_respsonse","9179.900000095367","img/question_4_2.jpeg","3","mat_38","4","1","1","9179.900000095367","","","","","","","","","","","","","","","","","","","","",""
"","","","","","html-keyboard-response","81","399617","0.0-2.0-4.0-0.14","60de263c69ce74cd6a2d11d8","A3","batch1","spm_show_trial_num","null","<p class=block-text>Trial 39 out of 60</p>","null","","","","","","","","","","","","","","","","","","","","","","","","","",""
"","","","","","image-button-response","82","406108","0.0-2.0-4.0-1.14","60de263c69ce74cd6a2d11d8","A3","batch1","spm_respsonse","6489.400000095367","img/question_4_3.jpeg","2","mat_39","3","1","1","6489.400000095367","","","","","","","","","","","","","","","","","","","","",""
"","","","","","html-keyboard-response","83","407174","0.0-2.0-4.0-0.15","60de263c69ce74cd6a2d11d8","A3","batch1","spm_show_trial_num","null","<p class=block-text>Trial 40 out of 60</p>","null","","","","","","","","","","","","","","","","","","","","","","","","","",""
"","","","","","image-button-response","84","413385","0.0-2.0-4.0-1.15","60de263c69ce74cd6a2d11d8","A3","batch1","spm_respsonse","6209.099999904633","img/question_4_4.jpeg","6","mat_40","7","1","1","6209.099999904633","","","","","","","","","","","","","","","","","","","","",""
"","","","","","html-keyboard-response","85","414443","0.0-2.0-4.0-0.16","60de263c69ce74cd6a2d11d8","A3","batch1","spm_show_trial_num","null","<p class=block-text>Trial 41 out of 60</p>","null","","","","","","","","","","","","","","","","","","","","","","","","","",""
"","","","","","image-button-response","86","422479","0.0-2.0-4.0-1.16","60de263c69ce74cd6a2d11d8","A3","batch1","spm_respsonse","8034.400000095367","img/question_4_5.jpeg","7","mat_41","8","1","1","8034.400000095367","","","","","","","","","","","","","","","","","","","","",""
"","","","","","html-keyboard-response","87","423549","0.0-2.0-4.0-0.17","60de263c69ce74cd6a2d11d8","A3","batch1","spm_show_trial_num","null","<p class=block-text>Trial 42 out of 60</p>","null","","","","","","","","","","","","","","","","","","","","","","","","","",""
"","","","","","image-button-response","88","446577","0.0-2.0-4.0-1.17","60de263c69ce74cd6a2d11d8","A3","batch1","spm_respsonse","23026.200000047684","img/question_4_6.jpeg","5","mat_42","6","1","1","23026.200000047684","","","","","","","","","","","","","","","","","","","","",""
"","","","","","html-keyboard-response","89","447648","0.0-2.0-4.0-0.18","60de263c69ce74cd6a2d11d8","A3","batch1","spm_show_trial_num","null","<p class=block-text>Trial 43 out of 60</p>","null","","","","","","","","","","","","","","","","","","","","","","","","","",""
"","","","","","image-button-response","90","477839","0.0-2.0-4.0-1.18","60de263c69ce74cd6a2d11d8","A3","batch1","spm_respsonse","30187.199999809265","img/question_4_7.jpeg","4","mat_43","5","1","1","30187.199999809265","","","","","","","","","","","","","","","","","","","","",""
"","","","","","html-keyboard-response","91","478906","0.0-2.0-4.0-0.19","60de263c69ce74cd6a2d11d8","A3","batch1","spm_show_trial_num","null","<p class=block-text>Trial 44 out of 60</p>","null","","","","","","","","","","","","","","","","","","","","","","","","","",""
"","","","","","image-button-response","92","485970","0.0-2.0-4.0-1.19","60de263c69ce74cd6a2d11d8","A3","batch1","spm_respsonse","7061.299999952316","img/question_4_8.jpeg","2","mat_44","4","0","0","7061.299999952316","","","","","","","","","","","","","","","","","","","","",""
"","","","","","html-keyboard-response","93","487028","0.0-2.0-4.0-0.20","60de263c69ce74cd6a2d11d8","A3","batch1","spm_show_trial_num","null","<p class=block-text>Trial 45 out of 60</p>","null","","","","","","","","","","","","","","","","","","","","","","","","","",""
"","","","","","image-button-response","94","506797","0.0-2.0-4.0-1.20","60de263c69ce74cd6a2d11d8","A3","batch1","spm_respsonse","19766.700000047684","img/question_4_9.jpeg","0","mat_45","1","1","1","19766.700000047684","","","","","","","","","","","","","","","","","","","","",""
"","","","","","html-keyboard-response","95","507872","0.0-2.0-4.0-0.21","60de263c69ce74cd6a2d11d8","A3","batch1","spm_show_trial_num","null","<p class=block-text>Trial 46 out of 60</p>","null","","","","","","","","","","","","","","","","","","","","","","","","","",""
"","","","","","image-button-response","96","525435","0.0-2.0-4.0-1.21","60de263c69ce74cd6a2d11d8","A3","batch1","spm_respsonse","17560.800000190735","img/question_4_10.jpeg","1","mat_46","2","1","1","17560.800000190735","","","","","","","","","","","","","","","","","","","","",""
"","","","","","html-keyboard-response","97","526492","0.0-2.0-4.0-0.22","60de263c69ce74cd6a2d11d8","A3","batch1","spm_show_trial_num","null","<p class=block-text>Trial 47 out of 60</p>","null","","","","","","","","","","","","","","","","","","","","","","","","","",""
"","","","","","image-button-response","98","564196","0.0-2.0-4.0-1.22","60de263c69ce74cd6a2d11d8","A3","batch1","spm_respsonse","37701.90000009537","img/question_4_11.jpeg","5","mat_47","5","0","0","37701.90000009537","","","","","","","","","","","","","","","","","","","","",""
"","","","","","html-keyboard-response","99","565267","0.0-2.0-4.0-0.23","60de263c69ce74cd6a2d11d8","A3","batch1","spm_show_trial_num","null","<p class=block-text>Trial 48 out of 60</p>","null","","","","","","","","","","","","","","","","","","","","","","","","","",""
"","","","","","image-button-response","100","584007","0.0-2.0-4.0-1.23","60de263c69ce74cd6a2d11d8","A3","batch1","spm_respsonse","18737.39999985695","img/question_4_12.jpeg","5","mat_48","6","1","1","18737.39999985695","","","","","","","","","","","","","","","","","","","","",""
"","","","","","html-keyboard-response","101","585064","0.0-2.0-4.0-0.24","60de263c69ce74cd6a2d11d8","A3","batch1","spm_show_trial_num","null","<p class=block-text>Trial 49 out of 60</p>","null","","","","","","","","","","","","","","","","","","","","","","","","","",""
"","","","","","image-button-response","102","602366","0.0-2.0-4.0-1.24","60de263c69ce74cd6a2d11d8","A3","batch1","spm_respsonse","17300.199999809265","img/question_5_1.jpeg","6","mat_49","7","1","1","17300.199999809265","","","","","","","","","","","","","","","","","","","","",""
"","","","","","html-keyboard-response","103","603433","0.0-2.0-4.0-0.25","60de263c69ce74cd6a2d11d8","A3","batch1","spm_show_trial_num","null","<p class=block-text>Trial 50 out of 60</p>","null","","","","","","","","","","","","","","","","","","","","","","","","","",""
"","","","","","image-button-response","104","627233","0.0-2.0-4.0-1.25","60de263c69ce74cd6a2d11d8","A3","batch1","spm_respsonse","23798","img/question_5_2.jpeg","5","mat_50","6","1","1","23798","","","","","","","","","","","","","","","","","","","","",""
"","","","","","html-keyboard-response","105","628299","0.0-2.0-4.0-0.26","60de263c69ce74cd6a2d11d8","A3","batch1","spm_show_trial_num","null","<p class=block-text>Trial 51 out of 60</p>","null","","","","","","","","","","","","","","","","","","","","","","","","","",""
"","","","","","image-button-response","106","639339","0.0-2.0-4.0-1.26","60de263c69ce74cd6a2d11d8","A3","batch1","spm_respsonse","11037.600000143051","img/question_5_3.jpeg","7","mat_51","8","1","1","11037.600000143051","","","","","","","","","","","","","","","","","","","","",""
"","","","","","html-keyboard-response","107","640413","0.0-2.0-4.0-0.27","60de263c69ce74cd6a2d11d8","A3","batch1","spm_show_trial_num","null","<p class=block-text>Trial 52 out of 60</p>","null","","","","","","","","","","","","","","","","","","","","","","","","","",""
"","","","","","image-button-response","108","671576","0.0-2.0-4.0-1.27","60de263c69ce74cd6a2d11d8","A3","batch1","spm_respsonse","31161.200000047684","img/question_5_4.jpeg","1","mat_52","2","1","1","31161.200000047684","","","","","","","","","","","","","","","","","","","","",""
"","","","","","html-keyboard-response","109","672638","0.0-2.0-4.0-0.28","60de263c69ce74cd6a2d11d8","A3","batch1","spm_show_trial_num","null","<p class=block-text>Trial 53 out of 60</p>","null","","","","","","","","","","","","","","","","","","","","","","","","","",""
"","","","","","image-button-response","110","679284","0.0-2.0-4.0-1.28","60de263c69ce74cd6a2d11d8","A3","batch1","spm_respsonse","6642.799999952316","img/question_5_5.jpeg","0","mat_53","1","1","1","6642.799999952316","","","","","","","","","","","","","","","","","","","","",""
"","","","","","html-keyboard-response","111","680345","0.0-2.0-4.0-0.29","60de263c69ce74cd6a2d11d8","A3","batch1","spm_show_trial_num","null","<p class=block-text>Trial 54 out of 60</p>","null","","","","","","","","","","","","","","","","","","","","","","","","","",""
"","","","","","image-button-response","112","693042","0.0-2.0-4.0-1.29","60de263c69ce74cd6a2d11d8","A3","batch1","spm_respsonse","12694.599999904633","img/question_5_6.jpeg","7","mat_54","5","0","0","12694.599999904633","","","","","","","","","","","","","","","","","","","","",""
"","","","","","html-keyboard-response","113","694124","0.0-2.0-4.0-0.30","60de263c69ce74cd6a2d11d8","A3","batch1","spm_show_trial_num","null","<p class=block-text>Trial 55 out of 60</p>","null","","","","","","","","","","","","","","","","","","","","","","","","","",""
"","","","","","image-button-response","114","728203","0.0-2.0-4.0-1.30","60de263c69ce74cd6a2d11d8","A3","batch1","spm_respsonse","34076.59999990463","img/question_5_7.jpeg","6","mat_55","1","0","0","34076.59999990463","","","","","","","","","","","","","","","","","","","","",""
"","","","","","html-keyboard-response","115","729256","0.0-2.0-4.0-0.31","60de263c69ce74cd6a2d11d8","A3","batch1","spm_show_trial_num","null","<p class=block-text>Trial 56 out of 60</p>","null","","","","","","","","","","","","","","","","","","","","","","","","","",""
"","","","","","image-button-response","116","741594","0.0-2.0-4.0-1.31","60de263c69ce74cd6a2d11d8","A3","batch1","spm_respsonse","12335.700000047684","img/question_5_8.jpeg","0","mat_56","6","0","0","12335.700000047684","","","","","","","","","","","","","","","","","","","","",""
"","","","","","html-keyboard-response","117","742661","0.0-2.0-4.0-0.32","60de263c69ce74cd6a2d11d8","A3","batch1","spm_show_trial_num","null","<p class=block-text>Trial 57 out of 60</p>","null","","","","","","","","","","","","","","","","","","","","","","","","","",""
"","","","","","image-button-response","118","778241","0.0-2.0-4.0-1.32","60de263c69ce74cd6a2d11d8","A3","batch1","spm_respsonse","35577.60000014305","img/question_5_9.jpeg","2","mat_57","3","1","1","35577.60000014305","","","","","","","","","","","","","","","","","","","","",""
"","","","","","html-keyboard-response","119","779312","0.0-2.0-4.0-0.33","60de263c69ce74cd6a2d11d8","A3","batch1","spm_show_trial_num","null","<p class=block-text>Trial 58 out of 60</p>","null","","","","","","","","","","","","","","","","","","","","","","","","","",""
"","","","","","image-button-response","120","790670","0.0-2.0-4.0-1.33","60de263c69ce74cd6a2d11d8","A3","batch1","spm_respsonse","11355.700000047684","img/question_5_10.jpeg","6","mat_58","2","0","0","11355.700000047684","","","","","","","","","","","","","","","","","","","","",""
"","","","","","html-keyboard-response","121","791722","0.0-2.0-4.0-0.34","60de263c69ce74cd6a2d11d8","A3","batch1","spm_show_trial_num","null","<p class=block-text>Trial 59 out of 60</p>","null","","","","","","","","","","","","","","","","","","","","","","","","","",""
"","","","","","image-button-response","122","819248","0.0-2.0-4.0-1.34","60de263c69ce74cd6a2d11d8","A3","batch1","spm_respsonse","27523.099999904633","img/question_5_11.jpeg","7","mat_59","4","0","0","27523.099999904633","","","","","","","","","","","","","","","","","","","","",""
"","","","","","html-keyboard-response","123","820318","0.0-2.0-4.0-0.35","60de263c69ce74cd6a2d11d8","A3","batch1","spm_show_trial_num","null","<p class=block-text>Trial 60 out of 60</p>","null","","","","","","","","","","","","","","","","","","","","","","","","","",""
"","","","","","image-button-response","124","879229","0.0-2.0-4.0-1.35","60de263c69ce74cd6a2d11d8","A3","batch1","spm_respsonse","58909.10000014305","img/question_5_12.jpeg","1","mat_60","5","0","0","58909.10000014305","","","","","","","","","","","","","","","","","","","","",""
"","","","","","html-button-response","125","881835","0.0-2.0-5.0","60de263c69ce74cd6a2d11d8","A3","batch1","spm_goodbye","2351.399999856949","<p class= block-text>This concludes the Standard Progressive Matrix game. Thank you for your responses!<br> When you are ready, click the button continue</p>","0","","","","","","","","","","","","","","","","","","","","","","","","","",""
"true","","","","","fullscreen","126","884608","0.0-3.0-0.0","60de263c69ce74cd6a2d11d8","A3","batch1","","","","","","","","","","","","","","","","","","","","","","","","","","","","","",""
"","","","","","instructions","127","899854","0.0-3.0-1.0-0.0","60de263c69ce74cd6a2d11d8","A3","batch1","","15244.799999952316","","","","","","","","[{""page_index"":0,""viewing_time"":12403.200000047684},{""page_index"":1,""viewing_time"":2841.2000000476837}]","","","","","","","","","","","","","","","","","","","",""
"","","","","","html-button-response","128","901278","0.0-3.0-1.0-1.0-0.0","60de263c69ce74cd6a2d11d8","A3","batch1","pattern_enter_quiz","1422","<p class=block-text> Let's answer a few questions <br>","0","","","","","","","","","","","","","","","","","","","","","","","","","",""
"","","","","","html-button-response","129","902969","0.0-3.0-1.0-1.0-1.0","60de263c69ce74cd6a2d11d8","A3","batch1","pattern_quiz","1689.5999999046326","<p class = block-text>True or False: You will have as much time as you want to make each choice. <br></p>","1","","","true","","","","","","","","","","","","","","","","","","","","","","",""
"","","","","","html-button-response","130","904599","0.0-3.0-1.0-1.0-2.0","60de263c69ce74cd6a2d11d8","A3","batch1","pattern_quiz_feedback","1627.0999999046326","<p class = block-text>Correct! You should make your choice <strong> as fast as you can</strong>.</p>","0","","","","","","","","","","","","","","","","","","","","","","","","","",""
"","","","","","html-button-response","131","909184","0.0-3.0-1.0-1.0-3.0","60de263c69ce74cd6a2d11d8","A3","batch1","pattern_quiz","4583.700000047684","<p class = block-text>True or False: You will look for 4 pieces in black or white color connected in a row either horizontally, vertically or diagonally. <br></p>","0","","","true","","","","","","","","","","","","","","","","","","","","","","",""
"","","","","","html-button-response","132","910110","0.0-3.0-1.0-1.0-4.0","60de263c69ce74cd6a2d11d8","A3","batch1","pattern_quiz_feedback","924.7000000476837","<p class = block-text>Correct! </p>","0","","","","","","","","","","","","","","","","","","","","","","","","","",""
"","","","","","html-button-response","133","911323","0.0-3.0-2.0","60de263c69ce74cd6a2d11d8","A3","batch1","pattern_enter_practice","1209.5","<p class=block-text> Now that you've understood the game, let's do a few practice trials before we start!<br> <br>","0","","","","","","","","","","","","","","","","","","","","","","","","","",""
"","","","","","image-keyboard-response","134","913914","0.0-3.0-3.0-0.0","60de263c69ce74cd6a2d11d8","A3","batch1","pattern_practice","2588.7999999523163","stim/prac_no_16_1.png","j","","j","true","","","","","","","","","","","","","","","","","","","","","","",""
"","","","","","html-keyboard-response","135","914930","0.0-3.0-3.0-1.0","60de263c69ce74cd6a2d11d8","A3","batch1","pattern_feedback","null","<p style=""font-size:30px;color:green;"">Correct!</p>","null","","","","","","","","","","","","","","","","","","","","","","","","","",""
"","","","","","image-keyboard-response","136","916132","0.0-3.0-3.0-0.1","60de263c69ce74cd6a2d11d8","A3","batch1","pattern_practice","1200.5999999046326","stim/prac_no_18_1.png","j","","j","true","","","","","","","","","","","","","","","","","","","","","","",""
"","","","","","html-keyboard-response","137","917154","0.0-3.0-3.0-1.1","60de263c69ce74cd6a2d11d8","A3","batch1","pattern_feedback","null","<p style=""font-size:30px;color:green;"">Correct!</p>","null","","","","","","","","","","","","","","","","","","","","","","","","","",""
"","","","","","image-keyboard-response","138","917997","0.0-3.0-3.0-0.2","60de263c69ce74cd6a2d11d8","A3","batch1","pattern_practice","841.8000001907349","stim/prac_yes_20_dia_b1.png","f","","f","true","","","","","","","","","","","","","","","","","","","","","","",""
"","","","","","html-keyboard-response","139","919011","0.0-3.0-3.0-1.2","60de263c69ce74cd6a2d11d8","A3","batch1","pattern_feedback","null","<p style=""font-size:30px;color:green;"">Correct!</p>","null","","","","","","","","","","","","","","","","","","","","","","","","","",""
"","","","","","image-keyboard-response","140","919635","0.0-3.0-3.0-0.3","60de263c69ce74cd6a2d11d8","A3","batch1","pattern_practice","623.1000001430511","stim/prac_yes_18_hor_w1.png","j","","f","false","","","","","","","","","","","","","","","","","","","","","","",""
"","","","","","html-keyboard-response","141","920642","0.0-3.0-3.0-1.3","60de263c69ce74cd6a2d11d8","A3","batch1","pattern_feedback","null","<p style=""font-size:30px;color:red;"">Wrong.</p>","null","","","","","","","","","","","","","","","","","","","","","","","","","",""
"","","","","","image-keyboard-response","142","922888","0.0-3.0-3.0-0.4","60de263c69ce74cd6a2d11d8","A3","batch1","pattern_practice","2244.899999856949","stim/prac_yes_16_ver_w1.png","f","","f","true","","","","","","","","","","","","","","","","","","","","","","",""
"","","","","","html-keyboard-response","143","923896","0.0-3.0-3.0-1.4","60de263c69ce74cd6a2d11d8","A3","batch1","pattern_feedback","null","<p style=""font-size:30px;color:green;"">Correct!</p>","null","","","","","","","","","","","","","","","","","","","","","","","","","",""
"","","","","","html-button-response","144","925868","0.0-3.0-4.0","60de263c69ce74cd6a2d11d8","A3","batch1","pattern_enter_official_trials","1970.2000000476837","<p class=block-text> Good job! You are done with practice trials!<br>
        You responded correctly on 80% of the trials.<br>
        Press the button below to start official trials. Now you won't see any feedback about your response</p>","0","","","","","","","","","","","","","","","","","","","","","","","","","",""
"","","","","","html-keyboard-response","145","926676","0.0-3.0-5.0-0.0","60de263c69ce74cd6a2d11d8","A3","batch1","pattern_show_trial_num","null","<p class=block-text>Trial 1 out of 78</p>","null","","","","","","","","","","","","","","","","","","","","","","","","","",""
"","","","","","image-keyboard-response","146","929973","0.0-3.0-5.0-1.0","60de263c69ce74cd6a2d11d8","A3","batch1","pattern_response","3296.2000000476837","stim/no_37_2_w.png","j","pattern_19","j","true","","","","3296.2000000476837","true","1","","","","","","","","","","","","","","","","",""
"","","","","","html-keyboard-response","147","931293","0.0-3.0-5.0-0.1","60de263c69ce74cd6a2d11d8","A3","batch1","pattern_show_trial_num","null","<p class=block-text>Trial 2 out of 78</p>","null","","","","","","","","","","","","","","","","","","","","","","","","","",""
"","","","","","image-keyboard-response","148","932698","0.0-3.0-5.0-1.1","60de263c69ce74cd6a2d11d8","A3","batch1","pattern_response","1403.0999999046326","stim/yes_36_ver_w1_w.png","f","pattern_58","f","true","","","","1403.0999999046326","true","2","","","","","","","","","","","","","","","","",""
"","","","","","html-keyboard-response","149","934024","0.0-3.0-5.0-0.2","60de263c69ce74cd6a2d11d8","A3","batch1","pattern_show_trial_num","null","<p class=block-text>Trial 3 out of 78</p>","null","","","","","","","","","","","","","","","","","","","","","","","","","",""
"","","","","","image-keyboard-response","150","935242","0.0-3.0-5.0-1.2","60de263c69ce74cd6a2d11d8","A3","batch1","pattern_response","1217.2999999523163","stim/yes_49_hor_w1_b.png","f","pattern_70","f","true","","","","1217.2999999523163","true","3","","","","","","","","","","","","","","","","",""
"","","","","","html-keyboard-response","151","936558","0.0-3.0-5.0-0.3","60de263c69ce74cd6a2d11d8","A3","batch1","pattern_show_trial_num","null","<p class=block-text>Trial 4 out of 78</p>","null","","","","","","","","","","","","","","","","","","","","","","","","","",""
"","","","","","image-keyboard-response","152","937532","0.0-3.0-5.0-1.3","60de263c69ce74cd6a2d11d8","A3","batch1","pattern_response","973.3999998569489","stim/yes_26_dia_w2_w.png","f","pattern_50","f","true","","","","973.3999998569489","true","4","","","","","","","","","","","","","","","","",""
"","","","","","html-keyboard-response","153","938856","0.0-3.0-5.0-0.4","60de263c69ce74cd6a2d11d8","A3","batch1","pattern_show_trial_num","null","<p class=block-text>Trial 5 out of 78</p>","null","","","","","","","","","","","","","","","","","","","","","","","","","",""
"","","","","","image-keyboard-response","154","941673","0.0-3.0-5.0-1.4","60de263c69ce74cd6a2d11d8","A3","batch1","pattern_response","2816.7000000476837","stim/no_43_2_b.png","j","pattern_23","j","true","","","","2816.7000000476837","true","5","","","","","","","","","","","","","","","","",""
"","","","","","html-keyboard-response","155","942998","0.0-3.0-5.0-0.5","60de263c69ce74cd6a2d11d8","A3","batch1","pattern_show_trial_num","null","<p class=block-text>Trial 6 out of 78</p>","null","","","","","","","","","","","","","","","","","","","","","","","","","",""
"","","","","","image-keyboard-response","156","944543","0.0-3.0-5.0-1.5","60de263c69ce74cd6a2d11d8","A3","batch1","pattern_response","1544.2000000476837","stim/yes_23_ver_b1.png","j","pattern_48","f","false","","","","1544.2000000476837","false","5","","","","","","","","","","","","","","","","",""
"","","","","","html-keyboard-response","157","945863","0.0-3.0-5.0-0.6","60de263c69ce74cd6a2d11d8","A3","batch1","pattern_show_trial_num","null","<p class=block-text>Trial 7 out of 78</p>","null","","","","","","","","","","","","","","","","","","","","","","","","","",""
"","","","","","image-keyboard-response","158","947235","0.0-3.0-5.0-1.6","60de263c69ce74cd6a2d11d8","A3","batch1","pattern_response","1369.9000000953674","stim/yes_33_dia_w1_w.png","f","pattern_56","f","true","","","","1369.9000000953674","true","6","","","","","","","","","","","","","","","","",""
"","","","","","html-keyboard-response","159","948549","0.0-3.0-5.0-0.7","60de263c69ce74cd6a2d11d8","A3","batch1","pattern_show_trial_num","null","<p class=block-text>Trial 8 out of 78</p>","null","","","","","","","","","","","","","","","","","","","","","","","","","",""
"","","","","","image-keyboard-response","160","951491","0.0-3.0-5.0-1.7","60de263c69ce74cd6a2d11d8","A3","batch1","pattern_response","2941.100000143051","stim/yes_44_ver_w1_w.png","j","pattern_66","f","false","","","","2941.100000143051","false","6","","","","","","","","","","","","","","","","",""
"","","","","","html-keyboard-response","161","952809","0.0-3.0-5.0-0.8","60de263c69ce74cd6a2d11d8","A3","batch1","pattern_show_trial_num","null","<p class=block-text>Trial 9 out of 78</p>","null","","","","","","","","","","","","","","","","","","","","","","","","","",""
"","","","","","image-keyboard-response","162","953830","0.0-3.0-5.0-1.8","60de263c69ce74cd6a2d11d8","A3","batch1","pattern_response","1019.4000000953674","stim/no_15_1_w.png","j","pattern_03","j","true","","","","1019.4000000953674","true","7","","","","","","","","","","","","","","","","",""
"","","","","","html-keyboard-response","163","955154","0.0-3.0-5.0-0.9","60de263c69ce74cd6a2d11d8","A3","batch1","pattern_show_trial_num","null","<p class=block-text>Trial 10 out of 78</p>","null","","","","","","","","","","","","","","","","","","","","","","","","","",""
"","","","","","image-keyboard-response","164","957694","0.0-3.0-5.0-1.9","60de263c69ce74cd6a2d11d8","A3","batch1","pattern_response","2539","stim/yes_58_dia_w1_w.png","f","pattern_76","f","true","","","","2539","true","8","","","","","","","","","","","","","","","","",""
"","","","","","html-keyboard-response","165","959012","0.0-3.0-5.0-0.10","60de263c69ce74cd6a2d11d8","A3","batch1","pattern_show_trial_num","null","<p class=block-text>Trial 11 out of 78</p>","null","","","","","","","","","","","","","","","","","","","","","","","","","",""
"","","","","","image-keyboard-response","166","961397","0.0-3.0-5.0-1.10","60de263c69ce74cd6a2d11d8","A3","batch1","pattern_response","2383.7000000476837","stim/no_28_2.png","j","pattern_11","j","true","","","","2383.7000000476837","true","9","","","","","","","","","","","","","","","","",""
"","","","","","html-keyboard-response","167","962717","0.0-3.0-5.0-0.11","60de263c69ce74cd6a2d11d8","A3","batch1","pattern_show_trial_num","null","<p class=block-text>Trial 12 out of 78</p>","null","","","","","","","","","","","","","","","","","","","","","","","","","",""
"","","","","","image-keyboard-response","168","966230","0.0-3.0-5.0-1.11","60de263c69ce74cd6a2d11d8","A3","batch1","pattern_response","3511.7999999523163","stim/no_45_1_w.png","j","pattern_25","j","true","","","","3511.7999999523163","true","10","","","","","","","","","","","","","","","","",""
"","","","","","html-keyboard-response","169","967546","0.0-3.0-5.0-0.12","60de263c69ce74cd6a2d11d8","A3","batch1","pattern_show_trial_num","null","<p class=block-text>Trial 13 out of 78</p>","null","","","","","","","","","","","","","","","","","","","","","","","","","",""
"","","","","","image-keyboard-response","170","971477","0.0-3.0-5.0-1.12","60de263c69ce74cd6a2d11d8","A3","batch1","pattern_response","3929.4000000953674","stim/yes_63_dia_b1.png","f","pattern_78","f","true","","","","3929.4000000953674","true","11","","","","","","","","","","","","","","","","",""
"","","","","","html-keyboard-response","171","972783","0.0-3.0-5.0-0.13","60de263c69ce74cd6a2d11d8","A3","batch1","pattern_show_trial_num","null","<p class=block-text>Trial 14 out of 78</p>","null","","","","","","","","","","","","","","","","","","","","","","","","","",""
"","","","","","image-keyboard-response","172","974154","0.0-3.0-5.0-1.13","60de263c69ce74cd6a2d11d8","A3","batch1","pattern_response","1369.0999999046326","stim/no_30_1_b.png","j","pattern_13","j","true","","","","1369.0999999046326","true","12","","","","","","","","","","","","","","","","",""
"","","","","","html-keyboard-response","173","975459","0.0-3.0-5.0-0.14","60de263c69ce74cd6a2d11d8","A3","batch1","pattern_show_trial_num","null","<p class=block-text>Trial 15 out of 78</p>","null","","","","","","","","","","","","","","","","","","","","","","","","","",""
"","","","","","image-keyboard-response","174","979192","0.0-3.0-5.0-1.14","60de263c69ce74cd6a2d11d8","A3","batch1","pattern_response","3731.5999999046326","stim/no_47_1_b.png","j","pattern_27","j","true","","","","3731.5999999046326","true","13","","","","","","","","","","","","","","","","",""
"","","","","","html-keyboard-response","175","980508","0.0-3.0-5.0-0.15","60de263c69ce74cd6a2d11d8","A3","batch1","pattern_show_trial_num","null","<p class=block-text>Trial 16 out of 78</p>","null","","","","","","","","","","","","","","","","","","","","","","","","","",""
"","","","","","image-keyboard-response","176","981964","0.0-3.0-5.0-1.15","60de263c69ce74cd6a2d11d8","A3","batch1","pattern_response","1454.9000000953674","stim/yes_51_dia_b1.png","f","pattern_72","f","true","","","","1454.9000000953674","true","14","","","","","","","","","","","","","","","","",""
"","","","","","html-keyboard-response","177","983279","0.0-3.0-5.0-0.16","60de263c69ce74cd6a2d11d8","A3","batch1","pattern_show_trial_num","null","<p class=block-text>Trial 17 out of 78</p>","null","","","","","","","","","","","","","","","","","","","","","","","","","",""
"","","","","","image-keyboard-response","178","983961","0.0-3.0-5.0-1.16","60de263c69ce74cd6a2d11d8","A3","batch1","pattern_response","681.0999999046326","stim/yes_29_hor_b1_b.png","f","pattern_52","f","true","","","","681.0999999046326","true","15","","","","","","","","","","","","","","","","",""
"","","","","","html-keyboard-response","179","985277","0.0-3.0-5.0-0.17","60de263c69ce74cd6a2d11d8","A3","batch1","pattern_show_trial_num","null","<p class=block-text>Trial 18 out of 78</p>","null","","","","","","","","","","","","","","","","","","","","","","","","","",""
"","","","","","image-keyboard-response","180","988672","0.0-3.0-5.0-1.17","60de263c69ce74cd6a2d11d8","A3","batch1","pattern_response","3394.2999999523163","stim/no_49_2_b.png","j","pattern_29","j","true","","","","3394.2999999523163","true","16","","","","","","","","","","","","","","","","",""
"","","","","","html-keyboard-response","181","989990","0.0-3.0-5.0-0.18","60de263c69ce74cd6a2d11d8","A3","batch1","pattern_show_trial_num","null","<p class=block-text>Trial 19 out of 78</p>","null","","","","","","","","","","","","","","","","","","","","","","","","","",""
"","","","","","image-keyboard-response","182","990884","0.0-3.0-5.0-1.18","60de263c69ce74cd6a2d11d8","A3","batch1","pattern_response","892.7999999523163","stim/yes_15_dia_b1u_b.png","f","pattern_44","f","true","","","","892.7999999523163","true","17","","","","","","","","","","","","","","","","",""
"","","","","","html-keyboard-response","183","992205","0.0-3.0-5.0-0.19","60de263c69ce74cd6a2d11d8","A3","batch1","pattern_show_trial_num","null","<p class=block-text>Trial 20 out of 78</p>","null","","","","","","","","","","","","","","","","","","","","","","","","","",""
"","","","","","image-keyboard-response","184","993436","0.0-3.0-5.0-1.19","60de263c69ce74cd6a2d11d8","A3","batch1","pattern_response","1230.1999998092651","stim/yes_39_hor_w1_w.png","f","pattern_62","f","true","","","","1230.1999998092651","true","18","","","","","","","","","","","","","","","","",""
"","","","","","html-keyboard-response","185","994761","0.0-3.0-5.0-0.20","60de263c69ce74cd6a2d11d8","A3","batch1","pattern_show_trial_num","null","<p class=block-text>Trial 21 out of 78</p>","null","","","","","","","","","","","","","","","","","","","","","","","","","",""
"","","","","","image-keyboard-response","186","998873","0.0-3.0-5.0-1.20","60de263c69ce74cd6a2d11d8","A3","batch1","pattern_response","4110.599999904633","stim/no_51_1.png","j","pattern_31","j","true","","","","4110.599999904633","true","19","","","","","","","","","","","","","","","","",""
"","","","","","html-keyboard-response","187","1000202","0.0-3.0-5.0-0.21","60de263c69ce74cd6a2d11d8","A3","batch1","pattern_show_trial_num","null","<p class=block-text>Trial 22 out of 78</p>","null","","","","","","","","","","","","","","","","","","","","","","","","","",""
"","","","","","image-keyboard-response","188","1001217","0.0-3.0-5.0-1.21","60de263c69ce74cd6a2d11d8","A3","batch1","pattern_response","1012.5","stim/no_22_1_b.png","j","pattern_07","j","true","","","","1012.5","true","20","","","","","","","","","","","","","","","","",""
"","","","","","html-keyboard-response","189","1002544","0.0-3.0-5.0-0.22","60de263c69ce74cd6a2d11d8","A3","batch1","pattern_show_trial_num","null","<p class=block-text>Trial 23 out of 78</p>","null","","","","","","","","","","","","","","","","","","","","","","","","","",""
"","","","","","image-keyboard-response","190","1003574","0.0-3.0-5.0-1.22","60de263c69ce74cd6a2d11d8","A3","batch1","pattern_response","1029.2999999523163","stim/yes_37_hor_w1_w.png","f","pattern_60","f","true","","","","1029.2999999523163","true","21","","","","","","","","","","","","","","","","",""
"","","","","","html-keyboard-response","191","1004894","0.0-3.0-5.0-0.23","60de263c69ce74cd6a2d11d8","A3","batch1","pattern_show_trial_num","null","<p class=block-text>Trial 24 out of 78</p>","null","","","","","","","","","","","","","","","","","","","","","","","","","",""
"","","","","","image-keyboard-response","192","1006171","0.0-3.0-5.0-1.23","60de263c69ce74cd6a2d11d8","A3","batch1","pattern_response","1276.5999999046326","stim/yes_53_ver_b1_b.png","f","pattern_74","f","true","","","","1276.5999999046326","true","22","","","","","","","","","","","","","","","","",""
"","","","","","html-keyboard-response","193","1007495","0.0-3.0-5.0-0.24","60de263c69ce74cd6a2d11d8","A3","batch1","pattern_show_trial_num","null","<p class=block-text>Trial 25 out of 78</p>","null","","","","","","","","","","","","","","","","","","","","","","","","","",""
"","","","","","image-keyboard-response","194","1008766","0.0-3.0-5.0-1.24","60de263c69ce74cd6a2d11d8","A3","batch1","pattern_response","1270","stim/no_18_1_b.png","j","pattern_05","j","true","","","","1270","true","23","","","","","","","","","","","","","","","","",""
"","","","","","html-keyboard-response","195","1010078","0.0-3.0-5.0-0.25","60de263c69ce74cd6a2d11d8","A3","batch1","pattern_show_trial_num","null","<p class=block-text>Trial 26 out of 78</p>","null","","","","","","","","","","","","","","","","","","","","","","","","","",""
"","","","","","image-keyboard-response","196","1010908","0.0-3.0-5.0-1.25","60de263c69ce74cd6a2d11d8","A3","batch1","pattern_response","828.5","stim/no_12_1.png","j","pattern_01","j","true","","","","828.5","true","24","","","","","","","","","","","","","","","","",""
"","","","","","html-keyboard-response","197","1012233","0.0-3.0-5.0-0.26","60de263c69ce74cd6a2d11d8","A3","batch1","pattern_show_trial_num","null","<p class=block-text>Trial 27 out of 78</p>","null","","","","","","","","","","","","","","","","","","","","","","","","","",""
"","","","","","image-keyboard-response","198","1015216","0.0-3.0-5.0-1.26","60de263c69ce74cd6a2d11d8","A3","batch1","pattern_response","2981.600000143051","stim/no_33_1_b.png","j","pattern_15","j","true","","","","2981.600000143051","true","25","","","","","","","","","","","","","","","","",""
"","","","","","html-keyboard-response","199","1016537","0.0-3.0-5.0-0.27","60de263c69ce74cd6a2d11d8","A3","batch1","pattern_show_trial_num","null","<p class=block-text>Trial 28 out of 78</p>","null","","","","","","","","","","","","","","","","","","","","","","","","","",""
"","","","","","image-keyboard-response","200","1018960","0.0-3.0-5.0-1.27","60de263c69ce74cd6a2d11d8","A3","batch1","pattern_response","2421.2999999523163","stim/no_25_1_b.png","j","pattern_09","j","true","","","","2421.2999999523163","true","26","","","","","","","","","","","","","","","","",""
"","","","","","html-keyboard-response","201","1020271","0.0-3.0-5.0-0.28","60de263c69ce74cd6a2d11d8","A3","batch1","pattern_show_trial_num","null","<p class=block-text>Trial 29 out of 78</p>","null","","","","","","","","","","","","","","","","","","","","","","","","","",""
"","","","","","image-keyboard-response","202","1022750","0.0-3.0-5.0-1.28","60de263c69ce74cd6a2d11d8","A3","batch1","pattern_response","2477.5","stim/yes_42_dia_w1_w.png","j","pattern_64","f","false","","","","2477.5","false","26","","","","","","","","","","","","","","","","",""
"","","","","","html-keyboard-response","203","1024058","0.0-3.0-5.0-0.29","60de263c69ce74cd6a2d11d8","A3","batch1","pattern_show_trial_num","null","<p class=block-text>Trial 30 out of 78</p>","null","","","","","","","","","","","","","","","","","","","","","","","","","",""
"","","","","","image-keyboard-response","204","1025027","0.0-3.0-5.0-1.29","60de263c69ce74cd6a2d11d8","A3","batch1","pattern_response","967.2999999523163","stim/yes_46_ver_b1_b.png","f","pattern_68","f","true","","","","967.2999999523163","true","27","","","","","","","","","","","","","","","","",""
"","","","","","html-keyboard-response","205","1026351","0.0-3.0-5.0-0.30","60de263c69ce74cd6a2d11d8","A3","batch1","pattern_show_trial_num","null","<p class=block-text>Trial 31 out of 78</p>","null","","","","","","","","","","","","","","","","","","","","","","","","","",""
"","","","","","image-keyboard-response","206","1027174","0.0-3.0-5.0-1.30","60de263c69ce74cd6a2d11d8","A3","batch1","pattern_response","821.8999998569489","stim/yes_17_ver_b1_b.png","f","pattern_46","f","true","","","","821.8999998569489","true","28","","","","","","","","","","","","","","","","",""
"","","","","","html-keyboard-response","207","1028487","0.0-3.0-5.0-0.31","60de263c69ce74cd6a2d11d8","A3","batch1","pattern_show_trial_num","null","<p class=block-text>Trial 32 out of 78</p>","null","","","","","","","","","","","","","","","","","","","","","","","","","",""
"","","","","","image-keyboard-response","208","1029237","0.0-3.0-5.0-1.31","60de263c69ce74cd6a2d11d8","A3","batch1","pattern_response","749.4000000953674","stim/yes_12_hor_w1_w.png","f","pattern_42","f","true","","","","749.4000000953674","true","29","","","","","","","","","","","","","","","","",""
"","","","","","html-keyboard-response","209","1030552","0.0-3.0-5.0-0.32","60de263c69ce74cd6a2d11d8","A3","batch1","pattern_show_trial_num","null","<p class=block-text>Trial 33 out of 78</p>","null","","","","","","","","","","","","","","","","","","","","","","","","","",""
"","","","","","image-keyboard-response","210","1034481","0.0-3.0-5.0-1.32","60de263c69ce74cd6a2d11d8","A3","batch1","pattern_response","3928.699999809265","stim/no_58_1_w.png","j","pattern_35","j","true","","","","3928.699999809265","true","30","","","","","","","","","","","","","","","","",""
"","","","","","html-keyboard-response","211","1035797","0.0-3.0-5.0-0.33","60de263c69ce74cd6a2d11d8","A3","batch1","pattern_show_trial_num","null","<p class=block-text>Trial 34 out of 78</p>","null","","","","","","","","","","","","","","","","","","","","","","","","","",""
"","","","","","image-keyboard-response","212","1037474","0.0-3.0-5.0-1.33","60de263c69ce74cd6a2d11d8","A3","batch1","pattern_response","1675.3999998569489","stim/yes_70_ver_b1.png","f","pattern_80","f","true","","","","1675.3999998569489","true","31","","","","","","","","","","","","","","","","",""
"","","","","","html-keyboard-response","213","1038792","0.0-3.0-5.0-0.34","60de263c69ce74cd6a2d11d8","A3","batch1","pattern_show_trial_num","null","<p class=block-text>Trial 35 out of 78</p>","null","","","","","","","","","","","","","","","","","","","","","","","","","",""
"","","","","","image-keyboard-response","214","1043194","0.0-3.0-5.0-1.34","60de263c69ce74cd6a2d11d8","A3","batch1","pattern_response","4399.700000047684","stim/no_67_1.png","j","pattern_39","j","true","","","","4399.700000047684","true","32","","","","","","","","","","","","","","","","",""
"","","","","","html-keyboard-response","215","1044514","0.0-3.0-5.0-0.35","60de263c69ce74cd6a2d11d8","A3","batch1","pattern_show_trial_num","null","<p class=block-text>Trial 36 out of 78</p>","null","","","","","","","","","","","","","","","","","","","","","","","","","",""
"","","","","","image-keyboard-response","216","1048284","0.0-3.0-5.0-1.35","60de263c69ce74cd6a2d11d8","A3","batch1","pattern_response","3768.5","stim/no_53_1_b.png","j","pattern_33","j","true","","","","3768.5","true","33","","","","","","","","","","","","","","","","",""
"","","","","","html-keyboard-response","217","1049602","0.0-3.0-5.0-0.36","60de263c69ce74cd6a2d11d8","A3","batch1","pattern_show_trial_num","null","<p class=block-text>Trial 37 out of 78</p>","null","","","","","","","","","","","","","","","","","","","","","","","","","",""
"","","","","","image-keyboard-response","218","1053185","0.0-3.0-5.0-1.36","60de263c69ce74cd6a2d11d8","A3","batch1","pattern_response","3581.7999999523163","stim/no_36_1_b.png","j","pattern_17","j","true","","","","3581.7999999523163","true","34","","","","","","","","","","","","","","","","",""
"","","","","","html-keyboard-response","219","1054500","0.0-3.0-5.0-0.37","60de263c69ce74cd6a2d11d8","A3","batch1","pattern_show_trial_num","null","<p class=block-text>Trial 38 out of 78</p>","null","","","","","","","","","","","","","","","","","","","","","","","","","",""
"","","","","","image-keyboard-response","220","1057627","0.0-3.0-5.0-1.37","60de263c69ce74cd6a2d11d8","A3","batch1","pattern_response","3125.0999999046326","stim/no_39_1_w.png","j","pattern_21","j","true","","","","3125.0999999046326","true","35","","","","","","","","","","","","","","","","",""
"","","","","","html-keyboard-response","221","1058940","0.0-3.0-5.0-0.38","60de263c69ce74cd6a2d11d8","A3","batch1","pattern_show_trial_num","null","<p class=block-text>Trial 39 out of 78</p>","null","","","","","","","","","","","","","","","","","","","","","","","","","",""
"","","","","","image-keyboard-response","222","1060110","0.0-3.0-5.0-1.38","60de263c69ce74cd6a2d11d8","A3","batch1","pattern_response","1168.8999998569489","stim/yes_30_ver_b1_b.png","f","pattern_54","f","true","","","","1168.8999998569489","true","36","","","","","","","","","","","","","","","","",""
"","","","","","image-keyboard-response","223","1062621","0.0-3.0-6.0","60de263c69ce74cd6a2d11d8","A3","batch1","attention_check","1996.9000000953674","stim/empty_board.png","j","","j","true","","","","","","","500","[""f"",""j""]","","","","","","","","","","","","","","",""
"","","","","","html-keyboard-response","224","1063426","0.0-3.0-7.0-0.0","60de263c69ce74cd6a2d11d8","A3","batch1","pattern_show_trial_num","null","<p class=block-text>Trial 40 out of 78</p>","null","","","","","","","","","","","","","","","","","","","","","","","","","",""
"","","","","","image-keyboard-response","225","1065238","0.0-3.0-7.0-1.0","60de263c69ce74cd6a2d11d8","A3","batch1","pattern_response","1810.7000000476837","stim/yes_35_dia_b1.png","f","pattern_57","f","true","","","","1810.7000000476837","true","37","","","","","","","","","","","","","","","","",""
"","","","","","html-keyboard-response","226","1066561","0.0-3.0-7.0-0.1","60de263c69ce74cd6a2d11d8","A3","batch1","pattern_show_trial_num","null","<p class=block-text>Trial 41 out of 78</p>","null","","","","","","","","","","","","","","","","","","","","","","","","","",""
"","","","","","image-keyboard-response","227","1068098","0.0-3.0-7.0-1.1","60de263c69ce74cd6a2d11d8","A3","batch1","pattern_response","1535.3999998569489","stim/no_23_1.png","j","pattern_08","j","true","","","","1535.3999998569489","true","38","","","","","","","","","","","","","","","","",""
"","","","","","html-keyboard-response","228","1069423","0.0-3.0-7.0-0.2","60de263c69ce74cd6a2d11d8","A3","batch1","pattern_show_trial_num","null","<p class=block-text>Trial 42 out of 78</p>","null","","","","","","","","","","","","","","","","","","","","","","","","","",""
"","","","","","image-keyboard-response","229","1070464","0.0-3.0-7.0-1.2","60de263c69ce74cd6a2d11d8","A3","batch1","pattern_response","1039.8999998569489","stim/yes_28_ver_b1.png","f","pattern_51","f","true","","","","1039.8999998569489","true","39","","","","","","","","","","","","","","","","",""
"","","","","","html-keyboard-response","230","1071780","0.0-3.0-7.0-0.3","60de263c69ce74cd6a2d11d8","A3","batch1","pattern_show_trial_num","null","<p class=block-text>Trial 43 out of 78</p>","null","","","","","","","","","","","","","","","","","","","","","","","","","",""
"","","","","","image-keyboard-response","231","1072573","0.0-3.0-7.0-1.3","60de263c69ce74cd6a2d11d8","A3","batch1","pattern_response","792.5","stim/yes_25_hor_b1_b.png","f","pattern_49","f","true","","","","792.5","true","40","","","","","","","","","","","","","","","","",""
"","","","","","html-keyboard-response","232","1073894","0.0-3.0-7.0-0.4","60de263c69ce74cd6a2d11d8","A3","batch1","pattern_show_trial_num","null","<p class=block-text>Trial 44 out of 78</p>","null","","","","","","","","","","","","","","","","","","","","","","","","","",""
"","","","","","image-keyboard-response","233","1078166","0.0-3.0-7.0-1.4","60de263c69ce74cd6a2d11d8","A3","batch1","pattern_response","4271","stim/no_55_1_w.png","j","pattern_34","j","true","","","","4271","true","41","","","","","","","","","","","","","","","","",""
"","","","","","html-keyboard-response","234","1079492","0.0-3.0-7.0-0.5","60de263c69ce74cd6a2d11d8","A3","batch1","pattern_show_trial_num","null","<p class=block-text>Trial 45 out of 78</p>","null","","","","","","","","","","","","","","","","","","","","","","","","","",""
"","","","","","image-keyboard-response","235","1084751","0.0-3.0-7.0-1.5","60de263c69ce74cd6a2d11d8","A3","batch1","pattern_response","5258.099999904633","stim/yes_48_dia_w1_w.png","f","pattern_69","f","true","","","","5258.099999904633","true","42","","","","","","","","","","","","","","","","",""
"","","","","","html-keyboard-response","236","1086067","0.0-3.0-7.0-0.6","60de263c69ce74cd6a2d11d8","A3","batch1","pattern_show_trial_num","null","<p class=block-text>Trial 46 out of 78</p>","null","","","","","","","","","","","","","","","","","","","","","","","","","",""
"","","","","","image-keyboard-response","237","1088648","0.0-3.0-7.0-1.6","60de263c69ce74cd6a2d11d8","A3","batch1","pattern_response","2579.2000000476837","stim/yes_40_dia_b1_b.png","f","pattern_63","f","true","","","","2579.2000000476837","true","43","","","","","","","","","","","","","","","","",""
"","","","","","html-keyboard-response","238","1089967","0.0-3.0-7.0-0.7","60de263c69ce74cd6a2d11d8","A3","batch1","pattern_show_trial_num","null","<p class=block-text>Trial 47 out of 78</p>","null","","","","","","","","","","","","","","","","","","","","","","","","","",""
"","","","","","image-keyboard-response","239","1091261","0.0-3.0-7.0-1.7","60de263c69ce74cd6a2d11d8","A3","batch1","pattern_response","1293.2000000476837","stim/yes_17_dia_w1.png","f","pattern_45","f","true","","","","1293.2000000476837","true","44","","","","","","","","","","","","","","","","",""
"","","","","","html-keyboard-response","240","1092577","0.0-3.0-7.0-0.8","60de263c69ce74cd6a2d11d8","A3","batch1","pattern_show_trial_num","null","<p class=block-text>Trial 48 out of 78</p>","null","","","","","","","","","","","","","","","","","","","","","","","","","",""
"","","","","","image-keyboard-response","241","1094328","0.0-3.0-7.0-1.8","60de263c69ce74cd6a2d11d8","A3","batch1","pattern_response","1750.0999999046326","stim/yes_22_ver_w1.png","j","pattern_47","f","false","","","","1750.0999999046326","false","44","","","","","","","","","","","","","","","","",""
"","","","","","html-keyboard-response","242","1095641","0.0-3.0-7.0-0.9","60de263c69ce74cd6a2d11d8","A3","batch1","pattern_show_trial_num","null","<p class=block-text>Trial 49 out of 78</p>","null","","","","","","","","","","","","","","","","","","","","","","","","","",""
"","","","","","image-keyboard-response","243","1100382","0.0-3.0-7.0-1.9","60de263c69ce74cd6a2d11d8","A3","batch1","pattern_response","4740.300000190735","stim/no_44_1.png","j","pattern_24","j","true","","","","4740.300000190735","true","45","","","","","","","","","","","","","","","","",""
"","","","","","html-keyboard-response","244","1101704","0.0-3.0-7.0-0.10","60de263c69ce74cd6a2d11d8","A3","batch1","pattern_show_trial_num","null","<p class=block-text>Trial 50 out of 78</p>","null","","","","","","","","","","","","","","","","","","","","","","","","","",""
"","","","","","image-keyboard-response","245","1103196","0.0-3.0-7.0-1.10","60de263c69ce74cd6a2d11d8","A3","batch1","pattern_response","1490.4000000953674","stim/no_17_1_w.png","j","pattern_04","j","true","","","","1490.4000000953674","true","46","","","","","","","","","","","","","","","","",""
"","","","","","html-keyboard-response","246","1104507","0.0-3.0-7.0-0.11","60de263c69ce74cd6a2d11d8","A3","batch1","pattern_show_trial_num","null","<p class=block-text>Trial 51 out of 78</p>","null","","","","","","","","","","","","","","","","","","","","","","","","","",""
"","","","","","image-keyboard-response","247","1107872","0.0-3.0-7.0-1.11","60de263c69ce74cd6a2d11d8","A3","batch1","pattern_response","3363.5999999046326","stim/no_29_1_b.png","j","pattern_12","j","true","","","","3363.5999999046326","true","47","","","","","","","","","","","","","","","","",""
"","","","","","html-keyboard-response","248","1109183","0.0-3.0-7.0-0.12","60de263c69ce74cd6a2d11d8","A3","batch1","pattern_show_trial_num","null","<p class=block-text>Trial 52 out of 78</p>","null","","","","","","","","","","","","","","","","","","","","","","","","","",""
"","","","","","image-keyboard-response","249","1111178","0.0-3.0-7.0-1.12","60de263c69ce74cd6a2d11d8","A3","batch1","pattern_response","1993.5999999046326","stim/no_20_1_w.png","j","pattern_06","j","true","","","","1993.5999999046326","true","48","","","","","","","","","","","","","","","","",""
"","","","","","html-keyboard-response","250","1112493","0.0-3.0-7.0-0.13","60de263c69ce74cd6a2d11d8","A3","batch1","pattern_show_trial_num","null","<p class=block-text>Trial 53 out of 78</p>","null","","","","","","","","","","","","","","","","","","","","","","","","","",""
"","","","","","image-keyboard-response","251","1113487","0.0-3.0-7.0-1.13","60de263c69ce74cd6a2d11d8","A3","batch1","pattern_response","992.6000001430511","stim/yes_31_hor_b1.png","f","pattern_55","f","true","","","","992.6000001430511","true","49","","","","","","","","","","","","","","","","",""
"","","","","","html-keyboard-response","252","1114795","0.0-3.0-7.0-0.14","60de263c69ce74cd6a2d11d8","A3","batch1","pattern_show_trial_num","null","<p class=block-text>Trial 54 out of 78</p>","null","","","","","","","","","","","","","","","","","","","","","","","","","",""
"","","","","","image-keyboard-response","253","1120474","0.0-3.0-7.0-1.14","60de263c69ce74cd6a2d11d8","A3","batch1","pattern_response","5677.799999952316","stim/no_46_1_b.png","j","pattern_26","j","true","","","","5677.799999952316","true","50","","","","","","","","","","","","","","","","",""
"","","","","","html-keyboard-response","254","1121795","0.0-3.0-7.0-0.15","60de263c69ce74cd6a2d11d8","A3","batch1","pattern_show_trial_num","null","<p class=block-text>Trial 55 out of 78</p>","null","","","","","","","","","","","","","","","","","","","","","","","","","",""
"","","","","","image-keyboard-response","255","1125178","0.0-3.0-7.0-1.15","60de263c69ce74cd6a2d11d8","A3","batch1","pattern_response","3381.7999999523163","stim/yes_50_dia_w1.png","f","pattern_71","f","true","","","","3381.7999999523163","true","51","","","","","","","","","","","","","","","","",""
"","","","","","html-keyboard-response","256","1126489","0.0-3.0-7.0-0.16","60de263c69ce74cd6a2d11d8","A3","batch1","pattern_show_trial_num","null","<p class=block-text>Trial 56 out of 78</p>","null","","","","","","","","","","","","","","","","","","","","","","","","","",""
"","","","","","image-keyboard-response","257","1132531","0.0-3.0-7.0-1.16","60de263c69ce74cd6a2d11d8","A3","batch1","pattern_response","6039.800000190735","stim/no_62_1_w.png","j","pattern_36","j","true","","","","6039.800000190735","true","52","","","","","","","","","","","","","","","","",""
"","","","","","html-keyboard-response","258","1133840","0.0-3.0-7.0-0.17","60de263c69ce74cd6a2d11d8","A3","batch1","pattern_show_trial_num","null","<p class=block-text>Trial 57 out of 78</p>","null","","","","","","","","","","","","","","","","","","","","","","","","","",""
"","","","","","image-keyboard-response","259","1135336","0.0-3.0-7.0-1.17","60de263c69ce74cd6a2d11d8","A3","batch1","pattern_response","1494","stim/yes_45_hor_b2_b.png","f","pattern_67","f","true","","","","1494","true","53","","","","","","","","","","","","","","","","",""
"","","","","","html-keyboard-response","260","1136664","0.0-3.0-7.0-0.18","60de263c69ce74cd6a2d11d8","A3","batch1","pattern_show_trial_num","null","<p class=block-text>Trial 58 out of 78</p>","null","","","","","","","","","","","","","","","","","","","","","","","","","",""
"","","","","","image-keyboard-response","261","1140702","0.0-3.0-7.0-1.18","60de263c69ce74cd6a2d11d8","A3","batch1","pattern_response","4036.4000000953674","stim/yes_60_ver_b1_b.png","f","pattern_77","f","true","","","","4036.4000000953674","true","54","","","","","","","","","","","","","","","","",""
"","","","","","html-keyboard-response","262","1142006","0.0-3.0-7.0-0.19","60de263c69ce74cd6a2d11d8","A3","batch1","pattern_show_trial_num","null","<p class=block-text>Trial 59 out of 78</p>","null","","","","","","","","","","","","","","","","","","","","","","","","","",""
"","","","","","image-keyboard-response","263","1148626","0.0-3.0-7.0-1.19","60de263c69ce74cd6a2d11d8","A3","batch1","pattern_response","6619.099999904633","stim/no_36_2_w.png","j","pattern_18","j","true","","","","6619.099999904633","true","55","","","","","","","","","","","","","","","","",""
"","","","","","html-keyboard-response","264","1149941","0.0-3.0-7.0-0.20","60de263c69ce74cd6a2d11d8","A3","batch1","pattern_show_trial_num","null","<p class=block-text>Trial 60 out of 78</p>","null","","","","","","","","","","","","","","","","","","","","","","","","","",""
"","","","","","image-keyboard-response","265","1153132","0.0-3.0-7.0-1.20","60de263c69ce74cd6a2d11d8","A3","batch1","pattern_response","3188.600000143051","stim/no_50_1.png","j","pattern_30","j","true","","","","3188.600000143051","true","56","","","","","","","","","","","","","","","","",""
"","","","","","html-keyboard-response","266","1154451","0.0-3.0-7.0-0.21","60de263c69ce74cd6a2d11d8","A3","batch1","pattern_show_trial_num","null","<p class=block-text>Trial 61 out of 78</p>","null","","","","","","","","","","","","","","","","","","","","","","","","","",""
"","","","","","image-keyboard-response","267","1156341","0.0-3.0-7.0-1.21","60de263c69ce74cd6a2d11d8","A3","batch1","pattern_response","1888.6999998092651","stim/no_34_1_b.png","j","pattern_16","j","true","","","","1888.6999998092651","true","57","","","","","","","","","","","","","","","","",""
"","","","","","html-keyboard-response","268","1157652","0.0-3.0-7.0-0.22","60de263c69ce74cd6a2d11d8","A3","batch1","pattern_show_trial_num","null","<p class=block-text>Trial 62 out of 78</p>","null","","","","","","","","","","","","","","","","","","","","","","","","","",""
"","","","","","image-keyboard-response","269","1165064","0.0-3.0-7.0-1.22","60de263c69ce74cd6a2d11d8","A3","batch1","pattern_response","7411.599999904633","stim/no_70_2.png","j","pattern_40","j","true","","","","7411.599999904633","true","58","","","","","","","","","","","","","","","","",""
"","","","","","html-keyboard-response","270","1166380","0.0-3.0-7.0-0.23","60de263c69ce74cd6a2d11d8","A3","batch1","pattern_show_trial_num","null","<p class=block-text>Trial 63 out of 78</p>","null","","","","","","","","","","","","","","","","","","","","","","","","","",""
"","","","","","image-keyboard-response","271","1167816","0.0-3.0-7.0-1.23","60de263c69ce74cd6a2d11d8","A3","batch1","pattern_response","1434.5","stim/yes_29_ver_w1.png","f","pattern_53","f","true","","","","1434.5","true","59","","","","","","","","","","","","","","","","",""
"","","","","","html-keyboard-response","272","1169130","0.0-3.0-7.0-0.24","60de263c69ce74cd6a2d11d8","A3","batch1","pattern_show_trial_num","null","<p class=block-text>Trial 64 out of 78</p>","null","","","","","","","","","","","","","","","","","","","","","","","","","",""
"","","","","","image-keyboard-response","273","1170498","0.0-3.0-7.0-1.24","60de263c69ce74cd6a2d11d8","A3","batch1","pattern_response","1367.2999999523163","stim/no_13_2_b.png","j","pattern_02","j","true","","","","1367.2999999523163","true","60","","","","","","","","","","","","","","","","",""
"","","","","","html-keyboard-response","274","1171813","0.0-3.0-7.0-0.25","60de263c69ce74cd6a2d11d8","A3","batch1","pattern_show_trial_num","null","<p class=block-text>Trial 65 out of 78</p>","null","","","","","","","","","","","","","","","","","","","","","","","","","",""
"","","","","","image-keyboard-response","275","1175152","0.0-3.0-7.0-1.25","60de263c69ce74cd6a2d11d8","A3","batch1","pattern_response","3338.2000000476837","stim/yes_37_dia_w1.png","j","pattern_59","f","false","","","","3338.2000000476837","false","60","","","","","","","","","","","","","","","","",""
"","","","","","html-keyboard-response","276","1176473","0.0-3.0-7.0-0.26","60de263c69ce74cd6a2d11d8","A3","batch1","pattern_show_trial_num","null","<p class=block-text>Trial 66 out of 78</p>","null","","","","","","","","","","","","","","","","","","","","","","","","","",""
"","","","","","image-keyboard-response","277","1177522","0.0-3.0-7.0-1.26","60de263c69ce74cd6a2d11d8","A3","batch1","pattern_response","1047.8999998569489","stim/yes_52_ver_w1.png","f","pattern_73","f","true","","","","1047.8999998569489","true","61","","","","","","","","","","","","","","","","",""
"","","","","","html-keyboard-response","278","1178838","0.0-3.0-7.0-0.27","60de263c69ce74cd6a2d11d8","A3","batch1","pattern_show_trial_num","null","<p class=block-text>Trial 67 out of 78</p>","null","","","","","","","","","","","","","","","","","","","","","","","","","",""
"","","","","","image-keyboard-response","279","1180547","0.0-3.0-7.0-1.27","60de263c69ce74cd6a2d11d8","A3","batch1","pattern_response","1707.2000000476837","stim/yes_38_hor_b1_b.png","f","pattern_61","f","true","","","","1707.2000000476837","true","62","","","","","","","","","","","","","","","","",""
"","","","","","html-keyboard-response","280","1181871","0.0-3.0-7.0-0.28","60de263c69ce74cd6a2d11d8","A3","batch1","pattern_show_trial_num","null","<p class=block-text>Trial 68 out of 78</p>","null","","","","","","","","","","","","","","","","","","","","","","","","","",""
"","","","","","image-keyboard-response","281","1184585","0.0-3.0-7.0-1.28","60de263c69ce74cd6a2d11d8","A3","batch1","pattern_response","2713","stim/yes_67_hor_b1.png","f","pattern_79","f","true","","","","2713","true","63","","","","","","","","","","","","","","","","",""
"","","","","","html-keyboard-response","282","1185907","0.0-3.0-7.0-0.29","60de263c69ce74cd6a2d11d8","A3","batch1","pattern_show_trial_num","null","<p class=block-text>Trial 69 out of 78</p>","null","","","","","","","","","","","","","","","","","","","","","","","","","",""
"","","","","","image-keyboard-response","283","1187397","0.0-3.0-7.0-1.29","60de263c69ce74cd6a2d11d8","A3","batch1","pattern_response","1489","stim/no_32_1_w.png","j","pattern_14","j","true","","","","1489","true","64","","","","","","","","","","","","","","","","",""
"","","","","","html-keyboard-response","284","1188714","0.0-3.0-7.0-0.30","60de263c69ce74cd6a2d11d8","A3","batch1","pattern_show_trial_num","null","<p class=block-text>Trial 70 out of 78</p>","null","","","","","","","","","","","","","","","","","","","","","","","","","",""
"","","","","","image-keyboard-response","285","1193818","0.0-3.0-7.0-1.30","60de263c69ce74cd6a2d11d8","A3","batch1","pattern_response","5102.700000047684","stim/no_38_1_b.png","j","pattern_20","j","true","","","","5102.700000047684","true","65","","","","","","","","","","","","","","","","",""
"","","","","","html-keyboard-response","286","1195139","0.0-3.0-7.0-0.31","60de263c69ce74cd6a2d11d8","A3","batch1","pattern_show_trial_num","null","<p class=block-text>Trial 71 out of 78</p>","null","","","","","","","","","","","","","","","","","","","","","","","","","",""
"","","","","","image-keyboard-response","287","1197679","0.0-3.0-7.0-1.31","60de263c69ce74cd6a2d11d8","A3","batch1","pattern_response","2538.899999856949","stim/no_42_1_w.png","j","pattern_22","j","true","","","","2538.899999856949","true","66","","","","","","","","","","","","","","","","",""
"","","","","","html-keyboard-response","288","1199000","0.0-3.0-7.0-0.32","60de263c69ce74cd6a2d11d8","A3","batch1","pattern_show_trial_num","null","<p class=block-text>Trial 72 out of 78</p>","null","","","","","","","","","","","","","","","","","","","","","","","","","",""
"","","","","","image-keyboard-response","289","1202574","0.0-3.0-7.0-1.32","60de263c69ce74cd6a2d11d8","A3","batch1","pattern_response","3572.9000000953674","stim/no_52_1.png","j","pattern_32","j","true","","","","3572.9000000953674","true","67","","","","","","","","","","","","","","","","",""
"","","","","","html-keyboard-response","290","1203894","0.0-3.0-7.0-0.33","60de263c69ce74cd6a2d11d8","A3","batch1","pattern_show_trial_num","null","<p class=block-text>Trial 73 out of 78</p>","null","","","","","","","","","","","","","","","","","","","","","","","","","",""
"","","","","","image-keyboard-response","291","1205252","0.0-3.0-7.0-1.33","60de263c69ce74cd6a2d11d8","A3","batch1","pattern_response","1356.7000000476837","stim/yes_43_ver_w1_w.png","f","pattern_65","f","true","","","","1356.7000000476837","true","68","","","","","","","","","","","","","","","","",""
"","","","","","html-keyboard-response","292","1206579","0.0-3.0-7.0-0.34","60de263c69ce74cd6a2d11d8","A3","batch1","pattern_show_trial_num","null","<p class=block-text>Trial 74 out of 78</p>","null","","","","","","","","","","","","","","","","","","","","","","","","","",""
"","","","","","image-keyboard-response","293","1217083","0.0-3.0-7.0-1.34","60de263c69ce74cd6a2d11d8","A3","batch1","pattern_response","10502.400000095367","stim/no_65_1_b.png","j","pattern_38","j","true","","","","10502.400000095367","true","69","","","","","","","","","","","","","","","","",""
"","","","","","html-keyboard-response","294","1218397","0.0-3.0-7.0-0.35","60de263c69ce74cd6a2d11d8","A3","batch1","pattern_show_trial_num","null","<p class=block-text>Trial 75 out of 78</p>","null","","","","","","","","","","","","","","","","","","","","","","","","","",""
"","","","","","image-keyboard-response","295","1220960","0.0-3.0-7.0-1.35","60de263c69ce74cd6a2d11d8","A3","batch1","pattern_response","2559.0999999046326","stim/no_26_1_w.png","j","pattern_10","j","true","","","","2559.0999999046326","true","70","","","","","","","","","","","","","","","","",""
"","","","","","html-keyboard-response","296","1222279","0.0-3.0-7.0-0.36","60de263c69ce74cd6a2d11d8","A3","batch1","pattern_show_trial_num","null","<p class=block-text>Trial 76 out of 78</p>","null","","","","","","","","","","","","","","","","","","","","","","","","","",""
"","","","","","image-keyboard-response","297","1225493","0.0-3.0-7.0-1.36","60de263c69ce74cd6a2d11d8","A3","batch1","pattern_response","3213.2999999523163","stim/no_48_1_w.png","j","pattern_28","j","true","","","","3213.2999999523163","true","71","","","","","","","","","","","","","","","","",""
"","","","","","html-keyboard-response","298","1226825","0.0-3.0-7.0-0.37","60de263c69ce74cd6a2d11d8","A3","batch1","pattern_show_trial_num","null","<p class=block-text>Trial 77 out of 78</p>","null","","","","","","","","","","","","","","","","","","","","","","","","","",""
"","","","","","image-keyboard-response","299","1227682","0.0-3.0-7.0-1.37","60de263c69ce74cd6a2d11d8","A3","batch1","pattern_response","855.1999998092651","stim/yes_14_hor_b1_w.png","f","pattern_43","f","true","","","","855.1999998092651","true","72","","","","","","","","","","","","","","","","",""
"","","","","","html-keyboard-response","300","1228995","0.0-3.0-7.0-0.38","60de263c69ce74cd6a2d11d8","A3","batch1","pattern_show_trial_num","null","<p class=block-text>Trial 78 out of 78</p>","null","","","","","","","","","","","","","","","","","","","","","","","","","",""
"","","","","","image-keyboard-response","301","1231289","0.0-3.0-7.0-1.38","60de263c69ce74cd6a2d11d8","A3","batch1","pattern_response","2293.0999999046326","stim/yes_55_hor_w1_w.png","f","pattern_75","f","true","","","","2293.0999999046326","true","73","","","","","","","","","","","","","","","","",""
"","","","","","html-button-response","302","1234007","0.0-3.0-8.0","60de263c69ce74cd6a2d11d8","A3","batch1","","2205.899999856949","<p class = block-text>This concludes the 4-in-a-row detection game.Thank you for your responses!<br>
            You responded correctly on 94% of the trials.<br>
            When you are ready, press ""Continue"" button to continue </p>","0","","","","","","","","","","","","","","","","","","","","","","","","","",""
"true","","","","","fullscreen","303","1236358","0.0-4.0-0.0","60de263c69ce74cd6a2d11d8","A3","batch1","","","","","","","","","","","","","","","","","","","","","","","","","","","","","",""
"","","","","","instructions","304","1293948","0.0-4.0-1.0-0.0-0.0","60de263c69ce74cd6a2d11d8","A3","batch1","tol-instructions","57589","","","","","","","","[{""page_index"":0,""viewing_time"":8499.700000047684},{""page_index"":1,""viewing_time"":5963.799999952316},{""page_index"":2,""viewing_time"":2733.9000000953674},{""page_index"":3,""viewing_time"":12587},{""page_index"":4,""viewing_time"":3617.199999809265},{""page_index"":5,""viewing_time"":22047.300000190735},{""page_index"":6,""viewing_time"":2139.699999809265}]","","","","","","","","","","","","","","","","","","","",""
"","","","","","html-button-response","305","1295204","0.0-4.0-1.0-1.0-0.0","60de263c69ce74cd6a2d11d8","A3","batch1","tol_enter_quiz","1254.5999999046326","<p class=block-text> Let's answer a few questions <br>","0","","","","","","","","","","","","","","","","","","","","","","","","","",""
"","","","","","html-button-response","306","1295577","0.0-4.0-1.0-1.0-1.0","60de263c69ce74cd6a2d11d8","A3","batch1","tol_quiz","372.39999985694885","<p class = block-text>True or False: You can only move the ball on top of a peg. <br></p>","1","","","false","","","","","","","","","","","","","","","","","","","","","","",""
"","","","","","html-button-response","307","1296976","0.0-4.0-1.0-1.0-2.0","60de263c69ce74cd6a2d11d8","A3","batch1","tol_quiz_feedback","1396.8999998569489","<p class = block-text>Incorrect. Remember, you can only move the ball on top of a peg.</p>","0","","","","","","","","","","","","","","","","","","","","","","","","","",""
"","","","","","html-button-response","308","1299733","0.0-4.0-1.0-1.0-3.0","60de263c69ce74cd6a2d11d8","A3","batch1","tol_quiz","2755.5","<p class = block-text>True or False: You should try to match your board with the target board with fewest moves possible. <br></p>","0","","","true","","","","","","","","","","","","","","","","","","","","","","",""
"","","","","","html-button-response","309","1300587","0.0-4.0-1.0-1.0-4.0","60de263c69ce74cd6a2d11d8","A3","batch1","tol_quiz_feedback","853.1000001430511","<p class = block-text>Correct! </p>","0","","","","","","","","","","","","","","","","","","","","","","","","","",""
"","","","","","html-button-response","310","1301477","0.0-4.0-1.0-2.0-0.0","60de263c69ce74cd6a2d11d8","A3","batch1","","888.5","<p class = block-text>You made too many incorrect choices.</p><p class = block-text>You will now repeat the instructions and quiz</p>","0","","","","","","","","","","","","","","","","","","","","","","","","","",""
"","","","","","instructions","311","1308332","0.0-4.0-1.1-0.1-0.1","60de263c69ce74cd6a2d11d8","A3","batch1","tol-instructions","6853.400000095367","","","","","","","","[{""page_index"":0,""viewing_time"":1333.2999999523163},{""page_index"":1,""viewing_time"":1162.9000000953674},{""page_index"":2,""viewing_time"":602.9000000953674},{""page_index"":3,""viewing_time"":631.5},{""page_index"":4,""viewing_time"":581.5},{""page_index"":5,""viewing_time"":581.5},{""page_index"":6,""viewing_time"":1959.5}]","","","","","","","","","","","","","","","","","","","",""
"","","","","","html-button-response","312","1309251","0.0-4.0-1.1-1.1-0.1","60de263c69ce74cd6a2d11d8","A3","batch1","tol_enter_quiz","917.8999998569489","<p class=block-text> Let's answer a few questions <br>","0","","","","","","","","","","","","","","","","","","","","","","","","","",""
"","","","","","html-button-response","313","1311692","0.0-4.0-1.1-1.1-1.1","60de263c69ce74cd6a2d11d8","A3","batch1","tol_quiz","2439.5","<p class = block-text>True or False: You can only move the ball on top of a peg. <br></p>","0","","","true","","","","","","","","","","","","","","","","","","","","","","",""
"","","","","","html-button-response","314","1312625","0.0-4.0-1.1-1.1-2.1","60de263c69ce74cd6a2d11d8","A3","batch1","tol_quiz_feedback","931.6000001430511","<p class = block-text>Correct! You can only move the ball on top of a peg.</p>","0","","","","","","","","","","","","","","","","","","","","","","","","","",""
"","","","","","html-button-response","315","1318275","0.0-4.0-1.1-1.1-3.1","60de263c69ce74cd6a2d11d8","A3","batch1","tol_quiz","5649.100000143051","<p class = block-text>True or False: You should try to match your board with the target board with fewest moves possible. <br></p>","0","","","true","","","","","","","","","","","","","","","","","","","","","","",""
"","","","","","html-button-response","316","1319158","0.0-4.0-1.1-1.1-4.1","60de263c69ce74cd6a2d11d8","A3","batch1","tol_quiz_feedback","881.5","<p class = block-text>Correct! </p>","0","","","","","","","","","","","","","","","","","","","","","","","","","",""
"","","","","","html-button-response","317","1320651","0.0-4.0-2.0","60de263c69ce74cd6a2d11d8","A3","batch1","","1492.1000001430511","<p class=block-text> Now that you've understood the game, let's practice a few easier examples before we start!<br> <br>","0","","","","","","","","","","","","","","","","","","","","","","","","","",""
"","","","","","single-stim-button","318","1323786","0.0-4.0-3.0-0.0","60de263c69ce74cd6a2d11d8","A3","batch1","tol_practice","3133","","","","","","","","","","","","","","tol_peg_2","3133","3133","0","[[1,2,0],[0,0],[0]]","1","[[1,2,0],[0,0],[3]]","practice","3133","","","","","",""
"","","","","","single-stim-button","319","1325267","0.0-4.0-3.0-1.0","60de263c69ce74cd6a2d11d8","A3","batch1","tol_practice","1480","","","","","","","","","","","","","","tol_peg_3","1480","1480","0","[[1,2,0],[0,0],[3]]","1","[[1,2,0],[0,0],[3]]","practice","1480","","","","","",""
"","","","","","poldrack-single-stim","320","1326277","0.0-4.0-4.0","60de263c69ce74cd6a2d11d8","A3","batch1","tol_feedback","-1","","","","","true","","","","","","","","","","1000","1000","500","","","","","","-1","none","true","","0",""
"","","","","","single-stim-button","321","1330643","0.0-4.0-5.0-0.0","60de263c69ce74cd6a2d11d8","A3","batch1","tol_practice","4365","","","","","","","","","","","","","","tol_peg_1","4365","4365","0","[[1,0,0],[3,0],[0]]","2","[[0,0,0],[3,1],[2]]","practice","4365","","","","","",""
"","","","","","single-stim-button","322","1331756","0.0-4.0-5.0-1.0","60de263c69ce74cd6a2d11d8","A3","batch1","tol_practice","1112","","","","","","","","","","","","","","tol_peg_3","1112","1112","0","[[1,0,0],[3,0],[2]]","2","[[0,0,0],[3,1],[2]]","practice","1112","","","","","",""
"","","","","","single-stim-button","323","1332696","0.0-4.0-5.1-0.1","60de263c69ce74cd6a2d11d8","A3","batch1","tol_practice","939","","","","","","","","","","","","","","tol_peg_1","939","939","0","[[0,0,0],[3,0],[2]]","3","[[0,0,0],[3,1],[2]]","practice","939","","","","","",""
"","","","","","single-stim-button","324","1333701","0.0-4.0-5.1-1.1","60de263c69ce74cd6a2d11d8","A3","batch1","tol_practice","1004","","","","","","","","","","","","","","tol_peg_2","1004","1004","0","[[0,0,0],[3,1],[2]]","3","[[0,0,0],[3,1],[2]]","practice","1004","","","","","",""
"","","","","","poldrack-single-stim","325","1334707","0.0-4.0-6.0","60de263c69ce74cd6a2d11d8","A3","batch1","tol_feedback","-1","","","","","true","","","","","","","","","","1000","1000","500","","","","","","-1","none","true","","0",""
"","","","","","single-stim-button","326","1337177","0.0-4.0-7.0-0.0","60de263c69ce74cd6a2d11d8","A3","batch1","tol_practice","2470","","","","","","","","","","","","","","tol_peg_2","2470","2470","0","[[1,2,0],[0,0],[0]]","4","[[1,0,0],[2,0],[3]]","practice","2470","","","","","",""
"","","","","","single-stim-button","327","1338102","0.0-4.0-7.0-1.0","60de263c69ce74cd6a2d11d8","A3","batch1","tol_practice","923","","","","","","","","","","","","","","tol_peg_3","923","923","0","[[1,2,0],[0,0],[3]]","4","[[1,0,0],[2,0],[3]]","practice","923","","","","","",""
"","","","","","single-stim-button","328","1339079","0.0-4.0-7.1-0.1","60de263c69ce74cd6a2d11d8","A3","batch1","tol_practice","975","","","","","","","","","","","","","","tol_peg_1","975","975","0","[[1,0,0],[0,0],[3]]","5","[[1,0,0],[2,0],[3]]","practice","975","","","","","",""
"","","","","","single-stim-button","329","1340234","0.0-4.0-7.1-1.1","60de263c69ce74cd6a2d11d8","A3","batch1","tol_practice","1154","","","","","","","","","","","","","","tol_peg_2","1154","1154","0","[[1,0,0],[2,0],[3]]","5","[[1,0,0],[2,0],[3]]","practice","1154","","","","","",""
"","","","","","poldrack-single-stim","330","1341235","0.0-4.0-8.0","60de263c69ce74cd6a2d11d8","A3","batch1","tol_feedback","-1","","","","","true","","","","","","","","","","1000","1000","500","","","","","","-1","none","true","","0",""
"","","","","","html-button-response","331","1342905","0.0-4.0-9.0","60de263c69ce74cd6a2d11d8","A3","batch1","tol_instruction","1668.4000000953674","<div class = centerbox><p class = center-block-text>Great job! You are done with practice trials<br>You are about to start official trials.<br> <br> Problem <strong>1</strong> out of 25 problems</p></div>","0","","","","","","","","","","","","","","","","","","","","","","","","","",""
"","","","","","single-stim-button","332","1346882","0.0-4.0-10.0-0.0","60de263c69ce74cd6a2d11d8","A3","batch1","tol_tohand","2972","","","","","","","","","","","","","","tol_peg_2","2972","2972","0","[[1,2,0],[0,0],[0]]","1","[[1,3,0],[2,0],[0]]","0","0","","","","","","3"
"","","","","","single-stim-button","333","1348396","0.0-4.0-10.0-1.0","60de263c69ce74cd6a2d11d8","A3","batch1","tol_toboard","1513","","","","","","","","","","","","","","tol_peg_3","1513","1513","0","[[1,2,0],[0,0],[3]]","1","[[1,3,0],[2,0],[0]]","0","0","","","","","","3"
"","","","","","single-stim-button","334","1349438","0.0-4.0-10.1-0.1","60de263c69ce74cd6a2d11d8","A3","batch1","tol_tohand","1041","","","","","","","","","","","","","","tol_peg_1","1041","1041","0","[[1,0,0],[0,0],[3]]","2","[[1,3,0],[2,0],[0]]","0","0","","","","","","3"
"","","","","","single-stim-button","335","1350831","0.0-4.0-10.1-1.1","60de263c69ce74cd6a2d11d8","A3","batch1","tol_toboard","1392","","","","","","","","","","","","","","tol_peg_2","1392","1392","0","[[1,0,0],[2,0],[3]]","2","[[1,3,0],[2,0],[0]]","0","0","","","","","","3"
"","","","","","single-stim-button","336","1351619","0.0-4.0-10.2-0.2","60de263c69ce74cd6a2d11d8","A3","batch1","tol_tohand","788","","","","","","","","","","","","","","tol_peg_3","788","788","0","[[1,0,0],[2,0],[0]]","3","[[1,3,0],[2,0],[0]]","0","0","","","","","","3"
"","","","","","single-stim-button","337","1352675","0.0-4.0-10.2-1.2","60de263c69ce74cd6a2d11d8","A3","batch1","tol_toboard","1055","","","","","","","","","","","","","","tol_peg_1","1055","1055","0","[[1,3,0],[2,0],[0]]","3","[[1,3,0],[2,0],[0]]","0","0","","","","","","3"
"","","","","","poldrack-single-stim","338","1353691","0.0-4.0-11.0","60de263c69ce74cd6a2d11d8","A3","batch1","tol_feedback","-1","","","","","true","","","","","","","","","","1000","1000","500","","","","","","-1","none","true","2972","4801",""
"","","","","","html-button-response","339","1355992","0.0-4.0-12.0","60de263c69ce74cd6a2d11d8","A3","batch1","tol_trial_num","2300.0999999046326","<div class = centerbox><p class = center-block-text>problem <strong>2</strong> out of 25 problems</p></div>","0","","","","","","","","","","","","","","","","","","","","","","","","","",""
"","","","","","single-stim-button","340","1359252","0.0-4.0-13.0-0.0","60de263c69ce74cd6a2d11d8","A3","batch1","tol_tohand","3258","","","","","","","","","","","","","","tol_peg_2","3258","3258","0","[[1,2,0],[0,0],[0]]","1","[[2,1,3],[0,0],[0]]","1","0","","","","","","5"
"","","","","","single-stim-button","341","1361585","0.0-4.0-13.0-1.0","60de263c69ce74cd6a2d11d8","A3","batch1","tol_toboard","2333","","","","","","","","","","","","","","tol_peg_3","2333","2333","0","[[1,2,0],[0,0],[3]]","1","[[2,1,3],[0,0],[0]]","1","0","","","","","","5"
"","","","","","single-stim-button","342","1362590","0.0-4.0-13.1-0.1","60de263c69ce74cd6a2d11d8","A3","batch1","tol_tohand","1004","","","","","","","","","","","","","","tol_peg_1","1004","1004","0","[[1,0,0],[0,0],[3]]","2","[[2,1,3],[0,0],[0]]","1","0","","","","","","5"
"","","","","","single-stim-button","343","1363688","0.0-4.0-13.1-1.1","60de263c69ce74cd6a2d11d8","A3","batch1","tol_toboard","1097","","","","","","","","","","","","","","tol_peg_2","1097","1097","0","[[1,0,0],[2,0],[3]]","2","[[2,1,3],[0,0],[0]]","1","0","","","","","","5"
"","","","","","single-stim-button","344","1375847","0.0-4.0-13.2-0.2","60de263c69ce74cd6a2d11d8","A3","batch1","tol_tohand","12158","","","","","","","","","","","","","","tol_peg_3","12158","12158","0","[[1,0,0],[2,0],[0]]","3","[[2,1,3],[0,0],[0]]","1","0","","","","","","5"
