"success","timeout","failed_images","failed_audio","failed_video","trial_type","trial_index","time_elapsed","internal_node_id","subject_id","study_id","session_id","view_history","rt","task","stimulus","response","correct","mouse_click","stim_duration","block_duration","timing_post_trial","current_position","tol_num_moves_made","tol_target","tol_problem_id","tol_rt","key_press","possible_responses","tol_correct","preplanning","tol_rt_per_trial","tol_min_moves","item","answer","spm_correct","spm_rt","fiar_detect_rt","fiar_detect_correct","total_correct_fiar_detect","post_trial_gap","choices"
"true","false","[]","[]","[]","preload","0","11065","0.0-0.0","60e4a68fea6bb239a06fc072","F1","batch6","","","","","","","","","","","","","","","","","","","","","","","","","","","","","",""
"true","","","","","fullscreen","1","29658","0.0-1.0-0.0","60e4a68fea6bb239a06fc072","F1","batch6","","","","","","","","","","","","","","","","","","","","","","","","","","","","","",""
"true","","","","","fullscreen","2","34503","0.0-2.0-0.0","60e4a68fea6bb239a06fc072","F1","batch6","","","","","","","","","","","","","","","","","","","","","","","","","","","","","",""
"","","","","","instructions","3","99996","0.0-2.0-1.0-0.0-0.0","60e4a68fea6bb239a06fc072","F1","batch6","[{""page_index"":0,""viewing_time"":15376.300000071526},{""page_index"":1,""viewing_time"":4749.599999904633},{""page_index"":2,""viewing_time"":5976.400000095367},{""page_index"":3,""viewing_time"":12328.5},{""page_index"":4,""viewing_time"":8742.699999928474},{""page_index"":5,""viewing_time"":13376.300000071526},{""page_index"":6,""viewing_time"":4940}]","65490.5","tol-instructions","","","","","","","","","","","","","","","","","","","","","","","","","","",""
"","","","","","html-button-response","4","101468","0.0-2.0-1.0-1.0-0.0","60e4a68fea6bb239a06fc072","F1","batch6","","1468.5","tol_enter_quiz","<p class=block-text> Let's answer a few questions <br>","0","","","","","","","","","","","","","","","","","","","","","","","","",""
"","","","","","html-button-response","5","106335","0.0-2.0-1.0-1.0-1.0","60e4a68fea6bb239a06fc072","F1","batch6","","4864.200000047684","tol_quiz","<p class = block-text>True or False: You can only move the ball on top of a peg. <br></p>","0","true","","","","","","","","","","","","","","","","","","","","","","","",""
"","","","","","html-button-response","6","107996","0.0-2.0-1.0-1.0-2.0","60e4a68fea6bb239a06fc072","F1","batch6","","1659","tol_quiz_feedback","<p class = block-text>Correct! You can only move the ball on top of a peg.</p>","0","","","","","","","","","","","","","","","","","","","","","","","","",""
"","","","","","html-button-response","7","112126","0.0-2.0-1.0-1.0-3.0","60e4a68fea6bb239a06fc072","F1","batch6","","4127.400000095367","tol_quiz","<p class = block-text>True or False: You should try to match your board with the target board with fewest moves possible. <br></p>","0","true","","","","","","","","","","","","","","","","","","","","","","","",""
"","","","","","html-button-response","8","113065","0.0-2.0-1.0-1.0-4.0","60e4a68fea6bb239a06fc072","F1","batch6","","936.3999999761581","tol_quiz_feedback","<p class = block-text>Correct! </p>","0","","","","","","","","","","","","","","","","","","","","","","","","",""
"","","","","","html-button-response","9","116531","0.0-2.0-2.0","60e4a68fea6bb239a06fc072","F1","batch6","","3462.6999999284744","","<p class=block-text> Now that you've understood the game, let's practice a few easier examples before we start!<br> <br>","0","","","","","","","","","","","","","","","","","","","","","","","","",""
"","","","","","single-stim-button","10","118811","0.0-2.0-3.0-0.0","60e4a68fea6bb239a06fc072","F1","batch6","","2275","tol_practice","","","","tol_peg_2","2275","2275","0","[[1,2,0],[0,0],[0]]","1","[[1,2,0],[0,0],[3]]","practice","2275","","","","","","","","","","","","","","",""
"","","","","","single-stim-button","11","120109","0.0-2.0-3.0-1.0","60e4a68fea6bb239a06fc072","F1","batch6","","1294","tol_practice","","","","tol_peg_3","1294","1294","0","[[1,2,0],[0,0],[3]]","1","[[1,2,0],[0,0],[3]]","practice","1294","","","","","","","","","","","","","","",""
"","","","","","poldrack-single-stim","12","121119","0.0-2.0-4.0","60e4a68fea6bb239a06fc072","F1","batch6","","-1","tol_feedback","","","true","","1000","1000","500","","","","","","-1","none","true","","0","","","","","","","","","",""
"","","","","","single-stim-button","13","125503","0.0-2.0-5.0-0.0","60e4a68fea6bb239a06fc072","F1","batch6","","4382","tol_practice","","","","tol_peg_1","4382","4382","0","[[1,0,0],[3,0],[0]]","2","[[0,0,0],[3,1],[2]]","practice","4382","","","","","","","","","","","","","","",""
"","","","","","single-stim-button","14","126364","0.0-2.0-5.0-1.0","60e4a68fea6bb239a06fc072","F1","batch6","","859","tol_practice","","","","tol_peg_3","859","859","0","[[1,0,0],[3,0],[2]]","2","[[0,0,0],[3,1],[2]]","practice","859","","","","","","","","","","","","","","",""
"","","","","","single-stim-button","15","128457","0.0-2.0-5.1-0.1","60e4a68fea6bb239a06fc072","F1","batch6","","2088","tol_practice","","","","tol_peg_1","2088","2088","0","[[0,0,0],[3,0],[2]]","3","[[0,0,0],[3,1],[2]]","practice","2088","","","","","","","","","","","","","","",""
"","","","","","single-stim-button","16","129476","0.0-2.0-5.1-1.1","60e4a68fea6bb239a06fc072","F1","batch6","","1017","tol_practice","","","","tol_peg_2","1017","1017","0","[[0,0,0],[3,1],[2]]","3","[[0,0,0],[3,1],[2]]","practice","1017","","","","","","","","","","","","","","",""
"","","","","","poldrack-single-stim","17","130495","0.0-2.0-6.0","60e4a68fea6bb239a06fc072","F1","batch6","","-1","tol_feedback","","","true","","1000","1000","500","","","","","","-1","none","true","","0","","","","","","","","","",""
"","","","","","single-stim-button","18","132547","0.0-2.0-7.0-0.0","60e4a68fea6bb239a06fc072","F1","batch6","","2050","tol_practice","","","","tol_peg_2","2050","2050","0","[[1,2,0],[0,0],[0]]","4","[[1,0,0],[2,0],[3]]","practice","2050","","","","","","","","","","","","","","",""
"","","","","","single-stim-button","19","132932","0.0-2.0-7.0-1.0","60e4a68fea6bb239a06fc072","F1","batch6","","383","tol_practice","","","","tol_peg_3","383","383","0","[[1,2,0],[0,0],[3]]","4","[[1,0,0],[2,0],[3]]","practice","383","","","","","","","","","","","","","","",""
"","","","","","single-stim-button","20","134108","0.0-2.0-7.1-0.1","60e4a68fea6bb239a06fc072","F1","batch6","","1175","tol_practice","","","","tol_peg_1","1175","1175","0","[[1,0,0],[0,0],[3]]","5","[[1,0,0],[2,0],[3]]","practice","1175","","","","","","","","","","","","","","",""
"","","","","","single-stim-button","21","134552","0.0-2.0-7.1-1.1","60e4a68fea6bb239a06fc072","F1","batch6","","443","tol_practice","","","","tol_peg_2","443","443","0","[[1,0,0],[2,0],[3]]","5","[[1,0,0],[2,0],[3]]","practice","443","","","","","","","","","","","","","","",""
"","","","","","poldrack-single-stim","22","135557","0.0-2.0-8.0","60e4a68fea6bb239a06fc072","F1","batch6","","-1","tol_feedback","","","true","","1000","1000","500","","","","","","-1","none","true","","0","","","","","","","","","",""
"","","","","","html-button-response","23","140539","0.0-2.0-9.0","60e4a68fea6bb239a06fc072","F1","batch6","","4980","tol_instruction","<div class = centerbox><p class = center-block-text>Great job! You are done with practice trials<br>You are about to start official trials.<br> <br> Problem <strong>1</strong> out of 25 problems</p></div>","0","","","","","","","","","","","","","","","","","","","","","","","","",""
"","","","","","single-stim-button","24","145774","0.0-2.0-10.0-0.0","60e4a68fea6bb239a06fc072","F1","batch6","","4222","tol_tohand","","","","tol_peg_1","4222","4222","0","[[1,0,0],[3,0],[0]]","1","[[1,3,0],[2,0],[0]]","0","0","","","","","","3","","","","","","","","",""
"","","","","","single-stim-button","25","146338","0.0-2.0-10.0-1.0","60e4a68fea6bb239a06fc072","F1","batch6","","563","tol_toboard","","","","tol_peg_3","563","563","0","[[1,0,0],[3,0],[2]]","1","[[1,3,0],[2,0],[0]]","0","0","","","","","","3","","","","","","","","",""
"","","","","","single-stim-button","26","147205","0.0-2.0-10.1-0.1","60e4a68fea6bb239a06fc072","F1","batch6","","866","tol_tohand","","","","tol_peg_2","866","866","0","[[1,0,0],[0,0],[2]]","2","[[1,3,0],[2,0],[0]]","0","0","","","","","","3","","","","","","","","",""
"","","","","","single-stim-button","27","147806","0.0-2.0-10.1-1.1","60e4a68fea6bb239a06fc072","F1","batch6","","600","tol_toboard","","","","tol_peg_1","600","600","0","[[1,3,0],[0,0],[2]]","2","[[1,3,0],[2,0],[0]]","0","0","","","","","","3","","","","","","","","",""
"","","","","","single-stim-button","28","148887","0.0-2.0-10.2-0.2","60e4a68fea6bb239a06fc072","F1","batch6","","1079","tol_tohand","","","","tol_peg_3","1079","1079","0","[[1,3,0],[0,0],[0]]","3","[[1,3,0],[2,0],[0]]","0","0","","","","","","3","","","","","","","","",""
"","","","","","single-stim-button","29","149480","0.0-2.0-10.2-1.2","60e4a68fea6bb239a06fc072","F1","batch6","","591","tol_toboard","","","","tol_peg_2","591","591","0","[[1,3,0],[2,0],[0]]","3","[[1,3,0],[2,0],[0]]","0","0","","","","","","3","","","","","","","","",""
"","","","","","poldrack-single-stim","30","150491","0.0-2.0-11.0","60e4a68fea6bb239a06fc072","F1","batch6","","-1","tol_feedback","","","true","","1000","1000","500","","","","","","-1","none","true","4222","6167","","","","","","","","","",""
"","","","","","html-button-response","31","151643","0.0-2.0-12.0","60e4a68fea6bb239a06fc072","F1","batch6","","1150.1999999284744","tol_trial_num","<div class = centerbox><p class = center-block-text>problem <strong>2</strong> out of 25 problems</p></div>","0","","","","","","","","","","","","","","","","","","","","","","","","",""
"","","","","","single-stim-button","32","156228","0.0-2.0-13.0-0.0","60e4a68fea6bb239a06fc072","F1","batch6","","4582","tol_tohand","","","","tol_peg_1","4582","4582","0","[[1,0,0],[3,0],[0]]","1","[[2,1,3],[0,0],[0]]","1","0","","","","","","5","","","","","","","","",""
"","","","","","single-stim-button","33","156692","0.0-2.0-13.0-1.0","60e4a68fea6bb239a06fc072","F1","batch6","","463","tol_toboard","","","","tol_peg_3","463","463","0","[[1,0,0],[3,0],[2]]","1","[[2,1,3],[0,0],[0]]","1","0","","","","","","5","","","","","","","","",""
"","","","","","single-stim-button","34","159083","0.0-2.0-13.1-0.1","60e4a68fea6bb239a06fc072","F1","batch6","","2389","tol_tohand","","","","tol_peg_1","2389","2389","0","[[0,0,0],[3,0],[2]]","2","[[2,1,3],[0,0],[0]]","1","0","","","","","","5","","","","","","","","",""
"","","","","","single-stim-button","35","166759","0.0-2.0-13.1-1.1","60e4a68fea6bb239a06fc072","F1","batch6","","7675","tol_toboard","","","","tol_peg_1","7675","7675","0","[[1,0,0],[3,0],[2]]","2","[[2,1,3],[0,0],[0]]","1","0","","","","","","5","","","","","","","","",""
"","","","","","single-stim-button","36","169298","0.0-2.0-13.2-0.2","60e4a68fea6bb239a06fc072","F1","batch6","","2536","tol_tohand","","","","tol_peg_3","2536","2536","0","[[1,0,0],[3,0],[0]]","3","[[2,1,3],[0,0],[0]]","1","0","","","","","","5","","","","","","","","",""
"","","","","","single-stim-button","37","169960","0.0-2.0-13.2-1.2","60e4a68fea6bb239a06fc072","F1","batch6","","660","tol_toboard","","","","tol_peg_2","660","660","0","[[1,0,0],[3,2],[0]]","3","[[2,1,3],[0,0],[0]]","1","0","","","","","","5","","","","","","","","",""
"","","","","","single-stim-button","38","170694","0.0-2.0-13.3-0.3","60e4a68fea6bb239a06fc072","F1","batch6","","732","tol_tohand","","","","tol_peg_1","732","732","0","[[0,0,0],[3,2],[0]]","4","[[2,1,3],[0,0],[0]]","1","0","","","","","","5","","","","","","","","",""
"","","","","","single-stim-button","39","171273","0.0-2.0-13.3-1.3","60e4a68fea6bb239a06fc072","F1","batch6","","578","tol_toboard","","","","tol_peg_3","578","578","0","[[0,0,0],[3,2],[1]]","4","[[2,1,3],[0,0],[0]]","1","0","","","","","","5","","","","","","","","",""
"","","","","","single-stim-button","40","173193","0.0-2.0-13.4-0.4","60e4a68fea6bb239a06fc072","F1","batch6","","1919","tol_tohand","","","","tol_peg_2","1919","1919","0","[[0,0,0],[3,0],[1]]","5","[[2,1,3],[0,0],[0]]","1","0","","","","","","5","","","","","","","","",""
"","","","","","single-stim-button","41","173734","0.0-2.0-13.4-1.4","60e4a68fea6bb239a06fc072","F1","batch6","","539","tol_toboard","","","","tol_peg_1","539","539","0","[[2,0,0],[3,0],[1]]","5","[[2,1,3],[0,0],[0]]","1","0","","","","","","5","","","","","","","","",""
"","","","","","single-stim-button","42","174673","0.0-2.0-13.5-0.5","60e4a68fea6bb239a06fc072","F1","batch6","","938","tol_tohand","","","","tol_peg_2","938","938","0","[[2,0,0],[0,0],[1]]","6","[[2,1,3],[0,0],[0]]","1","0","","","","","","5","","","","","","","","",""
"","","","","","single-stim-button","43","175228","0.0-2.0-13.5-1.5","60e4a68fea6bb239a06fc072","F1","batch6","","553","tol_toboard","","","","tol_peg_1","553","553","0","[[2,3,0],[0,0],[1]]","6","[[2,1,3],[0,0],[0]]","1","0","","","","","","5","","","","","","","","",""
"","","","","","single-stim-button","44","176778","0.0-2.0-13.6-0.6","60e4a68fea6bb239a06fc072","F1","batch6","","1548","tol_tohand","","","","tol_peg_1","1548","1548","0","[[2,0,0],[0,0],[1]]","7","[[2,1,3],[0,0],[0]]","1","0","","","","","","5","","","","","","","","",""
"","","","","","single-stim-button","45","178734","0.0-2.0-13.6-1.6","60e4a68fea6bb239a06fc072","F1","batch6","","1954","tol_toboard","","","","tol_peg_2","1954","1954","0","[[2,0,0],[3,0],[1]]","7","[[2,1,3],[0,0],[0]]","1","0","","","","","","5","","","","","","","","",""
"","","","","","single-stim-button","46","179305","0.0-2.0-13.7-0.7","60e4a68fea6bb239a06fc072","F1","batch6","","569","tol_tohand","","","","tol_peg_3","569","569","0","[[2,0,0],[3,0],[0]]","8","[[2,1,3],[0,0],[0]]","1","0","","","","","","5","","","","","","","","",""
"","","","","","single-stim-button","47","180273","0.0-2.0-13.7-1.7","60e4a68fea6bb239a06fc072","F1","batch6","","966","tol_toboard","","","","tol_peg_1","966","966","0","[[2,1,0],[3,0],[0]]","8","[[2,1,3],[0,0],[0]]","1","0","","","","","","5","","","","","","","","",""
"","","","","","single-stim-button","48","180975","0.0-2.0-13.8-0.8","60e4a68fea6bb239a06fc072","F1","batch6","","700","tol_tohand","","","","tol_peg_2","700","700","0","[[2,1,0],[0,0],[0]]","9","[[2,1,3],[0,0],[0]]","1","0","","","","","","5","","","","","","","","",""
"","","","","","single-stim-button","49","181449","0.0-2.0-13.8-1.8","60e4a68fea6bb239a06fc072","F1","batch6","","473","tol_toboard","","","","tol_peg_1","473","473","0","[[2,1,3],[0,0],[0]]","9","[[2,1,3],[0,0],[0]]","1","0","","","","","","5","","","","","","","","",""
"","","","","","poldrack-single-stim","50","182460","0.0-2.0-14.0","60e4a68fea6bb239a06fc072","F1","batch6","","-1","tol_feedback","","","true","","1000","1000","500","","","","","","-1","none","true","4582","15913","","","","","","","","","",""
"","","","","","html-button-response","51","183889","0.0-2.0-15.0","60e4a68fea6bb239a06fc072","F1","batch6","","1427.7000000476837","tol_trial_num","<div class = centerbox><p class = center-block-text>problem <strong>3</strong> out of 25 problems</p></div>","0","","","","","","","","","","","","","","","","","","","","","","","","",""
"","","","","","single-stim-button","52","188070","0.0-2.0-16.0-0.0","60e4a68fea6bb239a06fc072","F1","batch6","","4179","tol_tohand","","","","tol_peg_1","4179","4179","0","[[2,0,0],[0,0],[1]]","1","[[1,2,0],[3,0],[0]]","2","0","","","","","","4","","","","","","","","",""
"","","","","","single-stim-button","53","188641","0.0-2.0-16.0-1.0","60e4a68fea6bb239a06fc072","F1","batch6","","570","tol_toboard","","","","tol_peg_2","570","570","0","[[2,0,0],[3,0],[1]]","1","[[1,2,0],[3,0],[0]]","2","0","","","","","","4","","","","","","","","",""
"","","","","","single-stim-button","54","192336","0.0-2.0-16.1-0.1","60e4a68fea6bb239a06fc072","F1","batch6","","3693","tol_tohand","","","","tol_peg_1","3693","3693","0","[[0,0,0],[3,0],[1]]","2","[[1,2,0],[3,0],[0]]","2","0","","","","","","4","","","","","","","","",""
"","","","","","single-stim-button","55","192949","0.0-2.0-16.1-1.1","60e4a68fea6bb239a06fc072","F1","batch6","","611","tol_toboard","","","","tol_peg_2","611","611","0","[[0,0,0],[3,2],[1]]","2","[[1,2,0],[3,0],[0]]","2","0","","","","","","4","","","","","","","","",""
"","","","","","single-stim-button","56","193503","0.0-2.0-16.2-0.2","60e4a68fea6bb239a06fc072","F1","batch6","","552","tol_tohand","","","","tol_peg_3","552","552","0","[[0,0,0],[3,2],[0]]","3","[[1,2,0],[3,0],[0]]","2","0","","","","","","4","","","","","","","","",""
"","","","","","single-stim-button","57","194283","0.0-2.0-16.2-1.2","60e4a68fea6bb239a06fc072","F1","batch6","","778","tol_toboard","","","","tol_peg_1","778","778","0","[[1,0,0],[3,2],[0]]","3","[[1,2,0],[3,0],[0]]","2","0","","","","","","4","","","","","","","","",""
"","","","","","single-stim-button","58","195300","0.0-2.0-16.3-0.3","60e4a68fea6bb239a06fc072","F1","batch6","","1016","tol_tohand","","","","tol_peg_2","1016","1016","0","[[1,0,0],[3,0],[0]]","4","[[1,2,0],[3,0],[0]]","2","0","","","","","","4","","","","","","","","",""
"","","","","","single-stim-button","59","195786","0.0-2.0-16.3-1.3","60e4a68fea6bb239a06fc072","F1","batch6","","484","tol_toboard","","","","tol_peg_1","484","484","0","[[1,2,0],[3,0],[0]]","4","[[1,2,0],[3,0],[0]]","2","0","","","","","","4","","","","","","","","",""
"","","","","","poldrack-single-stim","60","196796","0.0-2.0-17.0","60e4a68fea6bb239a06fc072","F1","batch6","","-1","tol_feedback","","","true","","1000","1000","500","","","","","","-1","none","true","4179","9440","","","","","","","","","",""
"","","","","","html-button-response","61","197504","0.0-2.0-18.0","60e4a68fea6bb239a06fc072","F1","batch6","","706.6999999284744","tol_trial_num","<div class = centerbox><p class = center-block-text>problem <strong>4</strong> out of 25 problems</p></div>","0","","","","","","","","","","","","","","","","","","","","","","","","",""
"","","","","","single-stim-button","62","201585","0.0-2.0-19.0-0.0","60e4a68fea6bb239a06fc072","F1","batch6","","4078","tol_tohand","","","","tol_peg_2","4078","4078","0","[[3,0,0],[2,0],[0]]","1","[[3,0,0],[1,0],[2]]","3","0","","","","","","3","","","","","","","","",""
"","","","","","single-stim-button","63","201991","0.0-2.0-19.0-1.0","60e4a68fea6bb239a06fc072","F1","batch6","","404","tol_toboard","","","","tol_peg_1","404","404","0","[[3,1,0],[2,0],[0]]","1","[[3,0,0],[1,0],[2]]","3","0","","","","","","3","","","","","","","","",""
"","","","","","single-stim-button","64","202445","0.0-2.0-19.1-0.1","60e4a68fea6bb239a06fc072","F1","batch6","","452","tol_tohand","","","","tol_peg_2","452","452","0","[[3,1,0],[0,0],[0]]","2","[[3,0,0],[1,0],[2]]","3","0","","","","","","3","","","","","","","","",""
"","","","","","single-stim-button","65","202891","0.0-2.0-19.1-1.1","60e4a68fea6bb239a06fc072","F1","batch6","","444","tol_toboard","","","","tol_peg_3","444","444","0","[[3,1,0],[0,0],[2]]","2","[[3,0,0],[1,0],[2]]","3","0","","","","","","3","","","","","","","","",""
"","","","","","single-stim-button","66","203394","0.0-2.0-19.2-0.2","60e4a68fea6bb239a06fc072","F1","batch6","","501","tol_tohand","","","","tol_peg_1","501","501","0","[[3,0,0],[0,0],[2]]","3","[[3,0,0],[1,0],[2]]","3","0","","","","","","3","","","","","","","","",""
"","","","","","single-stim-button","67","203778","0.0-2.0-19.2-1.2","60e4a68fea6bb239a06fc072","F1","batch6","","383","tol_toboard","","","","tol_peg_2","383","383","0","[[3,0,0],[1,0],[2]]","3","[[3,0,0],[1,0],[2]]","3","0","","","","","","3","","","","","","","","",""
"","","","","","poldrack-single-stim","68","204788","0.0-2.0-20.0","60e4a68fea6bb239a06fc072","F1","batch6","","-1","tol_feedback","","","true","","1000","1000","500","","","","","","-1","none","true","4078","5031","","","","","","","","","",""
"","","","","","html-button-response","69","205557","0.0-2.0-21.0","60e4a68fea6bb239a06fc072","F1","batch6","","767.1999999284744","tol_trial_num","<div class = centerbox><p class = center-block-text>problem <strong>5</strong> out of 25 problems</p></div>","0","","","","","","","","","","","","","","","","","","","","","","","","",""
"","","","","","single-stim-button","70","218744","0.0-2.0-22.0-0.0","60e4a68fea6bb239a06fc072","F1","batch6","","13185","tol_tohand","","","","tol_peg_3","13185","13185","0","[[1,0,0],[2,0],[0]]","1","[[0,0,0],[1,2],[3]]","4","0","","","","","","7","","","","","","","","",""
"","","","","","single-stim-button","71","220670","0.0-2.0-22.0-1.0","60e4a68fea6bb239a06fc072","F1","batch6","","1925","tol_toboard","","","","tol_peg_1","1925","1925","0","[[1,3,0],[2,0],[0]]","1","[[0,0,0],[1,2],[3]]","4","0","","","","","","7","","","","","","","","",""
"","","","","","single-stim-button","72","221382","0.0-2.0-22.1-0.1","60e4a68fea6bb239a06fc072","F1","batch6","","710","tol_tohand","","","","tol_peg_2","710","710","0","[[1,3,0],[0,0],[0]]","2","[[0,0,0],[1,2],[3]]","4","0","","","","","","7","","","","","","","","",""
"","","","","","single-stim-button","73","221847","0.0-2.0-22.1-1.1","60e4a68fea6bb239a06fc072","F1","batch6","","463","tol_toboard","","","","tol_peg_3","463","463","0","[[1,3,0],[0,0],[2]]","2","[[0,0,0],[1,2],[3]]","4","0","","","","","","7","","","","","","","","",""
"","","","","","single-stim-button","74","222766","0.0-2.0-22.2-0.2","60e4a68fea6bb239a06fc072","F1","batch6","","919","tol_tohand","","","","tol_peg_1","919","919","0","[[1,0,0],[0,0],[2]]","3","[[0,0,0],[1,2],[3]]","4","0","","","","","","7","","","","","","","","",""
"","","","","","single-stim-button","75","223289","0.0-2.0-22.2-1.2","60e4a68fea6bb239a06fc072","F1","batch6","","522","tol_toboard","","","","tol_peg_2","522","522","0","[[1,0,0],[3,0],[2]]","3","[[0,0,0],[1,2],[3]]","4","0","","","","","","7","","","","","","","","",""
"","","","","","single-stim-button","76","227271","0.0-2.0-22.3-0.3","60e4a68fea6bb239a06fc072","F1","batch6","","3980","tol_tohand","","","","tol_peg_3","3980","3980","0","[[1,0,0],[3,0],[0]]","4","[[0,0,0],[1,2],[3]]","4","0","","","","","","7","","","","","","","","",""
"","","","","","single-stim-button","77","227685","0.0-2.0-22.3-1.3","60e4a68fea6bb239a06fc072","F1","batch6","","413","tol_toboard","","","","tol_peg_2","413","413","0","[[1,0,0],[3,2],[0]]","4","[[0,0,0],[1,2],[3]]","4","0","","","","","","7","","","","","","","","",""
"","","","","","single-stim-button","78","228110","0.0-2.0-22.4-0.4","60e4a68fea6bb239a06fc072","F1","batch6","","424","tol_tohand","","","","tol_peg_1","424","424","0","[[0,0,0],[3,2],[0]]","5","[[0,0,0],[1,2],[3]]","4","0","","","","","","7","","","","","","","","",""
"","","","","","single-stim-button","79","228545","0.0-2.0-22.4-1.4","60e4a68fea6bb239a06fc072","F1","batch6","","434","tol_toboard","","","","tol_peg_3","434","434","0","[[0,0,0],[3,2],[1]]","5","[[0,0,0],[1,2],[3]]","4","0","","","","","","7","","","","","","","","",""
"","","","","","single-stim-button","80","231627","0.0-2.0-22.5-0.5","60e4a68fea6bb239a06fc072","F1","batch6","","3081","tol_tohand","","","","tol_peg_2","3081","3081","0","[[0,0,0],[3,0],[1]]","6","[[0,0,0],[1,2],[3]]","4","0","","","","","","7","","","","","","","","",""
"","","","","","single-stim-button","81","233238","0.0-2.0-22.5-1.5","60e4a68fea6bb239a06fc072","F1","batch6","","1609","tol_toboard","","","","tol_peg_1","1609","1609","0","[[2,0,0],[3,0],[1]]","6","[[0,0,0],[1,2],[3]]","4","0","","","","","","7","","","","","","","","",""
"","","","","","single-stim-button","82","233722","0.0-2.0-22.6-0.6","60e4a68fea6bb239a06fc072","F1","batch6","","483","tol_tohand","","","","tol_peg_2","483","483","0","[[2,0,0],[0,0],[1]]","7","[[0,0,0],[1,2],[3]]","4","0","","","","","","7","","","","","","","","",""
"","","","","","single-stim-button","83","235699","0.0-2.0-22.6-1.6","60e4a68fea6bb239a06fc072","F1","batch6","","1975","tol_toboard","","","","tol_peg_1","1975","1975","0","[[2,3,0],[0,0],[1]]","7","[[0,0,0],[1,2],[3]]","4","0","","","","","","7","","","","","","","","",""
"","","","","","single-stim-button","84","236351","0.0-2.0-22.7-0.7","60e4a68fea6bb239a06fc072","F1","batch6","","651","tol_tohand","","","","tol_peg_3","651","651","0","[[2,3,0],[0,0],[0]]","8","[[0,0,0],[1,2],[3]]","4","0","","","","","","7","","","","","","","","",""
"","","","","","single-stim-button","85","236983","0.0-2.0-22.7-1.7","60e4a68fea6bb239a06fc072","F1","batch6","","631","tol_toboard","","","","tol_peg_2","631","631","0","[[2,3,0],[1,0],[0]]","8","[[0,0,0],[1,2],[3]]","4","0","","","","","","7","","","","","","","","",""
"","","","","","single-stim-button","86","237725","0.0-2.0-22.8-0.8","60e4a68fea6bb239a06fc072","F1","batch6","","740","tol_tohand","","","","tol_peg_1","740","740","0","[[2,0,0],[1,0],[0]]","9","[[0,0,0],[1,2],[3]]","4","0","","","","","","7","","","","","","","","",""
"","","","","","single-stim-button","87","238219","0.0-2.0-22.8-1.8","60e4a68fea6bb239a06fc072","F1","batch6","","492","tol_toboard","","","","tol_peg_3","492","492","0","[[2,0,0],[1,0],[3]]","9","[[0,0,0],[1,2],[3]]","4","0","","","","","","7","","","","","","","","",""
"","","","","","single-stim-button","88","239348","0.0-2.0-22.9-0.9","60e4a68fea6bb239a06fc072","F1","batch6","","1128","tol_tohand","","","","tol_peg_1","1128","1128","0","[[0,0,0],[1,0],[3]]","10","[[0,0,0],[1,2],[3]]","4","0","","","","","","7","","","","","","","","",""
"","","","","","single-stim-button","89","239742","0.0-2.0-22.9-1.9","60e4a68fea6bb239a06fc072","F1","batch6","","393","tol_toboard","","","","tol_peg_2","393","393","0","[[0,0,0],[1,2],[3]]","10","[[0,0,0],[1,2],[3]]","4","0","","","","","","7","","","","","","","","",""
"","","","","","poldrack-single-stim","90","240757","0.0-2.0-23.0","60e4a68fea6bb239a06fc072","F1","batch6","","-1","tol_feedback","","","true","","1000","1000","500","","","","","","-1","none","true","13185","25301","","","","","","","","","",""
"","","","","","html-button-response","91","241956","0.0-2.0-24.0","60e4a68fea6bb239a06fc072","F1","batch6","","1197.1999999284744","tol_trial_num","<div class = centerbox><p class = center-block-text>problem <strong>6</strong> out of 25 problems</p></div>","0","","","","","","","","","","","","","","","","","","","","","","","","",""
"","","","","","single-stim-button","92","248239","0.0-2.0-25.0-0.0","60e4a68fea6bb239a06fc072","F1","batch6","","6282","tol_tohand","","","","tol_peg_2","6282","6282","0","[[0,0,0],[1,0],[3]]","1","[[1,0,0],[2,3],[0]]","5","0","","","","","","6","","","","","","","","",""
"","","","","","single-stim-button","93","248930","0.0-2.0-25.0-1.0","60e4a68fea6bb239a06fc072","F1","batch6","","690","tol_toboard","","","","tol_peg_1","690","690","0","[[2,0,0],[1,0],[3]]","1","[[1,0,0],[2,3],[0]]","5","0","","","","","","6","","","","","","","","",""
"","","","","","single-stim-button","94","249948","0.0-2.0-25.1-0.1","60e4a68fea6bb239a06fc072","F1","batch6","","1017","tol_tohand","","","","tol_peg_2","1017","1017","0","[[2,0,0],[0,0],[3]]","2","[[1,0,0],[2,3],[0]]","5","0","","","","","","6","","","","","","","","",""
"","","","","","single-stim-button","95","250553","0.0-2.0-25.1-1.1","60e4a68fea6bb239a06fc072","F1","batch6","","603","tol_toboard","","","","tol_peg_1","603","603","0","[[2,1,0],[0,0],[3]]","2","[[1,0,0],[2,3],[0]]","5","0","","","","","","6","","","","","","","","",""
"","","","","","single-stim-button","96","251598","0.0-2.0-25.2-0.2","60e4a68fea6bb239a06fc072","F1","batch6","","1044","tol_tohand","","","","tol_peg_3","1044","1044","0","[[2,1,0],[0,0],[0]]","3","[[1,0,0],[2,3],[0]]","5","0","","","","","","6","","","","","","","","",""
"","","","","","single-stim-button","97","253220","0.0-2.0-25.2-1.2","60e4a68fea6bb239a06fc072","F1","batch6","","1619","tol_toboard","","","","tol_peg_2","1619","1619","0","[[2,1,0],[3,0],[0]]","3","[[1,0,0],[2,3],[0]]","5","0","","","","","","6","","","","","","","","",""
"","","","","","single-stim-button","98","254296","0.0-2.0-25.3-0.3","60e4a68fea6bb239a06fc072","F1","batch6","","1075","tol_tohand","","","","tol_peg_1","1075","1075","0","[[2,0,0],[3,0],[0]]","4","[[1,0,0],[2,3],[0]]","5","0","","","","","","6","","","","","","","","",""
"","","","","","single-stim-button","99","254750","0.0-2.0-25.3-1.3","60e4a68fea6bb239a06fc072","F1","batch6","","453","tol_toboard","","","","tol_peg_3","453","453","0","[[2,0,0],[3,0],[1]]","4","[[1,0,0],[2,3],[0]]","5","0","","","","","","6","","","","","","","","",""
"","","","","","single-stim-button","100","255472","0.0-2.0-25.4-0.4","60e4a68fea6bb239a06fc072","F1","batch6","","721","tol_tohand","","","","tol_peg_1","721","721","0","[[0,0,0],[3,0],[1]]","5","[[1,0,0],[2,3],[0]]","5","0","","","","","","6","","","","","","","","",""
"","","","","","single-stim-button","101","256984","0.0-2.0-25.4-1.4","60e4a68fea6bb239a06fc072","F1","batch6","","1511","tol_toboard","","","","tol_peg_2","1511","1511","0","[[0,0,0],[3,2],[1]]","5","[[1,0,0],[2,3],[0]]","5","0","","","","","","6","","","","","","","","",""
"","","","","","single-stim-button","102","258189","0.0-2.0-25.5-0.5","60e4a68fea6bb239a06fc072","F1","batch6","","1203","tol_tohand","","","","tol_peg_2","1203","1203","0","[[0,0,0],[3,0],[1]]","6","[[1,0,0],[2,3],[0]]","5","0","","","","","","6","","","","","","","","",""
"","","","","","single-stim-button","103","259385","0.0-2.0-25.5-1.5","60e4a68fea6bb239a06fc072","F1","batch6","","1194","tol_toboard","","","","tol_peg_1","1194","1194","0","[[2,0,0],[3,0],[1]]","6","[[1,0,0],[2,3],[0]]","5","0","","","","","","6","","","","","","","","",""
"","","","","","single-stim-button","104","259790","0.0-2.0-25.6-0.6","60e4a68fea6bb239a06fc072","F1","batch6","","404","tol_tohand","","","","tol_peg_2","404","404","0","[[2,0,0],[0,0],[1]]","7","[[1,0,0],[2,3],[0]]","5","0","","","","","","6","","","","","","","","",""
"","","","","","single-stim-button","105","260274","0.0-2.0-25.6-1.6","60e4a68fea6bb239a06fc072","F1","batch6","","482","tol_toboard","","","","tol_peg_1","482","482","0","[[2,3,0],[0,0],[1]]","7","[[1,0,0],[2,3],[0]]","5","0","","","","","","6","","","","","","","","",""
"","","","","","single-stim-button","106","261352","0.0-2.0-25.7-0.7","60e4a68fea6bb239a06fc072","F1","batch6","","1076","tol_tohand","","","","tol_peg_3","1076","1076","0","[[2,3,0],[0,0],[0]]","8","[[1,0,0],[2,3],[0]]","5","0","","","","","","6","","","","","","","","",""
"","","","","","single-stim-button","107","261737","0.0-2.0-25.7-1.7","60e4a68fea6bb239a06fc072","F1","batch6","","384","tol_toboard","","","","tol_peg_2","384","384","0","[[2,3,0],[1,0],[0]]","8","[[1,0,0],[2,3],[0]]","5","0","","","","","","6","","","","","","","","",""
"","","","","","single-stim-button","108","263318","0.0-2.0-25.8-0.8","60e4a68fea6bb239a06fc072","F1","batch6","","1579","tol_tohand","","","","tol_peg_1","1579","1579","0","[[2,0,0],[1,0],[0]]","9","[[1,0,0],[2,3],[0]]","5","0","","","","","","6","","","","","","","","",""
"","","","","","single-stim-button","109","263732","0.0-2.0-25.8-1.8","60e4a68fea6bb239a06fc072","F1","batch6","","412","tol_toboard","","","","tol_peg_3","412","412","0","[[2,0,0],[1,0],[3]]","9","[[1,0,0],[2,3],[0]]","5","0","","","","","","6","","","","","","","","",""
"","","","","","single-stim-button","110","265383","0.0-2.0-25.9-0.9","60e4a68fea6bb239a06fc072","F1","batch6","","1649","tol_tohand","","","","tol_peg_1","1649","1649","0","[[0,0,0],[1,0],[3]]","10","[[1,0,0],[2,3],[0]]","5","0","","","","","","6","","","","","","","","",""
"","","","","","single-stim-button","111","265798","0.0-2.0-25.9-1.9","60e4a68fea6bb239a06fc072","F1","batch6","","413","tol_toboard","","","","tol_peg_2","413","413","0","[[0,0,0],[1,2],[3]]","10","[[1,0,0],[2,3],[0]]","5","0","","","","","","6","","","","","","","","",""
"","","","","","single-stim-button","112","266857","0.0-2.0-25.10-0.10","60e4a68fea6bb239a06fc072","F1","batch6","","1059","tol_tohand","","","","tol_peg_3","1059","1059","0","[[0,0,0],[1,2],[0]]","11","[[1,0,0],[2,3],[0]]","5","0","","","","","","6","","","","","","","","",""
"","","","","","single-stim-button","113","267320","0.0-2.0-25.10-1.10","60e4a68fea6bb239a06fc072","F1","batch6","","461","tol_toboard","","","","tol_peg_1","461","461","0","[[3,0,0],[1,2],[0]]","11","[[1,0,0],[2,3],[0]]","5","0","","","","","","6","","","","","","","","",""
"","","","","","single-stim-button","114","268071","0.0-2.0-25.11-0.11","60e4a68fea6bb239a06fc072","F1","batch6","","750","tol_tohand","","","","tol_peg_2","750","750","0","[[3,0,0],[1,0],[0]]","12","[[1,0,0],[2,3],[0]]","5","0","","","","","","6","","","","","","","","",""
"","","","","","single-stim-button","115","268427","0.0-2.0-25.11-1.11","60e4a68fea6bb239a06fc072","F1","batch6","","355","tol_toboard","","","","tol_peg_1","355","355","0","[[3,2,0],[1,0],[0]]","12","[[1,0,0],[2,3],[0]]","5","0","","","","","","6","","","","","","","","",""
"","","","","","single-stim-button","116","268842","0.0-2.0-25.12-0.12","60e4a68fea6bb239a06fc072","F1","batch6","","413","tol_tohand","","","","tol_peg_2","413","413","0","[[3,2,0],[0,0],[0]]","13","[[1,0,0],[2,3],[0]]","5","0","","","","","","6","","","","","","","","",""
"","","","","","single-stim-button","117","269238","0.0-2.0-25.12-1.12","60e4a68fea6bb239a06fc072","F1","batch6","","395","tol_toboard","","","","tol_peg_1","395","395","0","[[3,2,1],[0,0],[0]]","13","[[1,0,0],[2,3],[0]]","5","0","","","","","","6","","","","","","","","",""
"","","","","","single-stim-button","118","269989","0.0-2.0-25.13-0.13","60e4a68fea6bb239a06fc072","F1","batch6","","749","tol_tohand","","","","tol_peg_1","749","749","0","[[3,2,0],[0,0],[0]]","14","[[1,0,0],[2,3],[0]]","5","0","","","","","","6","","","","","","","","",""
"","","","","","single-stim-button","119","271125","0.0-2.0-25.13-1.13","60e4a68fea6bb239a06fc072","F1","batch6","","1134","tol_toboard","","","","tol_peg_2","1134","1134","0","[[3,2,0],[1,0],[0]]","14","[[1,0,0],[2,3],[0]]","5","0","","","","","","6","","","","","","","","",""
"","","","","","single-stim-button","120","272775","0.0-2.0-25.14-0.14","60e4a68fea6bb239a06fc072","F1","batch6","","1648","tol_tohand","","","","tol_peg_1","1648","1648","0","[[3,0,0],[1,0],[0]]","15","[[1,0,0],[2,3],[0]]","5","0","","","","","","6","","","","","","","","",""
"","","","","","single-stim-button","121","273773","0.0-2.0-25.14-1.14","60e4a68fea6bb239a06fc072","F1","batch6","","996","tol_toboard","","","","tol_peg_1","996","996","0","[[3,2,0],[1,0],[0]]","15","[[1,0,0],[2,3],[0]]","5","0","","","","","","6","","","","","","","","",""
"","","","","","single-stim-button","122","274603","0.0-2.0-25.15-0.15","60e4a68fea6bb239a06fc072","F1","batch6","","828","tol_tohand","","","","tol_peg_2","828","828","0","[[3,2,0],[0,0],[0]]","16","[[1,0,0],[2,3],[0]]","5","0","","","","","","6","","","","","","","","",""
"","","","","","single-stim-button","123","275097","0.0-2.0-25.15-1.15","60e4a68fea6bb239a06fc072","F1","batch6","","494","tol_toboard","","","","tol_peg_3","494","494","0","[[3,2,0],[0,0],[1]]","16","[[1,0,0],[2,3],[0]]","5","0","","","","","","6","","","","","","","","",""
"","","","","","single-stim-button","124","275661","0.0-2.0-25.16-0.16","60e4a68fea6bb239a06fc072","F1","batch6","","562","tol_tohand","","","","tol_peg_1","562","562","0","[[3,0,0],[0,0],[1]]","17","[[1,0,0],[2,3],[0]]","5","0","","","","","","6","","","","","","","","",""
"","","","","","single-stim-button","125","276085","0.0-2.0-25.16-1.16","60e4a68fea6bb239a06fc072","F1","batch6","","423","tol_toboard","","","","tol_peg_2","423","423","0","[[3,0,0],[2,0],[1]]","17","[[1,0,0],[2,3],[0]]","5","0","","","","","","6","","","","","","","","",""
"","","","","","single-stim-button","126","276542","0.0-2.0-25.17-0.17","60e4a68fea6bb239a06fc072","F1","batch6","","456","tol_tohand","","","","tol_peg_1","456","456","0","[[0,0,0],[2,0],[1]]","18","[[1,0,0],[2,3],[0]]","5","0","","","","","","6","","","","","","","","",""
"","","","","","single-stim-button","127","277045","0.0-2.0-25.17-1.17","60e4a68fea6bb239a06fc072","F1","batch6","","500","tol_toboard","","","","tol_peg_2","500","500","0","[[0,0,0],[2,3],[1]]","18","[[1,0,0],[2,3],[0]]","5","0","","","","","","6","","","","","","","","",""
"","","","","","single-stim-button","128","277460","0.0-2.0-25.18-0.18","60e4a68fea6bb239a06fc072","F1","batch6","","413","tol_tohand","","","","tol_peg_3","413","413","0","[[0,0,0],[2,3],[0]]","19","[[1,0,0],[2,3],[0]]","5","0","","","","","","6","","","","","","","","",""
"","","","","","single-stim-button","129","277904","0.0-2.0-25.18-1.18","60e4a68fea6bb239a06fc072","F1","batch6","","443","tol_toboard","","","","tol_peg_1","443","443","0","[[1,0,0],[2,3],[0]]","19","[[1,0,0],[2,3],[0]]","5","0","","","","","","6","","","","","","","","",""
"","","","","","poldrack-single-stim","130","278923","0.0-2.0-26.0","60e4a68fea6bb239a06fc072","F1","batch6","","-1","tol_feedback","","","true","","1000","1000","500","","","","","","-1","none","true","6282","22928","","","","","","","","","",""
"","","","","","html-button-response","131","280178","0.0-2.0-27.0","60e4a68fea6bb239a06fc072","F1","batch6","","1253.1999999284744","tol_trial_num","<div class = centerbox><p class = center-block-text>problem <strong>7</strong> out of 25 problems</p></div>","0","","","","","","","","","","","","","","","","","","","","","","","","",""
"","","","","","single-stim-button","132","284654","0.0-2.0-28.0-0.0","60e4a68fea6bb239a06fc072","F1","batch6","","4474","tol_tohand","","","","tol_peg_3","4474","4474","0","[[2,1,0],[0,0],[0]]","1","[[1,2,0],[3,0],[0]]","6","0","","","","","","5","","","","","","","","",""
"","","","","","single-stim-button","133","285206","0.0-2.0-28.0-1.0","60e4a68fea6bb239a06fc072","F1","batch6","","549","tol_toboard","","","","tol_peg_2","549","549","0","[[2,1,0],[3,0],[0]]","1","[[1,2,0],[3,0],[0]]","6","0","","","","","","5","","","","","","","","",""
"","","","","","single-stim-button","134","286164","0.0-2.0-28.1-0.1","60e4a68fea6bb239a06fc072","F1","batch6","","956","tol_tohand","","","","tol_peg_1","956","956","0","[[2,0,0],[3,0],[0]]","2","[[1,2,0],[3,0],[0]]","6","0","","","","","","5","","","","","","","","",""
"","","","","","single-stim-button","135","288161","0.0-2.0-28.1-1.1","60e4a68fea6bb239a06fc072","F1","batch6","","1995","tol_toboard","","","","tol_peg_3","1995","1995","0","[[2,0,0],[3,0],[1]]","2","[[1,2,0],[3,0],[0]]","6","0","","","","","","5","","","","","","","","",""
"","","","","","single-stim-button","136","288635","0.0-2.0-28.2-0.2","60e4a68fea6bb239a06fc072","F1","batch6","","473","tol_tohand","","","","tol_peg_1","473","473","0","[[0,0,0],[3,0],[1]]","3","[[1,2,0],[3,0],[0]]","6","0","","","","","","5","","","","","","","","",""
"","","","","","single-stim-button","137","289000","0.0-2.0-28.2-1.2","60e4a68fea6bb239a06fc072","F1","batch6","","363","tol_toboard","","","","tol_peg_2","363","363","0","[[0,0,0],[3,2],[1]]","3","[[1,2,0],[3,0],[0]]","6","0","","","","","","5","","","","","","","","",""
"","","","","","single-stim-button","138","289652","0.0-2.0-28.3-0.3","60e4a68fea6bb239a06fc072","F1","batch6","","651","tol_tohand","","","","tol_peg_3","651","651","0","[[0,0,0],[3,2],[0]]","4","[[1,2,0],[3,0],[0]]","6","0","","","","","","5","","","","","","","","",""
"","","","","","single-stim-button","139","290087","0.0-2.0-28.3-1.3","60e4a68fea6bb239a06fc072","F1","batch6","","434","tol_toboard","","","","tol_peg_1","434","434","0","[[1,0,0],[3,2],[0]]","4","[[1,2,0],[3,0],[0]]","6","0","","","","","","5","","","","","","","","",""
"","","","","","single-stim-button","140","290472","0.0-2.0-28.4-0.4","60e4a68fea6bb239a06fc072","F1","batch6","","383","tol_tohand","","","","tol_peg_2","383","383","0","[[1,0,0],[3,0],[0]]","5","[[1,2,0],[3,0],[0]]","6","0","","","","","","5","","","","","","","","",""
"","","","","","single-stim-button","141","290868","0.0-2.0-28.4-1.4","60e4a68fea6bb239a06fc072","F1","batch6","","395","tol_toboard","","","","tol_peg_1","395","395","0","[[1,2,0],[3,0],[0]]","5","[[1,2,0],[3,0],[0]]","6","0","","","","","","5","","","","","","","","",""
"","","","","","poldrack-single-stim","142","291872","0.0-2.0-29.0","60e4a68fea6bb239a06fc072","F1","batch6","","-1","tol_feedback","","","true","","1000","1000","500","","","","","","-1","none","true","4474","6937","","","","","","","","","",""
"","","","","","html-button-response","143","292576","0.0-2.0-30.0","60e4a68fea6bb239a06fc072","F1","batch6","","702.3000000715256","tol_trial_num","<div class = centerbox><p class = center-block-text>problem <strong>8</strong> out of 25 problems</p></div>","0","","","","","","","","","","","","","","","","","","","","","","","","",""
"","","","","","single-stim-button","144","297399","0.0-2.0-31.0-0.0","60e4a68fea6bb239a06fc072","F1","batch6","","4820","tol_tohand","","","","tol_peg_3","4820","4820","0","[[0,0,0],[2,3],[0]]","1","[[1,2,0],[3,0],[0]]","7","0","","","","","","4","","","","","","","","",""
"","","","","","single-stim-button","145","298080","0.0-2.0-31.0-1.0","60e4a68fea6bb239a06fc072","F1","batch6","","679","tol_toboard","","","","tol_peg_1","679","679","0","[[1,0,0],[2,3],[0]]","1","[[1,2,0],[3,0],[0]]","7","0","","","","","","4","","","","","","","","",""
"","","","","","single-stim-button","146","298801","0.0-2.0-31.1-0.1","60e4a68fea6bb239a06fc072","F1","batch6","","719","tol_tohand","","","","tol_peg_2","719","719","0","[[1,0,0],[2,0],[0]]","2","[[1,2,0],[3,0],[0]]","7","0","","","","","","4","","","","","","","","",""
"","","","","","single-stim-button","147","299879","0.0-2.0-31.1-1.1","60e4a68fea6bb239a06fc072","F1","batch6","","1077","tol_toboard","","","","tol_peg_3","1077","1077","0","[[1,0,0],[2,0],[3]]","2","[[1,2,0],[3,0],[0]]","7","0","","","","","","4","","","","","","","","",""
"","","","","","single-stim-button","148","300314","0.0-2.0-31.2-0.2","60e4a68fea6bb239a06fc072","F1","batch6","","433","tol_tohand","","","","tol_peg_2","433","433","0","[[1,0,0],[0,0],[3]]","3","[[1,2,0],[3,0],[0]]","7","0","","","","","","4","","","","","","","","",""
"","","","","","single-stim-button","149","300839","0.0-2.0-31.2-1.2","60e4a68fea6bb239a06fc072","F1","batch6","","523","tol_toboard","","","","tol_peg_1","523","523","0","[[1,2,0],[0,0],[3]]","3","[[1,2,0],[3,0],[0]]","7","0","","","","","","4","","","","","","","","",""
"","","","","","single-stim-button","150","301955","0.0-2.0-31.3-0.3","60e4a68fea6bb239a06fc072","F1","batch6","","1114","tol_tohand","","","","tol_peg_3","1114","1114","0","[[1,2,0],[0,0],[0]]","4","[[1,2,0],[3,0],[0]]","7","0","","","","","","4","","","","","","","","",""
"","","","","","single-stim-button","151","302340","0.0-2.0-31.3-1.3","60e4a68fea6bb239a06fc072","F1","batch6","","385","tol_toboard","","","","tol_peg_2","385","385","0","[[1,2,0],[3,0],[0]]","4","[[1,2,0],[3,0],[0]]","7","0","","","","","","4","","","","","","","","",""
"","","","","","poldrack-single-stim","152","303349","0.0-2.0-32.0","60e4a68fea6bb239a06fc072","F1","batch6","","-1","tol_feedback","","","true","","1000","1000","500","","","","","","-1","none","true","4820","7086","","","","","","","","","",""
"","","","","","html-button-response","153","303991","0.0-2.0-33.0","60e4a68fea6bb239a06fc072","F1","batch6","","639.8000000715256","tol_trial_num","<div class = centerbox><p class = center-block-text>problem <strong>9</strong> out of 25 problems</p></div>","0","","","","","","","","","","","","","","","","","","","","","","","","",""
"","","","","","single-stim-button","154","318630","0.0-2.0-34.0-0.0","60e4a68fea6bb239a06fc072","F1","batch6","","14637","tol_tohand","","","","tol_peg_1","14637","14637","0","[[3,0,0],[0,0],[1]]","1","[[2,1,0],[3,0],[0]]","8","0","","","","","","6","","","","","","","","",""
"","","","","","single-stim-button","155","319034","0.0-2.0-34.0-1.0","60e4a68fea6bb239a06fc072","F1","batch6","","402","tol_toboard","","","","tol_peg_2","402","402","0","[[3,0,0],[2,0],[1]]","1","[[2,1,0],[3,0],[0]]","8","0","","","","","","6","","","","","","","","",""
"","","","","","single-stim-button","156","321732","0.0-2.0-34.1-0.1","60e4a68fea6bb239a06fc072","F1","batch6","","2696","tol_tohand","","","","tol_peg_1","2696","2696","0","[[0,0,0],[2,0],[1]]","2","[[2,1,0],[3,0],[0]]","8","0","","","","","","6","","","","","","","","",""
"","","","","","single-stim-button","157","322265","0.0-2.0-34.1-1.1","60e4a68fea6bb239a06fc072","F1","batch6","","531","tol_toboard","","","","tol_peg_2","531","531","0","[[0,0,0],[2,3],[1]]","2","[[2,1,0],[3,0],[0]]","8","0","","","","","","6","","","","","","","","",""
"","","","","","single-stim-button","158","323749","0.0-2.0-34.2-0.2","60e4a68fea6bb239a06fc072","F1","batch6","","1482","tol_tohand","","","","tol_peg_3","1482","1482","0","[[0,0,0],[2,3],[0]]","3","[[2,1,0],[3,0],[0]]","8","0","","","","","","6","","","","","","","","",""
"","","","","","single-stim-button","159","324499","0.0-2.0-34.2-1.2","60e4a68fea6bb239a06fc072","F1","batch6","","749","tol_toboard","","","","tol_peg_1","749","749","0","[[1,0,0],[2,3],[0]]","3","[[2,1,0],[3,0],[0]]","8","0","","","","","","6","","","","","","","","",""
"","","","","","single-stim-button","160","325091","0.0-2.0-34.3-0.3","60e4a68fea6bb239a06fc072","F1","batch6","","591","tol_tohand","","","","tol_peg_2","591","591","0","[[1,0,0],[2,0],[0]]","4","[[2,1,0],[3,0],[0]]","8","0","","","","","","6","","","","","","","","",""
"","","","","","single-stim-button","161","325556","0.0-2.0-34.3-1.3","60e4a68fea6bb239a06fc072","F1","batch6","","463","tol_toboard","","","","tol_peg_3","463","463","0","[[1,0,0],[2,0],[3]]","4","[[2,1,0],[3,0],[0]]","8","0","","","","","","6","","","","","","","","",""
"","","","","","single-stim-button","162","328017","0.0-2.0-34.4-0.4","60e4a68fea6bb239a06fc072","F1","batch6","","2459","tol_tohand","","","","tol_peg_2","2459","2459","0","[[1,0,0],[0,0],[3]]","5","[[2,1,0],[3,0],[0]]","8","0","","","","","","6","","","","","","","","",""
"","","","","","single-stim-button","163","329586","0.0-2.0-34.4-1.4","60e4a68fea6bb239a06fc072","F1","batch6","","1568","tol_toboard","","","","tol_peg_1","1568","1568","0","[[1,2,0],[0,0],[3]]","5","[[2,1,0],[3,0],[0]]","8","0","","","","","","6","","","","","","","","",""
"","","","","","single-stim-button","164","330022","0.0-2.0-34.5-0.5","60e4a68fea6bb239a06fc072","F1","batch6","","434","tol_tohand","","","","tol_peg_3","434","434","0","[[1,2,0],[0,0],[0]]","6","[[2,1,0],[3,0],[0]]","8","0","","","","","","6","","","","","","","","",""
"","","","","","single-stim-button","165","330387","0.0-2.0-34.5-1.5","60e4a68fea6bb239a06fc072","F1","batch6","","365","tol_toboard","","","","tol_peg_2","365","365","0","[[1,2,0],[3,0],[0]]","6","[[2,1,0],[3,0],[0]]","8","0","","","","","","6","","","","","","","","",""
"","","","","","single-stim-button","166","331306","0.0-2.0-34.6-0.6","60e4a68fea6bb239a06fc072","F1","batch6","","918","tol_tohand","","","","tol_peg_1","918","918","0","[[1,0,0],[3,0],[0]]","7","[[2,1,0],[3,0],[0]]","8","0","","","","","","6","","","","","","","","",""
"","","","","","single-stim-button","167","331632","0.0-2.0-34.6-1.6","60e4a68fea6bb239a06fc072","F1","batch6","","325","tol_toboard","","","","tol_peg_2","325","325","0","[[1,0,0],[3,2],[0]]","7","[[2,1,0],[3,0],[0]]","8","0","","","","","","6","","","","","","","","",""
"","","","","","single-stim-button","168","332907","0.0-2.0-34.7-0.7","60e4a68fea6bb239a06fc072","F1","batch6","","1274","tol_tohand","","","","tol_peg_1","1274","1274","0","[[0,0,0],[3,2],[0]]","8","[[2,1,0],[3,0],[0]]","8","0","","","","","","6","","","","","","","","",""
"","","","","","single-stim-button","169","333272","0.0-2.0-34.7-1.7","60e4a68fea6bb239a06fc072","F1","batch6","","364","tol_toboard","","","","tol_peg_3","364","364","0","[[0,0,0],[3,2],[1]]","8","[[2,1,0],[3,0],[0]]","8","0","","","","","","6","","","","","","","","",""
"","","","","","single-stim-button","170","333679","0.0-2.0-34.8-0.8","60e4a68fea6bb239a06fc072","F1","batch6","","405","tol_tohand","","","","tol_peg_2","405","405","0","[[0,0,0],[3,0],[1]]","9","[[2,1,0],[3,0],[0]]","8","0","","","","","","6","","","","","","","","",""
"","","","","","single-stim-button","171","334103","0.0-2.0-34.8-1.8","60e4a68fea6bb239a06fc072","F1","batch6","","423","tol_toboard","","","","tol_peg_1","423","423","0","[[2,0,0],[3,0],[1]]","9","[[2,1,0],[3,0],[0]]","8","0","","","","","","6","","","","","","","","",""
"","","","","","single-stim-button","172","334529","0.0-2.0-34.9-0.9","60e4a68fea6bb239a06fc072","F1","batch6","","425","tol_tohand","","","","tol_peg_3","425","425","0","[[2,0,0],[3,0],[0]]","10","[[2,1,0],[3,0],[0]]","8","0","","","","","","6","","","","","","","","",""
"","","","","","single-stim-button","173","335122","0.0-2.0-34.9-1.9","60e4a68fea6bb239a06fc072","F1","batch6","","591","tol_toboard","","","","tol_peg_1","591","591","0","[[2,1,0],[3,0],[0]]","10","[[2,1,0],[3,0],[0]]","8","0","","","","","","6","","","","","","","","",""
"","","","","","poldrack-single-stim","174","336125","0.0-2.0-35.0","60e4a68fea6bb239a06fc072","F1","batch6","","-1","tol_feedback","","","true","","1000","1000","500","","","","","","-1","none","true","14637","25321","","","","","","","","","",""
"","","","","","html-button-response","175","336721","0.0-2.0-36.0","60e4a68fea6bb239a06fc072","F1","batch6","","593.8999999761581","tol_trial_num","<div class = centerbox><p class = center-block-text>problem <strong>10</strong> out of 25 problems</p></div>","0","","","","","","","","","","","","","","","","","","","","","","","","",""
"","","","","","single-stim-button","176","342402","0.0-2.0-37.0-0.0","60e4a68fea6bb239a06fc072","F1","batch6","","5678","tol_tohand","","","","tol_peg_2","5678","5678","0","[[3,0,0],[0,0],[2]]","1","[[3,0,0],[2,1],[0]]","9","0","","","","","","3","","","","","","","","",""
"","","","","","single-stim-button","177","342699","0.0-2.0-37.0-1.0","60e4a68fea6bb239a06fc072","F1","batch6","","295","tol_toboard","","","","tol_peg_1","295","295","0","[[3,1,0],[0,0],[2]]","1","[[3,0,0],[2,1],[0]]","9","0","","","","","","3","","","","","","","","",""
"","","","","","single-stim-button","178","343063","0.0-2.0-37.1-0.1","60e4a68fea6bb239a06fc072","F1","batch6","","363","tol_tohand","","","","tol_peg_3","363","363","0","[[3,1,0],[0,0],[0]]","2","[[3,0,0],[2,1],[0]]","9","0","","","","","","3","","","","","","","","",""
"","","","","","single-stim-button","179","343401","0.0-2.0-37.1-1.1","60e4a68fea6bb239a06fc072","F1","batch6","","336","tol_toboard","","","","tol_peg_2","336","336","0","[[3,1,0],[2,0],[0]]","2","[[3,0,0],[2,1],[0]]","9","0","","","","","","3","","","","","","","","",""
"","","","","","single-stim-button","180","344171","0.0-2.0-37.2-0.2","60e4a68fea6bb239a06fc072","F1","batch6","","768","tol_tohand","","","","tol_peg_1","768","768","0","[[3,0,0],[2,0],[0]]","3","[[3,0,0],[2,1],[0]]","9","0","","","","","","3","","","","","","","","",""
"","","","","","single-stim-button","181","344488","0.0-2.0-37.2-1.2","60e4a68fea6bb239a06fc072","F1","batch6","","315","tol_toboard","","","","tol_peg_2","315","315","0","[[3,0,0],[2,1],[0]]","3","[[3,0,0],[2,1],[0]]","9","0","","","","","","3","","","","","","","","",""
"","","","","","poldrack-single-stim","182","345505","0.0-2.0-38.0","60e4a68fea6bb239a06fc072","F1","batch6","","-1","tol_feedback","","","true","","1000","1000","500","","","","","","-1","none","true","5678","6809","","","","","","","","","",""
"","","","","","html-button-response","183","346049","0.0-2.0-39.0","60e4a68fea6bb239a06fc072","F1","batch6","","541.8000000715256","tol_trial_num","<div class = centerbox><p class = center-block-text>problem <strong>11</strong> out of 25 problems</p></div>","0","","","","","","","","","","","","","","","","","","","","","","","","",""
"","","","","","single-stim-button","184","349280","0.0-2.0-40.0-0.0","60e4a68fea6bb239a06fc072","F1","batch6","","3229","tol_tohand","","","","tol_peg_2","3229","3229","0","[[1,2,0],[0,0],[0]]","1","[[2,0,0],[1,3],[0]]","10","0","","","","","","6","","","","","","","","",""
"","","","","","single-stim-button","185","349733","0.0-2.0-40.0-1.0","60e4a68fea6bb239a06fc072","F1","batch6","","452","tol_toboard","","","","tol_peg_3","452","452","0","[[1,2,0],[0,0],[3]]","1","[[2,0,0],[1,3],[0]]","10","0","","","","","","6","","","","","","","","",""
"","","","","","single-stim-button","186","350622","0.0-2.0-40.1-0.1","60e4a68fea6bb239a06fc072","F1","batch6","","888","tol_tohand","","","","tol_peg_1","888","888","0","[[1,0,0],[0,0],[3]]","2","[[2,0,0],[1,3],[0]]","10","0","","","","","","6","","","","","","","","",""
"","","","","","single-stim-button","187","352303","0.0-2.0-40.1-1.1","60e4a68fea6bb239a06fc072","F1","batch6","","1679","tol_toboard","","","","tol_peg_2","1679","1679","0","[[1,0,0],[2,0],[3]]","2","[[2,0,0],[1,3],[0]]","10","0","","","","","","6","","","","","","","","",""
"","","","","","single-stim-button","188","352877","0.0-2.0-40.2-0.2","60e4a68fea6bb239a06fc072","F1","batch6","","572","tol_tohand","","","","tol_peg_1","572","572","0","[[0,0,0],[2,0],[3]]","3","[[2,0,0],[1,3],[0]]","10","0","","","","","","6","","","","","","","","",""
"","","","","","single-stim-button","189","353529","0.0-2.0-40.2-1.2","60e4a68fea6bb239a06fc072","F1","batch6","","650","tol_toboard","","","","tol_peg_2","650","650","0","[[0,0,0],[2,1],[3]]","3","[[2,0,0],[1,3],[0]]","10","0","","","","","","6","","","","","","","","",""
"","","","","","single-stim-button","190","354012","0.0-2.0-40.3-0.3","60e4a68fea6bb239a06fc072","F1","batch6","","481","tol_tohand","","","","tol_peg_3","481","481","0","[[0,0,0],[2,1],[0]]","4","[[2,0,0],[1,3],[0]]","10","0","","","","","","6","","","","","","","","",""
"","","","","","single-stim-button","191","354398","0.0-2.0-40.3-1.3","60e4a68fea6bb239a06fc072","F1","batch6","","385","tol_toboard","","","","tol_peg_1","385","385","0","[[3,0,0],[2,1],[0]]","4","[[2,0,0],[1,3],[0]]","10","0","","","","","","6","","","","","","","","",""
"","","","","","single-stim-button","192","354764","0.0-2.0-40.4-0.4","60e4a68fea6bb239a06fc072","F1","batch6","","364","tol_tohand","","","","tol_peg_2","364","364","0","[[3,0,0],[2,0],[0]]","5","[[2,0,0],[1,3],[0]]","10","0","","","","","","6","","","","","","","","",""
"","","","","","single-stim-button","193","355119","0.0-2.0-40.4-1.4","60e4a68fea6bb239a06fc072","F1","batch6","","354","tol_toboard","","","","tol_peg_3","354","354","0","[[3,0,0],[2,0],[1]]","5","[[2,0,0],[1,3],[0]]","10","0","","","","","","6","","","","","","","","",""
"","","","","","single-stim-button","194","356098","0.0-2.0-40.5-0.5","60e4a68fea6bb239a06fc072","F1","batch6","","978","tol_tohand","","","","tol_peg_2","978","978","0","[[3,0,0],[0,0],[1]]","6","[[2,0,0],[1,3],[0]]","10","0","","","","","","6","","","","","","","","",""
"","","","","","single-stim-button","195","356414","0.0-2.0-40.5-1.5","60e4a68fea6bb239a06fc072","F1","batch6","","315","tol_toboard","","","","tol_peg_1","315","315","0","[[3,2,0],[0,0],[1]]","6","[[2,0,0],[1,3],[0]]","10","0","","","","","","6","","","","","","","","",""
"","","","","","single-stim-button","196","358479","0.0-2.0-40.6-0.6","60e4a68fea6bb239a06fc072","F1","batch6","","2062","tol_tohand","","","","tol_peg_3","2062","2062","0","[[3,2,0],[0,0],[0]]","7","[[2,0,0],[1,3],[0]]","10","0","","","","","","6","","","","","","","","",""
"","","","","","single-stim-button","197","358757","0.0-2.0-40.6-1.6","60e4a68fea6bb239a06fc072","F1","batch6","","276","tol_toboard","","","","tol_peg_2","276","276","0","[[3,2,0],[1,0],[0]]","7","[[2,0,0],[1,3],[0]]","10","0","","","","","","6","","","","","","","","",""
"","","","","","single-stim-button","198","359616","0.0-2.0-40.7-0.7","60e4a68fea6bb239a06fc072","F1","batch6","","857","tol_tohand","","","","tol_peg_1","857","857","0","[[3,0,0],[1,0],[0]]","8","[[2,0,0],[1,3],[0]]","10","0","","","","","","6","","","","","","","","",""
"","","","","","single-stim-button","199","362502","0.0-2.0-40.7-1.7","60e4a68fea6bb239a06fc072","F1","batch6","","2884","tol_toboard","","","","tol_peg_3","2884","2884","0","[[3,0,0],[1,0],[2]]","8","[[2,0,0],[1,3],[0]]","10","0","","","","","","6","","","","","","","","",""
"","","","","","single-stim-button","200","362904","0.0-2.0-40.8-0.8","60e4a68fea6bb239a06fc072","F1","batch6","","401","tol_tohand","","","","tol_peg_1","401","401","0","[[0,0,0],[1,0],[2]]","9","[[2,0,0],[1,3],[0]]","10","0","","","","","","6","","","","","","","","",""
"","","","","","single-stim-button","201","363302","0.0-2.0-40.8-1.8","60e4a68fea6bb239a06fc072","F1","batch6","","396","tol_toboard","","","","tol_peg_2","396","396","0","[[0,0,0],[1,3],[2]]","9","[[2,0,0],[1,3],[0]]","10","0","","","","","","6","","","","","","","","",""
"","","","","","single-stim-button","202","363676","0.0-2.0-40.9-0.9","60e4a68fea6bb239a06fc072","F1","batch6","","373","tol_tohand","","","","tol_peg_3","373","373","0","[[0,0,0],[1,3],[0]]","10","[[2,0,0],[1,3],[0]]","10","0","","","","","","6","","","","","","","","",""
"","","","","","single-stim-button","203","364053","0.0-2.0-40.9-1.9","60e4a68fea6bb239a06fc072","F1","batch6","","375","tol_toboard","","","","tol_peg_1","375","375","0","[[2,0,0],[1,3],[0]]","10","[[2,0,0],[1,3],[0]]","10","0","","","","","","6","","","","","","","","",""
"","","","","","poldrack-single-stim","204","365062","0.0-2.0-41.0","60e4a68fea6bb239a06fc072","F1","batch6","","-1","tol_feedback","","","true","","1000","1000","500","","","","","","-1","none","true","3229","10205","","","","","","","","","",""
"","","","","","html-button-response","205","365691","0.0-2.0-42.0","60e4a68fea6bb239a06fc072","F1","batch6","","627.7999999523163","tol_trial_num","<div class = centerbox><p class = center-block-text>problem <strong>12</strong> out of 25 problems</p></div>","0","","","","","","","","","","","","","","","","","","","","","","","","",""
"","","","","","single-stim-button","206","369831","0.0-2.0-43.0-0.0","60e4a68fea6bb239a06fc072","F1","batch6","","4137","tol_tohand","","","","tol_peg_1","4137","4137","0","[[1,0,0],[3,0],[0]]","1","[[2,3,0],[0,0],[1]]","11","0","","","","","","4","","","","","","","","",""
"","","","","","single-stim-button","207","370128","0.0-2.0-43.0-1.0","60e4a68fea6bb239a06fc072","F1","batch6","","295","tol_toboard","","","","tol_peg_2","295","295","0","[[1,0,0],[3,2],[0]]","1","[[2,3,0],[0,0],[1]]","11","0","","","","","","4","","","","","","","","",""
"","","","","","single-stim-button","208","370573","0.0-2.0-43.1-0.1","60e4a68fea6bb239a06fc072","F1","batch6","","443","tol_tohand","","","","tol_peg_1","443","443","0","[[0,0,0],[3,2],[0]]","2","[[2,3,0],[0,0],[1]]","11","0","","","","","","4","","","","","","","","",""
"","","","","","single-stim-button","209","370938","0.0-2.0-43.1-1.1","60e4a68fea6bb239a06fc072","F1","batch6","","364","tol_toboard","","","","tol_peg_3","364","364","0","[[0,0,0],[3,2],[1]]","2","[[2,3,0],[0,0],[1]]","11","0","","","","","","4","","","","","","","","",""
"","","","","","single-stim-button","210","372727","0.0-2.0-43.2-0.2","60e4a68fea6bb239a06fc072","F1","batch6","","1787","tol_tohand","","","","tol_peg_2","1787","1787","0","[[0,0,0],[3,0],[1]]","3","[[2,3,0],[0,0],[1]]","11","0","","","","","","4","","","","","","","","",""
"","","","","","single-stim-button","211","373062","0.0-2.0-43.2-1.2","60e4a68fea6bb239a06fc072","F1","batch6","","333","tol_toboard","","","","tol_peg_1","333","333","0","[[2,0,0],[3,0],[1]]","3","[[2,3,0],[0,0],[1]]","11","0","","","","","","4","","","","","","","","",""
"","","","","","single-stim-button","212","375197","0.0-2.0-43.3-0.3","60e4a68fea6bb239a06fc072","F1","batch6","","2133","tol_tohand","","","","tol_peg_2","2133","2133","0","[[2,0,0],[0,0],[1]]","4","[[2,3,0],[0,0],[1]]","11","0","","","","","","4","","","","","","","","",""
"","","","","","single-stim-button","213","376096","0.0-2.0-43.3-1.3","60e4a68fea6bb239a06fc072","F1","batch6","","897","tol_toboard","","","","tol_peg_1","897","897","0","[[2,3,0],[0,0],[1]]","4","[[2,3,0],[0,0],[1]]","11","0","","","","","","4","","","","","","","","",""
"","","","","","poldrack-single-stim","214","377112","0.0-2.0-44.0","60e4a68fea6bb239a06fc072","F1","batch6","","-1","tol_feedback","","","true","","1000","1000","500","","","","","","-1","none","true","4137","8500","","","","","","","","","",""
"","","","","","html-button-response","215","377825","0.0-2.0-45.0","60e4a68fea6bb239a06fc072","F1","batch6","","710.6000000238419","tol_trial_num","<div class = centerbox><p class = center-block-text>problem <strong>13</strong> out of 25 problems</p></div>","0","","","","","","","","","","","","","","","","","","","","","","","","",""
"","","","","","single-stim-button","216","380206","0.0-2.0-46.0-0.0","60e4a68fea6bb239a06fc072","F1","batch6","","2379","tol_tohand","","","","tol_peg_1","2379","2379","0","[[1,0,0],[3,0],[0]]","1","[[0,0,0],[2,3],[1]]","12","0","","","","","","4","","","","","","","","",""
"","","","","","single-stim-button","217","380673","0.0-2.0-46.0-1.0","60e4a68fea6bb239a06fc072","F1","batch6","","465","tol_toboard","","","","tol_peg_2","465","465","0","[[1,0,0],[3,2],[0]]","1","[[0,0,0],[2,3],[1]]","12","0","","","","","","4","","","","","","","","",""
"","","","","","single-stim-button","218","381116","0.0-2.0-46.1-0.1","60e4a68fea6bb239a06fc072","F1","batch6","","441","tol_tohand","","","","tol_peg_1","441","441","0","[[0,0,0],[3,2],[0]]","2","[[0,0,0],[2,3],[1]]","12","0","","","","","","4","","","","","","","","",""
"","","","","","single-stim-button","219","381718","0.0-2.0-46.1-1.1","60e4a68fea6bb239a06fc072","F1","batch6","","601","tol_toboard","","","","tol_peg_3","601","601","0","[[0,0,0],[3,2],[1]]","2","[[0,0,0],[2,3],[1]]","12","0","","","","","","4","","","","","","","","",""
"","","","","","single-stim-button","220","383242","0.0-2.0-46.2-0.2","60e4a68fea6bb239a06fc072","F1","batch6","","1522","tol_tohand","","","","tol_peg_2","1522","1522","0","[[0,0,0],[3,0],[1]]","3","[[0,0,0],[2,3],[1]]","12","0","","","","","","4","","","","","","","","",""
"","","","","","single-stim-button","221","383556","0.0-2.0-46.2-1.2","60e4a68fea6bb239a06fc072","F1","batch6","","313","tol_toboard","","","","tol_peg_1","313","313","0","[[2,0,0],[3,0],[1]]","3","[[0,0,0],[2,3],[1]]","12","0","","","","","","4","","","","","","","","",""
"","","","","","single-stim-button","222","384713","0.0-2.0-46.3-0.3","60e4a68fea6bb239a06fc072","F1","batch6","","1155","tol_tohand","","","","tol_peg_2","1155","1155","0","[[2,0,0],[0,0],[1]]","4","[[0,0,0],[2,3],[1]]","12","0","","","","","","4","","","","","","","","",""
"","","","","","single-stim-button","223","385197","0.0-2.0-46.3-1.3","60e4a68fea6bb239a06fc072","F1","batch6","","483","tol_toboard","","","","tol_peg_1","483","483","0","[[2,3,0],[0,0],[1]]","4","[[0,0,0],[2,3],[1]]","12","0","","","","","","4","","","","","","","","",""
"","","","","","single-stim-button","224","386612","0.0-2.0-46.4-0.4","60e4a68fea6bb239a06fc072","F1","batch6","","1413","tol_tohand","","","","tol_peg_3","1413","1413","0","[[2,3,0],[0,0],[0]]","5","[[0,0,0],[2,3],[1]]","12","0","","","","","","4","","","","","","","","",""
"","","","","","single-stim-button","225","386946","0.0-2.0-46.4-1.4","60e4a68fea6bb239a06fc072","F1","batch6","","332","tol_toboard","","","","tol_peg_2","332","332","0","[[2,3,0],[1,0],[0]]","5","[[0,0,0],[2,3],[1]]","12","0","","","","","","4","","","","","","","","",""
"","","","","","single-stim-button","226","387519","0.0-2.0-46.5-0.5","60e4a68fea6bb239a06fc072","F1","batch6","","572","tol_tohand","","","","tol_peg_1","572","572","0","[[2,0,0],[1,0],[0]]","6","[[0,0,0],[2,3],[1]]","12","0","","","","","","4","","","","","","","","",""
"","","","","","single-stim-button","227","388783","0.0-2.0-46.5-1.5","60e4a68fea6bb239a06fc072","F1","batch6","","1262","tol_toboard","","","","tol_peg_2","1262","1262","0","[[2,0,0],[1,3],[0]]","6","[[0,0,0],[2,3],[1]]","12","0","","","","","","4","","","","","","","","",""
"","","","","","single-stim-button","228","389219","0.0-2.0-46.6-0.6","60e4a68fea6bb239a06fc072","F1","batch6","","435","tol_tohand","","","","tol_peg_1","435","435","0","[[0,0,0],[1,3],[0]]","7","[[0,0,0],[2,3],[1]]","12","0","","","","","","4","","","","","","","","",""
"","","","","","single-stim-button","229","389575","0.0-2.0-46.6-1.6","60e4a68fea6bb239a06fc072","F1","batch6","","355","tol_toboard","","","","tol_peg_3","355","355","0","[[0,0,0],[1,3],[2]]","7","[[0,0,0],[2,3],[1]]","12","0","","","","","","4","","","","","","","","",""
"","","","","","single-stim-button","230","390017","0.0-2.0-46.7-0.7","60e4a68fea6bb239a06fc072","F1","batch6","","441","tol_tohand","","","","tol_peg_2","441","441","0","[[0,0,0],[1,0],[2]]","8","[[0,0,0],[2,3],[1]]","12","0","","","","","","4","","","","","","","","",""
"","","","","","single-stim-button","231","390385","0.0-2.0-46.7-1.7","60e4a68fea6bb239a06fc072","F1","batch6","","367","tol_toboard","","","","tol_peg_1","367","367","0","[[3,0,0],[1,0],[2]]","8","[[0,0,0],[2,3],[1]]","12","0","","","","","","4","","","","","","","","",""
"","","","","","single-stim-button","232","391680","0.0-2.0-46.8-0.8","60e4a68fea6bb239a06fc072","F1","batch6","","1293","tol_tohand","","","","tol_peg_2","1293","1293","0","[[3,0,0],[0,0],[2]]","9","[[0,0,0],[2,3],[1]]","12","0","","","","","","4","","","","","","","","",""
"","","","","","single-stim-button","233","391996","0.0-2.0-46.8-1.8","60e4a68fea6bb239a06fc072","F1","batch6","","314","tol_toboard","","","","tol_peg_1","314","314","0","[[3,1,0],[0,0],[2]]","9","[[0,0,0],[2,3],[1]]","12","0","","","","","","4","","","","","","","","",""
"","","","","","single-stim-button","234","392471","0.0-2.0-46.9-0.9","60e4a68fea6bb239a06fc072","F1","batch6","","473","tol_tohand","","","","tol_peg_3","473","473","0","[[3,1,0],[0,0],[0]]","10","[[0,0,0],[2,3],[1]]","12","0","","","","","","4","","","","","","","","",""
"","","","","","single-stim-button","235","392926","0.0-2.0-46.9-1.9","60e4a68fea6bb239a06fc072","F1","batch6","","453","tol_toboard","","","","tol_peg_2","453","453","0","[[3,1,0],[2,0],[0]]","10","[[0,0,0],[2,3],[1]]","12","0","","","","","","4","","","","","","","","",""
"","","","","","single-stim-button","236","393332","0.0-2.0-46.10-0.10","60e4a68fea6bb239a06fc072","F1","batch6","","405","tol_tohand","","","","tol_peg_1","405","405","0","[[3,0,0],[2,0],[0]]","11","[[0,0,0],[2,3],[1]]","12","0","","","","","","4","","","","","","","","",""
"","","","","","single-stim-button","237","393658","0.0-2.0-46.10-1.10","60e4a68fea6bb239a06fc072","F1","batch6","","323","tol_toboard","","","","tol_peg_3","323","323","0","[[3,0,0],[2,0],[1]]","11","[[0,0,0],[2,3],[1]]","12","0","","","","","","4","","","","","","","","",""
"","","","","","single-stim-button","238","394005","0.0-2.0-46.11-0.11","60e4a68fea6bb239a06fc072","F1","batch6","","345","tol_tohand","","","","tol_peg_1","345","345","0","[[0,0,0],[2,0],[1]]","12","[[0,0,0],[2,3],[1]]","12","0","","","","","","4","","","","","","","","",""
"","","","","","single-stim-button","239","394280","0.0-2.0-46.11-1.11","60e4a68fea6bb239a06fc072","F1","batch6","","273","tol_toboard","","","","tol_peg_2","273","273","0","[[0,0,0],[2,3],[1]]","12","[[0,0,0],[2,3],[1]]","12","0","","","","","","4","","","","","","","","",""
"","","","","","poldrack-single-stim","240","395298","0.0-2.0-47.0","60e4a68fea6bb239a06fc072","F1","batch6","","-1","tol_feedback","","","true","","1000","1000","500","","","","","","-1","none","true","2379","10874","","","","","","","","","",""
"","","","","","html-button-response","241","398224","0.0-2.0-48.0","60e4a68fea6bb239a06fc072","F1","batch6","","2923.600000023842","attention_check","<p class = block-text>How many balls are in your board<br></p>","1","true","","","","","","","","","","","","","","","","","","","","","","","",""
"","","","","","html-button-response","242","400178","0.0-2.0-49.0","60e4a68fea6bb239a06fc072","F1","batch6","","1951.6000000238419","tol_trial_num","<div class = centerbox><p class = center-block-text>problem <strong>14</strong> out of 25 problems</p></div>","0","","","","","","","","","","","","","","","","","","","","","","","","",""
"","","","","","single-stim-button","243","404387","0.0-2.0-50.0-0.0","60e4a68fea6bb239a06fc072","F1","batch6","","4207","tol_tohand","","","","tol_peg_1","4207","4207","0","[[2,0,0],[3,0],[0]]","1","[[1,2,0],[3,0],[0]]","13","0","","","","","","4","","","","","","","","",""
"","","","","","single-stim-button","244","405296","0.0-2.0-50.0-1.0","60e4a68fea6bb239a06fc072","F1","batch6","","907","tol_toboard","","","","tol_peg_3","907","907","0","[[2,0,0],[3,0],[1]]","1","[[1,2,0],[3,0],[0]]","13","0","","","","","","4","","","","","","","","",""
"","","","","","single-stim-button","245","405730","0.0-2.0-50.1-0.1","60e4a68fea6bb239a06fc072","F1","batch6","","433","tol_tohand","","","","tol_peg_1","433","433","0","[[0,0,0],[3,0],[1]]","2","[[1,2,0],[3,0],[0]]","13","0","","","","","","4","","","","","","","","",""
"","","","","","single-stim-button","246","406037","0.0-2.0-50.1-1.1","60e4a68fea6bb239a06fc072","F1","batch6","","305","tol_toboard","","","","tol_peg_2","305","305","0","[[0,0,0],[3,2],[1]]","2","[[1,2,0],[3,0],[0]]","13","0","","","","","","4","","","","","","","","",""
"","","","","","single-stim-button","247","406402","0.0-2.0-50.2-0.2","60e4a68fea6bb239a06fc072","F1","batch6","","363","tol_tohand","","","","tol_peg_3","363","363","0","[[0,0,0],[3,2],[0]]","3","[[1,2,0],[3,0],[0]]","13","0","","","","","","4","","","","","","","","",""
"","","","","","single-stim-button","248","406759","0.0-2.0-50.2-1.2","60e4a68fea6bb239a06fc072","F1","batch6","","356","tol_toboard","","","","tol_peg_1","356","356","0","[[1,0,0],[3,2],[0]]","3","[[1,2,0],[3,0],[0]]","13","0","","","","","","4","","","","","","","","",""
"","","","","","single-stim-button","249","407055","0.0-2.0-50.3-0.3","60e4a68fea6bb239a06fc072","F1","batch6","","295","tol_tohand","","","","tol_peg_2","295","295","0","[[1,0,0],[3,0],[0]]","4","[[1,2,0],[3,0],[0]]","13","0","","","","","","4","","","","","","","","",""
"","","","","","single-stim-button","250","407344","0.0-2.0-50.3-1.3","60e4a68fea6bb239a06fc072","F1","batch6","","286","tol_toboard","","","","tol_peg_1","286","286","0","[[1,2,0],[3,0],[0]]","4","[[1,2,0],[3,0],[0]]","13","0","","","","","","4","","","","","","","","",""
"","","","","","poldrack-single-stim","251","408359","0.0-2.0-51.0","60e4a68fea6bb239a06fc072","F1","batch6","","-1","tol_feedback","","","true","","1000","1000","500","","","","","","-1","none","true","4207","5298","","","","","","","","","",""
"","","","","","html-button-response","252","409061","0.0-2.0-52.0","60e4a68fea6bb239a06fc072","F1","batch6","","700.1999999284744","tol_trial_num","<div class = centerbox><p class = center-block-text>problem <strong>15</strong> out of 25 problems</p></div>","0","","","","","","","","","","","","","","","","","","","","","","","","",""
"","","","","","single-stim-button","253","411313","0.0-2.0-53.0-0.0","60e4a68fea6bb239a06fc072","F1","batch6","","2250","tol_tohand","","","","tol_peg_1","2250","2250","0","[[1,0,0],[3,0],[0]]","1","[[2,0,0],[3,0],[1]]","14","0","","","","","","3","","","","","","","","",""
"","","","","","single-stim-button","254","412509","0.0-2.0-53.0-1.0","60e4a68fea6bb239a06fc072","F1","batch6","","1195","tol_toboard","","","","tol_peg_2","1195","1195","0","[[1,0,0],[3,2],[0]]","1","[[2,0,0],[3,0],[1]]","14","0","","","","","","3","","","","","","","","",""
"","","","","","single-stim-button","255","412865","0.0-2.0-53.1-0.1","60e4a68fea6bb239a06fc072","F1","batch6","","355","tol_tohand","","","","tol_peg_1","355","355","0","[[0,0,0],[3,2],[0]]","2","[[2,0,0],[3,0],[1]]","14","0","","","","","","3","","","","","","","","",""
"","","","","","single-stim-button","256","413223","0.0-2.0-53.1-1.1","60e4a68fea6bb239a06fc072","F1","batch6","","356","tol_toboard","","","","tol_peg_3","356","356","0","[[0,0,0],[3,2],[1]]","2","[[2,0,0],[3,0],[1]]","14","0","","","","","","3","","","","","","","","",""
"","","","","","single-stim-button","257","413647","0.0-2.0-53.2-0.2","60e4a68fea6bb239a06fc072","F1","batch6","","422","tol_tohand","","","","tol_peg_2","422","422","0","[[0,0,0],[3,0],[1]]","3","[[2,0,0],[3,0],[1]]","14","0","","","","","","3","","","","","","","","",""
"","","","","","single-stim-button","258","413972","0.0-2.0-53.2-1.2","60e4a68fea6bb239a06fc072","F1","batch6","","324","tol_toboard","","","","tol_peg_1","324","324","0","[[2,0,0],[3,0],[1]]","3","[[2,0,0],[3,0],[1]]","14","0","","","","","","3","","","","","","","","",""
"","","","","","poldrack-single-stim","259","414990","0.0-2.0-54.0","60e4a68fea6bb239a06fc072","F1","batch6","","-1","tol_feedback","","","true","","1000","1000","500","","","","","","-1","none","true","2250","3027","","","","","","","","","",""
"","","","","","html-button-response","260","415671","0.0-2.0-55.0","60e4a68fea6bb239a06fc072","F1","batch6","","679.8000000715256","tol_trial_num","<div class = centerbox><p class = center-block-text>problem <strong>16</strong> out of 25 problems</p></div>","0","","","","","","","","","","","","","","","","","","","","","","","","",""
"","","","","","single-stim-button","261","419278","0.0-2.0-56.0-0.0","60e4a68fea6bb239a06fc072","F1","batch6","","3605","tol_tohand","","","","tol_peg_2","3605","3605","0","[[0,0,0],[2,0],[1]]","1","[[2,3,0],[1,0],[0]]","15","0","","","","","","7","","","","","","","","",""
"","","","","","single-stim-button","262","419714","0.0-2.0-56.0-1.0","60e4a68fea6bb239a06fc072","F1","batch6","","434","tol_toboard","","","","tol_peg_1","434","434","0","[[3,0,0],[2,0],[1]]","1","[[2,3,0],[1,0],[0]]","15","0","","","","","","7","","","","","","","","",""
"","","","","","single-stim-button","263","420563","0.0-2.0-56.1-0.1","60e4a68fea6bb239a06fc072","F1","batch6","","847","tol_tohand","","","","tol_peg_2","847","847","0","[[3,0,0],[0,0],[1]]","2","[[2,3,0],[1,0],[0]]","15","0","","","","","","7","","","","","","","","",""
"","","","","","single-stim-button","264","420968","0.0-2.0-56.1-1.1","60e4a68fea6bb239a06fc072","F1","batch6","","403","tol_toboard","","","","tol_peg_1","403","403","0","[[3,2,0],[0,0],[1]]","2","[[2,3,0],[1,0],[0]]","15","0","","","","","","7","","","","","","","","",""
"","","","","","single-stim-button","265","421363","0.0-2.0-56.2-0.2","60e4a68fea6bb239a06fc072","F1","batch6","","393","tol_tohand","","","","tol_peg_3","393","393","0","[[3,2,0],[0,0],[0]]","3","[[2,3,0],[1,0],[0]]","15","0","","","","","","7","","","","","","","","",""
"","","","","","single-stim-button","266","421818","0.0-2.0-56.2-1.2","60e4a68fea6bb239a06fc072","F1","batch6","","453","tol_toboard","","","","tol_peg_2","453","453","0","[[3,2,0],[1,0],[0]]","3","[[2,3,0],[1,0],[0]]","15","0","","","","","","7","","","","","","","","",""
"","","","","","single-stim-button","267","422522","0.0-2.0-56.3-0.3","60e4a68fea6bb239a06fc072","F1","batch6","","702","tol_tohand","","","","tol_peg_1","702","702","0","[[3,0,0],[1,0],[0]]","4","[[2,3,0],[1,0],[0]]","15","0","","","","","","7","","","","","","","","",""
"","","","","","single-stim-button","268","423221","0.0-2.0-56.3-1.3","60e4a68fea6bb239a06fc072","F1","batch6","","697","tol_toboard","","","","tol_peg_3","697","697","0","[[3,0,0],[1,0],[2]]","4","[[2,3,0],[1,0],[0]]","15","0","","","","","","7","","","","","","","","",""
"","","","","","single-stim-button","269","424333","0.0-2.0-56.4-0.4","60e4a68fea6bb239a06fc072","F1","batch6","","1111","tol_tohand","","","","tol_peg_1","1111","1111","0","[[0,0,0],[1,0],[2]]","5","[[2,3,0],[1,0],[0]]","15","0","","","","","","7","","","","","","","","",""
"","","","","","single-stim-button","270","424632","0.0-2.0-56.4-1.4","60e4a68fea6bb239a06fc072","F1","batch6","","298","tol_toboard","","","","tol_peg_2","298","298","0","[[0,0,0],[1,3],[2]]","5","[[2,3,0],[1,0],[0]]","15","0","","","","","","7","","","","","","","","",""
"","","","","","single-stim-button","271","425060","0.0-2.0-56.5-0.5","60e4a68fea6bb239a06fc072","F1","batch6","","427","tol_tohand","","","","tol_peg_3","427","427","0","[[0,0,0],[1,3],[0]]","6","[[2,3,0],[1,0],[0]]","15","0","","","","","","7","","","","","","","","",""
"","","","","","single-stim-button","272","425435","0.0-2.0-56.5-1.5","60e4a68fea6bb239a06fc072","F1","batch6","","374","tol_toboard","","","","tol_peg_1","374","374","0","[[2,0,0],[1,3],[0]]","6","[[2,3,0],[1,0],[0]]","15","0","","","","","","7","","","","","","","","",""
"","","","","","single-stim-button","273","425791","0.0-2.0-56.6-0.6","60e4a68fea6bb239a06fc072","F1","batch6","","355","tol_tohand","","","","tol_peg_2","355","355","0","[[2,0,0],[1,0],[0]]","7","[[2,3,0],[1,0],[0]]","15","0","","","","","","7","","","","","","","","",""
"","","","","","single-stim-button","274","426128","0.0-2.0-56.6-1.6","60e4a68fea6bb239a06fc072","F1","batch6","","334","tol_toboard","","","","tol_peg_1","334","334","0","[[2,3,0],[1,0],[0]]","7","[[2,3,0],[1,0],[0]]","15","0","","","","","","7","","","","","","","","",""
"","","","","","poldrack-single-stim","275","427145","0.0-2.0-57.0","60e4a68fea6bb239a06fc072","F1","batch6","","-1","tol_feedback","","","true","","1000","1000","500","","","","","","-1","none","true","3605","7440","","","","","","","","","",""
"","","","","","html-button-response","276","428360","0.0-2.0-58.0","60e4a68fea6bb239a06fc072","F1","batch6","","1213.2000000476837","tol_trial_num","<div class = centerbox><p class = center-block-text>problem <strong>17</strong> out of 25 problems</p></div>","0","","","","","","","","","","","","","","","","","","","","","","","","",""
"","","","","","single-stim-button","277","432697","0.0-2.0-59.0-0.0","60e4a68fea6bb239a06fc072","F1","batch6","","4336","tol_tohand","","","","tol_peg_2","4336","4336","0","[[1,2,0],[0,0],[0]]","1","[[3,1,0],[2,0],[0]]","16","0","","","","","","5","","","","","","","","",""
"","","","","","single-stim-button","278","433378","0.0-2.0-59.0-1.0","60e4a68fea6bb239a06fc072","F1","batch6","","679","tol_toboard","","","","tol_peg_3","679","679","0","[[1,2,0],[0,0],[3]]","1","[[3,1,0],[2,0],[0]]","16","0","","","","","","5","","","","","","","","",""
"","","","","","single-stim-button","279","433853","0.0-2.0-59.1-0.1","60e4a68fea6bb239a06fc072","F1","batch6","","472","tol_tohand","","","","tol_peg_1","472","472","0","[[1,0,0],[0,0],[3]]","2","[[3,1,0],[2,0],[0]]","16","0","","","","","","5","","","","","","","","",""
"","","","","","single-stim-button","280","434298","0.0-2.0-59.1-1.1","60e4a68fea6bb239a06fc072","F1","batch6","","444","tol_toboard","","","","tol_peg_2","444","444","0","[[1,0,0],[2,0],[3]]","2","[[3,1,0],[2,0],[0]]","16","0","","","","","","5","","","","","","","","",""
"","","","","","single-stim-button","281","436382","0.0-2.0-59.2-0.2","60e4a68fea6bb239a06fc072","F1","batch6","","2083","tol_tohand","","","","tol_peg_1","2083","2083","0","[[0,0,0],[2,0],[3]]","3","[[3,1,0],[2,0],[0]]","16","0","","","","","","5","","","","","","","","",""
"","","","","","single-stim-button","282","436669","0.0-2.0-59.2-1.2","60e4a68fea6bb239a06fc072","F1","batch6","","285","tol_toboard","","","","tol_peg_2","285","285","0","[[0,0,0],[2,1],[3]]","3","[[3,1,0],[2,0],[0]]","16","0","","","","","","5","","","","","","","","",""
"","","","","","single-stim-button","283","437005","0.0-2.0-59.3-0.3","60e4a68fea6bb239a06fc072","F1","batch6","","335","tol_tohand","","","","tol_peg_3","335","335","0","[[0,0,0],[2,1],[0]]","4","[[3,1,0],[2,0],[0]]","16","0","","","","","","5","","","","","","","","",""
"","","","","","single-stim-button","284","437431","0.0-2.0-59.3-1.3","60e4a68fea6bb239a06fc072","F1","batch6","","424","tol_toboard","","","","tol_peg_1","424","424","0","[[3,0,0],[2,1],[0]]","4","[[3,1,0],[2,0],[0]]","16","0","","","","","","5","","","","","","","","",""
"","","","","","single-stim-button","285","437826","0.0-2.0-59.4-0.4","60e4a68fea6bb239a06fc072","F1","batch6","","394","tol_tohand","","","","tol_peg_2","394","394","0","[[3,0,0],[2,0],[0]]","5","[[3,1,0],[2,0],[0]]","16","0","","","","","","5","","","","","","","","",""
"","","","","","single-stim-button","286","438094","0.0-2.0-59.4-1.4","60e4a68fea6bb239a06fc072","F1","batch6","","265","tol_toboard","","","","tol_peg_1","265","265","0","[[3,1,0],[2,0],[0]]","5","[[3,1,0],[2,0],[0]]","16","0","","","","","","5","","","","","","","","",""
"","","","","","poldrack-single-stim","287","439104","0.0-2.0-60.0","60e4a68fea6bb239a06fc072","F1","batch6","","-1","tol_feedback","","","true","","1000","1000","500","","","","","","-1","none","true","4336","7620","","","","","","","","","",""
"","","","","","html-button-response","288","439782","0.0-2.0-61.0","60e4a68fea6bb239a06fc072","F1","batch6","","675.8999999761581","tol_trial_num","<div class = centerbox><p class = center-block-text>problem <strong>18</strong> out of 25 problems</p></div>","0","","","","","","","","","","","","","","","","","","","","","","","","",""
"","","","","","single-stim-button","289","442341","0.0-2.0-62.0-0.0","60e4a68fea6bb239a06fc072","F1","batch6","","2557","tol_tohand","","","","tol_peg_1","2557","2557","0","[[1,0,0],[3,0],[0]]","1","[[3,0,0],[2,0],[1]]","17","0","","","","","","5","","","","","","","","",""
"","","","","","single-stim-button","290","446125","0.0-2.0-62.0-1.0","60e4a68fea6bb239a06fc072","F1","batch6","","3782","tol_toboard","","","","tol_peg_2","3782","3782","0","[[1,0,0],[3,2],[0]]","1","[[3,0,0],[2,0],[1]]","17","0","","","","","","5","","","","","","","","",""
"","","","","","single-stim-button","291","446579","0.0-2.0-62.1-0.1","60e4a68fea6bb239a06fc072","F1","batch6","","453","tol_tohand","","","","tol_peg_1","453","453","0","[[0,0,0],[3,2],[0]]","2","[[3,0,0],[2,0],[1]]","17","0","","","","","","5","","","","","","","","",""
"","","","","","single-stim-button","292","447123","0.0-2.0-62.1-1.1","60e4a68fea6bb239a06fc072","F1","batch6","","542","tol_toboard","","","","tol_peg_3","542","542","0","[[0,0,0],[3,2],[1]]","2","[[3,0,0],[2,0],[1]]","17","0","","","","","","5","","","","","","","","",""
"","","","","","single-stim-button","293","447627","0.0-2.0-62.2-0.2","60e4a68fea6bb239a06fc072","F1","batch6","","503","tol_tohand","","","","tol_peg_2","503","503","0","[[0,0,0],[3,0],[1]]","3","[[3,0,0],[2,0],[1]]","17","0","","","","","","5","","","","","","","","",""
"","","","","","single-stim-button","294","447933","0.0-2.0-62.2-1.2","60e4a68fea6bb239a06fc072","F1","batch6","","304","tol_toboard","","","","tol_peg_1","304","304","0","[[2,0,0],[3,0],[1]]","3","[[3,0,0],[2,0],[1]]","17","0","","","","","","5","","","","","","","","",""
"","","","","","single-stim-button","295","448853","0.0-2.0-62.3-0.3","60e4a68fea6bb239a06fc072","F1","batch6","","918","tol_tohand","","","","tol_peg_2","918","918","0","[[2,0,0],[0,0],[1]]","4","[[3,0,0],[2,0],[1]]","17","0","","","","","","5","","","","","","","","",""
"","","","","","single-stim-button","296","449150","0.0-2.0-62.3-1.3","60e4a68fea6bb239a06fc072","F1","batch6","","295","tol_toboard","","","","tol_peg_1","295","295","0","[[2,3,0],[0,0],[1]]","4","[[3,0,0],[2,0],[1]]","17","0","","","","","","5","","","","","","","","",""
"","","","","","single-stim-button","297","450029","0.0-2.0-62.4-0.4","60e4a68fea6bb239a06fc072","F1","batch6","","877","tol_tohand","","","","tol_peg_1","877","877","0","[[2,0,0],[0,0],[1]]","5","[[3,0,0],[2,0],[1]]","17","0","","","","","","5","","","","","","","","",""
"","","","","","single-stim-button","298","450544","0.0-2.0-62.4-1.4","60e4a68fea6bb239a06fc072","F1","batch6","","513","tol_toboard","","","","tol_peg_2","513","513","0","[[2,0,0],[3,0],[1]]","5","[[3,0,0],[2,0],[1]]","17","0","","","","","","5","","","","","","","","",""
"","","","","","single-stim-button","299","450919","0.0-2.0-62.5-0.5","60e4a68fea6bb239a06fc072","F1","batch6","","373","tol_tohand","","","","tol_peg_3","373","373","0","[[2,0,0],[3,0],[0]]","6","[[3,0,0],[2,0],[1]]","17","0","","","","","","5","","","","","","","","",""
"","","","","","single-stim-button","300","451186","0.0-2.0-62.5-1.5","60e4a68fea6bb239a06fc072","F1","batch6","","266","tol_toboard","","","","tol_peg_2","266","266","0","[[2,0,0],[3,1],[0]]","6","[[3,0,0],[2,0],[1]]","17","0","","","","","","5","","","","","","","","",""
"","","","","","single-stim-button","301","451799","0.0-2.0-62.6-0.6","60e4a68fea6bb239a06fc072","F1","batch6","","611","tol_tohand","","","","tol_peg_1","611","611","0","[[0,0,0],[3,1],[0]]","7","[[3,0,0],[2,0],[1]]","17","0","","","","","","5","","","","","","","","",""
"","","","","","single-stim-button","302","452135","0.0-2.0-62.6-1.6","60e4a68fea6bb239a06fc072","F1","batch6","","335","tol_toboard","","","","tol_peg_3","335","335","0","[[0,0,0],[3,1],[2]]","7","[[3,0,0],[2,0],[1]]","17","0","","","","","","5","","","","","","","","",""
"","","","","","single-stim-button","303","452905","0.0-2.0-62.7-0.7","60e4a68fea6bb239a06fc072","F1","batch6","","769","tol_tohand","","","","tol_peg_2","769","769","0","[[0,0,0],[3,0],[2]]","8","[[3,0,0],[2,0],[1]]","17","0","","","","","","5","","","","","","","","",""
"","","","","","single-stim-button","304","453646","0.0-2.0-62.7-1.7","60e4a68fea6bb239a06fc072","F1","batch6","","740","tol_toboard","","","","tol_peg_1","740","740","0","[[1,0,0],[3,0],[2]]","8","[[3,0,0],[2,0],[1]]","17","0","","","","","","5","","","","","","","","",""
"","","","","","single-stim-button","305","454358","0.0-2.0-62.8-0.8","60e4a68fea6bb239a06fc072","F1","batch6","","709","tol_tohand","","","","tol_peg_2","709","709","0","[[1,0,0],[0,0],[2]]","9","[[3,0,0],[2,0],[1]]","17","0","","","","","","5","","","","","","","","",""
"","","","","","single-stim-button","306","454674","0.0-2.0-62.8-1.8","60e4a68fea6bb239a06fc072","F1","batch6","","314","tol_toboard","","","","tol_peg_1","314","314","0","[[1,3,0],[0,0],[2]]","9","[[3,0,0],[2,0],[1]]","17","0","","","","","","5","","","","","","","","",""
"","","","","","single-stim-button","307","455287","0.0-2.0-62.9-0.9","60e4a68fea6bb239a06fc072","F1","batch6","","612","tol_tohand","","","","tol_peg_3","612","612","0","[[1,3,0],[0,0],[0]]","10","[[3,0,0],[2,0],[1]]","17","0","","","","","","5","","","","","","","","",""
"","","","","","single-stim-button","308","455573","0.0-2.0-62.9-1.9","60e4a68fea6bb239a06fc072","F1","batch6","","284","tol_toboard","","","","tol_peg_2","284","284","0","[[1,3,0],[2,0],[0]]","10","[[3,0,0],[2,0],[1]]","17","0","","","","","","5","","","","","","","","",""
"","","","","","single-stim-button","309","456799","0.0-2.0-62.10-0.10","60e4a68fea6bb239a06fc072","F1","batch6","","1225","tol_tohand","","","","tol_peg_1","1225","1225","0","[[1,0,0],[2,0],[0]]","11","[[3,0,0],[2,0],[1]]","17","0","","","","","","5","","","","","","","","",""
"","","","","","single-stim-button","310","457401","0.0-2.0-62.10-1.10","60e4a68fea6bb239a06fc072","F1","batch6","","600","tol_toboard","","","","tol_peg_3","600","600","0","[[1,0,0],[2,0],[3]]","11","[[3,0,0],[2,0],[1]]","17","0","","","","","","5","","","","","","","","",""
"","","","","","single-stim-button","311","457995","0.0-2.0-62.11-0.11","60e4a68fea6bb239a06fc072","F1","batch6","","592","tol_tohand","","","","tol_peg_1","592","592","0","[[0,0,0],[2,0],[3]]","12","[[3,0,0],[2,0],[1]]","17","0","","","","","","5","","","","","","","","",""
"","","","","","single-stim-button","312","458311","0.0-2.0-62.11-1.11","60e4a68fea6bb239a06fc072","F1","batch6","","314","tol_toboard","","","","tol_peg_2","314","314","0","[[0,0,0],[2,1],[3]]","12","[[3,0,0],[2,0],[1]]","17","0","","","","","","5","","","","","","","","",""
"","","","","","single-stim-button","313","459161","0.0-2.0-62.12-0.12","60e4a68fea6bb239a06fc072","F1","batch6","","848","tol_tohand","","","","tol_peg_3","848","848","0","[[0,0,0],[2,1],[0]]","13","[[3,0,0],[2,0],[1]]","17","0","","","","","","5","","","","","","","","",""
"","","","","","single-stim-button","314","459645","0.0-2.0-62.12-1.12","60e4a68fea6bb239a06fc072","F1","batch6","","483","tol_toboard","","","","tol_peg_1","483","483","0","[[3,0,0],[2,1],[0]]","13","[[3,0,0],[2,0],[1]]","17","0","","","","","","5","","","","","","","","",""
"","","","","","single-stim-button","315","459961","0.0-2.0-62.13-0.13","60e4a68fea6bb239a06fc072","F1","batch6","","315","tol_tohand","","","","tol_peg_2","315","315","0","[[3,0,0],[2,0],[0]]","14","[[3,0,0],[2,0],[1]]","17","0","","","","","","5","","","","","","","","",""
"","","","","","single-stim-button","316","460259","0.0-2.0-62.13-1.13","60e4a68fea6bb239a06fc072","F1","batch6","","296","tol_toboard","","","","tol_peg_3","296","296","0","[[3,0,0],[2,0],[1]]","14","[[3,0,0],[2,0],[1]]","17","0","","","","","","5","","","","","","","","",""
"","","","","","poldrack-single-stim","317","461270","0.0-2.0-63.0","60e4a68fea6bb239a06fc072","F1","batch6","","-1","tol_feedback","","","true","","1000","1000","500","","","","","","-1","none","true","2557","11362","","","","","","","","","",""
"","","","","","html-button-response","318","462008","0.0-2.0-64.0","60e4a68fea6bb239a06fc072","F1","batch6","","735.8999999761581","tol_trial_num","<div class = centerbox><p class = center-block-text>problem <strong>19</strong> out of 25 problems</p></div>","0","","","","","","","","","","","","","","","","","","","","","","","","",""
"","","","","","single-stim-button","319","470750","0.0-2.0-65.0-0.0","60e4a68fea6bb239a06fc072","F1","batch6","","8740","tol_tohand","","","","tol_peg_1","8740","8740","0","[[1,0,0],[3,0],[0]]","1","[[0,0,0],[1,2],[3]]","18","0","","","","","","7","","","","","","","","",""
"","","","","","single-stim-button","320","471193","0.0-2.0-65.0-1.0","60e4a68fea6bb239a06fc072","F1","batch6","","442","tol_toboard","","","","tol_peg_2","442","442","0","[[1,0,0],[3,2],[0]]","1","[[0,0,0],[1,2],[3]]","18","0","","","","","","7","","","","","","","","",""
"","","","","","single-stim-button","321","471611","0.0-2.0-65.1-0.1","60e4a68fea6bb239a06fc072","F1","batch6","","416","tol_tohand","","","","tol_peg_1","416","416","0","[[0,0,0],[3,2],[0]]","2","[[0,0,0],[1,2],[3]]","18","0","","","","","","7","","","","","","","","",""
"","","","","","single-stim-button","322","472202","0.0-2.0-65.1-1.1","60e4a68fea6bb239a06fc072","F1","batch6","","588","tol_toboard","","","","tol_peg_3","588","588","0","[[0,0,0],[3,2],[1]]","2","[[0,0,0],[1,2],[3]]","18","0","","","","","","7","","","","","","","","",""
"","","","","","single-stim-button","323","474050","0.0-2.0-65.2-0.2","60e4a68fea6bb239a06fc072","F1","batch6","","1846","tol_tohand","","","","tol_peg_2","1846","1846","0","[[0,0,0],[3,0],[1]]","3","[[0,0,0],[1,2],[3]]","18","0","","","","","","7","","","","","","","","",""
"","","","","","single-stim-button","324","474474","0.0-2.0-65.2-1.2","60e4a68fea6bb239a06fc072","F1","batch6","","423","tol_toboard","","","","tol_peg_1","423","423","0","[[2,0,0],[3,0],[1]]","3","[[0,0,0],[1,2],[3]]","18","0","","","","","","7","","","","","","","","",""
"","","","","","single-stim-button","325","475058","0.0-2.0-65.3-0.3","60e4a68fea6bb239a06fc072","F1","batch6","","582","tol_tohand","","","","tol_peg_2","582","582","0","[[2,0,0],[0,0],[1]]","4","[[0,0,0],[1,2],[3]]","18","0","","","","","","7","","","","","","","","",""
"","","","","","single-stim-button","326","475374","0.0-2.0-65.3-1.3","60e4a68fea6bb239a06fc072","F1","batch6","","315","tol_toboard","","","","tol_peg_1","315","315","0","[[2,3,0],[0,0],[1]]","4","[[0,0,0],[1,2],[3]]","18","0","","","","","","7","","","","","","","","",""
"","","","","","single-stim-button","327","475769","0.0-2.0-65.4-0.4","60e4a68fea6bb239a06fc072","F1","batch6","","393","tol_tohand","","","","tol_peg_3","393","393","0","[[2,3,0],[0,0],[0]]","5","[[0,0,0],[1,2],[3]]","18","0","","","","","","7","","","","","","","","",""
"","","","","","single-stim-button","328","476106","0.0-2.0-65.4-1.4","60e4a68fea6bb239a06fc072","F1","batch6","","335","tol_toboard","","","","tol_peg_2","335","335","0","[[2,3,0],[1,0],[0]]","5","[[0,0,0],[1,2],[3]]","18","0","","","","","","7","","","","","","","","",""
"","","","","","single-stim-button","329","476511","0.0-2.0-65.5-0.5","60e4a68fea6bb239a06fc072","F1","batch6","","404","tol_tohand","","","","tol_peg_1","404","404","0","[[2,0,0],[1,0],[0]]","6","[[0,0,0],[1,2],[3]]","18","0","","","","","","7","","","","","","","","",""
"","","","","","single-stim-button","330","476947","0.0-2.0-65.5-1.5","60e4a68fea6bb239a06fc072","F1","batch6","","434","tol_toboard","","","","tol_peg_3","434","434","0","[[2,0,0],[1,0],[3]]","6","[[0,0,0],[1,2],[3]]","18","0","","","","","","7","","","","","","","","",""
"","","","","","single-stim-button","331","478033","0.0-2.0-65.6-0.6","60e4a68fea6bb239a06fc072","F1","batch6","","1084","tol_tohand","","","","tol_peg_1","1084","1084","0","[[0,0,0],[1,0],[3]]","7","[[0,0,0],[1,2],[3]]","18","0","","","","","","7","","","","","","","","",""
"","","","","","single-stim-button","332","478478","0.0-2.0-65.6-1.6","60e4a68fea6bb239a06fc072","F1","batch6","","443","tol_toboard","","","","tol_peg_2","443","443","0","[[0,0,0],[1,2],[3]]","7","[[0,0,0],[1,2],[3]]","18","0","","","","","","7","","","","","","","","",""
"","","","","","poldrack-single-stim","333","479483","0.0-2.0-66.0","60e4a68fea6bb239a06fc072","F1","batch6","","-1","tol_feedback","","","true","","1000","1000","500","","","","","","-1","none","true","8740","13465","","","","","","","","","",""
"","","","","","html-button-response","334","480582","0.0-2.0-67.0","60e4a68fea6bb239a06fc072","F1","batch6","","1096.3999999761581","tol_trial_num","<div class = centerbox><p class = center-block-text>problem <strong>20</strong> out of 25 problems</p></div>","0","","","","","","","","","","","","","","","","","","","","","","","","",""
"","","","","","single-stim-button","335","482698","0.0-2.0-68.0-0.0","60e4a68fea6bb239a06fc072","F1","batch6","","2114","tol_tohand","","","","tol_peg_2","2114","2114","0","[[1,2,0],[0,0],[0]]","1","[[2,1,0],[0,0],[3]]","19","0","","","","","","5","","","","","","","","",""
"","","","","","single-stim-button","336","482996","0.0-2.0-68.0-1.0","60e4a68fea6bb239a06fc072","F1","batch6","","296","tol_toboard","","","","tol_peg_3","296","296","0","[[1,2,0],[0,0],[3]]","1","[[2,1,0],[0,0],[3]]","19","0","","","","","","5","","","","","","","","",""
"","","","","","single-stim-button","337","483420","0.0-2.0-68.1-0.1","60e4a68fea6bb239a06fc072","F1","batch6","","422","tol_tohand","","","","tol_peg_1","422","422","0","[[1,0,0],[0,0],[3]]","2","[[2,1,0],[0,0],[3]]","19","0","","","","","","5","","","","","","","","",""
"","","","","","single-stim-button","338","483707","0.0-2.0-68.1-1.1","60e4a68fea6bb239a06fc072","F1","batch6","","285","tol_toboard","","","","tol_peg_2","285","285","0","[[1,0,0],[2,0],[3]]","2","[[2,1,0],[0,0],[3]]","19","0","","","","","","5","","","","","","","","",""
"","","","","","single-stim-button","339","486700","0.0-2.0-68.2-0.2","60e4a68fea6bb239a06fc072","F1","batch6","","2991","tol_tohand","","","","tol_peg_3","2991","2991","0","[[1,0,0],[2,0],[0]]","3","[[2,1,0],[0,0],[3]]","19","0","","","","","","5","","","","","","","","",""
"","","","","","single-stim-button","340","486967","0.0-2.0-68.2-1.2","60e4a68fea6bb239a06fc072","F1","batch6","","266","tol_toboard","","","","tol_peg_2","266","266","0","[[1,0,0],[2,3],[0]]","3","[[2,1,0],[0,0],[3]]","19","0","","","","","","5","","","","","","","","",""
"","","","","","single-stim-button","341","487302","0.0-2.0-68.3-0.3","60e4a68fea6bb239a06fc072","F1","batch6","","334","tol_tohand","","","","tol_peg_1","334","334","0","[[0,0,0],[2,3],[0]]","4","[[2,1,0],[0,0],[3]]","19","0","","","","","","5","","","","","","","","",""
"","","","","","single-stim-button","342","487639","0.0-2.0-68.3-1.3","60e4a68fea6bb239a06fc072","F1","batch6","","335","tol_toboard","","","","tol_peg_3","335","335","0","[[0,0,0],[2,3],[1]]","4","[[2,1,0],[0,0],[3]]","19","0","","","","","","5","","","","","","","","",""
"","","","","","single-stim-button","343","488736","0.0-2.0-68.4-0.4","60e4a68fea6bb239a06fc072","F1","batch6","","1096","tol_tohand","","","","tol_peg_2","1096","1096","0","[[0,0,0],[2,0],[1]]","5","[[2,1,0],[0,0],[3]]","19","0","","","","","","5","","","","","","","","",""
"","","","","","single-stim-button","344","490889","0.0-2.0-68.4-1.4","60e4a68fea6bb239a06fc072","F1","batch6","","2152","tol_toboard","","","","tol_peg_1","2152","2152","0","[[3,0,0],[2,0],[1]]","5","[[2,1,0],[0,0],[3]]","19","0","","","","","","5","","","","","","","","",""
"","","","","","single-stim-button","345","491542","0.0-2.0-68.5-0.5","60e4a68fea6bb239a06fc072","F1","batch6","","651","tol_tohand","","","","tol_peg_2","651","651","0","[[3,0,0],[0,0],[1]]","6","[[2,1,0],[0,0],[3]]","19","0","","","","","","5","","","","","","","","",""
"","","","","","single-stim-button","346","492066","0.0-2.0-68.5-1.5","60e4a68fea6bb239a06fc072","F1","batch6","","522","tol_toboard","","","","tol_peg_1","522","522","0","[[3,2,0],[0,0],[1]]","6","[[2,1,0],[0,0],[3]]","19","0","","","","","","5","","","","","","","","",""
"","","","","","single-stim-button","347","493004","0.0-2.0-68.6-0.6","60e4a68fea6bb239a06fc072","F1","batch6","","937","tol_tohand","","","","tol_peg_3","937","937","0","[[3,2,0],[0,0],[0]]","7","[[2,1,0],[0,0],[3]]","19","0","","","","","","5","","","","","","","","",""
"","","","","","single-stim-button","348","493350","0.0-2.0-68.6-1.6","60e4a68fea6bb239a06fc072","F1","batch6","","345","tol_toboard","","","","tol_peg_2","345","345","0","[[3,2,0],[1,0],[0]]","7","[[2,1,0],[0,0],[3]]","19","0","","","","","","5","","","","","","","","",""
"","","","","","single-stim-button","349","494744","0.0-2.0-68.7-0.7","60e4a68fea6bb239a06fc072","F1","batch6","","1391","tol_tohand","","","","tol_peg_1","1391","1391","0","[[3,0,0],[1,0],[0]]","8","[[2,1,0],[0,0],[3]]","19","0","","","","","","5","","","","","","","","",""
"","","","","","single-stim-button","350","494981","0.0-2.0-68.7-1.7","60e4a68fea6bb239a06fc072","F1","batch6","","235","tol_toboard","","","","tol_peg_2","235","235","0","[[3,0,0],[1,2],[0]]","8","[[2,1,0],[0,0],[3]]","19","0","","","","","","5","","","","","","","","",""
"","","","","","single-stim-button","351","495308","0.0-2.0-68.8-0.8","60e4a68fea6bb239a06fc072","F1","batch6","","325","tol_tohand","","","","tol_peg_1","325","325","0","[[0,0,0],[1,2],[0]]","9","[[2,1,0],[0,0],[3]]","19","0","","","","","","5","","","","","","","","",""
"","","","","","single-stim-button","352","495654","0.0-2.0-68.8-1.8","60e4a68fea6bb239a06fc072","F1","batch6","","344","tol_toboard","","","","tol_peg_3","344","344","0","[[0,0,0],[1,2],[3]]","9","[[2,1,0],[0,0],[3]]","19","0","","","","","","5","","","","","","","","",""
"","","","","","single-stim-button","353","496019","0.0-2.0-68.9-0.9","60e4a68fea6bb239a06fc072","F1","batch6","","364","tol_tohand","","","","tol_peg_2","364","364","0","[[0,0,0],[1,0],[3]]","10","[[2,1,0],[0,0],[3]]","19","0","","","","","","5","","","","","","","","",""
"","","","","","single-stim-button","354","496297","0.0-2.0-68.9-1.9","60e4a68fea6bb239a06fc072","F1","batch6","","275","tol_toboard","","","","tol_peg_1","275","275","0","[[2,0,0],[1,0],[3]]","10","[[2,1,0],[0,0],[3]]","19","0","","","","","","5","","","","","","","","",""
"","","","","","single-stim-button","355","496662","0.0-2.0-68.10-0.10","60e4a68fea6bb239a06fc072","F1","batch6","","363","tol_tohand","","","","tol_peg_2","363","363","0","[[2,0,0],[0,0],[3]]","11","[[2,1,0],[0,0],[3]]","19","0","","","","","","5","","","","","","","","",""
"","","","","","single-stim-button","356","496949","0.0-2.0-68.10-1.10","60e4a68fea6bb239a06fc072","F1","batch6","","285","tol_toboard","","","","tol_peg_1","285","285","0","[[2,1,0],[0,0],[3]]","11","[[2,1,0],[0,0],[3]]","19","0","","","","","","5","","","","","","","","",""
