"success","timeout","failed_images","failed_audio","failed_video","trial_type","trial_index","time_elapsed","internal_node_id","subject_id","study_id","session_id","view_history","rt","stimulus","response","task","correct","answer","item","fiar_detect_rt","fiar_detect_correct","total_correct_fiar_detect","post_trial_gap","choices","spm_correct","spm_rt","mouse_click","stim_duration","block_duration","timing_post_trial","current_position","tol_num_moves_made","tol_target","tol_problem_id","tol_rt","key_press","possible_responses","tol_correct","preplanning","tol_rt_per_trial","tol_min_moves"
"true","false","[]","[]","[]","preload","0","6472","0.0-0.0","60e5eceb989f38c746723024","D2","batch4","","","","","","","","","","","","","","","","","","","","","","","","","","","","","",""
"true","","","","","fullscreen","1","18244","0.0-1.0-0.0","60e5eceb989f38c746723024","D2","batch4","","","","","","","","","","","","","","","","","","","","","","","","","","","","","",""
"true","","","","","fullscreen","2","21059","0.0-2.0-0.0","60e5eceb989f38c746723024","D2","batch4","","","","","","","","","","","","","","","","","","","","","","","","","","","","","",""
"","","","","","instructions","3","32905","0.0-2.0-1.0-0.0","60e5eceb989f38c746723024","D2","batch4","[{""page_index"":0,""viewing_time"":9235.300000011921},{""page_index"":1,""viewing_time"":2609.599999964237}]","11845.199999988079","","","","","","","","","","","","","","","","","","","","","","","","","","","",""
"","","","","","html-button-response","4","34278","0.0-2.0-1.0-1.0-0.0","60e5eceb989f38c746723024","D2","batch4","","1371.6000000238419","<p class=block-text> Let's answer a few questions <br>","0","pattern_enter_quiz","","","","","","","","","","","","","","","","","","","","","","","","",""
"","","","","","html-button-response","5","35830","0.0-2.0-1.0-1.0-1.0","60e5eceb989f38c746723024","D2","batch4","","1550.8999999761581","<p class = block-text>True or False: You will have as much time as you want to make each choice. <br></p>","1","pattern_quiz","true","","","","","","","","","","","","","","","","","","","","","","","",""
"","","","","","html-button-response","6","36821","0.0-2.0-1.0-1.0-2.0","60e5eceb989f38c746723024","D2","batch4","","989.1999999880791","<p class = block-text>Correct! You should make your choice <strong> as fast as you can</strong>.</p>","0","pattern_quiz_feedback","","","","","","","","","","","","","","","","","","","","","","","","",""
"","","","","","html-button-response","7","39689","0.0-2.0-1.0-1.0-3.0","60e5eceb989f38c746723024","D2","batch4","","2867","<p class = block-text>True or False: You will look for 4 pieces in black or white color connected in a row either horizontally, vertically or diagonally. <br></p>","0","pattern_quiz","true","","","","","","","","","","","","","","","","","","","","","","","",""
"","","","","","html-button-response","8","40364","0.0-2.0-1.0-1.0-4.0","60e5eceb989f38c746723024","D2","batch4","","673.3999999761581","<p class = block-text>Correct! </p>","0","pattern_quiz_feedback","","","","","","","","","","","","","","","","","","","","","","","","",""
"","","","","","html-button-response","9","41950","0.0-2.0-2.0","60e5eceb989f38c746723024","D2","batch4","","1584.300000011921","<p class=block-text> Now that you've understood the game, let's do a few practice trials before we start!<br> <br>","0","pattern_enter_practice","","","","","","","","","","","","","","","","","","","","","","","","",""
"","","","","","image-keyboard-response","10","43062","0.0-2.0-3.0-0.0","60e5eceb989f38c746723024","D2","batch4","","1108.199999988079","stim/prac_yes_20_dia_b1.png","f","pattern_practice","true","f","","","","","","","","","","","","","","","","","","","","","","",""
"","","","","","html-keyboard-response","11","44067","0.0-2.0-3.0-1.0","60e5eceb989f38c746723024","D2","batch4","","null","<p style=""font-size:30px;color:green;"">Correct!</p>","null","pattern_feedback","","","","","","","","","","","","","","","","","","","","","","","","",""
"","","","","","image-keyboard-response","12","44830","0.0-2.0-3.0-0.1","60e5eceb989f38c746723024","D2","batch4","","759.8000000119209","stim/prac_yes_18_hor_w1.png","f","pattern_practice","true","f","","","","","","","","","","","","","","","","","","","","","","",""
"","","","","","html-keyboard-response","13","45832","0.0-2.0-3.0-1.1","60e5eceb989f38c746723024","D2","batch4","","null","<p style=""font-size:30px;color:green;"">Correct!</p>","null","pattern_feedback","","","","","","","","","","","","","","","","","","","","","","","","",""
"","","","","","image-keyboard-response","14","46832","0.0-2.0-3.0-0.2","60e5eceb989f38c746723024","D2","batch4","","997.9000000357628","stim/prac_no_16_1.png","j","pattern_practice","true","j","","","","","","","","","","","","","","","","","","","","","","",""
"","","","","","html-keyboard-response","15","47835","0.0-2.0-3.0-1.2","60e5eceb989f38c746723024","D2","batch4","","null","<p style=""font-size:30px;color:green;"">Correct!</p>","null","pattern_feedback","","","","","","","","","","","","","","","","","","","","","","","","",""
"","","","","","image-keyboard-response","16","48658","0.0-2.0-3.0-0.3","60e5eceb989f38c746723024","D2","batch4","","821.5999999642372","stim/prac_no_18_1.png","j","pattern_practice","true","j","","","","","","","","","","","","","","","","","","","","","","",""
"","","","","","html-keyboard-response","17","49660","0.0-2.0-3.0-1.3","60e5eceb989f38c746723024","D2","batch4","","null","<p style=""font-size:30px;color:green;"">Correct!</p>","null","pattern_feedback","","","","","","","","","","","","","","","","","","","","","","","","",""
"","","","","","image-keyboard-response","18","50525","0.0-2.0-3.0-0.4","60e5eceb989f38c746723024","D2","batch4","","863.5","stim/prac_yes_16_ver_w1.png","f","pattern_practice","true","f","","","","","","","","","","","","","","","","","","","","","","",""
"","","","","","html-keyboard-response","19","51528","0.0-2.0-3.0-1.4","60e5eceb989f38c746723024","D2","batch4","","null","<p style=""font-size:30px;color:green;"">Correct!</p>","null","pattern_feedback","","","","","","","","","","","","","","","","","","","","","","","","",""
"","","","","","html-button-response","20","55858","0.0-2.0-4.0","60e5eceb989f38c746723024","D2","batch4","","4329","<p class=block-text> Good job! You are done with practice trials!<br>
        You responded correctly on 100% of the trials.<br>
        Press the button below to start official trials. Now you won't see any feedback about your response</p>","0","pattern_enter_official_trials","","","","","","","","","","","","","","","","","","","","","","","","",""
"","","","","","html-keyboard-response","21","56661","0.0-2.0-5.0-0.0","60e5eceb989f38c746723024","D2","batch4","","null","<p class=block-text>Trial 1 out of 78</p>","null","pattern_show_trial_num","","","","","","","","","","","","","","","","","","","","","","","","",""
"","","","","","image-keyboard-response","22","59072","0.0-2.0-5.0-1.0","60e5eceb989f38c746723024","D2","batch4","","2409.5","stim/yes_44_ver_w1_w.png","j","pattern_response","false","f","pattern_66","2409.5","false","0","","","","","","","","","","","","","","","","","","",""
"","","","","","html-keyboard-response","23","60374","0.0-2.0-5.0-0.1","60e5eceb989f38c746723024","D2","batch4","","null","<p class=block-text>Trial 2 out of 78</p>","null","pattern_show_trial_num","","","","","","","","","","","","","","","","","","","","","","","","",""
"","","","","","image-keyboard-response","24","61130","0.0-2.0-5.0-1.1","60e5eceb989f38c746723024","D2","batch4","","754","stim/yes_30_ver_b1_b.png","f","pattern_response","true","f","pattern_54","754","true","1","","","","","","","","","","","","","","","","","","",""
"","","","","","html-keyboard-response","25","62431","0.0-2.0-5.0-0.2","60e5eceb989f38c746723024","D2","batch4","","null","<p class=block-text>Trial 3 out of 78</p>","null","pattern_show_trial_num","","","","","","","","","","","","","","","","","","","","","","","","",""
"","","","","","image-keyboard-response","26","67572","0.0-2.0-5.0-1.2","60e5eceb989f38c746723024","D2","batch4","","5139.400000035763","stim/yes_63_dia_b1.png","j","pattern_response","false","f","pattern_78","5139.400000035763","false","1","","","","","","","","","","","","","","","","","","",""
"","","","","","html-keyboard-response","27","68873","0.0-2.0-5.0-0.3","60e5eceb989f38c746723024","D2","batch4","","null","<p class=block-text>Trial 4 out of 78</p>","null","pattern_show_trial_num","","","","","","","","","","","","","","","","","","","","","","","","",""
"","","","","","image-keyboard-response","28","72598","0.0-2.0-5.0-1.3","60e5eceb989f38c746723024","D2","batch4","","3722.099999964237","stim/no_15_1_w.png","j","pattern_response","true","j","pattern_03","3722.099999964237","true","2","","","","","","","","","","","","","","","","","","",""
"","","","","","html-keyboard-response","29","73901","0.0-2.0-5.0-0.4","60e5eceb989f38c746723024","D2","batch4","","null","<p class=block-text>Trial 5 out of 78</p>","null","pattern_show_trial_num","","","","","","","","","","","","","","","","","","","","","","","","",""
"","","","","","image-keyboard-response","30","77923","0.0-2.0-5.0-1.4","60e5eceb989f38c746723024","D2","batch4","","4020.900000035763","stim/no_53_1_b.png","j","pattern_response","true","j","pattern_33","4020.900000035763","true","3","","","","","","","","","","","","","","","","","","",""
"","","","","","html-keyboard-response","31","79226","0.0-2.0-5.0-0.5","60e5eceb989f38c746723024","D2","batch4","","null","<p class=block-text>Trial 6 out of 78</p>","null","pattern_show_trial_num","","","","","","","","","","","","","","","","","","","","","","","","",""
"","","","","","image-keyboard-response","32","81005","0.0-2.0-5.0-1.5","60e5eceb989f38c746723024","D2","batch4","","1777.5","stim/no_12_1.png","j","pattern_response","true","j","pattern_01","1777.5","true","4","","","","","","","","","","","","","","","","","","",""
"","","","","","html-keyboard-response","33","82306","0.0-2.0-5.0-0.6","60e5eceb989f38c746723024","D2","batch4","","null","<p class=block-text>Trial 7 out of 78</p>","null","pattern_show_trial_num","","","","","","","","","","","","","","","","","","","","","","","","",""
"","","","","","image-keyboard-response","34","84429","0.0-2.0-5.0-1.6","60e5eceb989f38c746723024","D2","batch4","","2121.2000000476837","stim/no_45_1_w.png","j","pattern_response","true","j","pattern_25","2121.2000000476837","true","5","","","","","","","","","","","","","","","","","","",""
"","","","","","html-keyboard-response","35","85730","0.0-2.0-5.0-0.7","60e5eceb989f38c746723024","D2","batch4","","null","<p class=block-text>Trial 8 out of 78</p>","null","pattern_show_trial_num","","","","","","","","","","","","","","","","","","","","","","","","",""
"","","","","","image-keyboard-response","36","86301","0.0-2.0-5.0-1.7","60e5eceb989f38c746723024","D2","batch4","","569.7999999523163","stim/yes_12_hor_w1_w.png","f","pattern_response","true","f","pattern_42","569.7999999523163","true","6","","","","","","","","","","","","","","","","","","",""
"","","","","","html-keyboard-response","37","87603","0.0-2.0-5.0-0.8","60e5eceb989f38c746723024","D2","batch4","","null","<p class=block-text>Trial 9 out of 78</p>","null","pattern_show_trial_num","","","","","","","","","","","","","","","","","","","","","","","","",""
"","","","","","image-keyboard-response","38","89264","0.0-2.0-5.0-1.8","60e5eceb989f38c746723024","D2","batch4","","1660","stim/no_25_1_b.png","j","pattern_response","true","j","pattern_09","1660","true","7","","","","","","","","","","","","","","","","","","",""
"","","","","","html-keyboard-response","39","90565","0.0-2.0-5.0-0.9","60e5eceb989f38c746723024","D2","batch4","","null","<p class=block-text>Trial 10 out of 78</p>","null","pattern_show_trial_num","","","","","","","","","","","","","","","","","","","","","","","","",""
"","","","","","image-keyboard-response","40","92999","0.0-2.0-5.0-1.9","60e5eceb989f38c746723024","D2","batch4","","2432.899999976158","stim/no_47_1_b.png","j","pattern_response","true","j","pattern_27","2432.899999976158","true","8","","","","","","","","","","","","","","","","","","",""
"","","","","","html-keyboard-response","41","94301","0.0-2.0-5.0-0.10","60e5eceb989f38c746723024","D2","batch4","","null","<p class=block-text>Trial 11 out of 78</p>","null","pattern_show_trial_num","","","","","","","","","","","","","","","","","","","","","","","","",""
"","","","","","image-keyboard-response","42","95317","0.0-2.0-5.0-1.10","60e5eceb989f38c746723024","D2","batch4","","1015","stim/yes_51_dia_b1.png","f","pattern_response","true","f","pattern_72","1015","true","9","","","","","","","","","","","","","","","","","","",""
"","","","","","html-keyboard-response","43","96620","0.0-2.0-5.0-0.11","60e5eceb989f38c746723024","D2","batch4","","null","<p class=block-text>Trial 12 out of 78</p>","null","pattern_show_trial_num","","","","","","","","","","","","","","","","","","","","","","","","",""
"","","","","","image-keyboard-response","44","97392","0.0-2.0-5.0-1.11","60e5eceb989f38c746723024","D2","batch4","","770.3000000119209","stim/yes_26_dia_w2_w.png","f","pattern_response","true","f","pattern_50","770.3000000119209","true","10","","","","","","","","","","","","","","","","","","",""
"","","","","","html-keyboard-response","45","98694","0.0-2.0-5.0-0.12","60e5eceb989f38c746723024","D2","batch4","","null","<p class=block-text>Trial 13 out of 78</p>","null","pattern_show_trial_num","","","","","","","","","","","","","","","","","","","","","","","","",""
"","","","","","image-keyboard-response","46","100514","0.0-2.0-5.0-1.12","60e5eceb989f38c746723024","D2","batch4","","1818.3999999761581","stim/no_36_1_b.png","j","pattern_response","true","j","pattern_17","1818.3999999761581","true","11","","","","","","","","","","","","","","","","","","",""
"","","","","","html-keyboard-response","47","101816","0.0-2.0-5.0-0.13","60e5eceb989f38c746723024","D2","batch4","","null","<p class=block-text>Trial 14 out of 78</p>","null","pattern_show_trial_num","","","","","","","","","","","","","","","","","","","","","","","","",""
"","","","","","image-keyboard-response","48","103373","0.0-2.0-5.0-1.13","60e5eceb989f38c746723024","D2","batch4","","1554.3999999761581","stim/yes_42_dia_w1_w.png","j","pattern_response","false","f","pattern_64","1554.3999999761581","false","11","","","","","","","","","","","","","","","","","","",""
"","","","","","html-keyboard-response","49","104675","0.0-2.0-5.0-0.14","60e5eceb989f38c746723024","D2","batch4","","null","<p class=block-text>Trial 15 out of 78</p>","null","pattern_show_trial_num","","","","","","","","","","","","","","","","","","","","","","","","",""
"","","","","","image-keyboard-response","50","106259","0.0-2.0-5.0-1.14","60e5eceb989f38c746723024","D2","batch4","","1583.5","stim/no_28_2.png","j","pattern_response","true","j","pattern_11","1583.5","true","12","","","","","","","","","","","","","","","","","","",""
"","","","","","html-keyboard-response","51","107563","0.0-2.0-5.0-0.15","60e5eceb989f38c746723024","D2","batch4","","null","<p class=block-text>Trial 16 out of 78</p>","null","pattern_show_trial_num","","","","","","","","","","","","","","","","","","","","","","","","",""
"","","","","","image-keyboard-response","52","110286","0.0-2.0-5.0-1.15","60e5eceb989f38c746723024","D2","batch4","","2718.400000035763","stim/no_51_1.png","j","pattern_response","true","j","pattern_31","2718.400000035763","true","13","","","","","","","","","","","","","","","","","","",""
"","","","","","html-keyboard-response","53","111591","0.0-2.0-5.0-0.16","60e5eceb989f38c746723024","D2","batch4","","null","<p class=block-text>Trial 17 out of 78</p>","null","pattern_show_trial_num","","","","","","","","","","","","","","","","","","","","","","","","",""
"","","","","","image-keyboard-response","54","112804","0.0-2.0-5.0-1.16","60e5eceb989f38c746723024","D2","batch4","","1207.9000000357628","stim/no_30_1_b.png","j","pattern_response","true","j","pattern_13","1207.9000000357628","true","14","","","","","","","","","","","","","","","","","","",""
"","","","","","html-keyboard-response","55","114106","0.0-2.0-5.0-0.17","60e5eceb989f38c746723024","D2","batch4","","null","<p class=block-text>Trial 18 out of 78</p>","null","pattern_show_trial_num","","","","","","","","","","","","","","","","","","","","","","","","",""
"","","","","","image-keyboard-response","56","115027","0.0-2.0-5.0-1.17","60e5eceb989f38c746723024","D2","batch4","","919.1000000238419","stim/yes_70_ver_b1.png","f","pattern_response","true","f","pattern_80","919.1000000238419","true","15","","","","","","","","","","","","","","","","","","",""
"","","","","","html-keyboard-response","57","116329","0.0-2.0-5.0-0.18","60e5eceb989f38c746723024","D2","batch4","","null","<p class=block-text>Trial 19 out of 78</p>","null","pattern_show_trial_num","","","","","","","","","","","","","","","","","","","","","","","","",""
"","","","","","image-keyboard-response","58","117749","0.0-2.0-5.0-1.18","60e5eceb989f38c746723024","D2","batch4","","1418.6000000238419","stim/yes_37_hor_w1_w.png","f","pattern_response","true","f","pattern_60","1418.6000000238419","true","16","","","","","","","","","","","","","","","","","","",""
"","","","","","html-keyboard-response","59","119051","0.0-2.0-5.0-0.19","60e5eceb989f38c746723024","D2","batch4","","null","<p class=block-text>Trial 20 out of 78</p>","null","pattern_show_trial_num","","","","","","","","","","","","","","","","","","","","","","","","",""
"","","","","","image-keyboard-response","60","120924","0.0-2.0-5.0-1.19","60e5eceb989f38c746723024","D2","batch4","","1871.2000000476837","stim/no_43_2_b.png","j","pattern_response","true","j","pattern_23","1871.2000000476837","true","17","","","","","","","","","","","","","","","","","","",""
"","","","","","html-keyboard-response","61","122227","0.0-2.0-5.0-0.20","60e5eceb989f38c746723024","D2","batch4","","null","<p class=block-text>Trial 21 out of 78</p>","null","pattern_show_trial_num","","","","","","","","","","","","","","","","","","","","","","","","",""
"","","","","","image-keyboard-response","62","123114","0.0-2.0-5.0-1.20","60e5eceb989f38c746723024","D2","batch4","","883.3999999761581","stim/yes_46_ver_b1_b.png","f","pattern_response","true","f","pattern_68","883.3999999761581","true","18","","","","","","","","","","","","","","","","","","",""
"","","","","","html-keyboard-response","63","124416","0.0-2.0-5.0-0.21","60e5eceb989f38c746723024","D2","batch4","","null","<p class=block-text>Trial 22 out of 78</p>","null","pattern_show_trial_num","","","","","","","","","","","","","","","","","","","","","","","","",""
"","","","","","image-keyboard-response","64","126799","0.0-2.0-5.0-1.21","60e5eceb989f38c746723024","D2","batch4","","2379.899999976158","stim/no_39_1_w.png","j","pattern_response","true","j","pattern_21","2379.899999976158","true","19","","","","","","","","","","","","","","","","","","",""
"","","","","","html-keyboard-response","65","128103","0.0-2.0-5.0-0.22","60e5eceb989f38c746723024","D2","batch4","","null","<p class=block-text>Trial 23 out of 78</p>","null","pattern_show_trial_num","","","","","","","","","","","","","","","","","","","","","","","","",""
"","","","","","image-keyboard-response","66","130132","0.0-2.0-5.0-1.22","60e5eceb989f38c746723024","D2","batch4","","2025.3999999761581","stim/no_37_2_w.png","j","pattern_response","true","j","pattern_19","2025.3999999761581","true","20","","","","","","","","","","","","","","","","","","",""
"","","","","","html-keyboard-response","67","131435","0.0-2.0-5.0-0.23","60e5eceb989f38c746723024","D2","batch4","","null","<p class=block-text>Trial 24 out of 78</p>","null","pattern_show_trial_num","","","","","","","","","","","","","","","","","","","","","","","","",""
"","","","","","image-keyboard-response","68","133511","0.0-2.0-5.0-1.23","60e5eceb989f38c746723024","D2","batch4","","2075.400000035763","stim/yes_29_hor_b1_b.png","f","pattern_response","true","f","pattern_52","2075.400000035763","true","21","","","","","","","","","","","","","","","","","","",""
"","","","","","html-keyboard-response","69","134814","0.0-2.0-5.0-0.24","60e5eceb989f38c746723024","D2","batch4","","null","<p class=block-text>Trial 25 out of 78</p>","null","pattern_show_trial_num","","","","","","","","","","","","","","","","","","","","","","","","",""
"","","","","","image-keyboard-response","70","138074","0.0-2.0-5.0-1.24","60e5eceb989f38c746723024","D2","batch4","","3257.099999964237","stim/no_33_1_b.png","j","pattern_response","true","j","pattern_15","3257.099999964237","true","22","","","","","","","","","","","","","","","","","","",""
"","","","","","html-keyboard-response","71","139376","0.0-2.0-5.0-0.25","60e5eceb989f38c746723024","D2","batch4","","null","<p class=block-text>Trial 26 out of 78</p>","null","pattern_show_trial_num","","","","","","","","","","","","","","","","","","","","","","","","",""
"","","","","","image-keyboard-response","72","142464","0.0-2.0-5.0-1.25","60e5eceb989f38c746723024","D2","batch4","","3085","stim/no_58_1_w.png","j","pattern_response","true","j","pattern_35","3085","true","23","","","","","","","","","","","","","","","","","","",""
"","","","","","html-keyboard-response","73","143767","0.0-2.0-5.0-0.26","60e5eceb989f38c746723024","D2","batch4","","null","<p class=block-text>Trial 27 out of 78</p>","null","pattern_show_trial_num","","","","","","","","","","","","","","","","","","","","","","","","",""
"","","","","","image-keyboard-response","74","144423","0.0-2.0-5.0-1.26","60e5eceb989f38c746723024","D2","batch4","","652","stim/yes_39_hor_w1_w.png","f","pattern_response","true","f","pattern_62","652","true","24","","","","","","","","","","","","","","","","","","",""
"","","","","","html-keyboard-response","75","145725","0.0-2.0-5.0-0.27","60e5eceb989f38c746723024","D2","batch4","","null","<p class=block-text>Trial 28 out of 78</p>","null","pattern_show_trial_num","","","","","","","","","","","","","","","","","","","","","","","","",""
"","","","","","image-keyboard-response","76","146380","0.0-2.0-5.0-1.27","60e5eceb989f38c746723024","D2","batch4","","654.3000000119209","stim/yes_49_hor_w1_b.png","f","pattern_response","true","f","pattern_70","654.3000000119209","true","25","","","","","","","","","","","","","","","","","","",""
"","","","","","html-keyboard-response","77","147682","0.0-2.0-5.0-0.28","60e5eceb989f38c746723024","D2","batch4","","null","<p class=block-text>Trial 29 out of 78</p>","null","pattern_show_trial_num","","","","","","","","","","","","","","","","","","","","","","","","",""
"","","","","","image-keyboard-response","78","148694","0.0-2.0-5.0-1.28","60e5eceb989f38c746723024","D2","batch4","","1006.3000000119209","stim/yes_33_dia_w1_w.png","f","pattern_response","true","f","pattern_56","1006.3000000119209","true","26","","","","","","","","","","","","","","","","","","",""
"","","","","","html-keyboard-response","79","149996","0.0-2.0-5.0-0.29","60e5eceb989f38c746723024","D2","batch4","","null","<p class=block-text>Trial 30 out of 78</p>","null","pattern_show_trial_num","","","","","","","","","","","","","","","","","","","","","","","","",""
"","","","","","image-keyboard-response","80","150608","0.0-2.0-5.0-1.29","60e5eceb989f38c746723024","D2","batch4","","609.6000000238419","stim/yes_36_ver_w1_w.png","f","pattern_response","true","f","pattern_58","609.6000000238419","true","27","","","","","","","","","","","","","","","","","","",""
"","","","","","html-keyboard-response","81","151910","0.0-2.0-5.0-0.30","60e5eceb989f38c746723024","D2","batch4","","null","<p class=block-text>Trial 31 out of 78</p>","null","pattern_show_trial_num","","","","","","","","","","","","","","","","","","","","","","","","",""
"","","","","","image-keyboard-response","82","152637","0.0-2.0-5.0-1.30","60e5eceb989f38c746723024","D2","batch4","","724.3000000119209","stim/yes_23_ver_b1.png","f","pattern_response","true","f","pattern_48","724.3000000119209","true","28","","","","","","","","","","","","","","","","","","",""
"","","","","","html-keyboard-response","83","153939","0.0-2.0-5.0-0.31","60e5eceb989f38c746723024","D2","batch4","","null","<p class=block-text>Trial 32 out of 78</p>","null","pattern_show_trial_num","","","","","","","","","","","","","","","","","","","","","","","","",""
"","","","","","image-keyboard-response","84","154728","0.0-2.0-5.0-1.31","60e5eceb989f38c746723024","D2","batch4","","786.7999999523163","stim/yes_17_ver_b1_b.png","f","pattern_response","true","f","pattern_46","786.7999999523163","true","29","","","","","","","","","","","","","","","","","","",""
"","","","","","html-keyboard-response","85","156031","0.0-2.0-5.0-0.32","60e5eceb989f38c746723024","D2","batch4","","null","<p class=block-text>Trial 33 out of 78</p>","null","pattern_show_trial_num","","","","","","","","","","","","","","","","","","","","","","","","",""
"","","","","","image-keyboard-response","86","157059","0.0-2.0-5.0-1.32","60e5eceb989f38c746723024","D2","batch4","","1027","stim/no_18_1_b.png","j","pattern_response","true","j","pattern_05","1027","true","30","","","","","","","","","","","","","","","","","","",""
"","","","","","html-keyboard-response","87","158361","0.0-2.0-5.0-0.33","60e5eceb989f38c746723024","D2","batch4","","null","<p class=block-text>Trial 34 out of 78</p>","null","pattern_show_trial_num","","","","","","","","","","","","","","","","","","","","","","","","",""
"","","","","","image-keyboard-response","88","160595","0.0-2.0-5.0-1.33","60e5eceb989f38c746723024","D2","batch4","","2231.100000023842","stim/no_49_2_b.png","j","pattern_response","true","j","pattern_29","2231.100000023842","true","31","","","","","","","","","","","","","","","","","","",""
"","","","","","html-keyboard-response","89","161896","0.0-2.0-5.0-0.34","60e5eceb989f38c746723024","D2","batch4","","null","<p class=block-text>Trial 35 out of 78</p>","null","pattern_show_trial_num","","","","","","","","","","","","","","","","","","","","","","","","",""
"","","","","","image-keyboard-response","90","165340","0.0-2.0-5.0-1.34","60e5eceb989f38c746723024","D2","batch4","","3439.5","stim/no_67_1.png","j","pattern_response","true","j","pattern_39","3439.5","true","32","","","","","","","","","","","","","","","","","","",""
"","","","","","html-keyboard-response","91","166642","0.0-2.0-5.0-0.35","60e5eceb989f38c746723024","D2","batch4","","null","<p class=block-text>Trial 36 out of 78</p>","null","pattern_show_trial_num","","","","","","","","","","","","","","","","","","","","","","","","",""
"","","","","","image-keyboard-response","92","167351","0.0-2.0-5.0-1.35","60e5eceb989f38c746723024","D2","batch4","","705.2999999523163","stim/yes_15_dia_b1u_b.png","f","pattern_response","true","f","pattern_44","705.2999999523163","true","33","","","","","","","","","","","","","","","","","","",""
"","","","","","html-keyboard-response","93","168653","0.0-2.0-5.0-0.36","60e5eceb989f38c746723024","D2","batch4","","null","<p class=block-text>Trial 37 out of 78</p>","null","pattern_show_trial_num","","","","","","","","","","","","","","","","","","","","","","","","",""
"","","","","","image-keyboard-response","94","169934","0.0-2.0-5.0-1.36","60e5eceb989f38c746723024","D2","batch4","","1278.800000011921","stim/yes_53_ver_b1_b.png","f","pattern_response","true","f","pattern_74","1278.800000011921","true","34","","","","","","","","","","","","","","","","","","",""
"","","","","","html-keyboard-response","95","171235","0.0-2.0-5.0-0.37","60e5eceb989f38c746723024","D2","batch4","","null","<p class=block-text>Trial 38 out of 78</p>","null","pattern_show_trial_num","","","","","","","","","","","","","","","","","","","","","","","","",""
"","","","","","image-keyboard-response","96","173871","0.0-2.0-5.0-1.37","60e5eceb989f38c746723024","D2","batch4","","2633.5","stim/yes_58_dia_w1_w.png","f","pattern_response","true","f","pattern_76","2633.5","true","35","","","","","","","","","","","","","","","","","","",""
"","","","","","html-keyboard-response","97","175175","0.0-2.0-5.0-0.38","60e5eceb989f38c746723024","D2","batch4","","null","<p class=block-text>Trial 39 out of 78</p>","null","pattern_show_trial_num","","","","","","","","","","","","","","","","","","","","","","","","",""
"","","","","","image-keyboard-response","98","177046","0.0-2.0-5.0-1.38","60e5eceb989f38c746723024","D2","batch4","","1867","stim/no_22_1_b.png","j","pattern_response","true","j","pattern_07","1867","true","36","","","","","","","","","","","","","","","","","","",""
"","","","","","image-keyboard-response","99","179492","0.0-2.0-6.0","60e5eceb989f38c746723024","D2","batch4","","1942.3999999761581","stim/empty_board.png","j","attention_check","true","j","","","","","500","[""f"",""j""]","","","","","","","","","","","","","","","","",""
"","","","","","html-keyboard-response","100","180293","0.0-2.0-7.0-0.0","60e5eceb989f38c746723024","D2","batch4","","null","<p class=block-text>Trial 40 out of 78</p>","null","pattern_show_trial_num","","","","","","","","","","","","","","","","","","","","","","","","",""
"","","","","","image-keyboard-response","101","181184","0.0-2.0-7.0-1.0","60e5eceb989f38c746723024","D2","batch4","","889.6999999880791","stim/no_13_2_b.png","j","pattern_response","true","j","pattern_02","889.6999999880791","true","37","","","","","","","","","","","","","","","","","","",""
"","","","","","html-keyboard-response","102","182487","0.0-2.0-7.0-0.1","60e5eceb989f38c746723024","D2","batch4","","null","<p class=block-text>Trial 41 out of 78</p>","null","pattern_show_trial_num","","","","","","","","","","","","","","","","","","","","","","","","",""
"","","","","","image-keyboard-response","103","184104","0.0-2.0-7.0-1.1","60e5eceb989f38c746723024","D2","batch4","","1615.9000000357628","stim/no_32_1_w.png","j","pattern_response","true","j","pattern_14","1615.9000000357628","true","38","","","","","","","","","","","","","","","","","","",""
"","","","","","html-keyboard-response","104","185407","0.0-2.0-7.0-0.2","60e5eceb989f38c746723024","D2","batch4","","null","<p class=block-text>Trial 42 out of 78</p>","null","pattern_show_trial_num","","","","","","","","","","","","","","","","","","","","","","","","",""
"","","","","","image-keyboard-response","105","186134","0.0-2.0-7.0-1.2","60e5eceb989f38c746723024","D2","batch4","","724.6999999880791","stim/yes_28_ver_b1.png","f","pattern_response","true","f","pattern_51","724.6999999880791","true","39","","","","","","","","","","","","","","","","","","",""
"","","","","","html-keyboard-response","106","187437","0.0-2.0-7.0-0.3","60e5eceb989f38c746723024","D2","batch4","","null","<p class=block-text>Trial 43 out of 78</p>","null","pattern_show_trial_num","","","","","","","","","","","","","","","","","","","","","","","","",""
"","","","","","image-keyboard-response","107","189211","0.0-2.0-7.0-1.3","60e5eceb989f38c746723024","D2","batch4","","1774","stim/no_36_2_w.png","j","pattern_response","true","j","pattern_18","1774","true","40","","","","","","","","","","","","","","","","","","",""
"","","","","","html-keyboard-response","108","190513","0.0-2.0-7.0-0.4","60e5eceb989f38c746723024","D2","batch4","","null","<p class=block-text>Trial 44 out of 78</p>","null","pattern_show_trial_num","","","","","","","","","","","","","","","","","","","","","","","","",""
"","","","","","image-keyboard-response","109","192119","0.0-2.0-7.0-1.4","60e5eceb989f38c746723024","D2","batch4","","1602.300000011921","stim/yes_37_dia_w1.png","j","pattern_response","false","f","pattern_59","1602.300000011921","false","40","","","","","","","","","","","","","","","","","","",""
"","","","","","html-keyboard-response","110","193421","0.0-2.0-7.0-0.5","60e5eceb989f38c746723024","D2","batch4","","null","<p class=block-text>Trial 45 out of 78</p>","null","pattern_show_trial_num","","","","","","","","","","","","","","","","","","","","","","","","",""
"","","","","","image-keyboard-response","111","194367","0.0-2.0-7.0-1.5","60e5eceb989f38c746723024","D2","batch4","","945.3000000119209","stim/yes_43_ver_w1_w.png","f","pattern_response","true","f","pattern_65","945.3000000119209","true","41","","","","","","","","","","","","","","","","","","",""
"","","","","","html-keyboard-response","112","195669","0.0-2.0-7.0-0.6","60e5eceb989f38c746723024","D2","batch4","","null","<p class=block-text>Trial 46 out of 78</p>","null","pattern_show_trial_num","","","","","","","","","","","","","","","","","","","","","","","","",""
"","","","","","image-keyboard-response","113","198463","0.0-2.0-7.0-1.6","60e5eceb989f38c746723024","D2","batch4","","2791.899999976158","stim/no_46_1_b.png","j","pattern_response","true","j","pattern_26","2791.899999976158","true","42","","","","","","","","","","","","","","","","","","",""
"","","","","","html-keyboard-response","114","199765","0.0-2.0-7.0-0.7","60e5eceb989f38c746723024","D2","batch4","","null","<p class=block-text>Trial 47 out of 78</p>","null","pattern_show_trial_num","","","","","","","","","","","","","","","","","","","","","","","","",""
"","","","","","image-keyboard-response","115","200732","0.0-2.0-7.0-1.7","60e5eceb989f38c746723024","D2","batch4","","965.1999999880791","stim/yes_52_ver_w1.png","f","pattern_response","true","f","pattern_73","965.1999999880791","true","43","","","","","","","","","","","","","","","","","","",""
"","","","","","html-keyboard-response","116","202036","0.0-2.0-7.0-0.8","60e5eceb989f38c746723024","D2","batch4","","null","<p class=block-text>Trial 48 out of 78</p>","null","pattern_show_trial_num","","","","","","","","","","","","","","","","","","","","","","","","",""
"","","","","","image-keyboard-response","117","203554","0.0-2.0-7.0-1.8","60e5eceb989f38c746723024","D2","batch4","","1516.7999999523163","stim/no_20_1_w.png","j","pattern_response","true","j","pattern_06","1516.7999999523163","true","44","","","","","","","","","","","","","","","","","","",""
"","","","","","html-keyboard-response","118","204857","0.0-2.0-7.0-0.9","60e5eceb989f38c746723024","D2","batch4","","null","<p class=block-text>Trial 49 out of 78</p>","null","pattern_show_trial_num","","","","","","","","","","","","","","","","","","","","","","","","",""
"","","","","","image-keyboard-response","119","207824","0.0-2.0-7.0-1.9","60e5eceb989f38c746723024","D2","batch4","","2964.199999988079","stim/no_55_1_w.png","j","pattern_response","true","j","pattern_34","2964.199999988079","true","45","","","","","","","","","","","","","","","","","","",""
"","","","","","html-keyboard-response","120","209128","0.0-2.0-7.0-0.10","60e5eceb989f38c746723024","D2","batch4","","null","<p class=block-text>Trial 50 out of 78</p>","null","pattern_show_trial_num","","","","","","","","","","","","","","","","","","","","","","","","",""
"","","","","","image-keyboard-response","121","213448","0.0-2.0-7.0-1.10","60e5eceb989f38c746723024","D2","batch4","","4314.600000023842","stim/no_65_1_b.png","j","pattern_response","true","j","pattern_38","4314.600000023842","true","46","","","","","","","","","","","","","","","","","","",""
"","","","","","html-keyboard-response","122","214750","0.0-2.0-7.0-0.11","60e5eceb989f38c746723024","D2","batch4","","null","<p class=block-text>Trial 51 out of 78</p>","null","pattern_show_trial_num","","","","","","","","","","","","","","","","","","","","","","","","",""
"","","","","","image-keyboard-response","123","216040","0.0-2.0-7.0-1.11","60e5eceb989f38c746723024","D2","batch4","","1283.300000011921","stim/yes_17_dia_w1.png","f","pattern_response","true","f","pattern_45","1283.300000011921","true","47","","","","","","","","","","","","","","","","","","",""
"","","","","","html-keyboard-response","124","217342","0.0-2.0-7.0-0.12","60e5eceb989f38c746723024","D2","batch4","","null","<p class=block-text>Trial 52 out of 78</p>","null","pattern_show_trial_num","","","","","","","","","","","","","","","","","","","","","","","","",""
"","","","","","image-keyboard-response","125","218383","0.0-2.0-7.0-1.12","60e5eceb989f38c746723024","D2","batch4","","1038.199999988079","stim/yes_22_ver_w1.png","f","pattern_response","true","f","pattern_47","1038.199999988079","true","48","","","","","","","","","","","","","","","","","","",""
"","","","","","html-keyboard-response","126","219685","0.0-2.0-7.0-0.13","60e5eceb989f38c746723024","D2","batch4","","null","<p class=block-text>Trial 53 out of 78</p>","null","pattern_show_trial_num","","","","","","","","","","","","","","","","","","","","","","","","",""
"","","","","","image-keyboard-response","127","222253","0.0-2.0-7.0-1.13","60e5eceb989f38c746723024","D2","batch4","","2564.100000023842","stim/no_48_1_w.png","j","pattern_response","true","j","pattern_28","2564.100000023842","true","49","","","","","","","","","","","","","","","","","","",""
"","","","","","html-keyboard-response","128","223556","0.0-2.0-7.0-0.14","60e5eceb989f38c746723024","D2","batch4","","null","<p class=block-text>Trial 54 out of 78</p>","null","pattern_show_trial_num","","","","","","","","","","","","","","","","","","","","","","","","",""
"","","","","","image-keyboard-response","129","226794","0.0-2.0-7.0-1.14","60e5eceb989f38c746723024","D2","batch4","","3234.599999964237","stim/yes_50_dia_w1.png","j","pattern_response","false","f","pattern_71","3234.599999964237","false","49","","","","","","","","","","","","","","","","","","",""
"","","","","","html-keyboard-response","130","228096","0.0-2.0-7.0-0.15","60e5eceb989f38c746723024","D2","batch4","","null","<p class=block-text>Trial 55 out of 78</p>","null","pattern_show_trial_num","","","","","","","","","","","","","","","","","","","","","","","","",""
"","","","","","image-keyboard-response","131","229203","0.0-2.0-7.0-1.15","60e5eceb989f38c746723024","D2","batch4","","1104.5","stim/yes_29_ver_w1.png","f","pattern_response","true","f","pattern_53","1104.5","true","50","","","","","","","","","","","","","","","","","","",""
"","","","","","html-keyboard-response","132","230505","0.0-2.0-7.0-0.16","60e5eceb989f38c746723024","D2","batch4","","null","<p class=block-text>Trial 56 out of 78</p>","null","pattern_show_trial_num","","","","","","","","","","","","","","","","","","","","","","","","",""
"","","","","","image-keyboard-response","133","233210","0.0-2.0-7.0-1.16","60e5eceb989f38c746723024","D2","batch4","","2702.400000035763","stim/no_62_1_w.png","j","pattern_response","true","j","pattern_36","2702.400000035763","true","51","","","","","","","","","","","","","","","","","","",""
"","","","","","html-keyboard-response","134","234513","0.0-2.0-7.0-0.17","60e5eceb989f38c746723024","D2","batch4","","null","<p class=block-text>Trial 57 out of 78</p>","null","pattern_show_trial_num","","","","","","","","","","","","","","","","","","","","","","","","",""
"","","","","","image-keyboard-response","135","235748","0.0-2.0-7.0-1.17","60e5eceb989f38c746723024","D2","batch4","","1231.5999999642372","stim/yes_45_hor_b2_b.png","f","pattern_response","true","f","pattern_67","1231.5999999642372","true","52","","","","","","","","","","","","","","","","","","",""
"","","","","","html-keyboard-response","136","237052","0.0-2.0-7.0-0.18","60e5eceb989f38c746723024","D2","batch4","","null","<p class=block-text>Trial 58 out of 78</p>","null","pattern_show_trial_num","","","","","","","","","","","","","","","","","","","","","","","","",""
"","","","","","image-keyboard-response","137","238989","0.0-2.0-7.0-1.18","60e5eceb989f38c746723024","D2","batch4","","1934.6000000238419","stim/yes_60_ver_b1_b.png","f","pattern_response","true","f","pattern_77","1934.6000000238419","true","53","","","","","","","","","","","","","","","","","","",""
"","","","","","html-keyboard-response","138","240292","0.0-2.0-7.0-0.19","60e5eceb989f38c746723024","D2","batch4","","null","<p class=block-text>Trial 59 out of 78</p>","null","pattern_show_trial_num","","","","","","","","","","","","","","","","","","","","","","","","",""
"","","","","","image-keyboard-response","139","242388","0.0-2.0-7.0-1.19","60e5eceb989f38c746723024","D2","batch4","","2091.399999976158","stim/yes_35_dia_b1.png","f","pattern_response","true","f","pattern_57","2091.399999976158","true","54","","","","","","","","","","","","","","","","","","",""
"","","","","","html-keyboard-response","140","243691","0.0-2.0-7.0-0.20","60e5eceb989f38c746723024","D2","batch4","","null","<p class=block-text>Trial 60 out of 78</p>","null","pattern_show_trial_num","","","","","","","","","","","","","","","","","","","","","","","","",""
"","","","","","image-keyboard-response","141","244636","0.0-2.0-7.0-1.20","60e5eceb989f38c746723024","D2","batch4","","940.0999999642372","stim/yes_67_hor_b1.png","f","pattern_response","true","f","pattern_79","940.0999999642372","true","55","","","","","","","","","","","","","","","","","","",""
"","","","","","html-keyboard-response","142","245939","0.0-2.0-7.0-0.21","60e5eceb989f38c746723024","D2","batch4","","null","<p class=block-text>Trial 61 out of 78</p>","null","pattern_show_trial_num","","","","","","","","","","","","","","","","","","","","","","","","",""
"","","","","","image-keyboard-response","143","247606","0.0-2.0-7.0-1.21","60e5eceb989f38c746723024","D2","batch4","","1664.3999999761581","stim/no_42_1_w.png","j","pattern_response","true","j","pattern_22","1664.3999999761581","true","56","","","","","","","","","","","","","","","","","","",""
"","","","","","html-keyboard-response","144","248908","0.0-2.0-7.0-0.22","60e5eceb989f38c746723024","D2","batch4","","null","<p class=block-text>Trial 62 out of 78</p>","null","pattern_show_trial_num","","","","","","","","","","","","","","","","","","","","","","","","",""
"","","","","","image-keyboard-response","145","251166","0.0-2.0-7.0-1.22","60e5eceb989f38c746723024","D2","batch4","","2255.7999999523163","stim/no_52_1.png","j","pattern_response","true","j","pattern_32","2255.7999999523163","true","57","","","","","","","","","","","","","","","","","","",""
"","","","","","html-keyboard-response","146","252468","0.0-2.0-7.0-0.23","60e5eceb989f38c746723024","D2","batch4","","null","<p class=block-text>Trial 63 out of 78</p>","null","pattern_show_trial_num","","","","","","","","","","","","","","","","","","","","","","","","",""
"","","","","","image-keyboard-response","147","254062","0.0-2.0-7.0-1.23","60e5eceb989f38c746723024","D2","batch4","","1590.5","stim/yes_31_hor_b1.png","f","pattern_response","true","f","pattern_55","1590.5","true","58","","","","","","","","","","","","","","","","","","",""
"","","","","","html-keyboard-response","148","255366","0.0-2.0-7.0-0.24","60e5eceb989f38c746723024","D2","batch4","","null","<p class=block-text>Trial 64 out of 78</p>","null","pattern_show_trial_num","","","","","","","","","","","","","","","","","","","","","","","","",""
"","","","","","image-keyboard-response","149","256313","0.0-2.0-7.0-1.24","60e5eceb989f38c746723024","D2","batch4","","946.2000000476837","stim/no_17_1_w.png","j","pattern_response","true","j","pattern_04","946.2000000476837","true","59","","","","","","","","","","","","","","","","","","",""
"","","","","","html-keyboard-response","150","257616","0.0-2.0-7.0-0.25","60e5eceb989f38c746723024","D2","batch4","","null","<p class=block-text>Trial 65 out of 78</p>","null","pattern_show_trial_num","","","","","","","","","","","","","","","","","","","","","","","","",""
"","","","","","image-keyboard-response","151","258745","0.0-2.0-7.0-1.25","60e5eceb989f38c746723024","D2","batch4","","1122.6000000238419","stim/yes_55_hor_w1_w.png","f","pattern_response","true","f","pattern_75","1122.6000000238419","true","60","","","","","","","","","","","","","","","","","","",""
"","","","","","html-keyboard-response","152","260047","0.0-2.0-7.0-0.26","60e5eceb989f38c746723024","D2","batch4","","null","<p class=block-text>Trial 66 out of 78</p>","null","pattern_show_trial_num","","","","","","","","","","","","","","","","","","","","","","","","",""
"","","","","","image-keyboard-response","153","260750","0.0-2.0-7.0-1.26","60e5eceb989f38c746723024","D2","batch4","","701.4000000357628","stim/yes_38_hor_b1_b.png","f","pattern_response","true","f","pattern_61","701.4000000357628","true","61","","","","","","","","","","","","","","","","","","",""
"","","","","","html-keyboard-response","154","262052","0.0-2.0-7.0-0.27","60e5eceb989f38c746723024","D2","batch4","","null","<p class=block-text>Trial 67 out of 78</p>","null","pattern_show_trial_num","","","","","","","","","","","","","","","","","","","","","","","","",""
"","","","","","image-keyboard-response","155","263111","0.0-2.0-7.0-1.27","60e5eceb989f38c746723024","D2","batch4","","1057.699999988079","stim/no_26_1_w.png","j","pattern_response","true","j","pattern_10","1057.699999988079","true","62","","","","","","","","","","","","","","","","","","",""
"","","","","","html-keyboard-response","156","264413","0.0-2.0-7.0-0.28","60e5eceb989f38c746723024","D2","batch4","","null","<p class=block-text>Trial 68 out of 78</p>","null","pattern_show_trial_num","","","","","","","","","","","","","","","","","","","","","","","","",""
"","","","","","image-keyboard-response","157","266894","0.0-2.0-7.0-1.28","60e5eceb989f38c746723024","D2","batch4","","2477.199999988079","stim/no_44_1.png","j","pattern_response","true","j","pattern_24","2477.199999988079","true","63","","","","","","","","","","","","","","","","","","",""
"","","","","","html-keyboard-response","158","268197","0.0-2.0-7.0-0.29","60e5eceb989f38c746723024","D2","batch4","","null","<p class=block-text>Trial 69 out of 78</p>","null","pattern_show_trial_num","","","","","","","","","","","","","","","","","","","","","","","","",""
"","","","","","image-keyboard-response","159","270290","0.0-2.0-7.0-1.29","60e5eceb989f38c746723024","D2","batch4","","2088.800000011921","stim/yes_48_dia_w1_w.png","j","pattern_response","false","f","pattern_69","2088.800000011921","false","63","","","","","","","","","","","","","","","","","","",""
"","","","","","html-keyboard-response","160","271592","0.0-2.0-7.0-0.30","60e5eceb989f38c746723024","D2","batch4","","null","<p class=block-text>Trial 70 out of 78</p>","null","pattern_show_trial_num","","","","","","","","","","","","","","","","","","","","","","","","",""
"","","","","","image-keyboard-response","161","272206","0.0-2.0-7.0-1.30","60e5eceb989f38c746723024","D2","batch4","","610.5","stim/yes_14_hor_b1_w.png","f","pattern_response","true","f","pattern_43","610.5","true","64","","","","","","","","","","","","","","","","","","",""
"","","","","","html-keyboard-response","162","273509","0.0-2.0-7.0-0.31","60e5eceb989f38c746723024","D2","batch4","","null","<p class=block-text>Trial 71 out of 78</p>","null","pattern_show_trial_num","","","","","","","","","","","","","","","","","","","","","","","","",""
"","","","","","image-keyboard-response","163","275625","0.0-2.0-7.0-1.31","60e5eceb989f38c746723024","D2","batch4","","2113.5","stim/no_38_1_b.png","j","pattern_response","true","j","pattern_20","2113.5","true","65","","","","","","","","","","","","","","","","","","",""
"","","","","","html-keyboard-response","164","276929","0.0-2.0-7.0-0.32","60e5eceb989f38c746723024","D2","batch4","","null","<p class=block-text>Trial 72 out of 78</p>","null","pattern_show_trial_num","","","","","","","","","","","","","","","","","","","","","","","","",""
"","","","","","image-keyboard-response","165","278637","0.0-2.0-7.0-1.32","60e5eceb989f38c746723024","D2","batch4","","1704","stim/no_34_1_b.png","j","pattern_response","true","j","pattern_16","1704","true","66","","","","","","","","","","","","","","","","","","",""
"","","","","","html-keyboard-response","166","279939","0.0-2.0-7.0-0.33","60e5eceb989f38c746723024","D2","batch4","","null","<p class=block-text>Trial 73 out of 78</p>","null","pattern_show_trial_num","","","","","","","","","","","","","","","","","","","","","","","","",""
"","","","","","image-keyboard-response","167","281245","0.0-2.0-7.0-1.33","60e5eceb989f38c746723024","D2","batch4","","1302.199999988079","stim/no_29_1_b.png","j","pattern_response","true","j","pattern_12","1302.199999988079","true","67","","","","","","","","","","","","","","","","","","",""
"","","","","","html-keyboard-response","168","282547","0.0-2.0-7.0-0.34","60e5eceb989f38c746723024","D2","batch4","","null","<p class=block-text>Trial 74 out of 78</p>","null","pattern_show_trial_num","","","","","","","","","","","","","","","","","","","","","","","","",""
"","","","","","image-keyboard-response","169","283207","0.0-2.0-7.0-1.34","60e5eceb989f38c746723024","D2","batch4","","658.9000000357628","stim/yes_25_hor_b1_b.png","f","pattern_response","true","f","pattern_49","658.9000000357628","true","68","","","","","","","","","","","","","","","","","","",""
"","","","","","html-keyboard-response","170","284509","0.0-2.0-7.0-0.35","60e5eceb989f38c746723024","D2","batch4","","null","<p class=block-text>Trial 75 out of 78</p>","null","pattern_show_trial_num","","","","","","","","","","","","","","","","","","","","","","","","",""
"","","","","","image-keyboard-response","171","285995","0.0-2.0-7.0-1.35","60e5eceb989f38c746723024","D2","batch4","","1483","stim/no_50_1.png","j","pattern_response","true","j","pattern_30","1483","true","69","","","","","","","","","","","","","","","","","","",""
"","","","","","html-keyboard-response","172","287296","0.0-2.0-7.0-0.36","60e5eceb989f38c746723024","D2","batch4","","null","<p class=block-text>Trial 76 out of 78</p>","null","pattern_show_trial_num","","","","","","","","","","","","","","","","","","","","","","","","",""
"","","","","","image-keyboard-response","173","290381","0.0-2.0-7.0-1.36","60e5eceb989f38c746723024","D2","batch4","","3081.400000035763","stim/no_70_2.png","j","pattern_response","true","j","pattern_40","3081.400000035763","true","70","","","","","","","","","","","","","","","","","","",""
"","","","","","html-keyboard-response","174","291683","0.0-2.0-7.0-0.37","60e5eceb989f38c746723024","D2","batch4","","null","<p class=block-text>Trial 77 out of 78</p>","null","pattern_show_trial_num","","","","","","","","","","","","","","","","","","","","","","","","",""
"","","","","","image-keyboard-response","175","294610","0.0-2.0-7.0-1.37","60e5eceb989f38c746723024","D2","batch4","","2923","stim/yes_40_dia_b1_b.png","f","pattern_response","true","f","pattern_63","2923","true","71","","","","","","","","","","","","","","","","","","",""
"","","","","","html-keyboard-response","176","295912","0.0-2.0-7.0-0.38","60e5eceb989f38c746723024","D2","batch4","","null","<p class=block-text>Trial 78 out of 78</p>","null","pattern_show_trial_num","","","","","","","","","","","","","","","","","","","","","","","","",""
"","","","","","image-keyboard-response","177","297200","0.0-2.0-7.0-1.38","60e5eceb989f38c746723024","D2","batch4","","1284.6000000238419","stim/no_23_1.png","j","pattern_response","true","j","pattern_08","1284.6000000238419","true","72","","","","","","","","","","","","","","","","","","",""
"","","","","","html-button-response","178","300949","0.0-2.0-8.0","60e5eceb989f38c746723024","D2","batch4","","3244.699999988079","<p class = block-text>This concludes the 4-in-a-row detection game.Thank you for your responses!<br>
            You responded correctly on 92% of the trials.<br>
            When you are ready, press ""Continue"" button to continue </p>","0","","","","","","","","","","","","","","","","","","","","","","","","","",""
"true","","","","","fullscreen","179","303524","0.0-3.0-0.0","60e5eceb989f38c746723024","D2","batch4","","","","","spm_fullscreen","","","","","","","","","","","","","","","","","","","","","","","","",""
"","","","","","html-button-response","180","307406","0.0-3.0-1.0","60e5eceb989f38c746723024","D2","batch4","","3879.900000035763","<p class = block-text><b>Instructions</b> <br>This is a widely used intelligence test in research. <br>In this test, a figure with a missing piece will be presented.<br>Below the figure are alternative pieces to complete the figure, only one of which is correct.<br> Different figures might involve different principles for obtaining the missing piece<br>Your job is to select the most logical piece to complete the figure.</p>","0","","","","","","","","","","","","","","","","","","","","","","","","","",""
"","","","","","html-keyboard-response","181","308207","0.0-3.0-2.0-0.0","60e5eceb989f38c746723024","D2","batch4","","null","<p class=block-text>Trial 1 out of 60</p>","null","spm_show_trial_num","","","","","","","","","","","","","","","","","","","","","","","","",""
"","","","","","image-button-response","182","311838","0.0-3.0-2.0-1.0","60e5eceb989f38c746723024","D2","batch4","","3624","img/question_1_1.jpeg","3","spm_respsonse","1","4","mat_01","","","","","","1","3624","","","","","","","","","","","","","","",""
"","","","","","html-keyboard-response","183","312894","0.0-3.0-2.0-0.1","60e5eceb989f38c746723024","D2","batch4","","null","<p class=block-text>Trial 2 out of 60</p>","null","spm_show_trial_num","","","","","","","","","","","","","","","","","","","","","","","","",""
"","","","","","image-button-response","184","325418","0.0-3.0-2.0-1.1","60e5eceb989f38c746723024","D2","batch4","","12520","img/question_1_2.jpeg","4","spm_respsonse","1","5","mat_02","","","","","","1","12520","","","","","","","","","","","","","","",""
"","","","","","html-keyboard-response","185","326471","0.0-3.0-2.0-0.2","60e5eceb989f38c746723024","D2","batch4","","null","<p class=block-text>Trial 3 out of 60</p>","null","spm_show_trial_num","","","","","","","","","","","","","","","","","","","","","","","","",""
"","","","","","image-button-response","186","328612","0.0-3.0-2.0-1.2","60e5eceb989f38c746723024","D2","batch4","","2136.900000035763","img/question_1_3.jpeg","0","spm_respsonse","1","1","mat_03","","","","","","1","2136.900000035763","","","","","","","","","","","","","","",""
"","","","","","html-keyboard-response","187","329666","0.0-3.0-2.0-0.3","60e5eceb989f38c746723024","D2","batch4","","null","<p class=block-text>Trial 4 out of 60</p>","null","spm_show_trial_num","","","","","","","","","","","","","","","","","","","","","","","","",""
"","","","","","image-button-response","188","332595","0.0-3.0-2.0-1.3","60e5eceb989f38c746723024","D2","batch4","","2927","img/question_1_4.jpeg","1","spm_respsonse","1","2","mat_04","","","","","","1","2927","","","","","","","","","","","","","","",""
"","","","","","html-keyboard-response","189","333648","0.0-3.0-2.0-0.4","60e5eceb989f38c746723024","D2","batch4","","null","<p class=block-text>Trial 5 out of 60</p>","null","spm_show_trial_num","","","","","","","","","","","","","","","","","","","","","","","","",""
"","","","","","image-button-response","190","337207","0.0-3.0-2.0-1.4","60e5eceb989f38c746723024","D2","batch4","","3557.699999988079","img/question_1_5.jpeg","5","spm_respsonse","1","6","mat_05","","","","","","1","3557.699999988079","","","","","","","","","","","","","","",""
"","","","","","html-keyboard-response","191","338260","0.0-3.0-2.0-0.5","60e5eceb989f38c746723024","D2","batch4","","null","<p class=block-text>Trial 6 out of 60</p>","null","spm_show_trial_num","","","","","","","","","","","","","","","","","","","","","","","","",""
"","","","","","image-button-response","192","340402","0.0-3.0-2.0-1.5","60e5eceb989f38c746723024","D2","batch4","","2137.300000011921","img/question_1_6.jpeg","2","spm_respsonse","1","3","mat_06","","","","","","1","2137.300000011921","","","","","","","","","","","","","","",""
"","","","","","html-keyboard-response","193","341456","0.0-3.0-2.0-0.6","60e5eceb989f38c746723024","D2","batch4","","null","<p class=block-text>Trial 7 out of 60</p>","null","spm_show_trial_num","","","","","","","","","","","","","","","","","","","","","","","","",""
"","","","","","image-button-response","194","344351","0.0-3.0-2.0-1.6","60e5eceb989f38c746723024","D2","batch4","","2892.099999964237","img/question_1_7.jpeg","5","spm_respsonse","1","6","mat_07","","","","","","1","2892.099999964237","","","","","","","","","","","","","","",""
"","","","","","html-keyboard-response","195","345406","0.0-3.0-2.0-0.7","60e5eceb989f38c746723024","D2","batch4","","null","<p class=block-text>Trial 8 out of 60</p>","null","spm_show_trial_num","","","","","","","","","","","","","","","","","","","","","","","","",""
"","","","","","image-button-response","196","352688","0.0-3.0-2.0-1.7","60e5eceb989f38c746723024","D2","batch4","","7278","img/question_1_8.jpeg","1","spm_respsonse","1","2","mat_08","","","","","","1","7278","","","","","","","","","","","","","","",""
"","","","","","html-keyboard-response","197","353741","0.0-3.0-2.0-0.8","60e5eceb989f38c746723024","D2","batch4","","null","<p class=block-text>Trial 9 out of 60</p>","null","spm_show_trial_num","","","","","","","","","","","","","","","","","","","","","","","","",""
"","","","","","image-button-response","198","358549","0.0-3.0-2.0-1.8","60e5eceb989f38c746723024","D2","batch4","","4805.800000011921","img/question_1_9.jpeg","0","spm_respsonse","1","1","mat_09","","","","","","1","4805.800000011921","","","","","","","","","","","","","","",""
"","","","","","html-keyboard-response","199","359602","0.0-3.0-2.0-0.9","60e5eceb989f38c746723024","D2","batch4","","null","<p class=block-text>Trial 10 out of 60</p>","null","spm_show_trial_num","","","","","","","","","","","","","","","","","","","","","","","","",""
"","","","","","image-button-response","200","364761","0.0-3.0-2.0-1.9","60e5eceb989f38c746723024","D2","batch4","","5153.300000011921","img/question_1_10.jpeg","2","spm_respsonse","1","3","mat_10","","","","","","1","5153.300000011921","","","","","","","","","","","","","","",""
"","","","","","html-keyboard-response","201","365814","0.0-3.0-2.0-0.10","60e5eceb989f38c746723024","D2","batch4","","null","<p class=block-text>Trial 11 out of 60</p>","null","spm_show_trial_num","","","","","","","","","","","","","","","","","","","","","","","","",""
"","","","","","image-button-response","202","374526","0.0-3.0-2.0-1.10","60e5eceb989f38c746723024","D2","batch4","","8706.599999964237","img/question_1_11.jpeg","3","spm_respsonse","1","4","mat_11","","","","","","1","8706.599999964237","","","","","","","","","","","","","","",""
"","","","","","html-keyboard-response","203","375579","0.0-3.0-2.0-0.11","60e5eceb989f38c746723024","D2","batch4","","null","<p class=block-text>Trial 12 out of 60</p>","null","spm_show_trial_num","","","","","","","","","","","","","","","","","","","","","","","","",""
"","","","","","image-button-response","204","379474","0.0-3.0-2.0-1.11","60e5eceb989f38c746723024","D2","batch4","","3890.100000023842","img/question_1_12.jpeg","0","spm_respsonse","0","5","mat_12","","","","","","0","3890.100000023842","","","","","","","","","","","","","","",""
"","","","","","html-keyboard-response","205","380528","0.0-3.0-2.0-0.12","60e5eceb989f38c746723024","D2","batch4","","null","<p class=block-text>Trial 13 out of 60</p>","null","spm_show_trial_num","","","","","","","","","","","","","","","","","","","","","","","","",""
"","","","","","image-button-response","206","382974","0.0-3.0-2.0-1.12","60e5eceb989f38c746723024","D2","batch4","","2442.2000000476837","img/question_2_1.jpeg","1","spm_respsonse","1","2","mat_13","","","","","","1","2442.2000000476837","","","","","","","","","","","","","","",""
"","","","","","html-keyboard-response","207","384028","0.0-3.0-2.0-0.13","60e5eceb989f38c746723024","D2","batch4","","null","<p class=block-text>Trial 14 out of 60</p>","null","spm_show_trial_num","","","","","","","","","","","","","","","","","","","","","","","","",""
"","","","","","image-button-response","208","387913","0.0-3.0-2.0-1.13","60e5eceb989f38c746723024","D2","batch4","","3881","img/question_2_2.jpeg","5","spm_respsonse","1","6","mat_14","","","","","","1","3881","","","","","","","","","","","","","","",""
"","","","","","html-keyboard-response","209","388965","0.0-3.0-2.0-0.14","60e5eceb989f38c746723024","D2","batch4","","null","<p class=block-text>Trial 15 out of 60</p>","null","spm_show_trial_num","","","","","","","","","","","","","","","","","","","","","","","","",""
"","","","","","image-button-response","210","390693","0.0-3.0-2.0-1.14","60e5eceb989f38c746723024","D2","batch4","","1724.800000011921","img/question_2_3.jpeg","0","spm_respsonse","1","1","mat_15","","","","","","1","1724.800000011921","","","","","","","","","","","","","","",""
"","","","","","html-keyboard-response","211","391747","0.0-3.0-2.0-0.15","60e5eceb989f38c746723024","D2","batch4","","null","<p class=block-text>Trial 16 out of 60</p>","null","spm_show_trial_num","","","","","","","","","","","","","","","","","","","","","","","","",""
"","","","","","image-button-response","212","393965","0.0-3.0-2.0-1.15","60e5eceb989f38c746723024","D2","batch4","","2214.600000023842","img/question_2_4.jpeg","1","spm_respsonse","1","2","mat_16","","","","","","1","2214.600000023842","","","","","","","","","","","","","","",""
"","","","","","html-keyboard-response","213","395018","0.0-3.0-2.0-0.16","60e5eceb989f38c746723024","D2","batch4","","null","<p class=block-text>Trial 17 out of 60</p>","null","spm_show_trial_num","","","","","","","","","","","","","","","","","","","","","","","","",""
"","","","","","image-button-response","214","398050","0.0-3.0-2.0-1.16","60e5eceb989f38c746723024","D2","batch4","","3030.100000023842","img/question_2_5.jpeg","0","spm_respsonse","1","1","mat_17","","","","","","1","3030.100000023842","","","","","","","","","","","","","","",""
"","","","","","html-keyboard-response","215","399102","0.0-3.0-2.0-0.17","60e5eceb989f38c746723024","D2","batch4","","null","<p class=block-text>Trial 18 out of 60</p>","null","spm_show_trial_num","","","","","","","","","","","","","","","","","","","","","","","","",""
"","","","","","image-button-response","216","402606","0.0-3.0-2.0-1.17","60e5eceb989f38c746723024","D2","batch4","","3499.199999988079","img/question_2_6.jpeg","2","spm_respsonse","1","3","mat_18","","","","","","1","3499.199999988079","","","","","","","","","","","","","","",""
"","","","","","html-keyboard-response","217","403659","0.0-3.0-2.0-0.18","60e5eceb989f38c746723024","D2","batch4","","null","<p class=block-text>Trial 19 out of 60</p>","null","spm_show_trial_num","","","","","","","","","","","","","","","","","","","","","","","","",""
"","","","","","image-button-response","218","407690","0.0-3.0-2.0-1.18","60e5eceb989f38c746723024","D2","batch4","","4029.100000023842","img/question_2_7.jpeg","4","spm_respsonse","1","5","mat_19","","","","","","1","4029.100000023842","","","","","","","","","","","","","","",""
"","","","","","html-keyboard-response","219","408743","0.0-3.0-2.0-0.19","60e5eceb989f38c746723024","D2","batch4","","null","<p class=block-text>Trial 20 out of 60</p>","null","spm_show_trial_num","","","","","","","","","","","","","","","","","","","","","","","","",""
"","","","","","image-button-response","220","413251","0.0-3.0-2.0-1.19","60e5eceb989f38c746723024","D2","batch4","","4502.800000011921","img/question_2_8.jpeg","5","spm_respsonse","1","6","mat_20","","","","","","1","4502.800000011921","","","","","","","","","","","","","","",""
"","","","","","html-keyboard-response","221","414305","0.0-3.0-2.0-0.20","60e5eceb989f38c746723024","D2","batch4","","null","<p class=block-text>Trial 21 out of 60</p>","null","spm_show_trial_num","","","","","","","","","","","","","","","","","","","","","","","","",""
"","","","","","image-button-response","222","418749","0.0-3.0-2.0-1.20","60e5eceb989f38c746723024","D2","batch4","","4439.599999964237","img/question_2_9.jpeg","4","spm_respsonse","0","4","mat_21","","","","","","0","4439.599999964237","","","","","","","","","","","","","","",""
"","","","","","html-keyboard-response","223","419801","0.0-3.0-2.0-0.21","60e5eceb989f38c746723024","D2","batch4","","null","<p class=block-text>Trial 22 out of 60</p>","null","spm_show_trial_num","","","","","","","","","","","","","","","","","","","","","","","","",""
"","","","","","image-button-response","224","423193","0.0-3.0-2.0-1.21","60e5eceb989f38c746723024","D2","batch4","","3387.100000023842","img/question_2_10.jpeg","2","spm_respsonse","1","3","mat_22","","","","","","1","3387.100000023842","","","","","","","","","","","","","","",""
"","","","","","html-keyboard-response","225","424246","0.0-3.0-2.0-0.22","60e5eceb989f38c746723024","D2","batch4","","null","<p class=block-text>Trial 23 out of 60</p>","null","spm_show_trial_num","","","","","","","","","","","","","","","","","","","","","","","","",""
"","","","","","image-button-response","226","427389","0.0-3.0-2.0-1.22","60e5eceb989f38c746723024","D2","batch4","","3138.899999976158","img/question_2_11.jpeg","5","spm_respsonse","0","4","mat_23","","","","","","0","3138.899999976158","","","","","","","","","","","","","","",""
"","","","","","html-keyboard-response","227","428442","0.0-3.0-2.0-0.23","60e5eceb989f38c746723024","D2","batch4","","null","<p class=block-text>Trial 24 out of 60</p>","null","spm_show_trial_num","","","","","","","","","","","","","","","","","","","","","","","","",""
"","","","","","image-button-response","228","445295","0.0-3.0-2.0-1.23","60e5eceb989f38c746723024","D2","batch4","","16848.69999998808","img/question_2_12.jpeg","4","spm_respsonse","1","5","mat_24","","","","","","1","16848.69999998808","","","","","","","","","","","","","","",""
"","","","","","html-button-response","229","447440","0.0-3.0-3.0","60e5eceb989f38c746723024","D2","batch4","","1892.199999988079","<p class = block-text>Attention check: Please choose 1<br></p>","0","attention_check","true","","","","","","","","","","","","","","","","","","","","","","","",""
"","","","","","html-keyboard-response","230","448242","0.0-3.0-4.0-0.0","60e5eceb989f38c746723024","D2","batch4","","null","<p class=block-text>Trial 25 out of 60</p>","null","spm_show_trial_num","","","","","","","","","","","","","","","","","","","","","","","","",""
"","","","","","image-button-response","231","454683","0.0-3.0-4.0-1.0","60e5eceb989f38c746723024","D2","batch4","","6436.199999988079","img/question_3_1.jpeg","7","spm_respsonse","1","8","mat_25","","","","","","1","6436.199999988079","","","","","","","","","","","","","","",""
"","","","","","html-keyboard-response","232","455736","0.0-3.0-4.0-0.1","60e5eceb989f38c746723024","D2","batch4","","null","<p class=block-text>Trial 26 out of 60</p>","null","spm_show_trial_num","","","","","","","","","","","","","","","","","","","","","","","","",""
"","","","","","image-button-response","233","470918","0.0-3.0-4.0-1.1","60e5eceb989f38c746723024","D2","batch4","","15177.5","img/question_3_2.jpeg","1","spm_respsonse","1","2","mat_26","","","","","","1","15177.5","","","","","","","","","","","","","","",""
"","","","","","html-keyboard-response","234","471970","0.0-3.0-4.0-0.2","60e5eceb989f38c746723024","D2","batch4","","null","<p class=block-text>Trial 27 out of 60</p>","null","spm_show_trial_num","","","","","","","","","","","","","","","","","","","","","","","","",""
"","","","","","image-button-response","235","475665","0.0-3.0-4.0-1.2","60e5eceb989f38c746723024","D2","batch4","","3689.399999976158","img/question_3_3.jpeg","2","spm_respsonse","1","3","mat_27","","","","","","1","3689.399999976158","","","","","","","","","","","","","","",""
"","","","","","html-keyboard-response","236","476719","0.0-3.0-4.0-0.3","60e5eceb989f38c746723024","D2","batch4","","null","<p class=block-text>Trial 28 out of 60</p>","null","spm_show_trial_num","","","","","","","","","","","","","","","","","","","","","","","","",""
"","","","","","image-button-response","237","494330","0.0-3.0-4.0-1.3","60e5eceb989f38c746723024","D2","batch4","","17609.19999998808","img/question_3_4.jpeg","7","spm_respsonse","1","8","mat_28","","","","","","1","17609.19999998808","","","","","","","","","","","","","","",""
"","","","","","html-keyboard-response","238","495383","0.0-3.0-4.0-0.4","60e5eceb989f38c746723024","D2","batch4","","null","<p class=block-text>Trial 29 out of 60</p>","null","spm_show_trial_num","","","","","","","","","","","","","","","","","","","","","","","","",""
"","","","","","image-button-response","239","499764","0.0-3.0-4.0-1.4","60e5eceb989f38c746723024","D2","batch4","","4376.400000035763","img/question_3_5.jpeg","6","spm_respsonse","1","7","mat_29","","","","","","1","4376.400000035763","","","","","","","","","","","","","","",""
"","","","","","html-keyboard-response","240","500817","0.0-3.0-4.0-0.5","60e5eceb989f38c746723024","D2","batch4","","null","<p class=block-text>Trial 30 out of 60</p>","null","spm_show_trial_num","","","","","","","","","","","","","","","","","","","","","","","","",""
"","","","","","image-button-response","241","546400","0.0-3.0-4.0-1.5","60e5eceb989f38c746723024","D2","batch4","","45580.5","img/question_3_6.jpeg","3","spm_respsonse","1","4","mat_30","","","","","","1","45580.5","","","","","","","","","","","","","","",""
"","","","","","html-keyboard-response","242","547455","0.0-3.0-4.0-0.6","60e5eceb989f38c746723024","D2","batch4","","null","<p class=block-text>Trial 31 out of 60</p>","null","spm_show_trial_num","","","","","","","","","","","","","","","","","","","","","","","","",""
"","","","","","image-button-response","243","556244","0.0-3.0-4.0-1.6","60e5eceb989f38c746723024","D2","batch4","","8784.099999964237","img/question_3_7.jpeg","4","spm_respsonse","1","5","mat_31","","","","","","1","8784.099999964237","","","","","","","","","","","","","","",""
"","","","","","html-keyboard-response","244","557298","0.0-3.0-4.0-0.7","60e5eceb989f38c746723024","D2","batch4","","null","<p class=block-text>Trial 32 out of 60</p>","null","spm_show_trial_num","","","","","","","","","","","","","","","","","","","","","","","","",""
"","","","","","image-button-response","245","574270","0.0-3.0-4.0-1.7","60e5eceb989f38c746723024","D2","batch4","","16966.80000001192","img/question_3_8.jpeg","0","spm_respsonse","1","1","mat_32","","","","","","1","16966.80000001192","","","","","","","","","","","","","","",""
"","","","","","html-keyboard-response","246","575324","0.0-3.0-4.0-0.8","60e5eceb989f38c746723024","D2","batch4","","null","<p class=block-text>Trial 33 out of 60</p>","null","spm_show_trial_num","","","","","","","","","","","","","","","","","","","","","","","","",""
"","","","","","image-button-response","247","585024","0.0-3.0-4.0-1.8","60e5eceb989f38c746723024","D2","batch4","","9697.600000023842","img/question_3_9.jpeg","6","spm_respsonse","1","7","mat_33","","","","","","1","9697.600000023842","","","","","","","","","","","","","","",""
"","","","","","html-keyboard-response","248","586077","0.0-3.0-4.0-0.9","60e5eceb989f38c746723024","D2","batch4","","null","<p class=block-text>Trial 34 out of 60</p>","null","spm_show_trial_num","","","","","","","","","","","","","","","","","","","","","","","","",""
"","","","","","image-button-response","249","593012","0.0-3.0-4.0-1.9","60e5eceb989f38c746723024","D2","batch4","","6933.899999976158","img/question_3_10.jpeg","5","spm_respsonse","1","6","mat_34","","","","","","1","6933.899999976158","","","","","","","","","","","","","","",""
"","","","","","html-keyboard-response","250","594066","0.0-3.0-4.0-0.10","60e5eceb989f38c746723024","D2","batch4","","null","<p class=block-text>Trial 35 out of 60</p>","null","spm_show_trial_num","","","","","","","","","","","","","","","","","","","","","","","","",""
"","","","","","image-button-response","251","597276","0.0-3.0-4.0-1.10","60e5eceb989f38c746723024","D2","batch4","","3207.400000035763","img/question_3_11.jpeg","0","spm_respsonse","1","1","mat_35","","","","","","1","3207.400000035763","","","","","","","","","","","","","","",""
"","","","","","html-keyboard-response","252","598329","0.0-3.0-4.0-0.11","60e5eceb989f38c746723024","D2","batch4","","null","<p class=block-text>Trial 36 out of 60</p>","null","spm_show_trial_num","","","","","","","","","","","","","","","","","","","","","","","","",""
"","","","","","image-button-response","253","609754","0.0-3.0-4.0-1.11","60e5eceb989f38c746723024","D2","batch4","","11420.299999952316","img/question_3_12.jpeg","1","spm_respsonse","1","2","mat_36","","","","","","1","11420.299999952316","","","","","","","","","","","","","","",""
"","","","","","html-keyboard-response","254","610807","0.0-3.0-4.0-0.12","60e5eceb989f38c746723024","D2","batch4","","null","<p class=block-text>Trial 37 out of 60</p>","null","spm_show_trial_num","","","","","","","","","","","","","","","","","","","","","","","","",""
"","","","","","image-button-response","255","613094","0.0-3.0-4.0-1.12","60e5eceb989f38c746723024","D2","batch4","","2282.399999976158","img/question_4_1.jpeg","2","spm_respsonse","1","3","mat_37","","","","","","1","2282.399999976158","","","","","","","","","","","","","","",""
"","","","","","html-keyboard-response","256","614147","0.0-3.0-4.0-0.13","60e5eceb989f38c746723024","D2","batch4","","null","<p class=block-text>Trial 38 out of 60</p>","null","spm_show_trial_num","","","","","","","","","","","","","","","","","","","","","","","","",""
"","","","","","image-button-response","257","618236","0.0-3.0-4.0-1.13","60e5eceb989f38c746723024","D2","batch4","","4084.900000035763","img/question_4_2.jpeg","3","spm_respsonse","1","4","mat_38","","","","","","1","4084.900000035763","","","","","","","","","","","","","","",""
"","","","","","html-keyboard-response","258","619289","0.0-3.0-4.0-0.14","60e5eceb989f38c746723024","D2","batch4","","null","<p class=block-text>Trial 39 out of 60</p>","null","spm_show_trial_num","","","","","","","","","","","","","","","","","","","","","","","","",""
"","","","","","image-button-response","259","624210","0.0-3.0-4.0-1.14","60e5eceb989f38c746723024","D2","batch4","","4916.099999964237","img/question_4_3.jpeg","2","spm_respsonse","1","3","mat_39","","","","","","1","4916.099999964237","","","","","","","","","","","","","","",""
"","","","","","html-keyboard-response","260","625263","0.0-3.0-4.0-0.15","60e5eceb989f38c746723024","D2","batch4","","null","<p class=block-text>Trial 40 out of 60</p>","null","spm_show_trial_num","","","","","","","","","","","","","","","","","","","","","","","","",""
"","","","","","image-button-response","261","631071","0.0-3.0-4.0-1.15","60e5eceb989f38c746723024","D2","batch4","","5802.800000011921","img/question_4_4.jpeg","6","spm_respsonse","1","7","mat_40","","","","","","1","5802.800000011921","","","","","","","","","","","","","","",""
"","","","","","html-keyboard-response","262","632124","0.0-3.0-4.0-0.16","60e5eceb989f38c746723024","D2","batch4","","null","<p class=block-text>Trial 41 out of 60</p>","null","spm_show_trial_num","","","","","","","","","","","","","","","","","","","","","","","","",""
"","","","","","image-button-response","263","637880","0.0-3.0-4.0-1.16","60e5eceb989f38c746723024","D2","batch4","","5751.5","img/question_4_5.jpeg","7","spm_respsonse","1","8","mat_41","","","","","","1","5751.5","","","","","","","","","","","","","","",""
"","","","","","html-keyboard-response","264","638935","0.0-3.0-4.0-0.17","60e5eceb989f38c746723024","D2","batch4","","null","<p class=block-text>Trial 42 out of 60</p>","null","spm_show_trial_num","","","","","","","","","","","","","","","","","","","","","","","","",""
"","","","","","image-button-response","265","647082","0.0-3.0-4.0-1.17","60e5eceb989f38c746723024","D2","batch4","","8143.099999964237","img/question_4_6.jpeg","5","spm_respsonse","1","6","mat_42","","","","","","1","8143.099999964237","","","","","","","","","","","","","","",""
"","","","","","html-keyboard-response","266","648134","0.0-3.0-4.0-0.18","60e5eceb989f38c746723024","D2","batch4","","null","<p class=block-text>Trial 43 out of 60</p>","null","spm_show_trial_num","","","","","","","","","","","","","","","","","","","","","","","","",""
"","","","","","image-button-response","267","660518","0.0-3.0-4.0-1.18","60e5eceb989f38c746723024","D2","batch4","","12379","img/question_4_7.jpeg","4","spm_respsonse","1","5","mat_43","","","","","","1","12379","","","","","","","","","","","","","","",""
"","","","","","html-keyboard-response","268","661571","0.0-3.0-4.0-0.19","60e5eceb989f38c746723024","D2","batch4","","null","<p class=block-text>Trial 44 out of 60</p>","null","spm_show_trial_num","","","","","","","","","","","","","","","","","","","","","","","","",""
"","","","","","image-button-response","269","665816","0.0-3.0-4.0-1.19","60e5eceb989f38c746723024","D2","batch4","","4239.100000023842","img/question_4_8.jpeg","3","spm_respsonse","1","4","mat_44","","","","","","1","4239.100000023842","","","","","","","","","","","","","","",""
"","","","","","html-keyboard-response","270","666869","0.0-3.0-4.0-0.20","60e5eceb989f38c746723024","D2","batch4","","null","<p class=block-text>Trial 45 out of 60</p>","null","spm_show_trial_num","","","","","","","","","","","","","","","","","","","","","","","","",""
"","","","","","image-button-response","271","673950","0.0-3.0-4.0-1.20","60e5eceb989f38c746723024","D2","batch4","","7076.599999964237","img/question_4_9.jpeg","0","spm_respsonse","1","1","mat_45","","","","","","1","7076.599999964237","","","","","","","","","","","","","","",""
"","","","","","html-keyboard-response","272","675004","0.0-3.0-4.0-0.21","60e5eceb989f38c746723024","D2","batch4","","null","<p class=block-text>Trial 46 out of 60</p>","null","spm_show_trial_num","","","","","","","","","","","","","","","","","","","","","","","","",""
"","","","","","image-button-response","273","682241","0.0-3.0-4.0-1.21","60e5eceb989f38c746723024","D2","batch4","","7232.800000011921","img/question_4_10.jpeg","1","spm_respsonse","1","2","mat_46","","","","","","1","7232.800000011921","","","","","","","","","","","","","","",""
"","","","","","html-keyboard-response","274","683294","0.0-3.0-4.0-0.22","60e5eceb989f38c746723024","D2","batch4","","null","<p class=block-text>Trial 47 out of 60</p>","null","spm_show_trial_num","","","","","","","","","","","","","","","","","","","","","","","","",""
"","","","","","image-button-response","275","688251","0.0-3.0-4.0-1.22","60e5eceb989f38c746723024","D2","batch4","","4953.899999976158","img/question_4_11.jpeg","4","spm_respsonse","1","5","mat_47","","","","","","1","4953.899999976158","","","","","","","","","","","","","","",""
"","","","","","html-keyboard-response","276","689306","0.0-3.0-4.0-0.23","60e5eceb989f38c746723024","D2","batch4","","null","<p class=block-text>Trial 48 out of 60</p>","null","spm_show_trial_num","","","","","","","","","","","","","","","","","","","","","","","","",""
"","","","","","image-button-response","277","699161","0.0-3.0-4.0-1.23","60e5eceb989f38c746723024","D2","batch4","","9853.399999976158","img/question_4_12.jpeg","5","spm_respsonse","1","6","mat_48","","","","","","1","9853.399999976158","","","","","","","","","","","","","","",""
"","","","","","html-keyboard-response","278","700214","0.0-3.0-4.0-0.24","60e5eceb989f38c746723024","D2","batch4","","null","<p class=block-text>Trial 49 out of 60</p>","null","spm_show_trial_num","","","","","","","","","","","","","","","","","","","","","","","","",""
"","","","","","image-button-response","279","708579","0.0-3.0-4.0-1.24","60e5eceb989f38c746723024","D2","batch4","","8361","img/question_5_1.jpeg","6","spm_respsonse","1","7","mat_49","","","","","","1","8361","","","","","","","","","","","","","","",""
"","","","","","html-keyboard-response","280","709631","0.0-3.0-4.0-0.25","60e5eceb989f38c746723024","D2","batch4","","null","<p class=block-text>Trial 50 out of 60</p>","null","spm_show_trial_num","","","","","","","","","","","","","","","","","","","","","","","","",""
"","","","","","image-button-response","281","731329","0.0-3.0-4.0-1.25","60e5eceb989f38c746723024","D2","batch4","","21692.700000047684","img/question_5_2.jpeg","3","spm_respsonse","0","6","mat_50","","","","","","0","21692.700000047684","","","","","","","","","","","","","","",""
"","","","","","html-keyboard-response","282","732381","0.0-3.0-4.0-0.26","60e5eceb989f38c746723024","D2","batch4","","null","<p class=block-text>Trial 51 out of 60</p>","null","spm_show_trial_num","","","","","","","","","","","","","","","","","","","","","","","","",""
"","","","","","image-button-response","283","746079","0.0-3.0-4.0-1.26","60e5eceb989f38c746723024","D2","batch4","","13696.5","img/question_5_3.jpeg","7","spm_respsonse","1","8","mat_51","","","","","","1","13696.5","","","","","","","","","","","","","","",""
"","","","","","html-keyboard-response","284","747134","0.0-3.0-4.0-0.27","60e5eceb989f38c746723024","D2","batch4","","null","<p class=block-text>Trial 52 out of 60</p>","null","spm_show_trial_num","","","","","","","","","","","","","","","","","","","","","","","","",""
"","","","","","image-button-response","285","751611","0.0-3.0-4.0-1.27","60e5eceb989f38c746723024","D2","batch4","","4469.899999976158","img/question_5_4.jpeg","1","spm_respsonse","1","2","mat_52","","","","","","1","4469.899999976158","","","","","","","","","","","","","","",""
"","","","","","html-keyboard-response","286","752664","0.0-3.0-4.0-0.28","60e5eceb989f38c746723024","D2","batch4","","null","<p class=block-text>Trial 53 out of 60</p>","null","spm_show_trial_num","","","","","","","","","","","","","","","","","","","","","","","","",""
"","","","","","image-button-response","287","768275","0.0-3.0-4.0-1.28","60e5eceb989f38c746723024","D2","batch4","","15608.300000011921","img/question_5_5.jpeg","0","spm_respsonse","1","1","mat_53","","","","","","1","15608.300000011921","","","","","","","","","","","","","","",""
"","","","","","html-keyboard-response","288","769330","0.0-3.0-4.0-0.29","60e5eceb989f38c746723024","D2","batch4","","null","<p class=block-text>Trial 54 out of 60</p>","null","spm_show_trial_num","","","","","","","","","","","","","","","","","","","","","","","","",""
"","","","","","image-button-response","289","783588","0.0-3.0-4.0-1.29","60e5eceb989f38c746723024","D2","batch4","","14253","img/question_5_6.jpeg","4","spm_respsonse","1","5","mat_54","","","","","","1","14253","","","","","","","","","","","","","","",""
"","","","","","html-keyboard-response","290","784641","0.0-3.0-4.0-0.30","60e5eceb989f38c746723024","D2","batch4","","null","<p class=block-text>Trial 55 out of 60</p>","null","spm_show_trial_num","","","","","","","","","","","","","","","","","","","","","","","","",""
"","","","","","image-button-response","291","797954","0.0-3.0-4.0-1.30","60e5eceb989f38c746723024","D2","batch4","","13308.900000035763","img/question_5_7.jpeg","0","spm_respsonse","1","1","mat_55","","","","","","1","13308.900000035763","","","","","","","","","","","","","","",""
"","","","","","html-keyboard-response","292","799008","0.0-3.0-4.0-0.31","60e5eceb989f38c746723024","D2","batch4","","null","<p class=block-text>Trial 56 out of 60</p>","null","spm_show_trial_num","","","","","","","","","","","","","","","","","","","","","","","","",""
"","","","","","image-button-response","293","809734","0.0-3.0-4.0-1.31","60e5eceb989f38c746723024","D2","batch4","","10721.599999964237","img/question_5_8.jpeg","5","spm_respsonse","1","6","mat_56","","","","","","1","10721.599999964237","","","","","","","","","","","","","","",""
"","","","","","html-keyboard-response","294","810787","0.0-3.0-4.0-0.32","60e5eceb989f38c746723024","D2","batch4","","null","<p class=block-text>Trial 57 out of 60</p>","null","spm_show_trial_num","","","","","","","","","","","","","","","","","","","","","","","","",""
"","","","","","image-button-response","295","832945","0.0-3.0-4.0-1.32","60e5eceb989f38c746723024","D2","batch4","","22152.19999998808","img/question_5_9.jpeg","2","spm_respsonse","1","3","mat_57","","","","","","1","22152.19999998808","","","","","","","","","","","","","","",""
"","","","","","html-keyboard-response","296","833999","0.0-3.0-4.0-0.33","60e5eceb989f38c746723024","D2","batch4","","null","<p class=block-text>Trial 58 out of 60</p>","null","spm_show_trial_num","","","","","","","","","","","","","","","","","","","","","","","","",""
"","","","","","image-button-response","297","861038","0.0-3.0-4.0-1.33","60e5eceb989f38c746723024","D2","batch4","","27037.400000035763","img/question_5_10.jpeg","5","spm_respsonse","0","2","mat_58","","","","","","0","27037.400000035763","","","","","","","","","","","","","","",""
"","","","","","html-keyboard-response","298","862090","0.0-3.0-4.0-0.34","60e5eceb989f38c746723024","D2","batch4","","null","<p class=block-text>Trial 59 out of 60</p>","null","spm_show_trial_num","","","","","","","","","","","","","","","","","","","","","","","","",""
"","","","","","image-button-response","299","879332","0.0-3.0-4.0-1.34","60e5eceb989f38c746723024","D2","batch4","","17240.399999976158","img/question_5_11.jpeg","2","spm_respsonse","0","4","mat_59","","","","","","0","17240.399999976158","","","","","","","","","","","","","","",""
"","","","","","html-keyboard-response","300","880386","0.0-3.0-4.0-0.35","60e5eceb989f38c746723024","D2","batch4","","null","<p class=block-text>Trial 60 out of 60</p>","null","spm_show_trial_num","","","","","","","","","","","","","","","","","","","","","","","","",""
"","","","","","image-button-response","301","891418","0.0-3.0-4.0-1.35","60e5eceb989f38c746723024","D2","batch4","","11025.599999964237","img/question_5_12.jpeg","6","spm_respsonse","0","5","mat_60","","","","","","0","11025.599999964237","","","","","","","","","","","","","","",""
"","","","","","html-button-response","302","892766","0.0-3.0-5.0","60e5eceb989f38c746723024","D2","batch4","","1094.5","<p class= block-text>This concludes the Standard Progressive Matrix game. Thank you for your responses!<br> When you are ready, click the button continue</p>","0","spm_goodbye","","","","","","","","","","","","","","","","","","","","","","","","",""
"true","","","","","fullscreen","303","895263","0.0-4.0-0.0","60e5eceb989f38c746723024","D2","batch4","","","","","","","","","","","","","","","","","","","","","","","","","","","","","",""
"","","","","","instructions","304","975285","0.0-4.0-1.0-0.0-0.0","60e5eceb989f38c746723024","D2","batch4","[{""page_index"":0,""viewing_time"":5388},{""page_index"":1,""viewing_time"":1867.5999999642372},{""page_index"":2,""viewing_time"":25490.30000001192},{""page_index"":3,""viewing_time"":8539.699999988079},{""page_index"":4,""viewing_time"":4279},{""page_index"":5,""viewing_time"":24815.5},{""page_index"":6,""viewing_time"":9639.800000011921}]","80021.09999996424","","","tol-instructions","","","","","","","","","","","","","","","","","","","","","","","","",""
"","","","","","html-button-response","305","976510","0.0-4.0-1.0-1.0-0.0","60e5eceb989f38c746723024","D2","batch4","","1223.699999988079","<p class=block-text> Let's answer a few questions <br>","0","tol_enter_quiz","","","","","","","","","","","","","","","","","","","","","","","","",""
"","","","","","html-button-response","306","990855","0.0-4.0-1.0-1.0-1.0","60e5eceb989f38c746723024","D2","batch4","","14344","<p class = block-text>True or False: You can only move the ball on top of a peg. <br></p>","0","tol_quiz","true","","","","","","","","","","","","","","","","","","","","","","","",""
"","","","","","html-button-response","307","992046","0.0-4.0-1.0-1.0-2.0","60e5eceb989f38c746723024","D2","batch4","","1188.199999988079","<p class = block-text>Correct! You can only move the ball on top of a peg.</p>","0","tol_quiz_feedback","","","","","","","","","","","","","","","","","","","","","","","","",""
"","","","","","html-button-response","308","994243","0.0-4.0-1.0-1.0-3.0","60e5eceb989f38c746723024","D2","batch4","","2196.099999964237","<p class = block-text>True or False: You should try to match your board with the target board with fewest moves possible. <br></p>","0","tol_quiz","true","","","","","","","","","","","","","","","","","","","","","","","",""
"","","","","","html-button-response","309","995052","0.0-4.0-1.0-1.0-4.0","60e5eceb989f38c746723024","D2","batch4","","807.0999999642372","<p class = block-text>Correct! </p>","0","tol_quiz_feedback","","","","","","","","","","","","","","","","","","","","","","","","",""
"","","","","","html-button-response","310","996163","0.0-4.0-2.0","60e5eceb989f38c746723024","D2","batch4","","1109","<p class=block-text> Now that you've understood the game, let's practice a few easier examples before we start!<br> <br>","0","","","","","","","","","","","","","","","","","","","","","","","","","",""
"","","","","","single-stim-button","311","998336","0.0-4.0-3.0-0.0","60e5eceb989f38c746723024","D2","batch4","","2171","","","tol_practice","","","","","","","","","","","tol_peg_2","2171","2171","0","[[1,2,0],[0,0],[0]]","1","[[1,2,0],[0,0],[3]]","practice","2171","","","","","",""
"","","","","","single-stim-button","312","998947","0.0-4.0-3.0-1.0","60e5eceb989f38c746723024","D2","batch4","","610","","","tol_practice","","","","","","","","","","","tol_peg_3","610","610","0","[[1,2,0],[0,0],[3]]","1","[[1,2,0],[0,0],[3]]","practice","610","","","","","",""
"","","","","","poldrack-single-stim","313","999950","0.0-4.0-4.0","60e5eceb989f38c746723024","D2","batch4","","-1","","","tol_feedback","true","","","","","","","","","","","1000","1000","500","","","","","","-1","none","true","","0",""
"","","","","","single-stim-button","314","1002182","0.0-4.0-5.0-0.0","60e5eceb989f38c746723024","D2","batch4","","2231","","","tol_practice","","","","","","","","","","","tol_peg_1","2231","2231","0","[[1,0,0],[3,0],[0]]","2","[[0,0,0],[3,1],[2]]","practice","2231","","","","","",""
"","","","","","single-stim-button","315","1002949","0.0-4.0-5.0-1.0","60e5eceb989f38c746723024","D2","batch4","","766","","","tol_practice","","","","","","","","","","","tol_peg_3","766","766","0","[[1,0,0],[3,0],[2]]","2","[[0,0,0],[3,1],[2]]","practice","766","","","","","",""
"","","","","","single-stim-button","316","1003669","0.0-4.0-5.1-0.1","60e5eceb989f38c746723024","D2","batch4","","719","","","tol_practice","","","","","","","","","","","tol_peg_1","719","719","0","[[0,0,0],[3,0],[2]]","3","[[0,0,0],[3,1],[2]]","practice","719","","","","","",""
"","","","","","single-stim-button","317","1004156","0.0-4.0-5.1-1.1","60e5eceb989f38c746723024","D2","batch4","","487","","","tol_practice","","","","","","","","","","","tol_peg_2","487","487","0","[[0,0,0],[3,1],[2]]","3","[[0,0,0],[3,1],[2]]","practice","487","","","","","",""
"","","","","","poldrack-single-stim","318","1005160","0.0-4.0-6.0","60e5eceb989f38c746723024","D2","batch4","","-1","","","tol_feedback","true","","","","","","","","","","","1000","1000","500","","","","","","-1","none","true","","0",""
"","","","","","single-stim-button","319","1006787","0.0-4.0-7.0-0.0","60e5eceb989f38c746723024","D2","batch4","","1626","","","tol_practice","","","","","","","","","","","tol_peg_2","1626","1626","0","[[1,2,0],[0,0],[0]]","4","[[1,0,0],[2,0],[3]]","practice","1626","","","","","",""
"","","","","","single-stim-button","320","1007674","0.0-4.0-7.0-1.0","60e5eceb989f38c746723024","D2","batch4","","885","","","tol_practice","","","","","","","","","","","tol_peg_3","885","885","0","[[1,2,0],[0,0],[3]]","4","[[1,0,0],[2,0],[3]]","practice","885","","","","","",""
"","","","","","single-stim-button","321","1008338","0.0-4.0-7.1-0.1","60e5eceb989f38c746723024","D2","batch4","","663","","","tol_practice","","","","","","","","","","","tol_peg_1","663","663","0","[[1,0,0],[0,0],[3]]","5","[[1,0,0],[2,0],[3]]","practice","663","","","","","",""
"","","","","","single-stim-button","322","1008763","0.0-4.0-7.1-1.1","60e5eceb989f38c746723024","D2","batch4","","425","","","tol_practice","","","","","","","","","","","tol_peg_2","425","425","0","[[1,0,0],[2,0],[3]]","5","[[1,0,0],[2,0],[3]]","practice","425","","","","","",""
"","","","","","poldrack-single-stim","323","1009766","0.0-4.0-8.0","60e5eceb989f38c746723024","D2","batch4","","-1","","","tol_feedback","true","","","","","","","","","","","1000","1000","500","","","","","","-1","none","true","","0",""
"","","","","","html-button-response","324","1011308","0.0-4.0-9.0","60e5eceb989f38c746723024","D2","batch4","","1540","<div class = centerbox><p class = center-block-text>Great job! You are done with practice trials<br>You are about to start official trials.<br> <br> Problem <strong>1</strong> out of 25 problems</p></div>","0","tol_instruction","","","","","","","","","","","","","","","","","","","","","","","","",""
"","","","","","single-stim-button","325","1015087","0.0-4.0-10.0-0.0","60e5eceb989f38c746723024","D2","batch4","","2776","","","tol_tohand","","","","","","","","","","","tol_peg_2","2776","2776","0","[[1,2,0],[0,0],[0]]","1","[[1,3,0],[2,0],[0]]","0","0","","","","","","3"
"","","","","","single-stim-button","326","1015831","0.0-4.0-10.0-1.0","60e5eceb989f38c746723024","D2","batch4","","744","","","tol_toboard","","","","","","","","","","","tol_peg_3","744","744","0","[[1,2,0],[0,0],[3]]","1","[[1,3,0],[2,0],[0]]","0","0","","","","","","3"
"","","","","","single-stim-button","327","1016325","0.0-4.0-10.1-0.1","60e5eceb989f38c746723024","D2","batch4","","493","","","tol_tohand","","","","","","","","","","","tol_peg_1","493","493","0","[[1,0,0],[0,0],[3]]","2","[[1,3,0],[2,0],[0]]","0","0","","","","","","3"
"","","","","","single-stim-button","328","1016977","0.0-4.0-10.1-1.1","60e5eceb989f38c746723024","D2","batch4","","650","","","tol_toboard","","","","","","","","","","","tol_peg_2","650","650","0","[[1,0,0],[2,0],[3]]","2","[[1,3,0],[2,0],[0]]","0","0","","","","","","3"
"","","","","","single-stim-button","329","1017451","0.0-4.0-10.2-0.2","60e5eceb989f38c746723024","D2","batch4","","474","","","tol_tohand","","","","","","","","","","","tol_peg_3","474","474","0","[[1,0,0],[2,0],[0]]","3","[[1,3,0],[2,0],[0]]","0","0","","","","","","3"
"","","","","","single-stim-button","330","1018023","0.0-4.0-10.2-1.2","60e5eceb989f38c746723024","D2","batch4","","571","","","tol_toboard","","","","","","","","","","","tol_peg_1","571","571","0","[[1,3,0],[2,0],[0]]","3","[[1,3,0],[2,0],[0]]","0","0","","","","","","3"
"","","","","","poldrack-single-stim","331","1019034","0.0-4.0-11.0","60e5eceb989f38c746723024","D2","batch4","","-1","","","tol_feedback","true","","","","","","","","","","","1000","1000","500","","","","","","-1","none","true","2776","3743",""
"","","","","","html-button-response","332","1020151","0.0-4.0-12.0","60e5eceb989f38c746723024","D2","batch4","","1114","<div class = centerbox><p class = center-block-text>problem <strong>2</strong> out of 25 problems</p></div>","0","tol_trial_num","","","","","","","","","","","","","","","","","","","","","","","","",""
"","","","","","single-stim-button","333","1028193","0.0-4.0-13.0-0.0","60e5eceb989f38c746723024","D2","batch4","","8041","","","tol_tohand","","","","","","","","","","","tol_peg_1","8041","8041","0","[[1,0,0],[3,0],[0]]","1","[[2,1,3],[0,0],[0]]","1","0","","","","","","5"
"","","","","","single-stim-button","334","1031300","0.0-4.0-13.0-1.0","60e5eceb989f38c746723024","D2","batch4","","3106","","","tol_toboard","","","","","","","","","","","tol_peg_3","3106","3106","0","[[1,0,0],[3,0],[2]]","1","[[2,1,3],[0,0],[0]]","1","0","","","","","","5"
"","","","","","single-stim-button","335","1032391","0.0-4.0-13.1-0.1","60e5eceb989f38c746723024","D2","batch4","","1090","","","tol_tohand","","","","","","","","","","","tol_peg_1","1090","1090","0","[[0,0,0],[3,0],[2]]","2","[[2,1,3],[0,0],[0]]","1","0","","","","","","5"
"","","","","","single-stim-button","336","1032953","0.0-4.0-13.1-1.1","60e5eceb989f38c746723024","D2","batch4","","562","","","tol_toboard","","","","","","","","","","","tol_peg_2","562","562","0","[[0,0,0],[3,1],[2]]","2","[[2,1,3],[0,0],[0]]","1","0","","","","","","5"
"","","","","","single-stim-button","337","1033381","0.0-4.0-13.2-0.2","60e5eceb989f38c746723024","D2","batch4","","426","","","tol_tohand","","","","","","","","","","","tol_peg_3","426","426","0","[[0,0,0],[3,1],[0]]","3","[[2,1,3],[0,0],[0]]","1","0","","","","","","5"
"","","","","","single-stim-button","338","1034256","0.0-4.0-13.2-1.2","60e5eceb989f38c746723024","D2","batch4","","875","","","tol_toboard","","","","","","","","","","","tol_peg_1","875","875","0","[[2,0,0],[3,1],[0]]","3","[[2,1,3],[0,0],[0]]","1","0","","","","","","5"
"","","","","","single-stim-button","339","1034755","0.0-4.0-13.3-0.3","60e5eceb989f38c746723024","D2","batch4","","498","","","tol_tohand","","","","","","","","","","","tol_peg_2","498","498","0","[[2,0,0],[3,0],[0]]","4","[[2,1,3],[0,0],[0]]","1","0","","","","","","5"
"","","","","","single-stim-button","340","1035203","0.0-4.0-13.3-1.3","60e5eceb989f38c746723024","D2","batch4","","448","","","tol_toboard","","","","","","","","","","","tol_peg_1","448","448","0","[[2,1,0],[3,0],[0]]","4","[[2,1,3],[0,0],[0]]","1","0","","","","","","5"
"","","","","","single-stim-button","341","1035810","0.0-4.0-13.4-0.4","60e5eceb989f38c746723024","D2","batch4","","606","","","tol_tohand","","","","","","","","","","","tol_peg_2","606","606","0","[[2,1,0],[0,0],[0]]","5","[[2,1,3],[0,0],[0]]","1","0","","","","","","5"
"","","","","","single-stim-button","342","1036506","0.0-4.0-13.4-1.4","60e5eceb989f38c746723024","D2","batch4","","695","","","tol_toboard","","","","","","","","","","","tol_peg_1","695","695","0","[[2,1,3],[0,0],[0]]","5","[[2,1,3],[0,0],[0]]","1","0","","","","","","5"
"","","","","","poldrack-single-stim","343","1037508","0.0-4.0-14.0","60e5eceb989f38c746723024","D2","batch4","","-1","","","tol_feedback","true","","","","","","","","","","","1000","1000","500","","","","","","-1","none","true","8041","10661",""
"","","","","","html-button-response","344","1038464","0.0-4.0-15.0","60e5eceb989f38c746723024","D2","batch4","","953.8999999761581","<div class = centerbox><p class = center-block-text>problem <strong>3</strong> out of 25 problems</p></div>","0","tol_trial_num","","","","","","","","","","","","","","","","","","","","","","","","",""
"","","","","","single-stim-button","345","1042369","0.0-4.0-16.0-0.0","60e5eceb989f38c746723024","D2","batch4","","3904","","","tol_tohand","","","","","","","","","","","tol_peg_1","3904","3904","0","[[2,0,0],[0,0],[1]]","1","[[1,2,0],[3,0],[0]]","2","0","","","","","","4"
"","","","","","single-stim-button","346","1042942","0.0-4.0-16.0-1.0","60e5eceb989f38c746723024","D2","batch4","","572","","","tol_toboard","","","","","","","","","","","tol_peg_2","572","572","0","[[2,0,0],[3,0],[1]]","1","[[1,2,0],[3,0],[0]]","2","0","","","","","","4"
"","","","","","single-stim-button","347","1043505","0.0-4.0-16.1-0.1","60e5eceb989f38c746723024","D2","batch4","","561","","","tol_tohand","","","","","","","","","","","tol_peg_1","561","561","0","[[0,0,0],[3,0],[1]]","2","[[1,2,0],[3,0],[0]]","2","0","","","","","","4"
"","","","","","single-stim-button","348","1044158","0.0-4.0-16.1-1.1","60e5eceb989f38c746723024","D2","batch4","","652","","","tol_toboard","","","","","","","","","","","tol_peg_2","652","652","0","[[0,0,0],[3,2],[1]]","2","[[1,2,0],[3,0],[0]]","2","0","","","","","","4"
