"success","timeout","failed_images","failed_audio","failed_video","trial_type","trial_index","time_elapsed","internal_node_id","subject_id","study_id","session_id","task","rt","stimulus","response","item","answer","correct","spm_correct","spm_rt","view_history","mouse_click","stim_duration","block_duration","timing_post_trial","current_position","tol_num_moves_made","tol_target","tol_problem_id","tol_rt","key_press","possible_responses","tol_correct","preplanning","tol_rt_per_trial","tol_min_moves","fiar_detect_rt","fiar_detect_correct","total_correct_fiar_detect","post_trial_gap","choices"
"true","false","[]","[]","[]","preload","0","1203","0.0-0.0","60e792f25e9ab875f9605cf5","A3","batch1","","","","","","","","","","","","","","","","","","","","","","","","","","","","","",""
"true","","","","","fullscreen","1","4302","0.0-1.0-0.0","60e792f25e9ab875f9605cf5","A3","batch1","","","","","","","","","","","","","","","","","","","","","","","","","","","","","",""
"true","","","","","fullscreen","2","6798","0.0-2.0-0.0","60e792f25e9ab875f9605cf5","A3","batch1","spm_fullscreen","","","","","","","","","","","","","","","","","","","","","","","","","","","","",""
"","","","","","html-button-response","3","11271","0.0-2.0-1.0","60e792f25e9ab875f9605cf5","A3","batch1","","4470.699999928474","<p class = block-text><b>Instructions</b> <br>This is a widely used intelligence test in research. <br>In this test, a figure with a missing piece will be presented.<br>Below the figure are alternative pieces to complete the figure, only one of which is correct.<br> Different figures might involve different principles for obtaining the missing piece<br>Your job is to select the most logical piece to complete the figure.</p>","0","","","","","","","","","","","","","","","","","","","","","","","","","",""
"","","","","","html-keyboard-response","4","12076","0.0-2.0-2.0-0.0","60e792f25e9ab875f9605cf5","A3","batch1","spm_show_trial_num","null","<p class=block-text>Trial 1 out of 60</p>","null","","","","","","","","","","","","","","","","","","","","","","","","","",""
"","","","","","image-button-response","5","19917","0.0-2.0-2.0-1.0","60e792f25e9ab875f9605cf5","A3","batch1","spm_respsonse","7831.200000047684","img/question_1_1.jpeg","3","mat_01","4","1","1","7831.200000047684","","","","","","","","","","","","","","","","","","","","",""
"","","","","","html-keyboard-response","6","20969","0.0-2.0-2.0-0.1","60e792f25e9ab875f9605cf5","A3","batch1","spm_show_trial_num","null","<p class=block-text>Trial 2 out of 60</p>","null","","","","","","","","","","","","","","","","","","","","","","","","","",""
"","","","","","image-button-response","7","23258","0.0-2.0-2.0-1.1","60e792f25e9ab875f9605cf5","A3","batch1","spm_respsonse","2286.399999976158","img/question_1_2.jpeg","4","mat_02","5","1","1","2286.399999976158","","","","","","","","","","","","","","","","","","","","",""
"","","","","","html-keyboard-response","8","24311","0.0-2.0-2.0-0.2","60e792f25e9ab875f9605cf5","A3","batch1","spm_show_trial_num","null","<p class=block-text>Trial 3 out of 60</p>","null","","","","","","","","","","","","","","","","","","","","","","","","","",""
"","","","","","image-button-response","9","26823","0.0-2.0-2.0-1.2","60e792f25e9ab875f9605cf5","A3","batch1","spm_respsonse","2507.899999976158","img/question_1_3.jpeg","0","mat_03","1","1","1","2507.899999976158","","","","","","","","","","","","","","","","","","","","",""
"","","","","","html-keyboard-response","10","27878","0.0-2.0-2.0-0.3","60e792f25e9ab875f9605cf5","A3","batch1","spm_show_trial_num","null","<p class=block-text>Trial 4 out of 60</p>","null","","","","","","","","","","","","","","","","","","","","","","","","","",""
"","","","","","image-button-response","11","30581","0.0-2.0-2.0-1.3","60e792f25e9ab875f9605cf5","A3","batch1","spm_respsonse","2701","img/question_1_4.jpeg","1","mat_04","2","1","1","2701","","","","","","","","","","","","","","","","","","","","",""
"","","","","","html-keyboard-response","12","31634","0.0-2.0-2.0-0.4","60e792f25e9ab875f9605cf5","A3","batch1","spm_show_trial_num","null","<p class=block-text>Trial 5 out of 60</p>","null","","","","","","","","","","","","","","","","","","","","","","","","","",""
"","","","","","image-button-response","13","35835","0.0-2.0-2.0-1.4","60e792f25e9ab875f9605cf5","A3","batch1","spm_respsonse","4197.399999976158","img/question_1_5.jpeg","5","mat_05","6","1","1","4197.399999976158","","","","","","","","","","","","","","","","","","","","",""
"","","","","","html-keyboard-response","14","36891","0.0-2.0-2.0-0.5","60e792f25e9ab875f9605cf5","A3","batch1","spm_show_trial_num","null","<p class=block-text>Trial 6 out of 60</p>","null","","","","","","","","","","","","","","","","","","","","","","","","","",""
"","","","","","image-button-response","15","40245","0.0-2.0-2.0-1.5","60e792f25e9ab875f9605cf5","A3","batch1","spm_respsonse","3349.899999976158","img/question_1_6.jpeg","2","mat_06","3","1","1","3349.899999976158","","","","","","","","","","","","","","","","","","","","",""
"","","","","","html-keyboard-response","16","41298","0.0-2.0-2.0-0.6","60e792f25e9ab875f9605cf5","A3","batch1","spm_show_trial_num","null","<p class=block-text>Trial 7 out of 60</p>","null","","","","","","","","","","","","","","","","","","","","","","","","","",""
"","","","","","image-button-response","17","45118","0.0-2.0-2.0-1.6","60e792f25e9ab875f9605cf5","A3","batch1","spm_respsonse","3817.600000023842","img/question_1_7.jpeg","5","mat_07","6","1","1","3817.600000023842","","","","","","","","","","","","","","","","","","","","",""
"","","","","","html-keyboard-response","18","46171","0.0-2.0-2.0-0.7","60e792f25e9ab875f9605cf5","A3","batch1","spm_show_trial_num","null","<p class=block-text>Trial 8 out of 60</p>","null","","","","","","","","","","","","","","","","","","","","","","","","","",""
"","","","","","image-button-response","19","50571","0.0-2.0-2.0-1.7","60e792f25e9ab875f9605cf5","A3","batch1","spm_respsonse","4397.099999904633","img/question_1_8.jpeg","1","mat_08","2","1","1","4397.099999904633","","","","","","","","","","","","","","","","","","","","",""
"","","","","","html-keyboard-response","20","51624","0.0-2.0-2.0-0.8","60e792f25e9ab875f9605cf5","A3","batch1","spm_show_trial_num","null","<p class=block-text>Trial 9 out of 60</p>","null","","","","","","","","","","","","","","","","","","","","","","","","","",""
"","","","","","image-button-response","21","56309","0.0-2.0-2.0-1.8","60e792f25e9ab875f9605cf5","A3","batch1","spm_respsonse","4683.799999952316","img/question_1_9.jpeg","0","mat_09","1","1","1","4683.799999952316","","","","","","","","","","","","","","","","","","","","",""
"","","","","","html-keyboard-response","22","57364","0.0-2.0-2.0-0.9","60e792f25e9ab875f9605cf5","A3","batch1","spm_show_trial_num","null","<p class=block-text>Trial 10 out of 60</p>","null","","","","","","","","","","","","","","","","","","","","","","","","","",""
"","","","","","image-button-response","23","62104","0.0-2.0-2.0-1.9","60e792f25e9ab875f9605cf5","A3","batch1","spm_respsonse","4737.5","img/question_1_10.jpeg","2","mat_10","3","1","1","4737.5","","","","","","","","","","","","","","","","","","","","",""
"","","","","","html-keyboard-response","24","63158","0.0-2.0-2.0-0.10","60e792f25e9ab875f9605cf5","A3","batch1","spm_show_trial_num","null","<p class=block-text>Trial 11 out of 60</p>","null","","","","","","","","","","","","","","","","","","","","","","","","","",""
"","","","","","image-button-response","25","68302","0.0-2.0-2.0-1.10","60e792f25e9ab875f9605cf5","A3","batch1","spm_respsonse","5138.200000047684","img/question_1_11.jpeg","3","mat_11","4","1","1","5138.200000047684","","","","","","","","","","","","","","","","","","","","",""
"","","","","","html-keyboard-response","26","69355","0.0-2.0-2.0-0.11","60e792f25e9ab875f9605cf5","A3","batch1","spm_show_trial_num","null","<p class=block-text>Trial 12 out of 60</p>","null","","","","","","","","","","","","","","","","","","","","","","","","","",""
"","","","","","image-button-response","27","75715","0.0-2.0-2.0-1.11","60e792f25e9ab875f9605cf5","A3","batch1","spm_respsonse","6357.800000071526","img/question_1_12.jpeg","0","mat_12","5","0","0","6357.800000071526","","","","","","","","","","","","","","","","","","","","",""
"","","","","","html-keyboard-response","28","76767","0.0-2.0-2.0-0.12","60e792f25e9ab875f9605cf5","A3","batch1","spm_show_trial_num","null","<p class=block-text>Trial 13 out of 60</p>","null","","","","","","","","","","","","","","","","","","","","","","","","","",""
"","","","","","image-button-response","29","78809","0.0-2.0-2.0-1.12","60e792f25e9ab875f9605cf5","A3","batch1","spm_respsonse","2038.5","img/question_2_1.jpeg","1","mat_13","2","1","1","2038.5","","","","","","","","","","","","","","","","","","","","",""
"","","","","","html-keyboard-response","30","79861","0.0-2.0-2.0-0.13","60e792f25e9ab875f9605cf5","A3","batch1","spm_show_trial_num","null","<p class=block-text>Trial 14 out of 60</p>","null","","","","","","","","","","","","","","","","","","","","","","","","","",""
"","","","","","image-button-response","31","84614","0.0-2.0-2.0-1.13","60e792f25e9ab875f9605cf5","A3","batch1","spm_respsonse","4750.200000047684","img/question_2_2.jpeg","5","mat_14","6","1","1","4750.200000047684","","","","","","","","","","","","","","","","","","","","",""
"","","","","","html-keyboard-response","32","85672","0.0-2.0-2.0-0.14","60e792f25e9ab875f9605cf5","A3","batch1","spm_show_trial_num","null","<p class=block-text>Trial 15 out of 60</p>","null","","","","","","","","","","","","","","","","","","","","","","","","","",""
"","","","","","image-button-response","33","88338","0.0-2.0-2.0-1.14","60e792f25e9ab875f9605cf5","A3","batch1","spm_respsonse","2664.600000023842","img/question_2_3.jpeg","0","mat_15","1","1","1","2664.600000023842","","","","","","","","","","","","","","","","","","","","",""
"","","","","","html-keyboard-response","34","89391","0.0-2.0-2.0-0.15","60e792f25e9ab875f9605cf5","A3","batch1","spm_show_trial_num","null","<p class=block-text>Trial 16 out of 60</p>","null","","","","","","","","","","","","","","","","","","","","","","","","","",""
"","","","","","image-button-response","35","93298","0.0-2.0-2.0-1.15","60e792f25e9ab875f9605cf5","A3","batch1","spm_respsonse","3903.2999999523163","img/question_2_4.jpeg","1","mat_16","2","1","1","3903.2999999523163","","","","","","","","","","","","","","","","","","","","",""
"","","","","","html-keyboard-response","36","94352","0.0-2.0-2.0-0.16","60e792f25e9ab875f9605cf5","A3","batch1","spm_show_trial_num","null","<p class=block-text>Trial 17 out of 60</p>","null","","","","","","","","","","","","","","","","","","","","","","","","","",""
"","","","","","image-button-response","37","97878","0.0-2.0-2.0-1.16","60e792f25e9ab875f9605cf5","A3","batch1","spm_respsonse","3522.5","img/question_2_5.jpeg","0","mat_17","1","1","1","3522.5","","","","","","","","","","","","","","","","","","","","",""
"","","","","","html-keyboard-response","38","98930","0.0-2.0-2.0-0.17","60e792f25e9ab875f9605cf5","A3","batch1","spm_show_trial_num","null","<p class=block-text>Trial 18 out of 60</p>","null","","","","","","","","","","","","","","","","","","","","","","","","","",""
"","","","","","image-button-response","39","103054","0.0-2.0-2.0-1.17","60e792f25e9ab875f9605cf5","A3","batch1","spm_respsonse","4119.399999976158","img/question_2_6.jpeg","2","mat_18","3","1","1","4119.399999976158","","","","","","","","","","","","","","","","","","","","",""
"","","","","","html-keyboard-response","40","104113","0.0-2.0-2.0-0.18","60e792f25e9ab875f9605cf5","A3","batch1","spm_show_trial_num","null","<p class=block-text>Trial 19 out of 60</p>","null","","","","","","","","","","","","","","","","","","","","","","","","","",""
"","","","","","image-button-response","41","108780","0.0-2.0-2.0-1.18","60e792f25e9ab875f9605cf5","A3","batch1","spm_respsonse","4662.100000023842","img/question_2_7.jpeg","4","mat_19","5","1","1","4662.100000023842","","","","","","","","","","","","","","","","","","","","",""
"","","","","","html-keyboard-response","42","109834","0.0-2.0-2.0-0.19","60e792f25e9ab875f9605cf5","A3","batch1","spm_show_trial_num","null","<p class=block-text>Trial 20 out of 60</p>","null","","","","","","","","","","","","","","","","","","","","","","","","","",""
"","","","","","image-button-response","43","114889","0.0-2.0-2.0-1.19","60e792f25e9ab875f9605cf5","A3","batch1","spm_respsonse","5050.600000023842","img/question_2_8.jpeg","5","mat_20","6","1","1","5050.600000023842","","","","","","","","","","","","","","","","","","","","",""
"","","","","","html-keyboard-response","44","115950","0.0-2.0-2.0-0.20","60e792f25e9ab875f9605cf5","A3","batch1","spm_show_trial_num","null","<p class=block-text>Trial 21 out of 60</p>","null","","","","","","","","","","","","","","","","","","","","","","","","","",""
"","","","","","image-button-response","45","119434","0.0-2.0-2.0-1.20","60e792f25e9ab875f9605cf5","A3","batch1","spm_respsonse","3479.100000023842","img/question_2_9.jpeg","3","mat_21","4","1","1","3479.100000023842","","","","","","","","","","","","","","","","","","","","",""
"","","","","","html-keyboard-response","46","120487","0.0-2.0-2.0-0.21","60e792f25e9ab875f9605cf5","A3","batch1","spm_show_trial_num","null","<p class=block-text>Trial 22 out of 60</p>","null","","","","","","","","","","","","","","","","","","","","","","","","","",""
"","","","","","image-button-response","47","123585","0.0-2.0-2.0-1.21","60e792f25e9ab875f9605cf5","A3","batch1","spm_respsonse","3096.100000023842","img/question_2_10.jpeg","2","mat_22","3","1","1","3096.100000023842","","","","","","","","","","","","","","","","","","","","",""
"","","","","","html-keyboard-response","48","124649","0.0-2.0-2.0-0.22","60e792f25e9ab875f9605cf5","A3","batch1","spm_show_trial_num","null","<p class=block-text>Trial 23 out of 60</p>","null","","","","","","","","","","","","","","","","","","","","","","","","","",""
"","","","","","image-button-response","49","130840","0.0-2.0-2.0-1.22","60e792f25e9ab875f9605cf5","A3","batch1","spm_respsonse","6189.200000047684","img/question_2_11.jpeg","3","mat_23","4","1","1","6189.200000047684","","","","","","","","","","","","","","","","","","","","",""
"","","","","","html-keyboard-response","50","131911","0.0-2.0-2.0-0.23","60e792f25e9ab875f9605cf5","A3","batch1","spm_show_trial_num","null","<p class=block-text>Trial 24 out of 60</p>","null","","","","","","","","","","","","","","","","","","","","","","","","","",""
"","","","","","image-button-response","51","148880","0.0-2.0-2.0-1.23","60e792f25e9ab875f9605cf5","A3","batch1","spm_respsonse","16963.800000071526","img/question_2_12.jpeg","4","mat_24","5","1","1","16963.800000071526","","","","","","","","","","","","","","","","","","","","",""
"","","","","","html-button-response","52","151027","0.0-2.0-3.0","60e792f25e9ab875f9605cf5","A3","batch1","attention_check","1892.5","<p class = block-text>Attention check: Please choose 1<br></p>","0","","","true","","","","","","","","","","","","","","","","","","","","","","",""
"","","","","","html-keyboard-response","53","151829","0.0-2.0-4.0-0.0","60e792f25e9ab875f9605cf5","A3","batch1","spm_show_trial_num","null","<p class=block-text>Trial 25 out of 60</p>","null","","","","","","","","","","","","","","","","","","","","","","","","","",""
"","","","","","image-button-response","54","155887","0.0-2.0-4.0-1.0","60e792f25e9ab875f9605cf5","A3","batch1","spm_respsonse","4052.399999976158","img/question_3_1.jpeg","7","mat_25","8","1","1","4052.399999976158","","","","","","","","","","","","","","","","","","","","",""
"","","","","","html-keyboard-response","55","156940","0.0-2.0-4.0-0.1","60e792f25e9ab875f9605cf5","A3","batch1","spm_show_trial_num","null","<p class=block-text>Trial 26 out of 60</p>","null","","","","","","","","","","","","","","","","","","","","","","","","","",""
"","","","","","image-button-response","56","163120","0.0-2.0-4.0-1.1","60e792f25e9ab875f9605cf5","A3","batch1","spm_respsonse","6178.299999952316","img/question_3_2.jpeg","1","mat_26","2","1","1","6178.299999952316","","","","","","","","","","","","","","","","","","","","",""
"","","","","","html-keyboard-response","57","164173","0.0-2.0-4.0-0.2","60e792f25e9ab875f9605cf5","A3","batch1","spm_show_trial_num","null","<p class=block-text>Trial 27 out of 60</p>","null","","","","","","","","","","","","","","","","","","","","","","","","","",""
"","","","","","image-button-response","58","168207","0.0-2.0-4.0-1.2","60e792f25e9ab875f9605cf5","A3","batch1","spm_respsonse","4029.9000000953674","img/question_3_3.jpeg","2","mat_27","3","1","1","4029.9000000953674","","","","","","","","","","","","","","","","","","","","",""
"","","","","","html-keyboard-response","59","169260","0.0-2.0-4.0-0.3","60e792f25e9ab875f9605cf5","A3","batch1","spm_show_trial_num","null","<p class=block-text>Trial 28 out of 60</p>","null","","","","","","","","","","","","","","","","","","","","","","","","","",""
"","","","","","image-button-response","60","174337","0.0-2.0-4.0-1.3","60e792f25e9ab875f9605cf5","A3","batch1","spm_respsonse","5073","img/question_3_4.jpeg","7","mat_28","8","1","1","5073","","","","","","","","","","","","","","","","","","","","",""
"","","","","","html-keyboard-response","61","175388","0.0-2.0-4.0-0.4","60e792f25e9ab875f9605cf5","A3","batch1","spm_show_trial_num","null","<p class=block-text>Trial 29 out of 60</p>","null","","","","","","","","","","","","","","","","","","","","","","","","","",""
"","","","","","image-button-response","62","181301","0.0-2.0-4.0-1.4","60e792f25e9ab875f9605cf5","A3","batch1","spm_respsonse","5911.100000023842","img/question_3_5.jpeg","6","mat_29","7","1","1","5911.100000023842","","","","","","","","","","","","","","","","","","","","",""
"","","","","","html-keyboard-response","63","182354","0.0-2.0-4.0-0.5","60e792f25e9ab875f9605cf5","A3","batch1","spm_show_trial_num","null","<p class=block-text>Trial 30 out of 60</p>","null","","","","","","","","","","","","","","","","","","","","","","","","","",""
"","","","","","image-button-response","64","184880","0.0-2.0-4.0-1.5","60e792f25e9ab875f9605cf5","A3","batch1","spm_respsonse","2520.2000000476837","img/question_3_6.jpeg","3","mat_30","4","1","1","2520.2000000476837","","","","","","","","","","","","","","","","","","","","",""
"","","","","","html-keyboard-response","65","185933","0.0-2.0-4.0-0.6","60e792f25e9ab875f9605cf5","A3","batch1","spm_show_trial_num","null","<p class=block-text>Trial 31 out of 60</p>","null","","","","","","","","","","","","","","","","","","","","","","","","","",""
"","","","","","image-button-response","66","194104","0.0-2.0-4.0-1.6","60e792f25e9ab875f9605cf5","A3","batch1","spm_respsonse","8168.200000047684","img/question_3_7.jpeg","4","mat_31","5","1","1","8168.200000047684","","","","","","","","","","","","","","","","","","","","",""
"","","","","","html-keyboard-response","67","195156","0.0-2.0-4.0-0.7","60e792f25e9ab875f9605cf5","A3","batch1","spm_show_trial_num","null","<p class=block-text>Trial 32 out of 60</p>","null","","","","","","","","","","","","","","","","","","","","","","","","","",""
"","","","","","image-button-response","68","200989","0.0-2.0-4.0-1.7","60e792f25e9ab875f9605cf5","A3","batch1","spm_respsonse","5827.899999976158","img/question_3_8.jpeg","0","mat_32","1","1","1","5827.899999976158","","","","","","","","","","","","","","","","","","","","",""
"","","","","","html-keyboard-response","69","202042","0.0-2.0-4.0-0.8","60e792f25e9ab875f9605cf5","A3","batch1","spm_show_trial_num","null","<p class=block-text>Trial 33 out of 60</p>","null","","","","","","","","","","","","","","","","","","","","","","","","","",""
"","","","","","image-button-response","70","208358","0.0-2.0-4.0-1.8","60e792f25e9ab875f9605cf5","A3","batch1","spm_respsonse","6314.799999952316","img/question_3_9.jpeg","6","mat_33","7","1","1","6314.799999952316","","","","","","","","","","","","","","","","","","","","",""
"","","","","","html-keyboard-response","71","209411","0.0-2.0-4.0-0.9","60e792f25e9ab875f9605cf5","A3","batch1","spm_show_trial_num","null","<p class=block-text>Trial 34 out of 60</p>","null","","","","","","","","","","","","","","","","","","","","","","","","","",""
"","","","","","image-button-response","72","218371","0.0-2.0-4.0-1.9","60e792f25e9ab875f9605cf5","A3","batch1","spm_respsonse","8953.399999976158","img/question_3_10.jpeg","5","mat_34","6","1","1","8953.399999976158","","","","","","","","","","","","","","","","","","","","",""
"","","","","","html-keyboard-response","73","219423","0.0-2.0-4.0-0.10","60e792f25e9ab875f9605cf5","A3","batch1","spm_show_trial_num","null","<p class=block-text>Trial 35 out of 60</p>","null","","","","","","","","","","","","","","","","","","","","","","","","","",""
"","","","","","image-button-response","74","232342","0.0-2.0-4.0-1.10","60e792f25e9ab875f9605cf5","A3","batch1","spm_respsonse","12913.200000047684","img/question_3_11.jpeg","0","mat_35","1","1","1","12913.200000047684","","","","","","","","","","","","","","","","","","","","",""
"","","","","","html-keyboard-response","75","233395","0.0-2.0-4.0-0.11","60e792f25e9ab875f9605cf5","A3","batch1","spm_show_trial_num","null","<p class=block-text>Trial 36 out of 60</p>","null","","","","","","","","","","","","","","","","","","","","","","","","","",""
"","","","","","image-button-response","76","251987","0.0-2.0-4.0-1.11","60e792f25e9ab875f9605cf5","A3","batch1","spm_respsonse","18589.800000071526","img/question_3_12.jpeg","1","mat_36","2","1","1","18589.800000071526","","","","","","","","","","","","","","","","","","","","",""
"","","","","","html-keyboard-response","77","253040","0.0-2.0-4.0-0.12","60e792f25e9ab875f9605cf5","A3","batch1","spm_show_trial_num","null","<p class=block-text>Trial 37 out of 60</p>","null","","","","","","","","","","","","","","","","","","","","","","","","","",""
"","","","","","image-button-response","78","256048","0.0-2.0-4.0-1.12","60e792f25e9ab875f9605cf5","A3","batch1","spm_respsonse","3005.7999999523163","img/question_4_1.jpeg","2","mat_37","3","1","1","3005.7999999523163","","","","","","","","","","","","","","","","","","","","",""
"","","","","","html-keyboard-response","79","257101","0.0-2.0-4.0-0.13","60e792f25e9ab875f9605cf5","A3","batch1","spm_show_trial_num","null","<p class=block-text>Trial 38 out of 60</p>","null","","","","","","","","","","","","","","","","","","","","","","","","","",""
"","","","","","image-button-response","80","263555","0.0-2.0-4.0-1.13","60e792f25e9ab875f9605cf5","A3","batch1","spm_respsonse","6449.5","img/question_4_2.jpeg","3","mat_38","4","1","1","6449.5","","","","","","","","","","","","","","","","","","","","",""
"","","","","","html-keyboard-response","81","264610","0.0-2.0-4.0-0.14","60e792f25e9ab875f9605cf5","A3","batch1","spm_show_trial_num","null","<p class=block-text>Trial 39 out of 60</p>","null","","","","","","","","","","","","","","","","","","","","","","","","","",""
"","","","","","image-button-response","82","270339","0.0-2.0-4.0-1.14","60e792f25e9ab875f9605cf5","A3","batch1","spm_respsonse","5724.399999976158","img/question_4_3.jpeg","2","mat_39","3","1","1","5724.399999976158","","","","","","","","","","","","","","","","","","","","",""
"","","","","","html-keyboard-response","83","271393","0.0-2.0-4.0-0.15","60e792f25e9ab875f9605cf5","A3","batch1","spm_show_trial_num","null","<p class=block-text>Trial 40 out of 60</p>","null","","","","","","","","","","","","","","","","","","","","","","","","","",""
"","","","","","image-button-response","84","278956","0.0-2.0-4.0-1.15","60e792f25e9ab875f9605cf5","A3","batch1","spm_respsonse","7558.5","img/question_4_4.jpeg","6","mat_40","7","1","1","7558.5","","","","","","","","","","","","","","","","","","","","",""
"","","","","","html-keyboard-response","85","280009","0.0-2.0-4.0-0.16","60e792f25e9ab875f9605cf5","A3","batch1","spm_show_trial_num","null","<p class=block-text>Trial 41 out of 60</p>","null","","","","","","","","","","","","","","","","","","","","","","","","","",""
"","","","","","image-button-response","86","295677","0.0-2.0-4.0-1.16","60e792f25e9ab875f9605cf5","A3","batch1","spm_respsonse","15665.200000047684","img/question_4_5.jpeg","7","mat_41","8","1","1","15665.200000047684","","","","","","","","","","","","","","","","","","","","",""
"","","","","","html-keyboard-response","87","296730","0.0-2.0-4.0-0.17","60e792f25e9ab875f9605cf5","A3","batch1","spm_show_trial_num","null","<p class=block-text>Trial 42 out of 60</p>","null","","","","","","","","","","","","","","","","","","","","","","","","","",""
"","","","","","image-button-response","88","303990","0.0-2.0-4.0-1.17","60e792f25e9ab875f9605cf5","A3","batch1","spm_respsonse","7257.100000023842","img/question_4_6.jpeg","5","mat_42","6","1","1","7257.100000023842","","","","","","","","","","","","","","","","","","","","",""
"","","","","","html-keyboard-response","89","305045","0.0-2.0-4.0-0.18","60e792f25e9ab875f9605cf5","A3","batch1","spm_show_trial_num","null","<p class=block-text>Trial 43 out of 60</p>","null","","","","","","","","","","","","","","","","","","","","","","","","","",""
"","","","","","image-button-response","90","319976","0.0-2.0-4.0-1.18","60e792f25e9ab875f9605cf5","A3","batch1","spm_respsonse","14928.300000071526","img/question_4_7.jpeg","4","mat_43","5","1","1","14928.300000071526","","","","","","","","","","","","","","","","","","","","",""
"","","","","","html-keyboard-response","91","321029","0.0-2.0-4.0-0.19","60e792f25e9ab875f9605cf5","A3","batch1","spm_show_trial_num","null","<p class=block-text>Trial 44 out of 60</p>","null","","","","","","","","","","","","","","","","","","","","","","","","","",""
"","","","","","image-button-response","92","328391","0.0-2.0-4.0-1.19","60e792f25e9ab875f9605cf5","A3","batch1","spm_respsonse","7359.300000071526","img/question_4_8.jpeg","3","mat_44","4","1","1","7359.300000071526","","","","","","","","","","","","","","","","","","","","",""
"","","","","","html-keyboard-response","93","329444","0.0-2.0-4.0-0.20","60e792f25e9ab875f9605cf5","A3","batch1","spm_show_trial_num","null","<p class=block-text>Trial 45 out of 60</p>","null","","","","","","","","","","","","","","","","","","","","","","","","","",""
"","","","","","image-button-response","94","340418","0.0-2.0-4.0-1.20","60e792f25e9ab875f9605cf5","A3","batch1","spm_respsonse","10968.699999928474","img/question_4_9.jpeg","0","mat_45","1","1","1","10968.699999928474","","","","","","","","","","","","","","","","","","","","",""
"","","","","","html-keyboard-response","95","341472","0.0-2.0-4.0-0.21","60e792f25e9ab875f9605cf5","A3","batch1","spm_show_trial_num","null","<p class=block-text>Trial 46 out of 60</p>","null","","","","","","","","","","","","","","","","","","","","","","","","","",""
"","","","","","image-button-response","96","352984","0.0-2.0-4.0-1.21","60e792f25e9ab875f9605cf5","A3","batch1","spm_respsonse","11510","img/question_4_10.jpeg","1","mat_46","2","1","1","11510","","","","","","","","","","","","","","","","","","","","",""
"","","","","","html-keyboard-response","97","354037","0.0-2.0-4.0-0.22","60e792f25e9ab875f9605cf5","A3","batch1","spm_show_trial_num","null","<p class=block-text>Trial 47 out of 60</p>","null","","","","","","","","","","","","","","","","","","","","","","","","","",""
"","","","","","image-button-response","98","365031","0.0-2.0-4.0-1.22","60e792f25e9ab875f9605cf5","A3","batch1","spm_respsonse","10989.5","img/question_4_11.jpeg","4","mat_47","5","1","1","10989.5","","","","","","","","","","","","","","","","","","","","",""
"","","","","","html-keyboard-response","99","366085","0.0-2.0-4.0-0.23","60e792f25e9ab875f9605cf5","A3","batch1","spm_show_trial_num","null","<p class=block-text>Trial 48 out of 60</p>","null","","","","","","","","","","","","","","","","","","","","","","","","","",""
"","","","","","image-button-response","100","378104","0.0-2.0-4.0-1.23","60e792f25e9ab875f9605cf5","A3","batch1","spm_respsonse","12017.799999952316","img/question_4_12.jpeg","5","mat_48","6","1","1","12017.799999952316","","","","","","","","","","","","","","","","","","","","",""
"","","","","","html-keyboard-response","101","379158","0.0-2.0-4.0-0.24","60e792f25e9ab875f9605cf5","A3","batch1","spm_show_trial_num","null","<p class=block-text>Trial 49 out of 60</p>","null","","","","","","","","","","","","","","","","","","","","","","","","","",""
"","","","","","image-button-response","102","384136","0.0-2.0-4.0-1.24","60e792f25e9ab875f9605cf5","A3","batch1","spm_respsonse","4973","img/question_5_1.jpeg","6","mat_49","7","1","1","4973","","","","","","","","","","","","","","","","","","","","",""
"","","","","","html-keyboard-response","103","385200","0.0-2.0-4.0-0.25","60e792f25e9ab875f9605cf5","A3","batch1","spm_show_trial_num","null","<p class=block-text>Trial 50 out of 60</p>","null","","","","","","","","","","","","","","","","","","","","","","","","","",""
"","","","","","image-button-response","104","391987","0.0-2.0-4.0-1.25","60e792f25e9ab875f9605cf5","A3","batch1","spm_respsonse","6782.100000023842","img/question_5_2.jpeg","5","mat_50","6","1","1","6782.100000023842","","","","","","","","","","","","","","","","","","","","",""
"","","","","","html-keyboard-response","105","393041","0.0-2.0-4.0-0.26","60e792f25e9ab875f9605cf5","A3","batch1","spm_show_trial_num","null","<p class=block-text>Trial 51 out of 60</p>","null","","","","","","","","","","","","","","","","","","","","","","","","","",""
"","","","","","image-button-response","106","409717","0.0-2.0-4.0-1.26","60e792f25e9ab875f9605cf5","A3","batch1","spm_respsonse","16669.899999976158","img/question_5_3.jpeg","7","mat_51","8","1","1","16669.899999976158","","","","","","","","","","","","","","","","","","","","",""
"","","","","","html-keyboard-response","107","410770","0.0-2.0-4.0-0.27","60e792f25e9ab875f9605cf5","A3","batch1","spm_show_trial_num","null","<p class=block-text>Trial 52 out of 60</p>","null","","","","","","","","","","","","","","","","","","","","","","","","","",""
"","","","","","image-button-response","108","428056","0.0-2.0-4.0-1.27","60e792f25e9ab875f9605cf5","A3","batch1","spm_respsonse","17280.600000023842","img/question_5_4.jpeg","1","mat_52","2","1","1","17280.600000023842","","","","","","","","","","","","","","","","","","","","",""
"","","","","","html-keyboard-response","109","429110","0.0-2.0-4.0-0.28","60e792f25e9ab875f9605cf5","A3","batch1","spm_show_trial_num","null","<p class=block-text>Trial 53 out of 60</p>","null","","","","","","","","","","","","","","","","","","","","","","","","","",""
"","","","","","image-button-response","110","438148","0.0-2.0-4.0-1.28","60e792f25e9ab875f9605cf5","A3","batch1","spm_respsonse","9032.5","img/question_5_5.jpeg","0","mat_53","1","1","1","9032.5","","","","","","","","","","","","","","","","","","","","",""
"","","","","","html-keyboard-response","111","439201","0.0-2.0-4.0-0.29","60e792f25e9ab875f9605cf5","A3","batch1","spm_show_trial_num","null","<p class=block-text>Trial 54 out of 60</p>","null","","","","","","","","","","","","","","","","","","","","","","","","","",""
"","","","","","image-button-response","112","458264","0.0-2.0-4.0-1.29","60e792f25e9ab875f9605cf5","A3","batch1","spm_respsonse","19057.700000047684","img/question_5_6.jpeg","4","mat_54","5","1","1","19057.700000047684","","","","","","","","","","","","","","","","","","","","",""
"","","","","","html-keyboard-response","113","459318","0.0-2.0-4.0-0.30","60e792f25e9ab875f9605cf5","A3","batch1","spm_show_trial_num","null","<p class=block-text>Trial 55 out of 60</p>","null","","","","","","","","","","","","","","","","","","","","","","","","","",""
"","","","","","image-button-response","114","493209","0.0-2.0-4.0-1.30","60e792f25e9ab875f9605cf5","A3","batch1","spm_respsonse","33884.300000071526","img/question_5_7.jpeg","4","mat_55","1","0","0","33884.300000071526","","","","","","","","","","","","","","","","","","","","",""
"","","","","","html-keyboard-response","115","494263","0.0-2.0-4.0-0.31","60e792f25e9ab875f9605cf5","A3","batch1","spm_show_trial_num","null","<p class=block-text>Trial 56 out of 60</p>","null","","","","","","","","","","","","","","","","","","","","","","","","","",""
"","","","","","image-button-response","116","509140","0.0-2.0-4.0-1.31","60e792f25e9ab875f9605cf5","A3","batch1","spm_respsonse","14872.199999928474","img/question_5_8.jpeg","5","mat_56","6","1","1","14872.199999928474","","","","","","","","","","","","","","","","","","","","",""
"","","","","","html-keyboard-response","117","510193","0.0-2.0-4.0-0.32","60e792f25e9ab875f9605cf5","A3","batch1","spm_show_trial_num","null","<p class=block-text>Trial 57 out of 60</p>","null","","","","","","","","","","","","","","","","","","","","","","","","","",""
"","","","","","image-button-response","118","533590","0.0-2.0-4.0-1.32","60e792f25e9ab875f9605cf5","A3","batch1","spm_respsonse","23394.300000071526","img/question_5_9.jpeg","2","mat_57","3","1","1","23394.300000071526","","","","","","","","","","","","","","","","","","","","",""
"","","","","","html-keyboard-response","119","534644","0.0-2.0-4.0-0.33","60e792f25e9ab875f9605cf5","A3","batch1","spm_show_trial_num","null","<p class=block-text>Trial 58 out of 60</p>","null","","","","","","","","","","","","","","","","","","","","","","","","","",""
"","","","","","image-button-response","120","558518","0.0-2.0-4.0-1.33","60e792f25e9ab875f9605cf5","A3","batch1","spm_respsonse","23869.699999928474","img/question_5_10.jpeg","1","mat_58","2","1","1","23869.699999928474","","","","","","","","","","","","","","","","","","","","",""
"","","","","","html-keyboard-response","121","559573","0.0-2.0-4.0-0.34","60e792f25e9ab875f9605cf5","A3","batch1","spm_show_trial_num","null","<p class=block-text>Trial 59 out of 60</p>","null","","","","","","","","","","","","","","","","","","","","","","","","","",""
"","","","","","image-button-response","122","586812","0.0-2.0-4.0-1.34","60e792f25e9ab875f9605cf5","A3","batch1","spm_respsonse","27235.5","img/question_5_11.jpeg","6","mat_59","4","0","0","27235.5","","","","","","","","","","","","","","","","","","","","",""
"","","","","","html-keyboard-response","123","587874","0.0-2.0-4.0-0.35","60e792f25e9ab875f9605cf5","A3","batch1","spm_show_trial_num","null","<p class=block-text>Trial 60 out of 60</p>","null","","","","","","","","","","","","","","","","","","","","","","","","","",""
"","","","","","image-button-response","124","606794","0.0-2.0-4.0-1.35","60e792f25e9ab875f9605cf5","A3","batch1","spm_respsonse","18915.399999976158","img/question_5_12.jpeg","0","mat_60","5","0","0","18915.399999976158","","","","","","","","","","","","","","","","","","","","",""
"","","","","","html-button-response","125","608494","0.0-2.0-5.0","60e792f25e9ab875f9605cf5","A3","batch1","spm_goodbye","1447.2999999523163","<p class= block-text>This concludes the Standard Progressive Matrix game. Thank you for your responses!<br> When you are ready, click the button continue</p>","0","","","","","","","","","","","","","","","","","","","","","","","","","",""
"true","","","","","fullscreen","126","610809","0.0-3.0-0.0","60e792f25e9ab875f9605cf5","A3","batch1","","","","","","","","","","","","","","","","","","","","","","","","","","","","","",""
"","","","","","instructions","127","644854","0.0-3.0-1.0-0.0-0.0","60e792f25e9ab875f9605cf5","A3","batch1","tol-instructions","34044.299999952316","","","","","","","","[{""page_index"":0,""viewing_time"":5324},{""page_index"":1,""viewing_time"":4183.299999952316},{""page_index"":2,""viewing_time"":2769.3000000715256},{""page_index"":3,""viewing_time"":9684.799999952316},{""page_index"":4,""viewing_time"":2531.5},{""page_index"":5,""viewing_time"":6233.399999976158},{""page_index"":6,""viewing_time"":3317.4000000953674}]","","","","","","","","","","","","","","","","","","","",""
"","","","","","html-button-response","128","645799","0.0-3.0-1.0-1.0-0.0","60e792f25e9ab875f9605cf5","A3","batch1","tol_enter_quiz","944.2999999523163","<p class=block-text> Let's answer a few questions <br>","0","","","","","","","","","","","","","","","","","","","","","","","","","",""
"","","","","","html-button-response","129","650693","0.0-3.0-1.0-1.0-1.0","60e792f25e9ab875f9605cf5","A3","batch1","tol_quiz","4892.700000047684","<p class = block-text>True or False: You can only move the ball on top of a peg. <br></p>","0","","","true","","","","","","","","","","","","","","","","","","","","","","",""
"","","","","","html-button-response","130","651998","0.0-3.0-1.0-1.0-2.0","60e792f25e9ab875f9605cf5","A3","batch1","tol_quiz_feedback","1302.5","<p class = block-text>Correct! You can only move the ball on top of a peg.</p>","0","","","","","","","","","","","","","","","","","","","","","","","","","",""
"","","","","","html-button-response","131","655013","0.0-3.0-1.0-1.0-3.0","60e792f25e9ab875f9605cf5","A3","batch1","tol_quiz","3013.7999999523163","<p class = block-text>True or False: You should try to match your board with the target board with fewest moves possible. <br></p>","0","","","true","","","","","","","","","","","","","","","","","","","","","","",""
"","","","","","html-button-response","132","656386","0.0-3.0-1.0-1.0-4.0","60e792f25e9ab875f9605cf5","A3","batch1","tol_quiz_feedback","1371.1999999284744","<p class = block-text>Correct! </p>","0","","","","","","","","","","","","","","","","","","","","","","","","","",""
"","","","","","html-button-response","133","657601","0.0-3.0-2.0","60e792f25e9ab875f9605cf5","A3","batch1","","1213","<p class=block-text> Now that you've understood the game, let's practice a few easier examples before we start!<br> <br>","0","","","","","","","","","","","","","","","","","","","","","","","","","",""
"","","","","","single-stim-button","134","660022","0.0-3.0-3.0-0.0","60e792f25e9ab875f9605cf5","A3","batch1","tol_practice","2418","","","","","","","","","tol_peg_2","2418","2418","0","[[1,2,0],[0,0],[0]]","1","[[1,2,0],[0,0],[3]]","practice","2418","","","","","","","","","","",""
"","","","","","single-stim-button","135","660998","0.0-3.0-3.0-1.0","60e792f25e9ab875f9605cf5","A3","batch1","tol_practice","975","","","","","","","","","tol_peg_3","975","975","0","[[1,2,0],[0,0],[3]]","1","[[1,2,0],[0,0],[3]]","practice","975","","","","","","","","","","",""
"","","","","","poldrack-single-stim","136","662001","0.0-3.0-4.0","60e792f25e9ab875f9605cf5","A3","batch1","tol_feedback","-1","","","","","true","","","","","1000","1000","500","","","","","","-1","none","true","","0","","","","","",""
"","","","","","single-stim-button","137","665454","0.0-3.0-5.0-0.0","60e792f25e9ab875f9605cf5","A3","batch1","tol_practice","3453","","","","","","","","","tol_peg_1","3453","3453","0","[[1,0,0],[3,0],[0]]","2","[[0,0,0],[3,1],[2]]","practice","3453","","","","","","","","","","",""
"","","","","","single-stim-button","138","666432","0.0-3.0-5.0-1.0","60e792f25e9ab875f9605cf5","A3","batch1","tol_practice","977","","","","","","","","","tol_peg_3","977","977","0","[[1,0,0],[3,0],[2]]","2","[[0,0,0],[3,1],[2]]","practice","977","","","","","","","","","","",""
"","","","","","single-stim-button","139","667343","0.0-3.0-5.1-0.1","60e792f25e9ab875f9605cf5","A3","batch1","tol_practice","910","","","","","","","","","tol_peg_1","910","910","0","[[0,0,0],[3,0],[2]]","3","[[0,0,0],[3,1],[2]]","practice","910","","","","","","","","","","",""
"","","","","","single-stim-button","140","668030","0.0-3.0-5.1-1.1","60e792f25e9ab875f9605cf5","A3","batch1","tol_practice","687","","","","","","","","","tol_peg_2","687","687","0","[[0,0,0],[3,1],[2]]","3","[[0,0,0],[3,1],[2]]","practice","687","","","","","","","","","","",""
"","","","","","poldrack-single-stim","141","669032","0.0-3.0-6.0","60e792f25e9ab875f9605cf5","A3","batch1","tol_feedback","-1","","","","","true","","","","","1000","1000","500","","","","","","-1","none","true","","0","","","","","",""
"","","","","","single-stim-button","142","671010","0.0-3.0-7.0-0.0","60e792f25e9ab875f9605cf5","A3","batch1","tol_practice","1976","","","","","","","","","tol_peg_2","1976","1976","0","[[1,2,0],[0,0],[0]]","4","[[1,0,0],[2,0],[3]]","practice","1976","","","","","","","","","","",""
"","","","","","single-stim-button","143","672010","0.0-3.0-7.0-1.0","60e792f25e9ab875f9605cf5","A3","batch1","tol_practice","1000","","","","","","","","","tol_peg_3","1000","1000","0","[[1,2,0],[0,0],[3]]","4","[[1,0,0],[2,0],[3]]","practice","1000","","","","","","","","","","",""
"","","","","","single-stim-button","144","672797","0.0-3.0-7.1-0.1","60e792f25e9ab875f9605cf5","A3","batch1","tol_practice","787","","","","","","","","","tol_peg_1","787","787","0","[[1,0,0],[0,0],[3]]","5","[[1,0,0],[2,0],[3]]","practice","787","","","","","","","","","","",""
"","","","","","single-stim-button","145","673734","0.0-3.0-7.1-1.1","60e792f25e9ab875f9605cf5","A3","batch1","tol_practice","936","","","","","","","","","tol_peg_2","936","936","0","[[1,0,0],[2,0],[3]]","5","[[1,0,0],[2,0],[3]]","practice","936","","","","","","","","","","",""
"","","","","","poldrack-single-stim","146","674736","0.0-3.0-8.0","60e792f25e9ab875f9605cf5","A3","batch1","tol_feedback","-1","","","","","true","","","","","1000","1000","500","","","","","","-1","none","true","","0","","","","","",""
"","","","","","html-button-response","147","682418","0.0-3.0-9.0","60e792f25e9ab875f9605cf5","A3","batch1","tol_instruction","7680.100000023842","<div class = centerbox><p class = center-block-text>Great job! You are done with practice trials<br>You are about to start official trials.<br> <br> Problem <strong>1</strong> out of 25 problems</p></div>","0","","","","","","","","","","","","","","","","","","","","","","","","","",""
"","","","","","single-stim-button","148","686761","0.0-3.0-10.0-0.0","60e792f25e9ab875f9605cf5","A3","batch1","tol_tohand","3339","","","","","","","","","tol_peg_2","3339","3339","0","[[1,2,0],[0,0],[0]]","1","[[1,3,0],[2,0],[0]]","0","0","","","","","","3","","","","",""
"","","","","","single-stim-button","149","687413","0.0-3.0-10.0-1.0","60e792f25e9ab875f9605cf5","A3","batch1","tol_toboard","650","","","","","","","","","tol_peg_3","650","650","0","[[1,2,0],[0,0],[3]]","1","[[1,3,0],[2,0],[0]]","0","0","","","","","","3","","","","",""
"","","","","","single-stim-button","150","688370","0.0-3.0-10.1-0.1","60e792f25e9ab875f9605cf5","A3","batch1","tol_tohand","955","","","","","","","","","tol_peg_1","955","955","0","[[1,0,0],[0,0],[3]]","2","[[1,3,0],[2,0],[0]]","0","0","","","","","","3","","","","",""
"","","","","","single-stim-button","151","689360","0.0-3.0-10.1-1.1","60e792f25e9ab875f9605cf5","A3","batch1","tol_toboard","990","","","","","","","","","tol_peg_2","990","990","0","[[1,0,0],[2,0],[3]]","2","[[1,3,0],[2,0],[0]]","0","0","","","","","","3","","","","",""
"","","","","","single-stim-button","152","689969","0.0-3.0-10.2-0.2","60e792f25e9ab875f9605cf5","A3","batch1","tol_tohand","609","","","","","","","","","tol_peg_3","609","609","0","[[1,0,0],[2,0],[0]]","3","[[1,3,0],[2,0],[0]]","0","0","","","","","","3","","","","",""
"","","","","","single-stim-button","153","690811","0.0-3.0-10.2-1.2","60e792f25e9ab875f9605cf5","A3","batch1","tol_toboard","841","","","","","","","","","tol_peg_1","841","841","0","[[1,3,0],[2,0],[0]]","3","[[1,3,0],[2,0],[0]]","0","0","","","","","","3","","","","",""
"","","","","","poldrack-single-stim","154","691813","0.0-3.0-11.0","60e792f25e9ab875f9605cf5","A3","batch1","tol_feedback","-1","","","","","true","","","","","1000","1000","500","","","","","","-1","none","true","3339","4903","","","","","",""
"","","","","","html-button-response","155","693015","0.0-3.0-12.0","60e792f25e9ab875f9605cf5","A3","batch1","tol_trial_num","1200.3999999761581","<div class = centerbox><p class = center-block-text>problem <strong>2</strong> out of 25 problems</p></div>","0","","","","","","","","","","","","","","","","","","","","","","","","","",""
"","","","","","single-stim-button","156","695288","0.0-3.0-13.0-0.0","60e792f25e9ab875f9605cf5","A3","batch1","tol_tohand","2271","","","","","","","","","tol_peg_1","2271","2271","0","[[1,0,0],[3,0],[0]]","1","[[2,1,3],[0,0],[0]]","1","0","","","","","","5","","","","",""
"","","","","","single-stim-button","157","697931","0.0-3.0-13.0-1.0","60e792f25e9ab875f9605cf5","A3","batch1","tol_toboard","2643","","","","","","","","","tol_peg_3","2643","2643","0","[[1,0,0],[3,0],[2]]","1","[[2,1,3],[0,0],[0]]","1","0","","","","","","5","","","","",""
"","","","","","single-stim-button","158","698730","0.0-3.0-13.1-0.1","60e792f25e9ab875f9605cf5","A3","batch1","tol_tohand","798","","","","","","","","","tol_peg_1","798","798","0","[[0,0,0],[3,0],[2]]","2","[[2,1,3],[0,0],[0]]","1","0","","","","","","5","","","","",""
"","","","","","single-stim-button","159","699429","0.0-3.0-13.1-1.1","60e792f25e9ab875f9605cf5","A3","batch1","tol_toboard","697","","","","","","","","","tol_peg_2","697","697","0","[[0,0,0],[3,1],[2]]","2","[[2,1,3],[0,0],[0]]","1","0","","","","","","5","","","","",""
"","","","","","single-stim-button","160","699991","0.0-3.0-13.2-0.2","60e792f25e9ab875f9605cf5","A3","batch1","tol_tohand","561","","","","","","","","","tol_peg_3","561","561","0","[[0,0,0],[3,1],[0]]","3","[[2,1,3],[0,0],[0]]","1","0","","","","","","5","","","","",""
"","","","","","single-stim-button","161","700680","0.0-3.0-13.2-1.2","60e792f25e9ab875f9605cf5","A3","batch1","tol_toboard","687","","","","","","","","","tol_peg_1","687","687","0","[[2,0,0],[3,1],[0]]","3","[[2,1,3],[0,0],[0]]","1","0","","","","","","5","","","","",""
"","","","","","single-stim-button","162","701318","0.0-3.0-13.3-0.3","60e792f25e9ab875f9605cf5","A3","batch1","tol_tohand","638","","","","","","","","","tol_peg_2","638","638","0","[[2,0,0],[3,0],[0]]","4","[[2,1,3],[0,0],[0]]","1","0","","","","","","5","","","","",""
"","","","","","single-stim-button","163","701937","0.0-3.0-13.3-1.3","60e792f25e9ab875f9605cf5","A3","batch1","tol_toboard","617","","","","","","","","","tol_peg_1","617","617","0","[[2,1,0],[3,0],[0]]","4","[[2,1,3],[0,0],[0]]","1","0","","","","","","5","","","","",""
"","","","","","single-stim-button","164","702398","0.0-3.0-13.4-0.4","60e792f25e9ab875f9605cf5","A3","batch1","tol_tohand","459","","","","","","","","","tol_peg_2","459","459","0","[[2,1,0],[0,0],[0]]","5","[[2,1,3],[0,0],[0]]","1","0","","","","","","5","","","","",""
"","","","","","single-stim-button","165","703220","0.0-3.0-13.4-1.4","60e792f25e9ab875f9605cf5","A3","batch1","tol_toboard","821","","","","","","","","","tol_peg_1","821","821","0","[[2,1,3],[0,0],[0]]","5","[[2,1,3],[0,0],[0]]","1","0","","","","","","5","","","","",""
"","","","","","poldrack-single-stim","166","704228","0.0-3.0-14.0","60e792f25e9ab875f9605cf5","A3","batch1","tol_feedback","-1","","","","","true","","","","","1000","1000","500","","","","","","-1","none","true","2271","4727","","","","","",""
"","","","","","html-button-response","167","705053","0.0-3.0-15.0","60e792f25e9ab875f9605cf5","A3","batch1","tol_trial_num","824.2000000476837","<div class = centerbox><p class = center-block-text>problem <strong>3</strong> out of 25 problems</p></div>","0","","","","","","","","","","","","","","","","","","","","","","","","","",""
"","","","","","single-stim-button","168","712106","0.0-3.0-16.0-0.0","60e792f25e9ab875f9605cf5","A3","batch1","tol_tohand","7053","","","","","","","","","tol_peg_1","7053","7053","0","[[2,0,0],[0,0],[1]]","1","[[1,2,0],[3,0],[0]]","2","0","","","","","","4","","","","",""
"","","","","","single-stim-button","169","713311","0.0-3.0-16.0-1.0","60e792f25e9ab875f9605cf5","A3","batch1","tol_toboard","1203","","","","","","","","","tol_peg_2","1203","1203","0","[[2,0,0],[3,0],[1]]","1","[[1,2,0],[3,0],[0]]","2","0","","","","","","4","","","","",""
"","","","","","single-stim-button","170","714247","0.0-3.0-16.1-0.1","60e792f25e9ab875f9605cf5","A3","batch1","tol_tohand","935","","","","","","","","","tol_peg_1","935","935","0","[[0,0,0],[3,0],[1]]","2","[[1,2,0],[3,0],[0]]","2","0","","","","","","4","","","","",""
"","","","","","single-stim-button","171","715088","0.0-3.0-16.1-1.1","60e792f25e9ab875f9605cf5","A3","batch1","tol_toboard","840","","","","","","","","","tol_peg_2","840","840","0","[[0,0,0],[3,2],[1]]","2","[[1,2,0],[3,0],[0]]","2","0","","","","","","4","","","","",""
"","","","","","single-stim-button","172","715718","0.0-3.0-16.2-0.2","60e792f25e9ab875f9605cf5","A3","batch1","tol_tohand","630","","","","","","","","","tol_peg_3","630","630","0","[[0,0,0],[3,2],[0]]","3","[[1,2,0],[3,0],[0]]","2","0","","","","","","4","","","","",""
"","","","","","single-stim-button","173","716653","0.0-3.0-16.2-1.2","60e792f25e9ab875f9605cf5","A3","batch1","tol_toboard","933","","","","","","","","","tol_peg_1","933","933","0","[[1,0,0],[3,2],[0]]","3","[[1,2,0],[3,0],[0]]","2","0","","","","","","4","","","","",""
"","","","","","single-stim-button","174","717259","0.0-3.0-16.3-0.3","60e792f25e9ab875f9605cf5","A3","batch1","tol_tohand","605","","","","","","","","","tol_peg_2","605","605","0","[[1,0,0],[3,0],[0]]","4","[[1,2,0],[3,0],[0]]","2","0","","","","","","4","","","","",""
"","","","","","single-stim-button","175","717878","0.0-3.0-16.3-1.3","60e792f25e9ab875f9605cf5","A3","batch1","tol_toboard","618","","","","","","","","","tol_peg_1","618","618","0","[[1,2,0],[3,0],[0]]","4","[[1,2,0],[3,0],[0]]","2","0","","","","","","4","","","","",""
"","","","","","poldrack-single-stim","176","718880","0.0-3.0-17.0","60e792f25e9ab875f9605cf5","A3","batch1","tol_feedback","-1","","","","","true","","","","","1000","1000","500","","","","","","-1","none","true","7053","9223","","","","","",""
"","","","","","html-button-response","177","719971","0.0-3.0-18.0","60e792f25e9ab875f9605cf5","A3","batch1","tol_trial_num","1090.1000000238419","<div class = centerbox><p class = center-block-text>problem <strong>4</strong> out of 25 problems</p></div>","0","","","","","","","","","","","","","","","","","","","","","","","","","",""
"","","","","","single-stim-button","178","722727","0.0-3.0-19.0-0.0","60e792f25e9ab875f9605cf5","A3","batch1","tol_tohand","2756","","","","","","","","","tol_peg_2","2756","2756","0","[[3,0,0],[2,0],[0]]","1","[[3,0,0],[1,0],[2]]","3","0","","","","","","3","","","","",""
"","","","","","single-stim-button","179","723537","0.0-3.0-19.0-1.0","60e792f25e9ab875f9605cf5","A3","batch1","tol_toboard","809","","","","","","","","","tol_peg_1","809","809","0","[[3,1,0],[2,0],[0]]","1","[[3,0,0],[1,0],[2]]","3","0","","","","","","3","","","","",""
"","","","","","single-stim-button","180","723964","0.0-3.0-19.1-0.1","60e792f25e9ab875f9605cf5","A3","batch1","tol_tohand","427","","","","","","","","","tol_peg_2","427","427","0","[[3,1,0],[0,0],[0]]","2","[[3,0,0],[1,0],[2]]","3","0","","","","","","3","","","","",""
"","","","","","single-stim-button","181","724638","0.0-3.0-19.1-1.1","60e792f25e9ab875f9605cf5","A3","batch1","tol_toboard","672","","","","","","","","","tol_peg_3","672","672","0","[[3,1,0],[0,0],[2]]","2","[[3,0,0],[1,0],[2]]","3","0","","","","","","3","","","","",""
"","","","","","single-stim-button","182","725257","0.0-3.0-19.2-0.2","60e792f25e9ab875f9605cf5","A3","batch1","tol_tohand","619","","","","","","","","","tol_peg_1","619","619","0","[[3,0,0],[0,0],[2]]","3","[[3,0,0],[1,0],[2]]","3","0","","","","","","3","","","","",""
"","","","","","single-stim-button","183","725966","0.0-3.0-19.2-1.2","60e792f25e9ab875f9605cf5","A3","batch1","tol_toboard","707","","","","","","","","","tol_peg_2","707","707","0","[[3,0,0],[1,0],[2]]","3","[[3,0,0],[1,0],[2]]","3","0","","","","","","3","","","","",""
"","","","","","poldrack-single-stim","184","726967","0.0-3.0-20.0","60e792f25e9ab875f9605cf5","A3","batch1","tol_feedback","-1","","","","","true","","","","","1000","1000","500","","","","","","-1","none","true","2756","3802","","","","","",""
"","","","","","html-button-response","185","727801","0.0-3.0-21.0","60e792f25e9ab875f9605cf5","A3","batch1","tol_trial_num","831.9000000953674","<div class = centerbox><p class = center-block-text>problem <strong>5</strong> out of 25 problems</p></div>","0","","","","","","","","","","","","","","","","","","","","","","","","","",""
"","","","","","single-stim-button","186","741326","0.0-3.0-22.0-0.0","60e792f25e9ab875f9605cf5","A3","batch1","tol_tohand","13524","","","","","","","","","tol_peg_1","13524","13524","0","[[0,0,0],[2,0],[3]]","1","[[0,0,0],[1,2],[3]]","4","0","","","","","","7","","","","",""
"","","","","","single-stim-button","187","742089","0.0-3.0-22.0-1.0","60e792f25e9ab875f9605cf5","A3","batch1","tol_toboard","763","","","","","","","","","tol_peg_2","763","763","0","[[0,0,0],[2,1],[3]]","1","[[0,0,0],[1,2],[3]]","4","0","","","","","","7","","","","",""
"","","","","","single-stim-button","188","742630","0.0-3.0-22.1-0.1","60e792f25e9ab875f9605cf5","A3","batch1","tol_tohand","539","","","","","","","","","tol_peg_3","539","539","0","[[0,0,0],[2,1],[0]]","2","[[0,0,0],[1,2],[3]]","4","0","","","","","","7","","","","",""
"","","","","","single-stim-button","189","743461","0.0-3.0-22.1-1.1","60e792f25e9ab875f9605cf5","A3","batch1","tol_toboard","831","","","","","","","","","tol_peg_1","831","831","0","[[3,0,0],[2,1],[0]]","2","[[0,0,0],[1,2],[3]]","4","0","","","","","","7","","","","",""
"","","","","","single-stim-button","190","744012","0.0-3.0-22.2-0.2","60e792f25e9ab875f9605cf5","A3","batch1","tol_tohand","550","","","","","","","","","tol_peg_2","550","550","0","[[3,0,0],[2,0],[0]]","3","[[0,0,0],[1,2],[3]]","4","0","","","","","","7","","","","",""
"","","","","","single-stim-button","191","746228","0.0-3.0-22.2-1.2","60e792f25e9ab875f9605cf5","A3","batch1","tol_toboard","2215","","","","","","","","","tol_peg_3","2215","2215","0","[[3,0,0],[2,0],[1]]","3","[[0,0,0],[1,2],[3]]","4","0","","","","","","7","","","","",""
"","","","","","single-stim-button","192","746690","0.0-3.0-22.3-0.3","60e792f25e9ab875f9605cf5","A3","batch1","tol_tohand","460","","","","","","","","","tol_peg_2","460","460","0","[[3,0,0],[0,0],[1]]","4","[[0,0,0],[1,2],[3]]","4","0","","","","","","7","","","","",""
"","","","","","single-stim-button","193","747713","0.0-3.0-22.3-1.3","60e792f25e9ab875f9605cf5","A3","batch1","tol_toboard","1022","","","","","","","","","tol_peg_1","1022","1022","0","[[3,2,0],[0,0],[1]]","4","[[0,0,0],[1,2],[3]]","4","0","","","","","","7","","","","",""
"","","","","","single-stim-button","194","748637","0.0-3.0-22.4-0.4","60e792f25e9ab875f9605cf5","A3","batch1","tol_tohand","923","","","","","","","","","tol_peg_3","923","923","0","[[3,2,0],[0,0],[0]]","5","[[0,0,0],[1,2],[3]]","4","0","","","","","","7","","","","",""
"","","","","","single-stim-button","195","749491","0.0-3.0-22.4-1.4","60e792f25e9ab875f9605cf5","A3","batch1","tol_toboard","853","","","","","","","","","tol_peg_2","853","853","0","[[3,2,0],[1,0],[0]]","5","[[0,0,0],[1,2],[3]]","4","0","","","","","","7","","","","",""
"","","","","","single-stim-button","196","750640","0.0-3.0-22.5-0.5","60e792f25e9ab875f9605cf5","A3","batch1","tol_tohand","1148","","","","","","","","","tol_peg_1","1148","1148","0","[[3,0,0],[1,0],[0]]","6","[[0,0,0],[1,2],[3]]","4","0","","","","","","7","","","","",""
"","","","","","single-stim-button","197","751336","0.0-3.0-22.5-1.5","60e792f25e9ab875f9605cf5","A3","batch1","tol_toboard","695","","","","","","","","","tol_peg_2","695","695","0","[[3,0,0],[1,2],[0]]","6","[[0,0,0],[1,2],[3]]","4","0","","","","","","7","","","","",""
"","","","","","single-stim-button","198","751933","0.0-3.0-22.6-0.6","60e792f25e9ab875f9605cf5","A3","batch1","tol_tohand","596","","","","","","","","","tol_peg_1","596","596","0","[[0,0,0],[1,2],[0]]","7","[[0,0,0],[1,2],[3]]","4","0","","","","","","7","","","","",""
"","","","","","single-stim-button","199","752563","0.0-3.0-22.6-1.6","60e792f25e9ab875f9605cf5","A3","batch1","tol_toboard","629","","","","","","","","","tol_peg_3","629","629","0","[[0,0,0],[1,2],[3]]","7","[[0,0,0],[1,2],[3]]","4","0","","","","","","7","","","","",""
"","","","","","poldrack-single-stim","200","753565","0.0-3.0-23.0","60e792f25e9ab875f9605cf5","A3","batch1","tol_feedback","-1","","","","","true","","","","","1000","1000","500","","","","","","-1","none","true","13524","17740","","","","","",""
"","","","","","html-button-response","201","754632","0.0-3.0-24.0","60e792f25e9ab875f9605cf5","A3","batch1","tol_trial_num","1065.1000000238419","<div class = centerbox><p class = center-block-text>problem <strong>6</strong> out of 25 problems</p></div>","0","","","","","","","","","","","","","","","","","","","","","","","","","",""
"","","","","","single-stim-button","202","775356","0.0-3.0-25.0-0.0","60e792f25e9ab875f9605cf5","A3","batch1","tol_tohand","20722","","","","","","","","","tol_peg_2","20722","20722","0","[[0,0,0],[1,0],[3]]","1","[[1,0,0],[2,3],[0]]","5","0","","","","","","6","","","","",""
"","","","","","single-stim-button","203","776121","0.0-3.0-25.0-1.0","60e792f25e9ab875f9605cf5","A3","batch1","tol_toboard","763","","","","","","","","","tol_peg_1","763","763","0","[[2,0,0],[1,0],[3]]","1","[[1,0,0],[2,3],[0]]","5","0","","","","","","6","","","","",""
"","","","","","single-stim-button","204","776717","0.0-3.0-25.1-0.1","60e792f25e9ab875f9605cf5","A3","batch1","tol_tohand","595","","","","","","","","","tol_peg_3","595","595","0","[[2,0,0],[1,0],[0]]","2","[[1,0,0],[2,3],[0]]","5","0","","","","","","6","","","","",""
"","","","","","single-stim-button","205","777336","0.0-3.0-25.1-1.1","60e792f25e9ab875f9605cf5","A3","batch1","tol_toboard","619","","","","","","","","","tol_peg_1","619","619","0","[[2,3,0],[1,0],[0]]","2","[[1,0,0],[2,3],[0]]","5","0","","","","","","6","","","","",""
"","","","","","single-stim-button","206","777932","0.0-3.0-25.2-0.2","60e792f25e9ab875f9605cf5","A3","batch1","tol_tohand","595","","","","","","","","","tol_peg_2","595","595","0","[[2,3,0],[0,0],[0]]","3","[[1,0,0],[2,3],[0]]","5","0","","","","","","6","","","","",""
"","","","","","single-stim-button","207","778528","0.0-3.0-25.2-1.2","60e792f25e9ab875f9605cf5","A3","batch1","tol_toboard","595","","","","","","","","","tol_peg_3","595","595","0","[[2,3,0],[0,0],[1]]","3","[[1,0,0],[2,3],[0]]","5","0","","","","","","6","","","","",""
"","","","","","single-stim-button","208","779350","0.0-3.0-25.3-0.3","60e792f25e9ab875f9605cf5","A3","batch1","tol_tohand","821","","","","","","","","","tol_peg_1","821","821","0","[[2,0,0],[0,0],[1]]","4","[[1,0,0],[2,3],[0]]","5","0","","","","","","6","","","","",""
"","","","","","single-stim-button","209","783693","0.0-3.0-25.3-1.3","60e792f25e9ab875f9605cf5","A3","batch1","tol_toboard","4342","","","","","","","","","tol_peg_2","4342","4342","0","[[2,0,0],[3,0],[1]]","4","[[1,0,0],[2,3],[0]]","5","0","","","","","","6","","","","",""
"","","","","","single-stim-button","210","784714","0.0-3.0-25.4-0.4","60e792f25e9ab875f9605cf5","A3","batch1","tol_tohand","1021","","","","","","","","","tol_peg_1","1021","1021","0","[[0,0,0],[3,0],[1]]","5","[[1,0,0],[2,3],[0]]","5","0","","","","","","6","","","","",""
"","","","","","single-stim-button","211","785334","0.0-3.0-25.4-1.4","60e792f25e9ab875f9605cf5","A3","batch1","tol_toboard","619","","","","","","","","","tol_peg_2","619","619","0","[[0,0,0],[3,2],[1]]","5","[[1,0,0],[2,3],[0]]","5","0","","","","","","6","","","","",""
"","","","","","single-stim-button","212","785862","0.0-3.0-25.5-0.5","60e792f25e9ab875f9605cf5","A3","batch1","tol_tohand","527","","","","","","","","","tol_peg_3","527","527","0","[[0,0,0],[3,2],[0]]","6","[[1,0,0],[2,3],[0]]","5","0","","","","","","6","","","","",""
"","","","","","single-stim-button","213","786853","0.0-3.0-25.5-1.5","60e792f25e9ab875f9605cf5","A3","batch1","tol_toboard","990","","","","","","","","","tol_peg_1","990","990","0","[[1,0,0],[3,2],[0]]","6","[[1,0,0],[2,3],[0]]","5","0","","","","","","6","","","","",""
"","","","","","single-stim-button","214","789758","0.0-3.0-25.6-0.6","60e792f25e9ab875f9605cf5","A3","batch1","tol_tohand","2904","","","","","","","","","tol_peg_2","2904","2904","0","[[1,0,0],[3,0],[0]]","7","[[1,0,0],[2,3],[0]]","5","0","","","","","","6","","","","",""
"","","","","","single-stim-button","215","790600","0.0-3.0-25.6-1.6","60e792f25e9ab875f9605cf5","A3","batch1","tol_toboard","840","","","","","","","","","tol_peg_3","840","840","0","[[1,0,0],[3,0],[2]]","7","[[1,0,0],[2,3],[0]]","5","0","","","","","","6","","","","",""
"","","","","","single-stim-button","216","791600","0.0-3.0-25.7-0.7","60e792f25e9ab875f9605cf5","A3","batch1","tol_tohand","1000","","","","","","","","","tol_peg_2","1000","1000","0","[[1,0,0],[0,0],[2]]","8","[[1,0,0],[2,3],[0]]","5","0","","","","","","6","","","","",""
"","","","","","single-stim-button","217","792299","0.0-3.0-25.7-1.7","60e792f25e9ab875f9605cf5","A3","batch1","tol_toboard","699","","","","","","","","","tol_peg_1","699","699","0","[[1,3,0],[0,0],[2]]","8","[[1,0,0],[2,3],[0]]","5","0","","","","","","6","","","","",""
"","","","","","single-stim-button","218","792929","0.0-3.0-25.8-0.8","60e792f25e9ab875f9605cf5","A3","batch1","tol_tohand","629","","","","","","","","","tol_peg_3","629","629","0","[[1,3,0],[0,0],[0]]","9","[[1,0,0],[2,3],[0]]","5","0","","","","","","6","","","","",""
"","","","","","single-stim-button","219","793728","0.0-3.0-25.8-1.8","60e792f25e9ab875f9605cf5","A3","batch1","tol_toboard","799","","","","","","","","","tol_peg_2","799","799","0","[[1,3,0],[2,0],[0]]","9","[[1,0,0],[2,3],[0]]","5","0","","","","","","6","","","","",""
"","","","","","single-stim-button","220","794314","0.0-3.0-25.9-0.9","60e792f25e9ab875f9605cf5","A3","batch1","tol_tohand","585","","","","","","","","","tol_peg_1","585","585","0","[[1,0,0],[2,0],[0]]","10","[[1,0,0],[2,3],[0]]","5","0","","","","","","6","","","","",""
"","","","","","single-stim-button","221","794955","0.0-3.0-25.9-1.9","60e792f25e9ab875f9605cf5","A3","batch1","tol_toboard","640","","","","","","","","","tol_peg_2","640","640","0","[[1,0,0],[2,3],[0]]","10","[[1,0,0],[2,3],[0]]","5","0","","","","","","6","","","","",""
"","","","","","poldrack-single-stim","222","795957","0.0-3.0-26.0","60e792f25e9ab875f9605cf5","A3","batch1","tol_feedback","-1","","","","","true","","","","","1000","1000","500","","","","","","-1","none","true","20722","29399","","","","","",""
"","","","","","html-button-response","223","932965","0.0-3.0-27.0","60e792f25e9ab875f9605cf5","A3","batch1","tol_trial_num","137008.10000002384","<div class = centerbox><p class = center-block-text>problem <strong>7</strong> out of 25 problems</p></div>","0","","","","","","","","","","","","","","","","","","","","","","","","","",""
"","","","","","single-stim-button","224","938223","0.0-3.0-28.0-0.0","60e792f25e9ab875f9605cf5","A3","batch1","tol_tohand","5256","","","","","","","","","tol_peg_3","5256","5256","0","[[2,1,0],[0,0],[0]]","1","[[1,2,0],[3,0],[0]]","6","0","","","","","","5","","","","",""
"","","","","","single-stim-button","225","939401","0.0-3.0-28.0-1.0","60e792f25e9ab875f9605cf5","A3","batch1","tol_toboard","1178","","","","","","","","","tol_peg_2","1178","1178","0","[[2,1,0],[3,0],[0]]","1","[[1,2,0],[3,0],[0]]","6","0","","","","","","5","","","","",""
"","","","","","single-stim-button","226","941056","0.0-3.0-28.1-0.1","60e792f25e9ab875f9605cf5","A3","batch1","tol_tohand","1653","","","","","","","","","tol_peg_1","1653","1653","0","[[2,0,0],[3,0],[0]]","2","[[1,2,0],[3,0],[0]]","6","0","","","","","","5","","","","",""
"","","","","","single-stim-button","227","942619","0.0-3.0-28.1-1.1","60e792f25e9ab875f9605cf5","A3","batch1","tol_toboard","1563","","","","","","","","","tol_peg_2","1563","1563","0","[[2,0,0],[3,1],[0]]","2","[[1,2,0],[3,0],[0]]","6","0","","","","","","5","","","","",""
"","","","","","single-stim-button","228","943720","0.0-3.0-28.2-0.2","60e792f25e9ab875f9605cf5","A3","batch1","tol_tohand","1100","","","","","","","","","tol_peg_1","1100","1100","0","[[0,0,0],[3,1],[0]]","3","[[1,2,0],[3,0],[0]]","6","0","","","","","","5","","","","",""
"","","","","","single-stim-button","229","944665","0.0-3.0-28.2-1.2","60e792f25e9ab875f9605cf5","A3","batch1","tol_toboard","945","","","","","","","","","tol_peg_3","945","945","0","[[0,0,0],[3,1],[2]]","3","[[1,2,0],[3,0],[0]]","6","0","","","","","","5","","","","",""
"","","","","","single-stim-button","230","945196","0.0-3.0-28.3-0.3","60e792f25e9ab875f9605cf5","A3","batch1","tol_tohand","530","","","","","","","","","tol_peg_2","530","530","0","[[0,0,0],[3,0],[2]]","4","[[1,2,0],[3,0],[0]]","6","0","","","","","","5","","","","",""
"","","","","","single-stim-button","231","945872","0.0-3.0-28.3-1.3","60e792f25e9ab875f9605cf5","A3","batch1","tol_toboard","676","","","","","","","","","tol_peg_1","676","676","0","[[1,0,0],[3,0],[2]]","4","[[1,2,0],[3,0],[0]]","6","0","","","","","","5","","","","",""
"","","","","","single-stim-button","232","946466","0.0-3.0-28.4-0.4","60e792f25e9ab875f9605cf5","A3","batch1","tol_tohand","593","","","","","","","","","tol_peg_3","593","593","0","[[1,0,0],[3,0],[0]]","5","[[1,2,0],[3,0],[0]]","6","0","","","","","","5","","","","",""
"","","","","","single-stim-button","233","947096","0.0-3.0-28.4-1.4","60e792f25e9ab875f9605cf5","A3","batch1","tol_toboard","629","","","","","","","","","tol_peg_1","629","629","0","[[1,2,0],[3,0],[0]]","5","[[1,2,0],[3,0],[0]]","6","0","","","","","","5","","","","",""
"","","","","","poldrack-single-stim","234","948099","0.0-3.0-29.0","60e792f25e9ab875f9605cf5","A3","batch1","tol_feedback","-1","","","","","true","","","","","1000","1000","500","","","","","","-1","none","true","5256","9132","","","","","",""
"","","","","","html-button-response","235","949324","0.0-3.0-30.0","60e792f25e9ab875f9605cf5","A3","batch1","tol_trial_num","1224.3999999761581","<div class = centerbox><p class = center-block-text>problem <strong>8</strong> out of 25 problems</p></div>","0","","","","","","","","","","","","","","","","","","","","","","","","","",""
"","","","","","single-stim-button","236","952407","0.0-3.0-31.0-0.0","60e792f25e9ab875f9605cf5","A3","batch1","tol_tohand","3082","","","","","","","","","tol_peg_3","3082","3082","0","[[0,0,0],[2,3],[0]]","1","[[1,2,0],[3,0],[0]]","7","0","","","","","","4","","","","",""
"","","","","","single-stim-button","237","953498","0.0-3.0-31.0-1.0","60e792f25e9ab875f9605cf5","A3","batch1","tol_toboard","1089","","","","","","","","","tol_peg_1","1089","1089","0","[[1,0,0],[2,3],[0]]","1","[[1,2,0],[3,0],[0]]","7","0","","","","","","4","","","","",""
"","","","","","single-stim-button","238","954196","0.0-3.0-31.1-0.1","60e792f25e9ab875f9605cf5","A3","batch1","tol_tohand","697","","","","","","","","","tol_peg_2","697","697","0","[[1,0,0],[2,0],[0]]","2","[[1,2,0],[3,0],[0]]","7","0","","","","","","4","","","","",""
"","","","","","single-stim-button","239","954767","0.0-3.0-31.1-1.1","60e792f25e9ab875f9605cf5","A3","batch1","tol_toboard","570","","","","","","","","","tol_peg_3","570","570","0","[[1,0,0],[2,0],[3]]","2","[[1,2,0],[3,0],[0]]","7","0","","","","","","4","","","","",""
"","","","","","single-stim-button","240","955219","0.0-3.0-31.2-0.2","60e792f25e9ab875f9605cf5","A3","batch1","tol_tohand","451","","","","","","","","","tol_peg_2","451","451","0","[[1,0,0],[0,0],[3]]","3","[[1,2,0],[3,0],[0]]","7","0","","","","","","4","","","","",""
"","","","","","single-stim-button","241","955882","0.0-3.0-31.2-1.2","60e792f25e9ab875f9605cf5","A3","batch1","tol_toboard","662","","","","","","","","","tol_peg_1","662","662","0","[[1,2,0],[0,0],[3]]","3","[[1,2,0],[3,0],[0]]","7","0","","","","","","4","","","","",""
"","","","","","single-stim-button","242","956614","0.0-3.0-31.3-0.3","60e792f25e9ab875f9605cf5","A3","batch1","tol_tohand","730","","","","","","","","","tol_peg_3","730","730","0","[[1,2,0],[0,0],[0]]","4","[[1,2,0],[3,0],[0]]","7","0","","","","","","4","","","","",""
"","","","","","single-stim-button","243","957863","0.0-3.0-31.3-1.3","60e792f25e9ab875f9605cf5","A3","batch1","tol_toboard","1247","","","","","","","","","tol_peg_2","1247","1247","0","[[1,2,0],[3,0],[0]]","4","[[1,2,0],[3,0],[0]]","7","0","","","","","","4","","","","",""
"","","","","","poldrack-single-stim","244","958866","0.0-3.0-32.0","60e792f25e9ab875f9605cf5","A3","batch1","tol_feedback","-1","","","","","true","","","","","1000","1000","500","","","","","","-1","none","true","3082","4960","","","","","",""
"","","","","","html-button-response","245","960822","0.0-3.0-33.0","60e792f25e9ab875f9605cf5","A3","batch1","tol_trial_num","1954.2000000476837","<div class = centerbox><p class = center-block-text>problem <strong>9</strong> out of 25 problems</p></div>","0","","","","","","","","","","","","","","","","","","","","","","","","","",""
"","","","","","single-stim-button","246","972745","0.0-3.0-34.0-0.0","60e792f25e9ab875f9605cf5","A3","batch1","tol_tohand","11922","","","","","","","","","tol_peg_3","11922","11922","0","[[3,2,0],[0,0],[0]]","1","[[2,1,0],[3,0],[0]]","8","0","","","","","","6","","","","",""
"","","","","","single-stim-button","247","974581","0.0-3.0-34.0-1.0","60e792f25e9ab875f9605cf5","A3","batch1","tol_toboard","1835","","","","","","","","","tol_peg_2","1835","1835","0","[[3,2,0],[1,0],[0]]","1","[[2,1,0],[3,0],[0]]","8","0","","","","","","6","","","","",""
"","","","","","single-stim-button","248","975300","0.0-3.0-34.1-0.1","60e792f25e9ab875f9605cf5","A3","batch1","tol_tohand","719","","","","","","","","","tol_peg_1","719","719","0","[[3,0,0],[1,0],[0]]","2","[[2,1,0],[3,0],[0]]","8","0","","","","","","6","","","","",""
"","","","","","single-stim-button","249","976573","0.0-3.0-34.1-1.1","60e792f25e9ab875f9605cf5","A3","batch1","tol_toboard","1272","","","","","","","","","tol_peg_3","1272","1272","0","[[3,0,0],[1,0],[2]]","2","[[2,1,0],[3,0],[0]]","8","0","","","","","","6","","","","",""
"","","","","","single-stim-button","250","978439","0.0-3.0-34.2-0.2","60e792f25e9ab875f9605cf5","A3","batch1","tol_tohand","1865","","","","","","","","","tol_peg_1","1865","1865","0","[[0,0,0],[1,0],[2]]","3","[[2,1,0],[3,0],[0]]","8","0","","","","","","6","","","","",""
"","","","","","single-stim-button","251","979542","0.0-3.0-34.2-1.2","60e792f25e9ab875f9605cf5","A3","batch1","tol_toboard","1101","","","","","","","","","tol_peg_2","1101","1101","0","[[0,0,0],[1,3],[2]]","3","[[2,1,0],[3,0],[0]]","8","0","","","","","","6","","","","",""
"","","","","","single-stim-button","252","979980","0.0-3.0-34.3-0.3","60e792f25e9ab875f9605cf5","A3","batch1","tol_tohand","438","","","","","","","","","tol_peg_3","438","438","0","[[0,0,0],[1,3],[0]]","4","[[2,1,0],[3,0],[0]]","8","0","","","","","","6","","","","",""
"","","","","","single-stim-button","253","980734","0.0-3.0-34.3-1.3","60e792f25e9ab875f9605cf5","A3","batch1","tol_toboard","753","","","","","","","","","tol_peg_1","753","753","0","[[2,0,0],[1,3],[0]]","4","[[2,1,0],[3,0],[0]]","8","0","","","","","","6","","","","",""
"","","","","","single-stim-button","254","981545","0.0-3.0-34.4-0.4","60e792f25e9ab875f9605cf5","A3","batch1","tol_tohand","809","","","","","","","","","tol_peg_2","809","809","0","[[2,0,0],[1,0],[0]]","5","[[2,1,0],[3,0],[0]]","8","0","","","","","","6","","","","",""
"","","","","","single-stim-button","255","983534","0.0-3.0-34.4-1.4","60e792f25e9ab875f9605cf5","A3","batch1","tol_toboard","1989","","","","","","","","","tol_peg_3","1989","1989","0","[[2,0,0],[1,0],[3]]","5","[[2,1,0],[3,0],[0]]","8","0","","","","","","6","","","","",""
"","","","","","single-stim-button","256","984186","0.0-3.0-34.5-0.5","60e792f25e9ab875f9605cf5","A3","batch1","tol_tohand","652","","","","","","","","","tol_peg_2","652","652","0","[[2,0,0],[0,0],[3]]","6","[[2,1,0],[3,0],[0]]","8","0","","","","","","6","","","","",""
"","","","","","single-stim-button","257","986383","0.0-3.0-34.5-1.5","60e792f25e9ab875f9605cf5","A3","batch1","tol_toboard","2196","","","","","","","","","tol_peg_1","2196","2196","0","[[2,1,0],[0,0],[3]]","6","[[2,1,0],[3,0],[0]]","8","0","","","","","","6","","","","",""
"","","","","","single-stim-button","258","986911","0.0-3.0-34.6-0.6","60e792f25e9ab875f9605cf5","A3","batch1","tol_tohand","526","","","","","","","","","tol_peg_3","526","526","0","[[2,1,0],[0,0],[0]]","7","[[2,1,0],[3,0],[0]]","8","0","","","","","","6","","","","",""
"","","","","","single-stim-button","259","987653","0.0-3.0-34.6-1.6","60e792f25e9ab875f9605cf5","A3","batch1","tol_toboard","742","","","","","","","","","tol_peg_2","742","742","0","[[2,1,0],[3,0],[0]]","7","[[2,1,0],[3,0],[0]]","8","0","","","","","","6","","","","",""
"","","","","","poldrack-single-stim","260","988655","0.0-3.0-35.0","60e792f25e9ab875f9605cf5","A3","batch1","tol_feedback","-1","","","","","true","","","","","1000","1000","500","","","","","","-1","none","true","11922","16931","","","","","",""
"","","","","","html-button-response","261","989566","0.0-3.0-36.0","60e792f25e9ab875f9605cf5","A3","batch1","tol_trial_num","908.2000000476837","<div class = centerbox><p class = center-block-text>problem <strong>10</strong> out of 25 problems</p></div>","0","","","","","","","","","","","","","","","","","","","","","","","","","",""
"","","","","","single-stim-button","262","992322","0.0-3.0-37.0-0.0","60e792f25e9ab875f9605cf5","A3","batch1","tol_tohand","2756","","","","","","","","","tol_peg_2","2756","2756","0","[[3,0,0],[0,0],[2]]","1","[[3,0,0],[2,1],[0]]","9","0","","","","","","3","","","","",""
"","","","","","single-stim-button","263","993144","0.0-3.0-37.0-1.0","60e792f25e9ab875f9605cf5","A3","batch1","tol_toboard","821","","","","","","","","","tol_peg_1","821","821","0","[[3,1,0],[0,0],[2]]","1","[[3,0,0],[2,1],[0]]","9","0","","","","","","3","","","","",""
"","","","","","single-stim-button","264","993874","0.0-3.0-37.1-0.1","60e792f25e9ab875f9605cf5","A3","batch1","tol_tohand","729","","","","","","","","","tol_peg_3","729","729","0","[[3,1,0],[0,0],[0]]","2","[[3,0,0],[2,1],[0]]","9","0","","","","","","3","","","","",""
"","","","","","single-stim-button","265","994359","0.0-3.0-37.1-1.1","60e792f25e9ab875f9605cf5","A3","batch1","tol_toboard","483","","","","","","","","","tol_peg_2","483","483","0","[[3,1,0],[2,0],[0]]","2","[[3,0,0],[2,1],[0]]","9","0","","","","","","3","","","","",""
"","","","","","single-stim-button","266","994920","0.0-3.0-37.2-0.2","60e792f25e9ab875f9605cf5","A3","batch1","tol_tohand","560","","","","","","","","","tol_peg_1","560","560","0","[[3,0,0],[2,0],[0]]","3","[[3,0,0],[2,1],[0]]","9","0","","","","","","3","","","","",""
"","","","","","single-stim-button","267","995517","0.0-3.0-37.2-1.2","60e792f25e9ab875f9605cf5","A3","batch1","tol_toboard","596","","","","","","","","","tol_peg_2","596","596","0","[[3,0,0],[2,1],[0]]","3","[[3,0,0],[2,1],[0]]","9","0","","","","","","3","","","","",""
"","","","","","poldrack-single-stim","268","996519","0.0-3.0-38.0","60e792f25e9ab875f9605cf5","A3","batch1","tol_feedback","-1","","","","","true","","","","","1000","1000","500","","","","","","-1","none","true","2756","4045","","","","","",""
"","","","","","html-button-response","269","997575","0.0-3.0-39.0","60e792f25e9ab875f9605cf5","A3","batch1","tol_trial_num","1055","<div class = centerbox><p class = center-block-text>problem <strong>11</strong> out of 25 problems</p></div>","0","","","","","","","","","","","","","","","","","","","","","","","","","",""
"","","","","","single-stim-button","270","999836","0.0-3.0-40.0-0.0","60e792f25e9ab875f9605cf5","A3","batch1","tol_tohand","2260","","","","","","","","","tol_peg_1","2260","2260","0","[[1,0,0],[3,0],[0]]","1","[[2,0,0],[1,3],[0]]","10","0","","","","","","6","","","","",""
"","","","","","single-stim-button","271","1006552","0.0-3.0-40.0-1.0","60e792f25e9ab875f9605cf5","A3","batch1","tol_toboard","6715","","","","","","","","","tol_peg_2","6715","6715","0","[[1,0,0],[3,2],[0]]","1","[[2,0,0],[1,3],[0]]","10","0","","","","","","6","","","","",""
"","","","","","single-stim-button","272","1007071","0.0-3.0-40.1-0.1","60e792f25e9ab875f9605cf5","A3","batch1","tol_tohand","518","","","","","","","","","tol_peg_1","518","518","0","[[0,0,0],[3,2],[0]]","2","[[2,0,0],[1,3],[0]]","10","0","","","","","","6","","","","",""
"","","","","","single-stim-button","273","1008196","0.0-3.0-40.1-1.1","60e792f25e9ab875f9605cf5","A3","batch1","tol_toboard","1123","","","","","","","","","tol_peg_3","1123","1123","0","[[0,0,0],[3,2],[1]]","2","[[2,0,0],[1,3],[0]]","10","0","","","","","","6","","","","",""
"","","","","","single-stim-button","274","1008758","0.0-3.0-40.2-0.2","60e792f25e9ab875f9605cf5","A3","batch1","tol_tohand","561","","","","","","","","","tol_peg_2","561","561","0","[[0,0,0],[3,0],[1]]","3","[[2,0,0],[1,3],[0]]","10","0","","","","","","6","","","","",""
"","","","","","single-stim-button","275","1009670","0.0-3.0-40.2-1.2","60e792f25e9ab875f9605cf5","A3","batch1","tol_toboard","911","","","","","","","","","tol_peg_1","911","911","0","[[2,0,0],[3,0],[1]]","3","[[2,0,0],[1,3],[0]]","10","0","","","","","","6","","","","",""
"","","","","","single-stim-button","276","1010389","0.0-3.0-40.3-0.3","60e792f25e9ab875f9605cf5","A3","batch1","tol_tohand","718","","","","","","","","","tol_peg_2","718","718","0","[[2,0,0],[0,0],[1]]","4","[[2,0,0],[1,3],[0]]","10","0","","","","","","6","","","","",""
"","","","","","single-stim-button","277","1011761","0.0-3.0-40.3-1.3","60e792f25e9ab875f9605cf5","A3","batch1","tol_toboard","1371","","","","","","","","","tol_peg_1","1371","1371","0","[[2,3,0],[0,0],[1]]","4","[[2,0,0],[1,3],[0]]","10","0","","","","","","6","","","","",""
"","","","","","single-stim-button","278","1012383","0.0-3.0-40.4-0.4","60e792f25e9ab875f9605cf5","A3","batch1","tol_tohand","621","","","","","","","","","tol_peg_3","621","621","0","[[2,3,0],[0,0],[0]]","5","[[2,0,0],[1,3],[0]]","10","0","","","","","","6","","","","",""
"","","","","","single-stim-button","279","1012931","0.0-3.0-40.4-1.4","60e792f25e9ab875f9605cf5","A3","batch1","tol_toboard","548","","","","","","","","","tol_peg_2","548","548","0","[[2,3,0],[1,0],[0]]","5","[[2,0,0],[1,3],[0]]","10","0","","","","","","6","","","","",""
"","","","","","single-stim-button","280","1013562","0.0-3.0-40.5-0.5","60e792f25e9ab875f9605cf5","A3","batch1","tol_tohand","630","","","","","","","","","tol_peg_1","630","630","0","[[2,0,0],[1,0],[0]]","6","[[2,0,0],[1,3],[0]]","10","0","","","","","","6","","","","",""
"","","","","","single-stim-button","281","1014193","0.0-3.0-40.5-1.5","60e792f25e9ab875f9605cf5","A3","batch1","tol_toboard","630","","","","","","","","","tol_peg_2","630","630","0","[[2,0,0],[1,3],[0]]","6","[[2,0,0],[1,3],[0]]","10","0","","","","","","6","","","","",""
"","","","","","poldrack-single-stim","282","1015209","0.0-3.0-41.0","60e792f25e9ab875f9605cf5","A3","batch1","tol_feedback","-1","","","","","true","","","","","1000","1000","500","","","","","","-1","none","true","2260","5308","","","","","",""
"","","","","","html-button-response","283","1020593","0.0-3.0-42.0","60e792f25e9ab875f9605cf5","A3","batch1","tol_trial_num","5382.5","<div class = centerbox><p class = center-block-text>problem <strong>12</strong> out of 25 problems</p></div>","0","","","","","","","","","","","","","","","","","","","","","","","","","",""
"","","","","","single-stim-button","284","1022846","0.0-3.0-43.0-0.0","60e792f25e9ab875f9605cf5","A3","batch1","tol_tohand","2252","","","","","","","","","tol_peg_1","2252","2252","0","[[1,0,0],[3,0],[0]]","1","[[2,3,0],[0,0],[1]]","11","0","","","","","","4","","","","",""
"","","","","","single-stim-button","285","1023587","0.0-3.0-43.0-1.0","60e792f25e9ab875f9605cf5","A3","batch1","tol_toboard","740","","","","","","","","","tol_peg_2","740","740","0","[[1,0,0],[3,2],[0]]","1","[[2,3,0],[0,0],[1]]","11","0","","","","","","4","","","","",""
"","","","","","single-stim-button","286","1024149","0.0-3.0-43.1-0.1","60e792f25e9ab875f9605cf5","A3","batch1","tol_tohand","562","","","","","","","","","tol_peg_1","562","562","0","[[0,0,0],[3,2],[0]]","2","[[2,3,0],[0,0],[1]]","11","0","","","","","","4","","","","",""
"","","","","","single-stim-button","287","1025105","0.0-3.0-43.1-1.1","60e792f25e9ab875f9605cf5","A3","batch1","tol_toboard","955","","","","","","","","","tol_peg_3","955","955","0","[[0,0,0],[3,2],[1]]","2","[[2,3,0],[0,0],[1]]","11","0","","","","","","4","","","","",""
"","","","","","single-stim-button","288","1025635","0.0-3.0-43.2-0.2","60e792f25e9ab875f9605cf5","A3","batch1","tol_tohand","529","","","","","","","","","tol_peg_2","529","529","0","[[0,0,0],[3,0],[1]]","3","[[2,3,0],[0,0],[1]]","11","0","","","","","","4","","","","",""
"","","","","","single-stim-button","289","1026274","0.0-3.0-43.2-1.2","60e792f25e9ab875f9605cf5","A3","batch1","tol_toboard","638","","","","","","","","","tol_peg_1","638","638","0","[[2,0,0],[3,0],[1]]","3","[[2,3,0],[0,0],[1]]","11","0","","","","","","4","","","","",""
"","","","","","single-stim-button","290","1026702","0.0-3.0-43.3-0.3","60e792f25e9ab875f9605cf5","A3","batch1","tol_tohand","427","","","","","","","","","tol_peg_2","427","427","0","[[2,0,0],[0,0],[1]]","4","[[2,3,0],[0,0],[1]]","11","0","","","","","","4","","","","",""
"","","","","","single-stim-button","291","1027568","0.0-3.0-43.3-1.3","60e792f25e9ab875f9605cf5","A3","batch1","tol_toboard","866","","","","","","","","","tol_peg_1","866","866","0","[[2,3,0],[0,0],[1]]","4","[[2,3,0],[0,0],[1]]","11","0","","","","","","4","","","","",""
"","","","","","poldrack-single-stim","292","1028571","0.0-3.0-44.0","60e792f25e9ab875f9605cf5","A3","batch1","tol_feedback","-1","","","","","true","","","","","1000","1000","500","","","","","","-1","none","true","2252","3770","","","","","",""
"","","","","","html-button-response","293","1029437","0.0-3.0-45.0","60e792f25e9ab875f9605cf5","A3","batch1","tol_trial_num","864.5999999046326","<div class = centerbox><p class = center-block-text>problem <strong>13</strong> out of 25 problems</p></div>","0","","","","","","","","","","","","","","","","","","","","","","","","","",""
"","","","","","single-stim-button","294","1031563","0.0-3.0-46.0-0.0","60e792f25e9ab875f9605cf5","A3","batch1","tol_tohand","2124","","","","","","","","","tol_peg_1","2124","2124","0","[[1,0,0],[3,0],[0]]","1","[[0,0,0],[2,3],[1]]","12","0","","","","","","4","","","","",""
"","","","","","single-stim-button","295","1032329","0.0-3.0-46.0-1.0","60e792f25e9ab875f9605cf5","A3","batch1","tol_toboard","765","","","","","","","","","tol_peg_2","765","765","0","[[1,0,0],[3,2],[0]]","1","[[0,0,0],[2,3],[1]]","12","0","","","","","","4","","","","",""
"","","","","","single-stim-button","296","1033092","0.0-3.0-46.1-0.1","60e792f25e9ab875f9605cf5","A3","batch1","tol_tohand","763","","","","","","","","","tol_peg_1","763","763","0","[[0,0,0],[3,2],[0]]","2","[[0,0,0],[2,3],[1]]","12","0","","","","","","4","","","","",""
"","","","","","single-stim-button","297","1033868","0.0-3.0-46.1-1.1","60e792f25e9ab875f9605cf5","A3","batch1","tol_toboard","775","","","","","","","","","tol_peg_3","775","775","0","[[0,0,0],[3,2],[1]]","2","[[0,0,0],[2,3],[1]]","12","0","","","","","","4","","","","",""
"","","","","","single-stim-button","298","1034577","0.0-3.0-46.2-0.2","60e792f25e9ab875f9605cf5","A3","batch1","tol_tohand","708","","","","","","","","","tol_peg_2","708","708","0","[[0,0,0],[3,0],[1]]","3","[[0,0,0],[2,3],[1]]","12","0","","","","","","4","","","","",""
"","","","","","single-stim-button","299","1045848","0.0-3.0-46.2-1.2","60e792f25e9ab875f9605cf5","A3","batch1","tol_toboard","11270","","","","","","","","","tol_peg_1","11270","11270","0","[[2,0,0],[3,0],[1]]","3","[[0,0,0],[2,3],[1]]","12","0","","","","","","4","","","","",""
"","","","","","single-stim-button","300","1047515","0.0-3.0-46.3-0.3","60e792f25e9ab875f9605cf5","A3","batch1","tol_tohand","1666","","","","","","","","","tol_peg_3","1666","1666","0","[[2,0,0],[3,0],[0]]","4","[[0,0,0],[2,3],[1]]","12","0","","","","","","4","","","","",""
"","","","","","single-stim-button","301","1056572","0.0-3.0-46.3-1.3","60e792f25e9ab875f9605cf5","A3","batch1","tol_toboard","9057","","","","","","","","","tol_peg_1","9057","9057","0","[[2,1,0],[3,0],[0]]","4","[[0,0,0],[2,3],[1]]","12","0","","","","","","4","","","","",""
"","","","","","single-stim-button","302","1059463","0.0-3.0-46.4-0.4","60e792f25e9ab875f9605cf5","A3","batch1","tol_tohand","2889","","","","","","","","","tol_peg_2","2889","2889","0","[[2,1,0],[0,0],[0]]","5","[[0,0,0],[2,3],[1]]","12","0","","","","","","4","","","","",""
"","","","","","single-stim-button","303","1060981","0.0-3.0-46.4-1.4","60e792f25e9ab875f9605cf5","A3","batch1","tol_toboard","1518","","","","","","","","","tol_peg_3","1518","1518","0","[[2,1,0],[0,0],[3]]","5","[[0,0,0],[2,3],[1]]","12","0","","","","","","4","","","","",""
"","","","","","single-stim-button","304","1061784","0.0-3.0-46.5-0.5","60e792f25e9ab875f9605cf5","A3","batch1","tol_tohand","802","","","","","","","","","tol_peg_1","802","802","0","[[2,0,0],[0,0],[3]]","6","[[0,0,0],[2,3],[1]]","12","0","","","","","","4","","","","",""
"","","","","","single-stim-button","305","1062433","0.0-3.0-46.5-1.5","60e792f25e9ab875f9605cf5","A3","batch1","tol_toboard","649","","","","","","","","","tol_peg_2","649","649","0","[[2,0,0],[1,0],[3]]","6","[[0,0,0],[2,3],[1]]","12","0","","","","","","4","","","","",""
"","","","","","single-stim-button","306","1063053","0.0-3.0-46.6-0.6","60e792f25e9ab875f9605cf5","A3","batch1","tol_tohand","619","","","","","","","","","tol_peg_1","619","619","0","[[0,0,0],[1,0],[3]]","7","[[0,0,0],[2,3],[1]]","12","0","","","","","","4","","","","",""
"","","","","","single-stim-button","307","1063693","0.0-3.0-46.6-1.6","60e792f25e9ab875f9605cf5","A3","batch1","tol_toboard","640","","","","","","","","","tol_peg_2","640","640","0","[[0,0,0],[1,2],[3]]","7","[[0,0,0],[2,3],[1]]","12","0","","","","","","4","","","","",""
"","","","","","single-stim-button","308","1064267","0.0-3.0-46.7-0.7","60e792f25e9ab875f9605cf5","A3","batch1","tol_tohand","572","","","","","","","","","tol_peg_3","572","572","0","[[0,0,0],[1,2],[0]]","8","[[0,0,0],[2,3],[1]]","12","0","","","","","","4","","","","",""
"","","","","","single-stim-button","309","1065351","0.0-3.0-46.7-1.7","60e792f25e9ab875f9605cf5","A3","batch1","tol_toboard","1084","","","","","","","","","tol_peg_1","1084","1084","0","[[3,0,0],[1,2],[0]]","8","[[0,0,0],[2,3],[1]]","12","0","","","","","","4","","","","",""
"","","","","","single-stim-button","310","1065822","0.0-3.0-46.8-0.8","60e792f25e9ab875f9605cf5","A3","batch1","tol_tohand","469","","","","","","","","","tol_peg_2","469","469","0","[[3,0,0],[1,0],[0]]","9","[[0,0,0],[2,3],[1]]","12","0","","","","","","4","","","","",""
"","","","","","single-stim-button","311","1066539","0.0-3.0-46.8-1.8","60e792f25e9ab875f9605cf5","A3","batch1","tol_toboard","717","","","","","","","","","tol_peg_3","717","717","0","[[3,0,0],[1,0],[2]]","9","[[0,0,0],[2,3],[1]]","12","0","","","","","","4","","","","",""
"","","","","","single-stim-button","312","1067102","0.0-3.0-46.9-0.9","60e792f25e9ab875f9605cf5","A3","batch1","tol_tohand","562","","","","","","","","","tol_peg_2","562","562","0","[[3,0,0],[0,0],[2]]","10","[[0,0,0],[2,3],[1]]","12","0","","","","","","4","","","","",""
"","","","","","single-stim-button","313","1067732","0.0-3.0-46.9-1.9","60e792f25e9ab875f9605cf5","A3","batch1","tol_toboard","630","","","","","","","","","tol_peg_1","630","630","0","[[3,1,0],[0,0],[2]]","10","[[0,0,0],[2,3],[1]]","12","0","","","","","","4","","","","",""
"","","","","","single-stim-button","314","1068273","0.0-3.0-46.10-0.10","60e792f25e9ab875f9605cf5","A3","batch1","tol_tohand","540","","","","","","","","","tol_peg_3","540","540","0","[[3,1,0],[0,0],[0]]","11","[[0,0,0],[2,3],[1]]","12","0","","","","","","4","","","","",""
"","","","","","single-stim-button","315","1068936","0.0-3.0-46.10-1.10","60e792f25e9ab875f9605cf5","A3","batch1","tol_toboard","661","","","","","","","","","tol_peg_2","661","661","0","[[3,1,0],[2,0],[0]]","11","[[0,0,0],[2,3],[1]]","12","0","","","","","","4","","","","",""
"","","","","","single-stim-button","316","1069441","0.0-3.0-46.11-0.11","60e792f25e9ab875f9605cf5","A3","batch1","tol_tohand","503","","","","","","","","","tol_peg_1","503","503","0","[[3,0,0],[2,0],[0]]","12","[[0,0,0],[2,3],[1]]","12","0","","","","","","4","","","","",""
"","","","","","single-stim-button","317","1070038","0.0-3.0-46.11-1.11","60e792f25e9ab875f9605cf5","A3","batch1","tol_toboard","597","","","","","","","","","tol_peg_3","597","597","0","[[3,0,0],[2,0],[1]]","12","[[0,0,0],[2,3],[1]]","12","0","","","","","","4","","","","",""
"","","","","","single-stim-button","318","1070780","0.0-3.0-46.12-0.12","60e792f25e9ab875f9605cf5","A3","batch1","tol_tohand","742","","","","","","","","","tol_peg_1","742","742","0","[[0,0,0],[2,0],[1]]","13","[[0,0,0],[2,3],[1]]","12","0","","","","","","4","","","","",""
"","","","","","single-stim-button","319","1071377","0.0-3.0-46.12-1.12","60e792f25e9ab875f9605cf5","A3","batch1","tol_toboard","596","","","","","","","","","tol_peg_2","596","596","0","[[0,0,0],[2,3],[1]]","13","[[0,0,0],[2,3],[1]]","12","0","","","","","","4","","","","",""
"","","","","","poldrack-single-stim","320","1072380","0.0-3.0-47.0","60e792f25e9ab875f9605cf5","A3","batch1","tol_feedback","-1","","","","","true","","","","","1000","1000","500","","","","","","-1","none","true","2124","12959","","","","","",""
"","","","","","html-button-response","321","1080738","0.0-3.0-48.0","60e792f25e9ab875f9605cf5","A3","batch1","attention_check","8355.599999904633","<p class = block-text>How many balls are in your board<br></p>","1","","","true","","","","","","","","","","","","","","","","","","","","","","",""
"","","","","","html-button-response","322","1081729","0.0-3.0-49.0","60e792f25e9ab875f9605cf5","A3","batch1","tol_trial_num","990.3000000715256","<div class = centerbox><p class = center-block-text>problem <strong>14</strong> out of 25 problems</p></div>","0","","","","","","","","","","","","","","","","","","","","","","","","","",""
"","","","","","single-stim-button","323","1085068","0.0-3.0-50.0-0.0","60e792f25e9ab875f9605cf5","A3","batch1","tol_tohand","3338","","","","","","","","","tol_peg_1","3338","3338","0","[[2,0,0],[3,0],[0]]","1","[[1,2,0],[3,0],[0]]","13","0","","","","","","4","","","","",""
"","","","","","single-stim-button","324","1087005","0.0-3.0-50.0-1.0","60e792f25e9ab875f9605cf5","A3","batch1","tol_toboard","1936","","","","","","","","","tol_peg_3","1936","1936","0","[[2,0,0],[3,0],[1]]","1","[[1,2,0],[3,0],[0]]","13","0","","","","","","4","","","","",""
"","","","","","single-stim-button","325","1087713","0.0-3.0-50.1-0.1","60e792f25e9ab875f9605cf5","A3","batch1","tol_tohand","706","","","","","","","","","tol_peg_1","706","706","0","[[0,0,0],[3,0],[1]]","2","[[1,2,0],[3,0],[0]]","13","0","","","","","","4","","","","",""
"","","","","","single-stim-button","326","1088333","0.0-3.0-50.1-1.1","60e792f25e9ab875f9605cf5","A3","batch1","tol_toboard","619","","","","","","","","","tol_peg_2","619","619","0","[[0,0,0],[3,2],[1]]","2","[[1,2,0],[3,0],[0]]","13","0","","","","","","4","","","","",""
"","","","","","single-stim-button","327","1089052","0.0-3.0-50.2-0.2","60e792f25e9ab875f9605cf5","A3","batch1","tol_tohand","717","","","","","","","","","tol_peg_3","717","717","0","[[0,0,0],[3,2],[0]]","3","[[1,2,0],[3,0],[0]]","13","0","","","","","","4","","","","",""
"","","","","","single-stim-button","328","1089761","0.0-3.0-50.2-1.2","60e792f25e9ab875f9605cf5","A3","batch1","tol_toboard","709","","","","","","","","","tol_peg_1","709","709","0","[[1,0,0],[3,2],[0]]","3","[[1,2,0],[3,0],[0]]","13","0","","","","","","4","","","","",""
"","","","","","single-stim-button","329","1090211","0.0-3.0-50.3-0.3","60e792f25e9ab875f9605cf5","A3","batch1","tol_tohand","448","","","","","","","","","tol_peg_2","448","448","0","[[1,0,0],[3,0],[0]]","4","[[1,2,0],[3,0],[0]]","13","0","","","","","","4","","","","",""
"","","","","","single-stim-button","330","1090874","0.0-3.0-50.3-1.3","60e792f25e9ab875f9605cf5","A3","batch1","tol_toboard","662","","","","","","","","","tol_peg_1","662","662","0","[[1,2,0],[3,0],[0]]","4","[[1,2,0],[3,0],[0]]","13","0","","","","","","4","","","","",""
"","","","","","poldrack-single-stim","331","1091877","0.0-3.0-51.0","60e792f25e9ab875f9605cf5","A3","batch1","tol_feedback","-1","","","","","true","","","","","1000","1000","500","","","","","","-1","none","true","3338","5209","","","","","",""
"","","","","","html-button-response","332","1093012","0.0-3.0-52.0","60e792f25e9ab875f9605cf5","A3","batch1","tol_trial_num","1134.0999999046326","<div class = centerbox><p class = center-block-text>problem <strong>15</strong> out of 25 problems</p></div>","0","","","","","","","","","","","","","","","","","","","","","","","","","",""
"","","","","","single-stim-button","333","1095095","0.0-3.0-53.0-0.0","60e792f25e9ab875f9605cf5","A3","batch1","tol_tohand","2081","","","","","","","","","tol_peg_1","2081","2081","0","[[1,0,0],[3,0],[0]]","1","[[2,0,0],[3,0],[1]]","14","0","","","","","","3","","","","",""
"","","","","","single-stim-button","334","1095903","0.0-3.0-53.0-1.0","60e792f25e9ab875f9605cf5","A3","batch1","tol_toboard","807","","","","","","","","","tol_peg_2","807","807","0","[[1,0,0],[3,2],[0]]","1","[[2,0,0],[3,0],[1]]","14","0","","","","","","3","","","","",""
"","","","","","single-stim-button","335","1096399","0.0-3.0-53.1-0.1","60e792f25e9ab875f9605cf5","A3","batch1","tol_tohand","495","","","","","","","","","tol_peg_1","495","495","0","[[0,0,0],[3,2],[0]]","2","[[2,0,0],[3,0],[1]]","14","0","","","","","","3","","","","",""
"","","","","","single-stim-button","336","1097320","0.0-3.0-53.1-1.1","60e792f25e9ab875f9605cf5","A3","batch1","tol_toboard","921","","","","","","","","","tol_peg_3","921","921","0","[[0,0,0],[3,2],[1]]","2","[[2,0,0],[3,0],[1]]","14","0","","","","","","3","","","","",""
"","","","","","single-stim-button","337","1097826","0.0-3.0-53.2-0.2","60e792f25e9ab875f9605cf5","A3","batch1","tol_tohand","505","","","","","","","","","tol_peg_2","505","505","0","[[0,0,0],[3,0],[1]]","3","[[2,0,0],[3,0],[1]]","14","0","","","","","","3","","","","",""
"","","","","","single-stim-button","338","1098535","0.0-3.0-53.2-1.2","60e792f25e9ab875f9605cf5","A3","batch1","tol_toboard","708","","","","","","","","","tol_peg_1","708","708","0","[[2,0,0],[3,0],[1]]","3","[[2,0,0],[3,0],[1]]","14","0","","","","","","3","","","","",""
"","","","","","poldrack-single-stim","339","1099538","0.0-3.0-54.0","60e792f25e9ab875f9605cf5","A3","batch1","tol_feedback","-1","","","","","true","","","","","1000","1000","500","","","","","","-1","none","true","2081","3081","","","","","",""
"","","","","","html-button-response","340","1100798","0.0-3.0-55.0","60e792f25e9ab875f9605cf5","A3","batch1","tol_trial_num","1258.3999999761581","<div class = centerbox><p class = center-block-text>problem <strong>16</strong> out of 25 problems</p></div>","0","","","","","","","","","","","","","","","","","","","","","","","","","",""
"","","","","","single-stim-button","341","1103993","0.0-3.0-56.0-0.0","60e792f25e9ab875f9605cf5","A3","batch1","tol_tohand","3194","","","","","","","","","tol_peg_2","3194","3194","0","[[0,0,0],[2,0],[1]]","1","[[2,3,0],[1,0],[0]]","15","0","","","","","","7","","","","",""
"","","","","","single-stim-button","342","1106264","0.0-3.0-56.0-1.0","60e792f25e9ab875f9605cf5","A3","batch1","tol_toboard","2270","","","","","","","","","tol_peg_1","2270","2270","0","[[3,0,0],[2,0],[1]]","1","[[2,3,0],[1,0],[0]]","15","0","","","","","","7","","","","",""
"","","","","","single-stim-button","343","1107455","0.0-3.0-56.1-0.1","60e792f25e9ab875f9605cf5","A3","batch1","tol_tohand","1190","","","","","","","","","tol_peg_2","1190","1190","0","[[3,0,0],[0,0],[1]]","2","[[2,3,0],[1,0],[0]]","15","0","","","","","","7","","","","",""
"","","","","","single-stim-button","344","1108164","0.0-3.0-56.1-1.1","60e792f25e9ab875f9605cf5","A3","batch1","tol_toboard","707","","","","","","","","","tol_peg_1","707","707","0","[[3,2,0],[0,0],[1]]","2","[[2,3,0],[1,0],[0]]","15","0","","","","","","7","","","","",""
"","","","","","single-stim-button","345","1108838","0.0-3.0-56.2-0.2","60e792f25e9ab875f9605cf5","A3","batch1","tol_tohand","674","","","","","","","","","tol_peg_3","674","674","0","[[3,2,0],[0,0],[0]]","3","[[2,3,0],[1,0],[0]]","15","0","","","","","","7","","","","",""
"","","","","","single-stim-button","346","1109536","0.0-3.0-56.2-1.2","60e792f25e9ab875f9605cf5","A3","batch1","tol_toboard","697","","","","","","","","","tol_peg_2","697","697","0","[[3,2,0],[1,0],[0]]","3","[[2,3,0],[1,0],[0]]","15","0","","","","","","7","","","","",""
"","","","","","single-stim-button","347","1110166","0.0-3.0-56.3-0.3","60e792f25e9ab875f9605cf5","A3","batch1","tol_tohand","630","","","","","","","","","tol_peg_1","630","630","0","[[3,0,0],[1,0],[0]]","4","[[2,3,0],[1,0],[0]]","15","0","","","","","","7","","","","",""
"","","","","","single-stim-button","348","1112292","0.0-3.0-56.3-1.3","60e792f25e9ab875f9605cf5","A3","batch1","tol_toboard","2126","","","","","","","","","tol_peg_3","2126","2126","0","[[3,0,0],[1,0],[2]]","4","[[2,3,0],[1,0],[0]]","15","0","","","","","","7","","","","",""
"","","","","","single-stim-button","349","1112810","0.0-3.0-56.4-0.4","60e792f25e9ab875f9605cf5","A3","batch1","tol_tohand","517","","","","","","","","","tol_peg_1","517","517","0","[[0,0,0],[1,0],[2]]","5","[[2,3,0],[1,0],[0]]","15","0","","","","","","7","","","","",""
"","","","","","single-stim-button","350","1113294","0.0-3.0-56.4-1.4","60e792f25e9ab875f9605cf5","A3","batch1","tol_toboard","483","","","","","","","","","tol_peg_2","483","483","0","[[0,0,0],[1,3],[2]]","5","[[2,3,0],[1,0],[0]]","15","0","","","","","","7","","","","",""
"","","","","","single-stim-button","351","1113811","0.0-3.0-56.5-0.5","60e792f25e9ab875f9605cf5","A3","batch1","tol_tohand","516","","","","","","","","","tol_peg_3","516","516","0","[[0,0,0],[1,3],[0]]","6","[[2,3,0],[1,0],[0]]","15","0","","","","","","7","","","","",""
"","","","","","single-stim-button","352","1114509","0.0-3.0-56.5-1.5","60e792f25e9ab875f9605cf5","A3","batch1","tol_toboard","697","","","","","","","","","tol_peg_1","697","697","0","[[2,0,0],[1,3],[0]]","6","[[2,3,0],[1,0],[0]]","15","0","","","","","","7","","","","",""
"","","","","","single-stim-button","353","1114992","0.0-3.0-56.6-0.6","60e792f25e9ab875f9605cf5","A3","batch1","tol_tohand","483","","","","","","","","","tol_peg_2","483","483","0","[[2,0,0],[1,0],[0]]","7","[[2,3,0],[1,0],[0]]","15","0","","","","","","7","","","","",""
"","","","","","single-stim-button","354","1115904","0.0-3.0-56.6-1.6","60e792f25e9ab875f9605cf5","A3","batch1","tol_toboard","910","","","","","","","","","tol_peg_1","910","910","0","[[2,3,0],[1,0],[0]]","7","[[2,3,0],[1,0],[0]]","15","0","","","","","","7","","","","",""
"","","","","","poldrack-single-stim","355","1116905","0.0-3.0-57.0","60e792f25e9ab875f9605cf5","A3","batch1","tol_feedback","-1","","","","","true","","","","","1000","1000","500","","","","","","-1","none","true","3194","7204","","","","","",""
