"success","timeout","failed_images","failed_audio","failed_video","trial_type","trial_index","time_elapsed","internal_node_id","subject_id","study_id","session_id","view_history","rt","task","stimulus","response","correct","mouse_click","stim_duration","block_duration","timing_post_trial","current_position","tol_num_moves_made","tol_target","tol_problem_id","tol_rt","key_press","possible_responses","tol_correct","preplanning","tol_rt_per_trial","tol_min_moves","item","answer","spm_correct","spm_rt","fiar_detect_rt","fiar_detect_correct","total_correct_fiar_detect","post_trial_gap","choices"
"true","false","[]","[]","[]","preload","0","1043","0.0-0.0","60ebd10c620f3e024c3a39a5","F1","batch6","","","","","","","","","","","","","","","","","","","","","","","","","","","","","",""
"true","","","","","fullscreen","1","23673","0.0-1.0-0.0","60ebd10c620f3e024c3a39a5","F1","batch6","","","","","","","","","","","","","","","","","","","","","","","","","","","","","",""
"true","","","","","fullscreen","2","28887","0.0-2.0-0.0","60ebd10c620f3e024c3a39a5","F1","batch6","","","","","","","","","","","","","","","","","","","","","","","","","","","","","",""
"","","","","","instructions","3","106791","0.0-2.0-1.0-0.0-0.0","60ebd10c620f3e024c3a39a5","F1","batch6","[{""page_index"":0,""viewing_time"":19764.699999999255},{""page_index"":1,""viewing_time"":6652},{""page_index"":2,""viewing_time"":3069.800000000745},{""page_index"":3,""viewing_time"":10914.199999999255},{""page_index"":4,""viewing_time"":11307.300000000745},{""page_index"":5,""viewing_time"":22829.800000000745},{""page_index"":6,""viewing_time"":3364.5}]","77902.69999999925","tol-instructions","","","","","","","","","","","","","","","","","","","","","","","","","","",""
"","","","","","html-button-response","4","108285","0.0-2.0-1.0-1.0-0.0","60ebd10c620f3e024c3a39a5","F1","batch6","","1493.0999999996275","tol_enter_quiz","<p class=block-text> Let's answer a few questions <br>","0","","","","","","","","","","","","","","","","","","","","","","","","",""
"","","","","","html-button-response","5","117751","0.0-2.0-1.0-1.0-1.0","60ebd10c620f3e024c3a39a5","F1","batch6","","9464.700000001118","tol_quiz","<p class = block-text>True or False: You can only move the ball on top of a peg. <br></p>","1","false","","","","","","","","","","","","","","","","","","","","","","","",""
"","","","","","html-button-response","6","119704","0.0-2.0-1.0-1.0-2.0","60ebd10c620f3e024c3a39a5","F1","batch6","","1952.5999999996275","tol_quiz_feedback","<p class = block-text>Incorrect. Remember, you can only move the ball on top of a peg.</p>","0","","","","","","","","","","","","","","","","","","","","","","","","",""
"","","","","","html-button-response","7","122940","0.0-2.0-1.0-1.0-3.0","60ebd10c620f3e024c3a39a5","F1","batch6","","3235.0999999996275","tol_quiz","<p class = block-text>True or False: You should try to match your board with the target board with fewest moves possible. <br></p>","0","true","","","","","","","","","","","","","","","","","","","","","","","",""
"","","","","","html-button-response","8","124704","0.0-2.0-1.0-1.0-4.0","60ebd10c620f3e024c3a39a5","F1","batch6","","1762.9000000003725","tol_quiz_feedback","<p class = block-text>Correct! </p>","0","","","","","","","","","","","","","","","","","","","","","","","","",""
"","","","","","html-button-response","9","126770","0.0-2.0-1.0-2.0-0.0","60ebd10c620f3e024c3a39a5","F1","batch6","","2065.5","","<p class = block-text>You made too many incorrect choices.</p><p class = block-text>You will now repeat the instructions and quiz</p>","0","","","","","","","","","","","","","","","","","","","","","","","","",""
"","","","","","instructions","10","132846","0.0-2.0-1.1-0.1-0.1","60ebd10c620f3e024c3a39a5","F1","batch6","[{""page_index"":0,""viewing_time"":1742.800000000745},{""page_index"":1,""viewing_time"":379.8999999985099},{""page_index"":2,""viewing_time"":430.30000000074506},{""page_index"":3,""viewing_time"":880},{""page_index"":4,""viewing_time"":411.90000000037253},{""page_index"":5,""viewing_time"":396},{""page_index"":6,""viewing_time"":1834}]","6075.0999999996275","tol-instructions","","","","","","","","","","","","","","","","","","","","","","","","","","",""
"","","","","","html-button-response","11","133532","0.0-2.0-1.1-1.1-0.1","60ebd10c620f3e024c3a39a5","F1","batch6","","685.3000000007451","tol_enter_quiz","<p class=block-text> Let's answer a few questions <br>","0","","","","","","","","","","","","","","","","","","","","","","","","",""
"","","","","","html-button-response","12","135696","0.0-2.0-1.1-1.1-1.1","60ebd10c620f3e024c3a39a5","F1","batch6","","2163.2000000011176","tol_quiz","<p class = block-text>True or False: You can only move the ball on top of a peg. <br></p>","0","true","","","","","","","","","","","","","","","","","","","","","","","",""
"","","","","","html-button-response","13","136664","0.0-2.0-1.1-1.1-2.1","60ebd10c620f3e024c3a39a5","F1","batch6","","967.2000000011176","tol_quiz_feedback","<p class = block-text>Correct! You can only move the ball on top of a peg.</p>","0","","","","","","","","","","","","","","","","","","","","","","","","",""
"","","","","","html-button-response","14","138842","0.0-2.0-1.1-1.1-3.1","60ebd10c620f3e024c3a39a5","F1","batch6","","2177.300000000745","tol_quiz","<p class = block-text>True or False: You should try to match your board with the target board with fewest moves possible. <br></p>","0","true","","","","","","","","","","","","","","","","","","","","","","","",""
"","","","","","html-button-response","15","139480","0.0-2.0-1.1-1.1-4.1","60ebd10c620f3e024c3a39a5","F1","batch6","","637.3000000007451","tol_quiz_feedback","<p class = block-text>Correct! </p>","0","","","","","","","","","","","","","","","","","","","","","","","","",""
"","","","","","html-button-response","16","142882","0.0-2.0-2.0","60ebd10c620f3e024c3a39a5","F1","batch6","","3401.300000000745","","<p class=block-text> Now that you've understood the game, let's practice a few easier examples before we start!<br> <br>","0","","","","","","","","","","","","","","","","","","","","","","","","",""
"","","","","","single-stim-button","17","148277","0.0-2.0-3.0-0.0","60ebd10c620f3e024c3a39a5","F1","batch6","","5394","tol_practice","","","","tol_peg_2","5394","5394","0","[[1,2,0],[0,0],[0]]","1","[[1,2,0],[0,0],[3]]","practice","5394","","","","","","","","","","","","","","",""
"","","","","","single-stim-button","18","149634","0.0-2.0-3.0-1.0","60ebd10c620f3e024c3a39a5","F1","batch6","","1356","tol_practice","","","","tol_peg_3","1356","1356","0","[[1,2,0],[0,0],[3]]","1","[[1,2,0],[0,0],[3]]","practice","1356","","","","","","","","","","","","","","",""
"","","","","","poldrack-single-stim","19","150648","0.0-2.0-4.0","60ebd10c620f3e024c3a39a5","F1","batch6","","-1","tol_feedback","","","true","","1000","1000","500","","","","","","-1","none","true","","0","","","","","","","","","",""
"","","","","","single-stim-button","20","154970","0.0-2.0-5.0-0.0","60ebd10c620f3e024c3a39a5","F1","batch6","","4321","tol_practice","","","","tol_peg_1","4321","4321","0","[[1,0,0],[3,0],[0]]","2","[[0,0,0],[3,1],[2]]","practice","4321","","","","","","","","","","","","","","",""
"","","","","","single-stim-button","21","157786","0.0-2.0-5.0-1.0","60ebd10c620f3e024c3a39a5","F1","batch6","","2816","tol_practice","","","","tol_peg_3","2816","2816","0","[[1,0,0],[3,0],[2]]","2","[[0,0,0],[3,1],[2]]","practice","2816","","","","","","","","","","","","","","",""
"","","","","","single-stim-button","22","158564","0.0-2.0-5.1-0.1","60ebd10c620f3e024c3a39a5","F1","batch6","","777","tol_practice","","","","tol_peg_2","777","777","0","[[1,0,0],[0,0],[2]]","3","[[0,0,0],[3,1],[2]]","practice","777","","","","","","","","","","","","","","",""
"","","","","","single-stim-button","23","159368","0.0-2.0-5.1-1.1","60ebd10c620f3e024c3a39a5","F1","batch6","","804","tol_practice","","","","tol_peg_1","804","804","0","[[1,3,0],[0,0],[2]]","3","[[0,0,0],[3,1],[2]]","practice","804","","","","","","","","","","","","","","",""
"","","","","","single-stim-button","24","161682","0.0-2.0-5.2-0.2","60ebd10c620f3e024c3a39a5","F1","batch6","","2314","tol_practice","","","","tol_peg_1","2314","2314","0","[[1,0,0],[0,0],[2]]","4","[[0,0,0],[3,1],[2]]","practice","2314","","","","","","","","","","","","","","",""
"","","","","","single-stim-button","25","163164","0.0-2.0-5.2-1.2","60ebd10c620f3e024c3a39a5","F1","batch6","","1481","tol_practice","","","","tol_peg_2","1481","1481","0","[[1,0,0],[3,0],[2]]","4","[[0,0,0],[3,1],[2]]","practice","1481","","","","","","","","","","","","","","",""
"","","","","","single-stim-button","26","165122","0.0-2.0-5.3-0.3","60ebd10c620f3e024c3a39a5","F1","batch6","","1957","tol_practice","","","","tol_peg_2","1957","1957","0","[[1,0,0],[0,0],[2]]","5","[[0,0,0],[3,1],[2]]","practice","1957","","","","","","","","","","","","","","",""
"","","","","","single-stim-button","27","168120","0.0-2.0-5.3-1.3","60ebd10c620f3e024c3a39a5","F1","batch6","","2997","tol_practice","","","","tol_peg_2","2997","2997","0","[[1,0,0],[3,0],[2]]","5","[[0,0,0],[3,1],[2]]","practice","2997","","","","","","","","","","","","","","",""
"","","","","","single-stim-button","28","169144","0.0-2.0-5.4-0.4","60ebd10c620f3e024c3a39a5","F1","batch6","","1024","tol_practice","","","","tol_peg_3","1024","1024","0","[[1,0,0],[3,0],[0]]","6","[[0,0,0],[3,1],[2]]","practice","1024","","","","","","","","","","","","","","",""
"","","","","","single-stim-button","29","170154","0.0-2.0-5.4-1.4","60ebd10c620f3e024c3a39a5","F1","batch6","","1009","tol_practice","","","","tol_peg_1","1009","1009","0","[[1,2,0],[3,0],[0]]","6","[[0,0,0],[3,1],[2]]","practice","1009","","","","","","","","","","","","","","",""
"","","","","","single-stim-button","30","171692","0.0-2.0-5.5-0.5","60ebd10c620f3e024c3a39a5","F1","batch6","","1537","tol_practice","","","","tol_peg_1","1537","1537","0","[[1,0,0],[3,0],[0]]","7","[[0,0,0],[3,1],[2]]","practice","1537","","","","","","","","","","","","","","",""
"","","","","","single-stim-button","31","172949","0.0-2.0-5.5-1.5","60ebd10c620f3e024c3a39a5","F1","batch6","","1256","tol_practice","","","","tol_peg_3","1256","1256","0","[[1,0,0],[3,0],[2]]","7","[[0,0,0],[3,1],[2]]","practice","1256","","","","","","","","","","","","","","",""
"","","","","","single-stim-button","32","173685","0.0-2.0-5.6-0.6","60ebd10c620f3e024c3a39a5","F1","batch6","","735","tol_practice","","","","tol_peg_1","735","735","0","[[0,0,0],[3,0],[2]]","8","[[0,0,0],[3,1],[2]]","practice","735","","","","","","","","","","","","","","",""
"","","","","","single-stim-button","33","174240","0.0-2.0-5.6-1.6","60ebd10c620f3e024c3a39a5","F1","batch6","","554","tol_practice","","","","tol_peg_2","554","554","0","[[0,0,0],[3,1],[2]]","8","[[0,0,0],[3,1],[2]]","practice","554","","","","","","","","","","","","","","",""
"","","","","","poldrack-single-stim","34","175242","0.0-2.0-6.0","60ebd10c620f3e024c3a39a5","F1","batch6","","-1","tol_feedback","","","true","","1000","1000","500","","","","","","-1","none","true","","0","","","","","","","","","",""
"","","","","","single-stim-button","35","180585","0.0-2.0-7.0-0.0","60ebd10c620f3e024c3a39a5","F1","batch6","","5342","tol_practice","","","","tol_peg_2","5342","5342","0","[[1,2,0],[0,0],[0]]","9","[[1,0,0],[2,0],[3]]","practice","5342","","","","","","","","","","","","","","",""
"","","","","","single-stim-button","36","181171","0.0-2.0-7.0-1.0","60ebd10c620f3e024c3a39a5","F1","batch6","","586","tol_practice","","","","tol_peg_3","586","586","0","[[1,2,0],[0,0],[3]]","9","[[1,0,0],[2,0],[3]]","practice","586","","","","","","","","","","","","","","",""
"","","","","","single-stim-button","37","181839","0.0-2.0-7.1-0.1","60ebd10c620f3e024c3a39a5","F1","batch6","","667","tol_practice","","","","tol_peg_1","667","667","0","[[1,0,0],[0,0],[3]]","10","[[1,0,0],[2,0],[3]]","practice","667","","","","","","","","","","","","","","",""
"","","","","","single-stim-button","38","182598","0.0-2.0-7.1-1.1","60ebd10c620f3e024c3a39a5","F1","batch6","","759","tol_practice","","","","tol_peg_2","759","759","0","[[1,0,0],[2,0],[3]]","10","[[1,0,0],[2,0],[3]]","practice","759","","","","","","","","","","","","","","",""
"","","","","","poldrack-single-stim","39","183608","0.0-2.0-8.0","60ebd10c620f3e024c3a39a5","F1","batch6","","-1","tol_feedback","","","true","","1000","1000","500","","","","","","-1","none","true","","0","","","","","","","","","",""
"","","","","","html-button-response","40","190150","0.0-2.0-9.0","60ebd10c620f3e024c3a39a5","F1","batch6","","6541.5","tol_instruction","<div class = centerbox><p class = center-block-text>Great job! You are done with practice trials<br>You are about to start official trials.<br> <br> Problem <strong>1</strong> out of 25 problems</p></div>","0","","","","","","","","","","","","","","","","","","","","","","","","",""
"","","","","","single-stim-button","41","199575","0.0-2.0-10.0-0.0","60ebd10c620f3e024c3a39a5","F1","batch6","","8410","tol_tohand","","","","tol_peg_1","8410","8410","0","[[1,0,0],[3,0],[0]]","1","[[1,3,0],[2,0],[0]]","0","0","","","","","","3","","","","","","","","",""
"","","","","","single-stim-button","42","200427","0.0-2.0-10.0-1.0","60ebd10c620f3e024c3a39a5","F1","batch6","","851","tol_toboard","","","","tol_peg_3","851","851","0","[[1,0,0],[3,0],[2]]","1","[[1,3,0],[2,0],[0]]","0","0","","","","","","3","","","","","","","","",""
"","","","","","single-stim-button","43","201213","0.0-2.0-10.1-0.1","60ebd10c620f3e024c3a39a5","F1","batch6","","786","tol_tohand","","","","tol_peg_2","786","786","0","[[1,0,0],[0,0],[2]]","2","[[1,3,0],[2,0],[0]]","0","0","","","","","","3","","","","","","","","",""
"","","","","","single-stim-button","44","201887","0.0-2.0-10.1-1.1","60ebd10c620f3e024c3a39a5","F1","batch6","","673","tol_toboard","","","","tol_peg_1","673","673","0","[[1,3,0],[0,0],[2]]","2","[[1,3,0],[2,0],[0]]","0","0","","","","","","3","","","","","","","","",""
"","","","","","single-stim-button","45","202733","0.0-2.0-10.2-0.2","60ebd10c620f3e024c3a39a5","F1","batch6","","845","tol_tohand","","","","tol_peg_3","845","845","0","[[1,3,0],[0,0],[0]]","3","[[1,3,0],[2,0],[0]]","0","0","","","","","","3","","","","","","","","",""
"","","","","","single-stim-button","46","203469","0.0-2.0-10.2-1.2","60ebd10c620f3e024c3a39a5","F1","batch6","","736","tol_toboard","","","","tol_peg_2","736","736","0","[[1,3,0],[2,0],[0]]","3","[[1,3,0],[2,0],[0]]","0","0","","","","","","3","","","","","","","","",""
"","","","","","poldrack-single-stim","47","204474","0.0-2.0-11.0","60ebd10c620f3e024c3a39a5","F1","batch6","","-1","tol_feedback","","","true","","1000","1000","500","","","","","","-1","none","true","8410","10041","","","","","","","","","",""
"","","","","","html-button-response","48","205537","0.0-2.0-12.0","60ebd10c620f3e024c3a39a5","F1","batch6","","1061.5","tol_trial_num","<div class = centerbox><p class = center-block-text>problem <strong>2</strong> out of 25 problems</p></div>","0","","","","","","","","","","","","","","","","","","","","","","","","",""
"","","","","","single-stim-button","49","215253","0.0-2.0-13.0-0.0","60ebd10c620f3e024c3a39a5","F1","batch6","","9716","tol_tohand","","","","tol_peg_2","9716","9716","0","[[1,2,0],[0,0],[0]]","1","[[2,1,3],[0,0],[0]]","1","0","","","","","","5","","","","","","","","",""
"","","","","","single-stim-button","50","215981","0.0-2.0-13.0-1.0","60ebd10c620f3e024c3a39a5","F1","batch6","","728","tol_toboard","","","","tol_peg_3","728","728","0","[[1,2,0],[0,0],[3]]","1","[[2,1,3],[0,0],[0]]","1","0","","","","","","5","","","","","","","","",""
"","","","","","single-stim-button","51","216810","0.0-2.0-13.1-0.1","60ebd10c620f3e024c3a39a5","F1","batch6","","829","tol_tohand","","","","tol_peg_1","829","829","0","[[1,0,0],[0,0],[3]]","2","[[2,1,3],[0,0],[0]]","1","0","","","","","","5","","","","","","","","",""
"","","","","","single-stim-button","52","227681","0.0-2.0-13.1-1.1","60ebd10c620f3e024c3a39a5","F1","batch6","","10871","tol_toboard","","","","tol_peg_1","10871","10871","0","[[1,2,0],[0,0],[3]]","2","[[2,1,3],[0,0],[0]]","1","0","","","","","","5","","","","","","","","",""
"","","","","","single-stim-button","53","228405","0.0-2.0-13.2-0.2","60ebd10c620f3e024c3a39a5","F1","batch6","","723","tol_tohand","","","","tol_peg_3","723","723","0","[[1,2,0],[0,0],[0]]","3","[[2,1,3],[0,0],[0]]","1","0","","","","","","5","","","","","","","","",""
"","","","","","single-stim-button","54","228830","0.0-2.0-13.2-1.2","60ebd10c620f3e024c3a39a5","F1","batch6","","425","tol_toboard","","","","tol_peg_2","425","425","0","[[1,2,0],[3,0],[0]]","3","[[2,1,3],[0,0],[0]]","1","0","","","","","","5","","","","","","","","",""
"","","","","","single-stim-button","55","229481","0.0-2.0-13.3-0.3","60ebd10c620f3e024c3a39a5","F1","batch6","","650","tol_tohand","","","","tol_peg_1","650","650","0","[[1,0,0],[3,0],[0]]","4","[[2,1,3],[0,0],[0]]","1","0","","","","","","5","","","","","","","","",""
"","","","","","single-stim-button","56","230097","0.0-2.0-13.3-1.3","60ebd10c620f3e024c3a39a5","F1","batch6","","615","tol_toboard","","","","tol_peg_2","615","615","0","[[1,0,0],[3,2],[0]]","4","[[2,1,3],[0,0],[0]]","1","0","","","","","","5","","","","","","","","",""
"","","","","","single-stim-button","57","230773","0.0-2.0-13.4-0.4","60ebd10c620f3e024c3a39a5","F1","batch6","","675","tol_tohand","","","","tol_peg_1","675","675","0","[[0,0,0],[3,2],[0]]","5","[[2,1,3],[0,0],[0]]","1","0","","","","","","5","","","","","","","","",""
"","","","","","single-stim-button","58","231810","0.0-2.0-13.4-1.4","60ebd10c620f3e024c3a39a5","F1","batch6","","1037","tol_toboard","","","","tol_peg_3","1037","1037","0","[[0,0,0],[3,2],[1]]","5","[[2,1,3],[0,0],[0]]","1","0","","","","","","5","","","","","","","","",""
"","","","","","single-stim-button","59","232447","0.0-2.0-13.5-0.5","60ebd10c620f3e024c3a39a5","F1","batch6","","636","tol_tohand","","","","tol_peg_2","636","636","0","[[0,0,0],[3,0],[1]]","6","[[2,1,3],[0,0],[0]]","1","0","","","","","","5","","","","","","","","",""
"","","","","","single-stim-button","60","232924","0.0-2.0-13.5-1.5","60ebd10c620f3e024c3a39a5","F1","batch6","","477","tol_toboard","","","","tol_peg_1","477","477","0","[[2,0,0],[3,0],[1]]","6","[[2,1,3],[0,0],[0]]","1","0","","","","","","5","","","","","","","","",""
"","","","","","single-stim-button","61","233584","0.0-2.0-13.6-0.6","60ebd10c620f3e024c3a39a5","F1","batch6","","660","tol_tohand","","","","tol_peg_3","660","660","0","[[2,0,0],[3,0],[0]]","7","[[2,1,3],[0,0],[0]]","1","0","","","","","","5","","","","","","","","",""
"","","","","","single-stim-button","62","234393","0.0-2.0-13.6-1.6","60ebd10c620f3e024c3a39a5","F1","batch6","","807","tol_toboard","","","","tol_peg_1","807","807","0","[[2,1,0],[3,0],[0]]","7","[[2,1,3],[0,0],[0]]","1","0","","","","","","5","","","","","","","","",""
"","","","","","single-stim-button","63","235184","0.0-2.0-13.7-0.7","60ebd10c620f3e024c3a39a5","F1","batch6","","791","tol_tohand","","","","tol_peg_2","791","791","0","[[2,1,0],[0,0],[0]]","8","[[2,1,3],[0,0],[0]]","1","0","","","","","","5","","","","","","","","",""
"","","","","","single-stim-button","64","235765","0.0-2.0-13.7-1.7","60ebd10c620f3e024c3a39a5","F1","batch6","","580","tol_toboard","","","","tol_peg_1","580","580","0","[[2,1,3],[0,0],[0]]","8","[[2,1,3],[0,0],[0]]","1","0","","","","","","5","","","","","","","","",""
"","","","","","poldrack-single-stim","65","236777","0.0-2.0-14.0","60ebd10c620f3e024c3a39a5","F1","batch6","","-1","tol_feedback","","","true","","1000","1000","500","","","","","","-1","none","true","9716","14680","","","","","","","","","",""
"","","","","","html-button-response","66","238937","0.0-2.0-15.0","60ebd10c620f3e024c3a39a5","F1","batch6","","2158.800000000745","tol_trial_num","<div class = centerbox><p class = center-block-text>problem <strong>3</strong> out of 25 problems</p></div>","0","","","","","","","","","","","","","","","","","","","","","","","","",""
"","","","","","single-stim-button","67","244565","0.0-2.0-16.0-0.0","60ebd10c620f3e024c3a39a5","F1","batch6","","5628","tol_tohand","","","","tol_peg_1","5628","5628","0","[[2,0,0],[0,0],[1]]","1","[[1,2,0],[3,0],[0]]","2","0","","","","","","4","","","","","","","","",""
"","","","","","single-stim-button","68","245349","0.0-2.0-16.0-1.0","60ebd10c620f3e024c3a39a5","F1","batch6","","784","tol_toboard","","","","tol_peg_2","784","784","0","[[2,0,0],[3,0],[1]]","1","[[1,2,0],[3,0],[0]]","2","0","","","","","","4","","","","","","","","",""
"","","","","","single-stim-button","69","246793","0.0-2.0-16.1-0.1","60ebd10c620f3e024c3a39a5","F1","batch6","","1444","tol_tohand","","","","tol_peg_1","1444","1444","0","[[0,0,0],[3,0],[1]]","2","[[1,2,0],[3,0],[0]]","2","0","","","","","","4","","","","","","","","",""
"","","","","","single-stim-button","70","247481","0.0-2.0-16.1-1.1","60ebd10c620f3e024c3a39a5","F1","batch6","","688","tol_toboard","","","","tol_peg_2","688","688","0","[[0,0,0],[3,2],[1]]","2","[[1,2,0],[3,0],[0]]","2","0","","","","","","4","","","","","","","","",""
"","","","","","single-stim-button","71","247930","0.0-2.0-16.2-0.2","60ebd10c620f3e024c3a39a5","F1","batch6","","449","tol_tohand","","","","tol_peg_3","449","449","0","[[0,0,0],[3,2],[0]]","3","[[1,2,0],[3,0],[0]]","2","0","","","","","","4","","","","","","","","",""
"","","","","","single-stim-button","72","248363","0.0-2.0-16.2-1.2","60ebd10c620f3e024c3a39a5","F1","batch6","","432","tol_toboard","","","","tol_peg_1","432","432","0","[[1,0,0],[3,2],[0]]","3","[[1,2,0],[3,0],[0]]","2","0","","","","","","4","","","","","","","","",""
"","","","","","single-stim-button","73","248773","0.0-2.0-16.3-0.3","60ebd10c620f3e024c3a39a5","F1","batch6","","409","tol_tohand","","","","tol_peg_2","409","409","0","[[1,0,0],[3,0],[0]]","4","[[1,2,0],[3,0],[0]]","2","0","","","","","","4","","","","","","","","",""
"","","","","","single-stim-button","74","249169","0.0-2.0-16.3-1.3","60ebd10c620f3e024c3a39a5","F1","batch6","","396","tol_toboard","","","","tol_peg_1","396","396","0","[[1,2,0],[3,0],[0]]","4","[[1,2,0],[3,0],[0]]","2","0","","","","","","4","","","","","","","","",""
"","","","","","poldrack-single-stim","75","250170","0.0-2.0-17.0","60ebd10c620f3e024c3a39a5","F1","batch6","","-1","tol_feedback","","","true","","1000","1000","500","","","","","","-1","none","true","5628","7930","","","","","","","","","",""
"","","","","","html-button-response","76","250811","0.0-2.0-18.0","60ebd10c620f3e024c3a39a5","F1","batch6","","640.4000000003725","tol_trial_num","<div class = centerbox><p class = center-block-text>problem <strong>4</strong> out of 25 problems</p></div>","0","","","","","","","","","","","","","","","","","","","","","","","","",""
"","","","","","single-stim-button","77","255125","0.0-2.0-19.0-0.0","60ebd10c620f3e024c3a39a5","F1","batch6","","4314","tol_tohand","","","","tol_peg_2","4314","4314","0","[[3,0,0],[2,0],[0]]","1","[[3,0,0],[1,0],[2]]","3","0","","","","","","3","","","","","","","","",""
"","","","","","single-stim-button","78","255907","0.0-2.0-19.0-1.0","60ebd10c620f3e024c3a39a5","F1","batch6","","782","tol_toboard","","","","tol_peg_1","782","782","0","[[3,1,0],[2,0],[0]]","1","[[3,0,0],[1,0],[2]]","3","0","","","","","","3","","","","","","","","",""
"","","","","","single-stim-button","79","256383","0.0-2.0-19.1-0.1","60ebd10c620f3e024c3a39a5","F1","batch6","","476","tol_tohand","","","","tol_peg_2","476","476","0","[[3,1,0],[0,0],[0]]","2","[[3,0,0],[1,0],[2]]","3","0","","","","","","3","","","","","","","","",""
"","","","","","single-stim-button","80","256833","0.0-2.0-19.1-1.1","60ebd10c620f3e024c3a39a5","F1","batch6","","450","tol_toboard","","","","tol_peg_3","450","450","0","[[3,1,0],[0,0],[2]]","2","[[3,0,0],[1,0],[2]]","3","0","","","","","","3","","","","","","","","",""
"","","","","","single-stim-button","81","257451","0.0-2.0-19.2-0.2","60ebd10c620f3e024c3a39a5","F1","batch6","","618","tol_tohand","","","","tol_peg_1","618","618","0","[[3,0,0],[0,0],[2]]","3","[[3,0,0],[1,0],[2]]","3","0","","","","","","3","","","","","","","","",""
"","","","","","single-stim-button","82","257835","0.0-2.0-19.2-1.2","60ebd10c620f3e024c3a39a5","F1","batch6","","383","tol_toboard","","","","tol_peg_2","383","383","0","[[3,0,0],[1,0],[2]]","3","[[3,0,0],[1,0],[2]]","3","0","","","","","","3","","","","","","","","",""
"","","","","","poldrack-single-stim","83","258845","0.0-2.0-20.0","60ebd10c620f3e024c3a39a5","F1","batch6","","-1","tol_feedback","","","true","","1000","1000","500","","","","","","-1","none","true","4314","5408","","","","","","","","","",""
"","","","","","html-button-response","84","259557","0.0-2.0-21.0","60ebd10c620f3e024c3a39a5","F1","batch6","","710.7000000011176","tol_trial_num","<div class = centerbox><p class = center-block-text>problem <strong>5</strong> out of 25 problems</p></div>","0","","","","","","","","","","","","","","","","","","","","","","","","",""
"","","","","","single-stim-button","85","277945","0.0-2.0-22.0-0.0","60ebd10c620f3e024c3a39a5","F1","batch6","","18388","tol_tohand","","","","tol_peg_3","18388","18388","0","[[1,0,0],[2,0],[0]]","1","[[0,0,0],[1,2],[3]]","4","0","","","","","","7","","","","","","","","",""
"","","","","","single-stim-button","86","278660","0.0-2.0-22.0-1.0","60ebd10c620f3e024c3a39a5","F1","batch6","","715","tol_toboard","","","","tol_peg_1","715","715","0","[[1,3,0],[2,0],[0]]","1","[[0,0,0],[1,2],[3]]","4","0","","","","","","7","","","","","","","","",""
"","","","","","single-stim-button","87","279167","0.0-2.0-22.1-0.1","60ebd10c620f3e024c3a39a5","F1","batch6","","506","tol_tohand","","","","tol_peg_2","506","506","0","[[1,3,0],[0,0],[0]]","2","[[0,0,0],[1,2],[3]]","4","0","","","","","","7","","","","","","","","",""
"","","","","","single-stim-button","88","279575","0.0-2.0-22.1-1.1","60ebd10c620f3e024c3a39a5","F1","batch6","","408","tol_toboard","","","","tol_peg_3","408","408","0","[[1,3,0],[0,0],[2]]","2","[[0,0,0],[1,2],[3]]","4","0","","","","","","7","","","","","","","","",""
"","","","","","single-stim-button","89","288423","0.0-2.0-22.2-0.2","60ebd10c620f3e024c3a39a5","F1","batch6","","8847","tol_tohand","","","","tol_peg_3","8847","8847","0","[[1,3,0],[0,0],[0]]","3","[[0,0,0],[1,2],[3]]","4","0","","","","","","7","","","","","","","","",""
"","","","","","single-stim-button","90","289054","0.0-2.0-22.2-1.2","60ebd10c620f3e024c3a39a5","F1","batch6","","631","tol_toboard","","","","tol_peg_2","631","631","0","[[1,3,0],[2,0],[0]]","3","[[0,0,0],[1,2],[3]]","4","0","","","","","","7","","","","","","","","",""
"","","","","","single-stim-button","91","289605","0.0-2.0-22.3-0.3","60ebd10c620f3e024c3a39a5","F1","batch6","","551","tol_tohand","","","","tol_peg_1","551","551","0","[[1,0,0],[2,0],[0]]","4","[[0,0,0],[1,2],[3]]","4","0","","","","","","7","","","","","","","","",""
"","","","","","single-stim-button","92","290067","0.0-2.0-22.3-1.3","60ebd10c620f3e024c3a39a5","F1","batch6","","462","tol_toboard","","","","tol_peg_2","462","462","0","[[1,0,0],[2,3],[0]]","4","[[0,0,0],[1,2],[3]]","4","0","","","","","","7","","","","","","","","",""
"","","","","","single-stim-button","93","290755","0.0-2.0-22.4-0.4","60ebd10c620f3e024c3a39a5","F1","batch6","","688","tol_tohand","","","","tol_peg_1","688","688","0","[[0,0,0],[2,3],[0]]","5","[[0,0,0],[1,2],[3]]","4","0","","","","","","7","","","","","","","","",""
"","","","","","single-stim-button","94","292749","0.0-2.0-22.4-1.4","60ebd10c620f3e024c3a39a5","F1","batch6","","1994","tol_toboard","","","","tol_peg_1","1994","1994","0","[[1,0,0],[2,3],[0]]","5","[[0,0,0],[1,2],[3]]","4","0","","","","","","7","","","","","","","","",""
"","","","","","single-stim-button","95","294383","0.0-2.0-22.5-0.5","60ebd10c620f3e024c3a39a5","F1","batch6","","1634","tol_tohand","","","","tol_peg_1","1634","1634","0","[[0,0,0],[2,3],[0]]","6","[[0,0,0],[1,2],[3]]","4","0","","","","","","7","","","","","","","","",""
"","","","","","single-stim-button","96","295301","0.0-2.0-22.5-1.5","60ebd10c620f3e024c3a39a5","F1","batch6","","918","tol_toboard","","","","tol_peg_3","918","918","0","[[0,0,0],[2,3],[1]]","6","[[0,0,0],[1,2],[3]]","4","0","","","","","","7","","","","","","","","",""
"","","","","","single-stim-button","97","296031","0.0-2.0-22.6-0.6","60ebd10c620f3e024c3a39a5","F1","batch6","","730","tol_tohand","","","","tol_peg_2","730","730","0","[[0,0,0],[2,0],[1]]","7","[[0,0,0],[1,2],[3]]","4","0","","","","","","7","","","","","","","","",""
"","","","","","single-stim-button","98","296511","0.0-2.0-22.6-1.6","60ebd10c620f3e024c3a39a5","F1","batch6","","480","tol_toboard","","","","tol_peg_1","480","480","0","[[3,0,0],[2,0],[1]]","7","[[0,0,0],[1,2],[3]]","4","0","","","","","","7","","","","","","","","",""
"","","","","","single-stim-button","99","297547","0.0-2.0-22.7-0.7","60ebd10c620f3e024c3a39a5","F1","batch6","","1036","tol_tohand","","","","tol_peg_2","1036","1036","0","[[3,0,0],[0,0],[1]]","8","[[0,0,0],[1,2],[3]]","4","0","","","","","","7","","","","","","","","",""
"","","","","","single-stim-button","100","300764","0.0-2.0-22.7-1.7","60ebd10c620f3e024c3a39a5","F1","batch6","","3217","tol_toboard","","","","tol_peg_2","3217","3217","0","[[3,0,0],[2,0],[1]]","8","[[0,0,0],[1,2],[3]]","4","0","","","","","","7","","","","","","","","",""
"","","","","","single-stim-button","101","305071","0.0-2.0-22.8-0.8","60ebd10c620f3e024c3a39a5","F1","batch6","","4306","tol_tohand","","","","tol_peg_3","4306","4306","0","[[3,0,0],[2,0],[0]]","9","[[0,0,0],[1,2],[3]]","4","0","","","","","","7","","","","","","","","",""
"","","","","","single-stim-button","102","305937","0.0-2.0-22.8-1.8","60ebd10c620f3e024c3a39a5","F1","batch6","","866","tol_toboard","","","","tol_peg_2","866","866","0","[[3,0,0],[2,1],[0]]","9","[[0,0,0],[1,2],[3]]","4","0","","","","","","7","","","","","","","","",""
"","","","","","single-stim-button","103","306422","0.0-2.0-22.9-0.9","60ebd10c620f3e024c3a39a5","F1","batch6","","485","tol_tohand","","","","tol_peg_1","485","485","0","[[0,0,0],[2,1],[0]]","10","[[0,0,0],[1,2],[3]]","4","0","","","","","","7","","","","","","","","",""
"","","","","","single-stim-button","104","307313","0.0-2.0-22.9-1.9","60ebd10c620f3e024c3a39a5","F1","batch6","","890","tol_toboard","","","","tol_peg_3","890","890","0","[[0,0,0],[2,1],[3]]","10","[[0,0,0],[1,2],[3]]","4","0","","","","","","7","","","","","","","","",""
"","","","","","single-stim-button","105","308215","0.0-2.0-22.10-0.10","60ebd10c620f3e024c3a39a5","F1","batch6","","902","tol_tohand","","","","tol_peg_2","902","902","0","[[0,0,0],[2,0],[3]]","11","[[0,0,0],[1,2],[3]]","4","0","","","","","","7","","","","","","","","",""
"","","","","","single-stim-button","106","311965","0.0-2.0-22.10-1.10","60ebd10c620f3e024c3a39a5","F1","batch6","","3750","tol_toboard","","","","tol_peg_1","3750","3750","0","[[1,0,0],[2,0],[3]]","11","[[0,0,0],[1,2],[3]]","4","0","","","","","","7","","","","","","","","",""
"","","","","","single-stim-button","107","313644","0.0-2.0-22.11-0.11","60ebd10c620f3e024c3a39a5","F1","batch6","","1679","tol_tohand","","","","tol_peg_2","1679","1679","0","[[1,0,0],[0,0],[3]]","12","[[0,0,0],[1,2],[3]]","4","0","","","","","","7","","","","","","","","",""
"","","","","","single-stim-button","108","316469","0.0-2.0-22.11-1.11","60ebd10c620f3e024c3a39a5","F1","batch6","","2824","tol_toboard","","","","tol_peg_1","2824","2824","0","[[1,2,0],[0,0],[3]]","12","[[0,0,0],[1,2],[3]]","4","0","","","","","","7","","","","","","","","",""
"","","","","","single-stim-button","109","318518","0.0-2.0-22.12-0.12","60ebd10c620f3e024c3a39a5","F1","batch6","","2049","tol_tohand","","","","tol_peg_3","2049","2049","0","[[1,2,0],[0,0],[0]]","13","[[0,0,0],[1,2],[3]]","4","0","","","","","","7","","","","","","","","",""
"","","","","","single-stim-button","110","319093","0.0-2.0-22.12-1.12","60ebd10c620f3e024c3a39a5","F1","batch6","","574","tol_toboard","","","","tol_peg_2","574","574","0","[[1,2,0],[3,0],[0]]","13","[[0,0,0],[1,2],[3]]","4","0","","","","","","7","","","","","","","","",""
"","","","","","single-stim-button","111","319519","0.0-2.0-22.13-0.13","60ebd10c620f3e024c3a39a5","F1","batch6","","426","tol_tohand","","","","tol_peg_1","426","426","0","[[1,0,0],[3,0],[0]]","14","[[0,0,0],[1,2],[3]]","4","0","","","","","","7","","","","","","","","",""
"","","","","","single-stim-button","112","320887","0.0-2.0-22.13-1.13","60ebd10c620f3e024c3a39a5","F1","batch6","","1368","tol_toboard","","","","tol_peg_3","1368","1368","0","[[1,0,0],[3,0],[2]]","14","[[0,0,0],[1,2],[3]]","4","0","","","","","","7","","","","","","","","",""
"","","","","","single-stim-button","113","324405","0.0-2.0-22.14-0.14","60ebd10c620f3e024c3a39a5","F1","batch6","","3517","tol_tohand","","","","tol_peg_1","3517","3517","0","[[0,0,0],[3,0],[2]]","15","[[0,0,0],[1,2],[3]]","4","0","","","","","","7","","","","","","","","",""
"","","","","","single-stim-button","114","325097","0.0-2.0-22.14-1.14","60ebd10c620f3e024c3a39a5","F1","batch6","","692","tol_toboard","","","","tol_peg_2","692","692","0","[[0,0,0],[3,1],[2]]","15","[[0,0,0],[1,2],[3]]","4","0","","","","","","7","","","","","","","","",""
"","","","","","single-stim-button","115","325457","0.0-2.0-22.15-0.15","60ebd10c620f3e024c3a39a5","F1","batch6","","359","tol_tohand","","","","tol_peg_3","359","359","0","[[0,0,0],[3,1],[0]]","16","[[0,0,0],[1,2],[3]]","4","0","","","","","","7","","","","","","","","",""
"","","","","","single-stim-button","116","326361","0.0-2.0-22.15-1.15","60ebd10c620f3e024c3a39a5","F1","batch6","","904","tol_toboard","","","","tol_peg_1","904","904","0","[[2,0,0],[3,1],[0]]","16","[[0,0,0],[1,2],[3]]","4","0","","","","","","7","","","","","","","","",""
"","","","","","single-stim-button","117","326911","0.0-2.0-22.16-0.16","60ebd10c620f3e024c3a39a5","F1","batch6","","550","tol_tohand","","","","tol_peg_2","550","550","0","[[2,0,0],[3,0],[0]]","17","[[0,0,0],[1,2],[3]]","4","0","","","","","","7","","","","","","","","",""
"","","","","","single-stim-button","118","327319","0.0-2.0-22.16-1.16","60ebd10c620f3e024c3a39a5","F1","batch6","","408","tol_toboard","","","","tol_peg_3","408","408","0","[[2,0,0],[3,0],[1]]","17","[[0,0,0],[1,2],[3]]","4","0","","","","","","7","","","","","","","","",""
"","","","","","single-stim-button","119","330420","0.0-2.0-22.17-0.17","60ebd10c620f3e024c3a39a5","F1","batch6","","3101","tol_tohand","","","","tol_peg_1","3101","3101","0","[[0,0,0],[3,0],[1]]","18","[[0,0,0],[1,2],[3]]","4","0","","","","","","7","","","","","","","","",""
"","","","","","single-stim-button","120","332987","0.0-2.0-22.17-1.17","60ebd10c620f3e024c3a39a5","F1","batch6","","2567","tol_toboard","","","","tol_peg_2","2567","2567","0","[[0,0,0],[3,2],[1]]","18","[[0,0,0],[1,2],[3]]","4","0","","","","","","7","","","","","","","","",""
"","","","","","single-stim-button","121","333505","0.0-2.0-22.18-0.18","60ebd10c620f3e024c3a39a5","F1","batch6","","518","tol_tohand","","","","tol_peg_3","518","518","0","[[0,0,0],[3,2],[0]]","19","[[0,0,0],[1,2],[3]]","4","0","","","","","","7","","","","","","","","",""
"","","","","","single-stim-button","122","334193","0.0-2.0-22.18-1.18","60ebd10c620f3e024c3a39a5","F1","batch6","","687","tol_toboard","","","","tol_peg_1","687","687","0","[[1,0,0],[3,2],[0]]","19","[[0,0,0],[1,2],[3]]","4","0","","","","","","7","","","","","","","","",""
"","","","","","single-stim-button","123","338253","0.0-2.0-22.19-0.19","60ebd10c620f3e024c3a39a5","F1","batch6","","4060","tol_tohand","","","","tol_peg_2","4060","4060","0","[[1,0,0],[3,0],[0]]","20","[[0,0,0],[1,2],[3]]","4","0","","","","","","7","","","","","","","","",""
"","","","","","single-stim-button","124","339825","0.0-2.0-22.19-1.19","60ebd10c620f3e024c3a39a5","F1","batch6","","1572","tol_toboard","","","","tol_peg_1","1572","1572","0","[[1,2,0],[3,0],[0]]","20","[[0,0,0],[1,2],[3]]","4","0","","","","","","7","","","","","","","","",""
"","","","","","single-stim-button","125","340512","0.0-2.0-22.20-0.20","60ebd10c620f3e024c3a39a5","F1","batch6","","687","tol_tohand","","","","tol_peg_2","687","687","0","[[1,2,0],[0,0],[0]]","21","[[0,0,0],[1,2],[3]]","4","0","","","","","","7","","","","","","","","",""
"","","","","","single-stim-button","126","342262","0.0-2.0-22.20-1.20","60ebd10c620f3e024c3a39a5","F1","batch6","","1749","tol_toboard","","","","tol_peg_3","1749","1749","0","[[1,2,0],[0,0],[3]]","21","[[0,0,0],[1,2],[3]]","4","0","","","","","","7","","","","","","","","",""
"","","","","","single-stim-button","127","342813","0.0-2.0-22.21-0.21","60ebd10c620f3e024c3a39a5","F1","batch6","","550","tol_tohand","","","","tol_peg_3","550","550","0","[[1,2,0],[0,0],[0]]","22","[[0,0,0],[1,2],[3]]","4","0","","","","","","7","","","","","","","","",""
"","","","","","single-stim-button","128","343315","0.0-2.0-22.21-1.21","60ebd10c620f3e024c3a39a5","F1","batch6","","502","tol_toboard","","","","tol_peg_2","502","502","0","[[1,2,0],[3,0],[0]]","22","[[0,0,0],[1,2],[3]]","4","0","","","","","","7","","","","","","","","",""
"","","","","","single-stim-button","129","344003","0.0-2.0-22.22-0.22","60ebd10c620f3e024c3a39a5","F1","batch6","","688","tol_tohand","","","","tol_peg_1","688","688","0","[[1,0,0],[3,0],[0]]","23","[[0,0,0],[1,2],[3]]","4","0","","","","","","7","","","","","","","","",""
"","","","","","single-stim-button","130","344545","0.0-2.0-22.22-1.22","60ebd10c620f3e024c3a39a5","F1","batch6","","542","tol_toboard","","","","tol_peg_2","542","542","0","[[1,0,0],[3,2],[0]]","23","[[0,0,0],[1,2],[3]]","4","0","","","","","","7","","","","","","","","",""
"","","","","","single-stim-button","131","345091","0.0-2.0-22.23-0.23","60ebd10c620f3e024c3a39a5","F1","batch6","","546","tol_tohand","","","","tol_peg_1","546","546","0","[[0,0,0],[3,2],[0]]","24","[[0,0,0],[1,2],[3]]","4","0","","","","","","7","","","","","","","","",""
"","","","","","single-stim-button","132","345707","0.0-2.0-22.23-1.23","60ebd10c620f3e024c3a39a5","F1","batch6","","616","tol_toboard","","","","tol_peg_3","616","616","0","[[0,0,0],[3,2],[1]]","24","[[0,0,0],[1,2],[3]]","4","0","","","","","","7","","","","","","","","",""
"","","","","","single-stim-button","133","346161","0.0-2.0-22.24-0.24","60ebd10c620f3e024c3a39a5","F1","batch6","","453","tol_tohand","","","","tol_peg_2","453","453","0","[[0,0,0],[3,0],[1]]","25","[[0,0,0],[1,2],[3]]","4","0","","","","","","7","","","","","","","","",""
"","","","","","single-stim-button","134","346645","0.0-2.0-22.24-1.24","60ebd10c620f3e024c3a39a5","F1","batch6","","484","tol_toboard","","","","tol_peg_1","484","484","0","[[2,0,0],[3,0],[1]]","25","[[0,0,0],[1,2],[3]]","4","0","","","","","","7","","","","","","","","",""
"","","","","","single-stim-button","135","347397","0.0-2.0-22.25-0.25","60ebd10c620f3e024c3a39a5","F1","batch6","","751","tol_tohand","","","","tol_peg_2","751","751","0","[[2,0,0],[0,0],[1]]","26","[[0,0,0],[1,2],[3]]","4","0","","","","","","7","","","","","","","","",""
"","","","","","single-stim-button","136","348061","0.0-2.0-22.25-1.25","60ebd10c620f3e024c3a39a5","F1","batch6","","664","tol_toboard","","","","tol_peg_1","664","664","0","[[2,3,0],[0,0],[1]]","26","[[0,0,0],[1,2],[3]]","4","0","","","","","","7","","","","","","","","",""
"","","","","","single-stim-button","137","348555","0.0-2.0-22.26-0.26","60ebd10c620f3e024c3a39a5","F1","batch6","","494","tol_tohand","","","","tol_peg_3","494","494","0","[[2,3,0],[0,0],[0]]","27","[[0,0,0],[1,2],[3]]","4","0","","","","","","7","","","","","","","","",""
"","","","","","single-stim-button","138","349197","0.0-2.0-22.26-1.26","60ebd10c620f3e024c3a39a5","F1","batch6","","642","tol_toboard","","","","tol_peg_2","642","642","0","[[2,3,0],[1,0],[0]]","27","[[0,0,0],[1,2],[3]]","4","0","","","","","","7","","","","","","","","",""
"","","","","","single-stim-button","139","349561","0.0-2.0-22.27-0.27","60ebd10c620f3e024c3a39a5","F1","batch6","","363","tol_tohand","","","","tol_peg_1","363","363","0","[[2,0,0],[1,0],[0]]","28","[[0,0,0],[1,2],[3]]","4","0","","","","","","7","","","","","","","","",""
"","","","","","single-stim-button","140","350099","0.0-2.0-22.27-1.27","60ebd10c620f3e024c3a39a5","F1","batch6","","538","tol_toboard","","","","tol_peg_3","538","538","0","[[2,0,0],[1,0],[3]]","28","[[0,0,0],[1,2],[3]]","4","0","","","","","","7","","","","","","","","",""
"","","","","","single-stim-button","141","350516","0.0-2.0-22.28-0.28","60ebd10c620f3e024c3a39a5","F1","batch6","","417","tol_tohand","","","","tol_peg_1","417","417","0","[[0,0,0],[1,0],[3]]","29","[[0,0,0],[1,2],[3]]","4","0","","","","","","7","","","","","","","","",""
"","","","","","single-stim-button","142","350976","0.0-2.0-22.28-1.28","60ebd10c620f3e024c3a39a5","F1","batch6","","459","tol_toboard","","","","tol_peg_2","459","459","0","[[0,0,0],[1,2],[3]]","29","[[0,0,0],[1,2],[3]]","4","0","","","","","","7","","","","","","","","",""
"","","","","","poldrack-single-stim","143","351978","0.0-2.0-23.0","60ebd10c620f3e024c3a39a5","F1","batch6","","-1","tol_feedback","","","true","","1000","1000","500","","","","","","-1","none","true","18388","59281","","","","","","","","","",""
"","","","","","html-button-response","144","352773","0.0-2.0-24.0","60ebd10c620f3e024c3a39a5","F1","batch6","","794.5","tol_trial_num","<div class = centerbox><p class = center-block-text>problem <strong>6</strong> out of 25 problems</p></div>","0","","","","","","","","","","","","","","","","","","","","","","","","",""
"","","","","","single-stim-button","145","358850","0.0-2.0-25.0-0.0","60ebd10c620f3e024c3a39a5","F1","batch6","","6077","tol_tohand","","","","tol_peg_2","6077","6077","0","[[0,0,0],[1,0],[3]]","1","[[1,0,0],[2,3],[0]]","5","0","","","","","","6","","","","","","","","",""
"","","","","","single-stim-button","146","359408","0.0-2.0-25.0-1.0","60ebd10c620f3e024c3a39a5","F1","batch6","","557","tol_toboard","","","","tol_peg_1","557","557","0","[[2,0,0],[1,0],[3]]","1","[[1,0,0],[2,3],[0]]","5","0","","","","","","6","","","","","","","","",""
"","","","","","single-stim-button","147","363370","0.0-2.0-25.1-0.1","60ebd10c620f3e024c3a39a5","F1","batch6","","3962","tol_tohand","","","","tol_peg_3","3962","3962","0","[[2,0,0],[1,0],[0]]","2","[[1,0,0],[2,3],[0]]","5","0","","","","","","6","","","","","","","","",""
"","","","","","single-stim-button","148","367450","0.0-2.0-25.1-1.1","60ebd10c620f3e024c3a39a5","F1","batch6","","4079","tol_toboard","","","","tol_peg_2","4079","4079","0","[[2,0,0],[1,3],[0]]","2","[[1,0,0],[2,3],[0]]","5","0","","","","","","6","","","","","","","","",""
"","","","","","single-stim-button","149","367976","0.0-2.0-25.2-0.2","60ebd10c620f3e024c3a39a5","F1","batch6","","525","tol_tohand","","","","tol_peg_1","525","525","0","[[0,0,0],[1,3],[0]]","3","[[1,0,0],[2,3],[0]]","5","0","","","","","","6","","","","","","","","",""
"","","","","","single-stim-button","150","368568","0.0-2.0-25.2-1.2","60ebd10c620f3e024c3a39a5","F1","batch6","","591","tol_toboard","","","","tol_peg_3","591","591","0","[[0,0,0],[1,3],[2]]","3","[[1,0,0],[2,3],[0]]","5","0","","","","","","6","","","","","","","","",""
"","","","","","single-stim-button","151","371486","0.0-2.0-25.3-0.3","60ebd10c620f3e024c3a39a5","F1","batch6","","2917","tol_tohand","","","","tol_peg_2","2917","2917","0","[[0,0,0],[1,0],[2]]","4","[[1,0,0],[2,3],[0]]","5","0","","","","","","6","","","","","","","","",""
"","","","","","single-stim-button","152","372221","0.0-2.0-25.3-1.3","60ebd10c620f3e024c3a39a5","F1","batch6","","735","tol_toboard","","","","tol_peg_1","735","735","0","[[3,0,0],[1,0],[2]]","4","[[1,0,0],[2,3],[0]]","5","0","","","","","","6","","","","","","","","",""
"","","","","","single-stim-button","153","372922","0.0-2.0-25.4-0.4","60ebd10c620f3e024c3a39a5","F1","batch6","","699","tol_tohand","","","","tol_peg_2","699","699","0","[[3,0,0],[0,0],[2]]","5","[[1,0,0],[2,3],[0]]","5","0","","","","","","6","","","","","","","","",""
"","","","","","single-stim-button","154","373439","0.0-2.0-25.4-1.4","60ebd10c620f3e024c3a39a5","F1","batch6","","517","tol_toboard","","","","tol_peg_1","517","517","0","[[3,1,0],[0,0],[2]]","5","[[1,0,0],[2,3],[0]]","5","0","","","","","","6","","","","","","","","",""
"","","","","","single-stim-button","155","373890","0.0-2.0-25.5-0.5","60ebd10c620f3e024c3a39a5","F1","batch6","","450","tol_tohand","","","","tol_peg_3","450","450","0","[[3,1,0],[0,0],[0]]","6","[[1,0,0],[2,3],[0]]","5","0","","","","","","6","","","","","","","","",""
"","","","","","single-stim-button","156","374391","0.0-2.0-25.5-1.5","60ebd10c620f3e024c3a39a5","F1","batch6","","501","tol_toboard","","","","tol_peg_2","501","501","0","[[3,1,0],[2,0],[0]]","6","[[1,0,0],[2,3],[0]]","5","0","","","","","","6","","","","","","","","",""
"","","","","","single-stim-button","157","377752","0.0-2.0-25.6-0.6","60ebd10c620f3e024c3a39a5","F1","batch6","","3361","tol_tohand","","","","tol_peg_1","3361","3361","0","[[3,0,0],[2,0],[0]]","7","[[1,0,0],[2,3],[0]]","5","0","","","","","","6","","","","","","","","",""
"","","","","","single-stim-button","158","378676","0.0-2.0-25.6-1.6","60ebd10c620f3e024c3a39a5","F1","batch6","","923","tol_toboard","","","","tol_peg_3","923","923","0","[[3,0,0],[2,0],[1]]","7","[[1,0,0],[2,3],[0]]","5","0","","","","","","6","","","","","","","","",""
"","","","","","single-stim-button","159","379282","0.0-2.0-25.7-0.7","60ebd10c620f3e024c3a39a5","F1","batch6","","605","tol_tohand","","","","tol_peg_1","605","605","0","[[0,0,0],[2,0],[1]]","8","[[1,0,0],[2,3],[0]]","5","0","","","","","","6","","","","","","","","",""
"","","","","","single-stim-button","160","379678","0.0-2.0-25.7-1.7","60ebd10c620f3e024c3a39a5","F1","batch6","","395","tol_toboard","","","","tol_peg_2","395","395","0","[[0,0,0],[2,3],[1]]","8","[[1,0,0],[2,3],[0]]","5","0","","","","","","6","","","","","","","","",""
"","","","","","single-stim-button","161","380184","0.0-2.0-25.8-0.8","60ebd10c620f3e024c3a39a5","F1","batch6","","505","tol_tohand","","","","tol_peg_3","505","505","0","[[0,0,0],[2,3],[0]]","9","[[1,0,0],[2,3],[0]]","5","0","","","","","","6","","","","","","","","",""
"","","","","","single-stim-button","162","380650","0.0-2.0-25.8-1.8","60ebd10c620f3e024c3a39a5","F1","batch6","","465","tol_toboard","","","","tol_peg_1","465","465","0","[[1,0,0],[2,3],[0]]","9","[[1,0,0],[2,3],[0]]","5","0","","","","","","6","","","","","","","","",""
"","","","","","poldrack-single-stim","163","381665","0.0-2.0-26.0","60ebd10c620f3e024c3a39a5","F1","batch6","","-1","tol_feedback","","","true","","1000","1000","500","","","","","","-1","none","true","6077","19101","","","","","","","","","",""
"","","","","","html-button-response","164","382422","0.0-2.0-27.0","60ebd10c620f3e024c3a39a5","F1","batch6","","756.5","tol_trial_num","<div class = centerbox><p class = center-block-text>problem <strong>7</strong> out of 25 problems</p></div>","0","","","","","","","","","","","","","","","","","","","","","","","","",""
"","","","","","single-stim-button","165","390172","0.0-2.0-28.0-0.0","60ebd10c620f3e024c3a39a5","F1","batch6","","7749","tol_tohand","","","","tol_peg_3","7749","7749","0","[[2,1,0],[0,0],[0]]","1","[[1,2,0],[3,0],[0]]","6","0","","","","","","5","","","","","","","","",""
"","","","","","single-stim-button","166","390694","0.0-2.0-28.0-1.0","60ebd10c620f3e024c3a39a5","F1","batch6","","521","tol_toboard","","","","tol_peg_2","521","521","0","[[2,1,0],[3,0],[0]]","1","[[1,2,0],[3,0],[0]]","6","0","","","","","","5","","","","","","","","",""
"","","","","","single-stim-button","167","391340","0.0-2.0-28.1-0.1","60ebd10c620f3e024c3a39a5","F1","batch6","","645","tol_tohand","","","","tol_peg_1","645","645","0","[[2,0,0],[3,0],[0]]","2","[[1,2,0],[3,0],[0]]","6","0","","","","","","5","","","","","","","","",""
"","","","","","single-stim-button","168","392962","0.0-2.0-28.1-1.1","60ebd10c620f3e024c3a39a5","F1","batch6","","1621","tol_toboard","","","","tol_peg_2","1621","1621","0","[[2,0,0],[3,1],[0]]","2","[[1,2,0],[3,0],[0]]","6","0","","","","","","5","","","","","","","","",""
"","","","","","single-stim-button","169","393448","0.0-2.0-28.2-0.2","60ebd10c620f3e024c3a39a5","F1","batch6","","485","tol_tohand","","","","tol_peg_1","485","485","0","[[0,0,0],[3,1],[0]]","3","[[1,2,0],[3,0],[0]]","6","0","","","","","","5","","","","","","","","",""
"","","","","","single-stim-button","170","394058","0.0-2.0-28.2-1.2","60ebd10c620f3e024c3a39a5","F1","batch6","","610","tol_toboard","","","","tol_peg_3","610","610","0","[[0,0,0],[3,1],[2]]","3","[[1,2,0],[3,0],[0]]","6","0","","","","","","5","","","","","","","","",""
"","","","","","single-stim-button","171","394466","0.0-2.0-28.3-0.3","60ebd10c620f3e024c3a39a5","F1","batch6","","408","tol_tohand","","","","tol_peg_2","408","408","0","[[0,0,0],[3,0],[2]]","4","[[1,2,0],[3,0],[0]]","6","0","","","","","","5","","","","","","","","",""
"","","","","","single-stim-button","172","394939","0.0-2.0-28.3-1.3","60ebd10c620f3e024c3a39a5","F1","batch6","","473","tol_toboard","","","","tol_peg_1","473","473","0","[[1,0,0],[3,0],[2]]","4","[[1,2,0],[3,0],[0]]","6","0","","","","","","5","","","","","","","","",""
"","","","","","single-stim-button","173","395585","0.0-2.0-28.4-0.4","60ebd10c620f3e024c3a39a5","F1","batch6","","645","tol_tohand","","","","tol_peg_3","645","645","0","[[1,0,0],[3,0],[0]]","5","[[1,2,0],[3,0],[0]]","6","0","","","","","","5","","","","","","","","",""
"","","","","","single-stim-button","174","396023","0.0-2.0-28.4-1.4","60ebd10c620f3e024c3a39a5","F1","batch6","","437","tol_toboard","","","","tol_peg_1","437","437","0","[[1,2,0],[3,0],[0]]","5","[[1,2,0],[3,0],[0]]","6","0","","","","","","5","","","","","","","","",""
"","","","","","poldrack-single-stim","175","397030","0.0-2.0-29.0","60ebd10c620f3e024c3a39a5","F1","batch6","","-1","tol_feedback","","","true","","1000","1000","500","","","","","","-1","none","true","7749","9932","","","","","","","","","",""
"","","","","","html-button-response","176","397742","0.0-2.0-30.0","60ebd10c620f3e024c3a39a5","F1","batch6","","711.5999999996275","tol_trial_num","<div class = centerbox><p class = center-block-text>problem <strong>8</strong> out of 25 problems</p></div>","0","","","","","","","","","","","","","","","","","","","","","","","","",""
"","","","","","single-stim-button","177","404926","0.0-2.0-31.0-0.0","60ebd10c620f3e024c3a39a5","F1","batch6","","7183","tol_tohand","","","","tol_peg_3","7183","7183","0","[[0,0,0],[2,3],[0]]","1","[[1,2,0],[3,0],[0]]","7","0","","","","","","4","","","","","","","","",""
"","","","","","single-stim-button","178","405978","0.0-2.0-31.0-1.0","60ebd10c620f3e024c3a39a5","F1","batch6","","1051","tol_toboard","","","","tol_peg_1","1051","1051","0","[[1,0,0],[2,3],[0]]","1","[[1,2,0],[3,0],[0]]","7","0","","","","","","4","","","","","","","","",""
"","","","","","single-stim-button","179","406836","0.0-2.0-31.1-0.1","60ebd10c620f3e024c3a39a5","F1","batch6","","858","tol_tohand","","","","tol_peg_2","858","858","0","[[1,0,0],[2,0],[0]]","2","[[1,2,0],[3,0],[0]]","7","0","","","","","","4","","","","","","","","",""
"","","","","","single-stim-button","180","407288","0.0-2.0-31.1-1.1","60ebd10c620f3e024c3a39a5","F1","batch6","","452","tol_toboard","","","","tol_peg_3","452","452","0","[[1,0,0],[2,0],[3]]","2","[[1,2,0],[3,0],[0]]","7","0","","","","","","4","","","","","","","","",""
"","","","","","single-stim-button","181","407683","0.0-2.0-31.2-0.2","60ebd10c620f3e024c3a39a5","F1","batch6","","394","tol_tohand","","","","tol_peg_2","394","394","0","[[1,0,0],[0,0],[3]]","3","[[1,2,0],[3,0],[0]]","7","0","","","","","","4","","","","","","","","",""
"","","","","","single-stim-button","182","408102","0.0-2.0-31.2-1.2","60ebd10c620f3e024c3a39a5","F1","batch6","","419","tol_toboard","","","","tol_peg_1","419","419","0","[[1,2,0],[0,0],[3]]","3","[[1,2,0],[3,0],[0]]","7","0","","","","","","4","","","","","","","","",""
"","","","","","single-stim-button","183","408818","0.0-2.0-31.3-0.3","60ebd10c620f3e024c3a39a5","F1","batch6","","716","tol_tohand","","","","tol_peg_3","716","716","0","[[1,2,0],[0,0],[0]]","4","[[1,2,0],[3,0],[0]]","7","0","","","","","","4","","","","","","","","",""
"","","","","","single-stim-button","184","409222","0.0-2.0-31.3-1.3","60ebd10c620f3e024c3a39a5","F1","batch6","","404","tol_toboard","","","","tol_peg_2","404","404","0","[[1,2,0],[3,0],[0]]","4","[[1,2,0],[3,0],[0]]","7","0","","","","","","4","","","","","","","","",""
"","","","","","poldrack-single-stim","185","410224","0.0-2.0-32.0","60ebd10c620f3e024c3a39a5","F1","batch6","","-1","tol_feedback","","","true","","1000","1000","500","","","","","","-1","none","true","7183","9151","","","","","","","","","",""
"","","","","","html-button-response","186","410954","0.0-2.0-33.0","60ebd10c620f3e024c3a39a5","F1","batch6","","729.7999999988824","tol_trial_num","<div class = centerbox><p class = center-block-text>problem <strong>9</strong> out of 25 problems</p></div>","0","","","","","","","","","","","","","","","","","","","","","","","","",""
"","","","","","single-stim-button","187","419754","0.0-2.0-34.0-0.0","60ebd10c620f3e024c3a39a5","F1","batch6","","8800","tol_tohand","","","","tol_peg_3","8800","8800","0","[[3,2,0],[0,0],[0]]","1","[[2,1,0],[3,0],[0]]","8","0","","","","","","6","","","","","","","","",""
"","","","","","single-stim-button","188","420528","0.0-2.0-34.0-1.0","60ebd10c620f3e024c3a39a5","F1","batch6","","772","tol_toboard","","","","tol_peg_2","772","772","0","[[3,2,0],[1,0],[0]]","1","[[2,1,0],[3,0],[0]]","8","0","","","","","","6","","","","","","","","",""
"","","","","","single-stim-button","189","422618","0.0-2.0-34.1-0.1","60ebd10c620f3e024c3a39a5","F1","batch6","","2089","tol_tohand","","","","tol_peg_1","2089","2089","0","[[3,0,0],[1,0],[0]]","2","[[2,1,0],[3,0],[0]]","8","0","","","","","","6","","","","","","","","",""
"","","","","","single-stim-button","190","423390","0.0-2.0-34.1-1.1","60ebd10c620f3e024c3a39a5","F1","batch6","","772","tol_toboard","","","","tol_peg_3","772","772","0","[[3,0,0],[1,0],[2]]","2","[[2,1,0],[3,0],[0]]","8","0","","","","","","6","","","","","","","","",""
"","","","","","single-stim-button","191","423942","0.0-2.0-34.2-0.2","60ebd10c620f3e024c3a39a5","F1","batch6","","551","tol_tohand","","","","tol_peg_1","551","551","0","[[0,0,0],[1,0],[2]]","3","[[2,1,0],[3,0],[0]]","8","0","","","","","","6","","","","","","","","",""
"","","","","","single-stim-button","192","424600","0.0-2.0-34.2-1.2","60ebd10c620f3e024c3a39a5","F1","batch6","","658","tol_toboard","","","","tol_peg_2","658","658","0","[[0,0,0],[1,3],[2]]","3","[[2,1,0],[3,0],[0]]","8","0","","","","","","6","","","","","","","","",""
"","","","","","single-stim-button","193","425200","0.0-2.0-34.3-0.3","60ebd10c620f3e024c3a39a5","F1","batch6","","599","tol_tohand","","","","tol_peg_3","599","599","0","[[0,0,0],[1,3],[0]]","4","[[2,1,0],[3,0],[0]]","8","0","","","","","","6","","","","","","","","",""
"","","","","","single-stim-button","194","426142","0.0-2.0-34.3-1.3","60ebd10c620f3e024c3a39a5","F1","batch6","","941","tol_toboard","","","","tol_peg_1","941","941","0","[[2,0,0],[1,3],[0]]","4","[[2,1,0],[3,0],[0]]","8","0","","","","","","6","","","","","","","","",""
"","","","","","single-stim-button","195","426733","0.0-2.0-34.4-0.4","60ebd10c620f3e024c3a39a5","F1","batch6","","589","tol_tohand","","","","tol_peg_2","589","589","0","[[2,0,0],[1,0],[0]]","5","[[2,1,0],[3,0],[0]]","8","0","","","","","","6","","","","","","","","",""
"","","","","","single-stim-button","196","427262","0.0-2.0-34.4-1.4","60ebd10c620f3e024c3a39a5","F1","batch6","","529","tol_toboard","","","","tol_peg_3","529","529","0","[[2,0,0],[1,0],[3]]","5","[[2,1,0],[3,0],[0]]","8","0","","","","","","6","","","","","","","","",""
"","","","","","single-stim-button","197","427632","0.0-2.0-34.5-0.5","60ebd10c620f3e024c3a39a5","F1","batch6","","369","tol_tohand","","","","tol_peg_2","369","369","0","[[2,0,0],[0,0],[3]]","6","[[2,1,0],[3,0],[0]]","8","0","","","","","","6","","","","","","","","",""
"","","","","","single-stim-button","198","427994","0.0-2.0-34.5-1.5","60ebd10c620f3e024c3a39a5","F1","batch6","","360","tol_toboard","","","","tol_peg_1","360","360","0","[[2,1,0],[0,0],[3]]","6","[[2,1,0],[3,0],[0]]","8","0","","","","","","6","","","","","","","","",""
"","","","","","single-stim-button","199","428982","0.0-2.0-34.6-0.6","60ebd10c620f3e024c3a39a5","F1","batch6","","988","tol_tohand","","","","tol_peg_3","988","988","0","[[2,1,0],[0,0],[0]]","7","[[2,1,0],[3,0],[0]]","8","0","","","","","","6","","","","","","","","",""
"","","","","","single-stim-button","200","429390","0.0-2.0-34.6-1.6","60ebd10c620f3e024c3a39a5","F1","batch6","","407","tol_toboard","","","","tol_peg_2","407","407","0","[[2,1,0],[3,0],[0]]","7","[[2,1,0],[3,0],[0]]","8","0","","","","","","6","","","","","","","","",""
"","","","","","poldrack-single-stim","201","430403","0.0-2.0-35.0","60ebd10c620f3e024c3a39a5","F1","batch6","","-1","tol_feedback","","","true","","1000","1000","500","","","","","","-1","none","true","8800","13985","","","","","","","","","",""
"","","","","","html-button-response","202","431240","0.0-2.0-36.0","60ebd10c620f3e024c3a39a5","F1","batch6","","836.5999999996275","tol_trial_num","<div class = centerbox><p class = center-block-text>problem <strong>10</strong> out of 25 problems</p></div>","0","","","","","","","","","","","","","","","","","","","","","","","","",""
"","","","","","single-stim-button","203","434440","0.0-2.0-37.0-0.0","60ebd10c620f3e024c3a39a5","F1","batch6","","3199","tol_tohand","","","","tol_peg_2","3199","3199","0","[[3,0,0],[0,0],[2]]","1","[[3,0,0],[2,1],[0]]","9","0","","","","","","3","","","","","","","","",""
"","","","","","single-stim-button","204","435208","0.0-2.0-37.0-1.0","60ebd10c620f3e024c3a39a5","F1","batch6","","767","tol_toboard","","","","tol_peg_1","767","767","0","[[3,1,0],[0,0],[2]]","1","[[3,0,0],[2,1],[0]]","9","0","","","","","","3","","","","","","","","",""
"","","","","","single-stim-button","205","435840","0.0-2.0-37.1-0.1","60ebd10c620f3e024c3a39a5","F1","batch6","","632","tol_tohand","","","","tol_peg_3","632","632","0","[[3,1,0],[0,0],[0]]","2","[[3,0,0],[2,1],[0]]","9","0","","","","","","3","","","","","","","","",""
"","","","","","single-stim-button","206","436278","0.0-2.0-37.1-1.1","60ebd10c620f3e024c3a39a5","F1","batch6","","437","tol_toboard","","","","tol_peg_2","437","437","0","[[3,1,0],[2,0],[0]]","2","[[3,0,0],[2,1],[0]]","9","0","","","","","","3","","","","","","","","",""
"","","","","","single-stim-button","207","436774","0.0-2.0-37.2-0.2","60ebd10c620f3e024c3a39a5","F1","batch6","","496","tol_tohand","","","","tol_peg_1","496","496","0","[[3,0,0],[2,0],[0]]","3","[[3,0,0],[2,1],[0]]","9","0","","","","","","3","","","","","","","","",""
"","","","","","single-stim-button","208","437172","0.0-2.0-37.2-1.2","60ebd10c620f3e024c3a39a5","F1","batch6","","396","tol_toboard","","","","tol_peg_2","396","396","0","[[3,0,0],[2,1],[0]]","3","[[3,0,0],[2,1],[0]]","9","0","","","","","","3","","","","","","","","",""
"","","","","","poldrack-single-stim","209","438173","0.0-2.0-38.0","60ebd10c620f3e024c3a39a5","F1","batch6","","-1","tol_feedback","","","true","","1000","1000","500","","","","","","-1","none","true","3199","4327","","","","","","","","","",""
"","","","","","html-button-response","210","438766","0.0-2.0-39.0","60ebd10c620f3e024c3a39a5","F1","batch6","","593","tol_trial_num","<div class = centerbox><p class = center-block-text>problem <strong>11</strong> out of 25 problems</p></div>","0","","","","","","","","","","","","","","","","","","","","","","","","",""
"","","","","","single-stim-button","211","448972","0.0-2.0-40.0-0.0","60ebd10c620f3e024c3a39a5","F1","batch6","","10205","tol_tohand","","","","tol_peg_2","10205","10205","0","[[1,2,0],[0,0],[0]]","1","[[2,0,0],[1,3],[0]]","10","0","","","","","","6","","","","","","","","",""
"","","","","","single-stim-button","212","450542","0.0-2.0-40.0-1.0","60ebd10c620f3e024c3a39a5","F1","batch6","","1569","tol_toboard","","","","tol_peg_3","1569","1569","0","[[1,2,0],[0,0],[3]]","1","[[2,0,0],[1,3],[0]]","10","0","","","","","","6","","","","","","","","",""
"","","","","","single-stim-button","213","451052","0.0-2.0-40.1-0.1","60ebd10c620f3e024c3a39a5","F1","batch6","","510","tol_tohand","","","","tol_peg_1","510","510","0","[[1,0,0],[0,0],[3]]","2","[[2,0,0],[1,3],[0]]","10","0","","","","","","6","","","","","","","","",""
"","","","","","single-stim-button","214","451629","0.0-2.0-40.1-1.1","60ebd10c620f3e024c3a39a5","F1","batch6","","577","tol_toboard","","","","tol_peg_2","577","577","0","[[1,0,0],[2,0],[3]]","2","[[2,0,0],[1,3],[0]]","10","0","","","","","","6","","","","","","","","",""
"","","","","","single-stim-button","215","453750","0.0-2.0-40.2-0.2","60ebd10c620f3e024c3a39a5","F1","batch6","","2120","tol_tohand","","","","tol_peg_3","2120","2120","0","[[1,0,0],[2,0],[0]]","3","[[2,0,0],[1,3],[0]]","10","0","","","","","","6","","","","","","","","",""
"","","","","","single-stim-button","216","454490","0.0-2.0-40.2-1.2","60ebd10c620f3e024c3a39a5","F1","batch6","","739","tol_toboard","","","","tol_peg_3","739","739","0","[[1,0,0],[2,0],[3]]","3","[[2,0,0],[1,3],[0]]","10","0","","","","","","6","","","","","","","","",""
"","","","","","single-stim-button","217","455976","0.0-2.0-40.3-0.3","60ebd10c620f3e024c3a39a5","F1","batch6","","1484","tol_tohand","","","","tol_peg_3","1484","1484","0","[[1,0,0],[2,0],[0]]","4","[[2,0,0],[1,3],[0]]","10","0","","","","","","6","","","","","","","","",""
"","","","","","single-stim-button","218","456616","0.0-2.0-40.3-1.3","60ebd10c620f3e024c3a39a5","F1","batch6","","640","tol_toboard","","","","tol_peg_1","640","640","0","[[1,3,0],[2,0],[0]]","4","[[2,0,0],[1,3],[0]]","10","0","","","","","","6","","","","","","","","",""
"","","","","","single-stim-button","219","457140","0.0-2.0-40.4-0.4","60ebd10c620f3e024c3a39a5","F1","batch6","","523","tol_tohand","","","","tol_peg_2","523","523","0","[[1,3,0],[0,0],[0]]","5","[[2,0,0],[1,3],[0]]","10","0","","","","","","6","","","","","","","","",""
"","","","","","single-stim-button","220","457736","0.0-2.0-40.4-1.4","60ebd10c620f3e024c3a39a5","F1","batch6","","595","tol_toboard","","","","tol_peg_3","595","595","0","[[1,3,0],[0,0],[2]]","5","[[2,0,0],[1,3],[0]]","10","0","","","","","","6","","","","","","","","",""
"","","","","","single-stim-button","221","458196","0.0-2.0-40.5-0.5","60ebd10c620f3e024c3a39a5","F1","batch6","","459","tol_tohand","","","","tol_peg_1","459","459","0","[[1,0,0],[0,0],[2]]","6","[[2,0,0],[1,3],[0]]","10","0","","","","","","6","","","","","","","","",""
"","","","","","single-stim-button","222","458800","0.0-2.0-40.5-1.5","60ebd10c620f3e024c3a39a5","F1","batch6","","604","tol_toboard","","","","tol_peg_2","604","604","0","[[1,0,0],[3,0],[2]]","6","[[2,0,0],[1,3],[0]]","10","0","","","","","","6","","","","","","","","",""
"","","","","","single-stim-button","223","459430","0.0-2.0-40.6-0.6","60ebd10c620f3e024c3a39a5","F1","batch6","","629","tol_tohand","","","","tol_peg_3","629","629","0","[[1,0,0],[3,0],[0]]","7","[[2,0,0],[1,3],[0]]","10","0","","","","","","6","","","","","","","","",""
"","","","","","single-stim-button","224","461162","0.0-2.0-40.6-1.6","60ebd10c620f3e024c3a39a5","F1","batch6","","1731","tol_toboard","","","","tol_peg_3","1731","1731","0","[[1,0,0],[3,0],[2]]","7","[[2,0,0],[1,3],[0]]","10","0","","","","","","6","","","","","","","","",""
"","","","","","single-stim-button","225","461886","0.0-2.0-40.7-0.7","60ebd10c620f3e024c3a39a5","F1","batch6","","723","tol_tohand","","","","tol_peg_1","723","723","0","[[0,0,0],[3,0],[2]]","8","[[2,0,0],[1,3],[0]]","10","0","","","","","","6","","","","","","","","",""
"","","","","","single-stim-button","226","462336","0.0-2.0-40.7-1.7","60ebd10c620f3e024c3a39a5","F1","batch6","","449","tol_toboard","","","","tol_peg_2","449","449","0","[[0,0,0],[3,1],[2]]","8","[[2,0,0],[1,3],[0]]","10","0","","","","","","6","","","","","","","","",""
"","","","","","single-stim-button","227","462753","0.0-2.0-40.8-0.8","60ebd10c620f3e024c3a39a5","F1","batch6","","416","tol_tohand","","","","tol_peg_3","416","416","0","[[0,0,0],[3,1],[0]]","9","[[2,0,0],[1,3],[0]]","10","0","","","","","","6","","","","","","","","",""
"","","","","","single-stim-button","228","463442","0.0-2.0-40.8-1.8","60ebd10c620f3e024c3a39a5","F1","batch6","","688","tol_toboard","","","","tol_peg_1","688","688","0","[[2,0,0],[3,1],[0]]","9","[[2,0,0],[1,3],[0]]","10","0","","","","","","6","","","","","","","","",""
"","","","","","single-stim-button","229","464290","0.0-2.0-40.9-0.9","60ebd10c620f3e024c3a39a5","F1","batch6","","848","tol_tohand","","","","tol_peg_2","848","848","0","[[2,0,0],[3,0],[0]]","10","[[2,0,0],[1,3],[0]]","10","0","","","","","","6","","","","","","","","",""
"","","","","","single-stim-button","230","465472","0.0-2.0-40.9-1.9","60ebd10c620f3e024c3a39a5","F1","batch6","","1182","tol_toboard","","","","tol_peg_3","1182","1182","0","[[2,0,0],[3,0],[1]]","10","[[2,0,0],[1,3],[0]]","10","0","","","","","","6","","","","","","","","",""
"","","","","","single-stim-button","231","465972","0.0-2.0-40.10-0.10","60ebd10c620f3e024c3a39a5","F1","batch6","","500","tol_tohand","","","","tol_peg_2","500","500","0","[[2,0,0],[0,0],[1]]","11","[[2,0,0],[1,3],[0]]","10","0","","","","","","6","","","","","","","","",""
"","","","","","single-stim-button","232","466564","0.0-2.0-40.10-1.10","60ebd10c620f3e024c3a39a5","F1","batch6","","591","tol_toboard","","","","tol_peg_1","591","591","0","[[2,3,0],[0,0],[1]]","11","[[2,0,0],[1,3],[0]]","10","0","","","","","","6","","","","","","","","",""
"","","","","","single-stim-button","233","467028","0.0-2.0-40.11-0.11","60ebd10c620f3e024c3a39a5","F1","batch6","","463","tol_tohand","","","","tol_peg_3","463","463","0","[[2,3,0],[0,0],[0]]","12","[[2,0,0],[1,3],[0]]","10","0","","","","","","6","","","","","","","","",""
"","","","","","single-stim-button","234","467406","0.0-2.0-40.11-1.11","60ebd10c620f3e024c3a39a5","F1","batch6","","378","tol_toboard","","","","tol_peg_2","378","378","0","[[2,3,0],[1,0],[0]]","12","[[2,0,0],[1,3],[0]]","10","0","","","","","","6","","","","","","","","",""
"","","","","","single-stim-button","235","467845","0.0-2.0-40.12-0.12","60ebd10c620f3e024c3a39a5","F1","batch6","","438","tol_tohand","","","","tol_peg_1","438","438","0","[[2,0,0],[1,0],[0]]","13","[[2,0,0],[1,3],[0]]","10","0","","","","","","6","","","","","","","","",""
"","","","","","single-stim-button","236","468362","0.0-2.0-40.12-1.12","60ebd10c620f3e024c3a39a5","F1","batch6","","515","tol_toboard","","","","tol_peg_2","515","515","0","[[2,0,0],[1,3],[0]]","13","[[2,0,0],[1,3],[0]]","10","0","","","","","","6","","","","","","","","",""
"","","","","","poldrack-single-stim","237","469363","0.0-2.0-41.0","60ebd10c620f3e024c3a39a5","F1","batch6","","-1","tol_feedback","","","true","","1000","1000","500","","","","","","-1","none","true","10205","19318","","","","","","","","","",""
"","","","","","html-button-response","238","470712","0.0-2.0-42.0","60ebd10c620f3e024c3a39a5","F1","batch6","","1348.800000000745","tol_trial_num","<div class = centerbox><p class = center-block-text>problem <strong>12</strong> out of 25 problems</p></div>","0","","","","","","","","","","","","","","","","","","","","","","","","",""
"","","","","","single-stim-button","239","484589","0.0-2.0-43.0-0.0","60ebd10c620f3e024c3a39a5","F1","batch6","","13876","tol_tohand","","","","tol_peg_1","13876","13876","0","[[1,0,0],[3,0],[0]]","1","[[2,3,0],[0,0],[1]]","11","0","","","","","","4","","","","","","","","",""
"","","","","","single-stim-button","240","485216","0.0-2.0-43.0-1.0","60ebd10c620f3e024c3a39a5","F1","batch6","","627","tol_toboard","","","","tol_peg_3","627","627","0","[[1,0,0],[3,0],[2]]","1","[[2,3,0],[0,0],[1]]","11","0","","","","","","4","","","","","","","","",""
"","","","","","single-stim-button","241","486211","0.0-2.0-43.1-0.1","60ebd10c620f3e024c3a39a5","F1","batch6","","994","tol_tohand","","","","tol_peg_1","994","994","0","[[0,0,0],[3,0],[2]]","2","[[2,3,0],[0,0],[1]]","11","0","","","","","","4","","","","","","","","",""
"","","","","","single-stim-button","242","486589","0.0-2.0-43.1-1.1","60ebd10c620f3e024c3a39a5","F1","batch6","","377","tol_toboard","","","","tol_peg_2","377","377","0","[[0,0,0],[3,1],[2]]","2","[[2,3,0],[0,0],[1]]","11","0","","","","","","4","","","","","","","","",""
"","","","","","single-stim-button","243","487143","0.0-2.0-43.2-0.2","60ebd10c620f3e024c3a39a5","F1","batch6","","554","tol_tohand","","","","tol_peg_3","554","554","0","[[0,0,0],[3,1],[0]]","3","[[2,3,0],[0,0],[1]]","11","0","","","","","","4","","","","","","","","",""
"","","","","","single-stim-button","244","487788","0.0-2.0-43.2-1.2","60ebd10c620f3e024c3a39a5","F1","batch6","","645","tol_toboard","","","","tol_peg_1","645","645","0","[[2,0,0],[3,1],[0]]","3","[[2,3,0],[0,0],[1]]","11","0","","","","","","4","","","","","","","","",""
"","","","","","single-stim-button","245","489343","0.0-2.0-43.3-0.3","60ebd10c620f3e024c3a39a5","F1","batch6","","1554","tol_tohand","","","","tol_peg_2","1554","1554","0","[[2,0,0],[3,0],[0]]","4","[[2,3,0],[0,0],[1]]","11","0","","","","","","4","","","","","","","","",""
"","","","","","single-stim-button","246","489941","0.0-2.0-43.3-1.3","60ebd10c620f3e024c3a39a5","F1","batch6","","597","tol_toboard","","","","tol_peg_3","597","597","0","[[2,0,0],[3,0],[1]]","4","[[2,3,0],[0,0],[1]]","11","0","","","","","","4","","","","","","","","",""
"","","","","","single-stim-button","247","490305","0.0-2.0-43.4-0.4","60ebd10c620f3e024c3a39a5","F1","batch6","","363","tol_tohand","","","","tol_peg_2","363","363","0","[[2,0,0],[0,0],[1]]","5","[[2,3,0],[0,0],[1]]","11","0","","","","","","4","","","","","","","","",""
"","","","","","single-stim-button","248","490679","0.0-2.0-43.4-1.4","60ebd10c620f3e024c3a39a5","F1","batch6","","373","tol_toboard","","","","tol_peg_1","373","373","0","[[2,3,0],[0,0],[1]]","5","[[2,3,0],[0,0],[1]]","11","0","","","","","","4","","","","","","","","",""
"","","","","","poldrack-single-stim","249","491689","0.0-2.0-44.0","60ebd10c620f3e024c3a39a5","F1","batch6","","-1","tol_feedback","","","true","","1000","1000","500","","","","","","-1","none","true","13876","17341","","","","","","","","","",""
"","","","","","html-button-response","250","492579","0.0-2.0-45.0","60ebd10c620f3e024c3a39a5","F1","batch6","","888.6999999992549","tol_trial_num","<div class = centerbox><p class = center-block-text>problem <strong>13</strong> out of 25 problems</p></div>","0","","","","","","","","","","","","","","","","","","","","","","","","",""
"","","","","","single-stim-button","251","499361","0.0-2.0-46.0-0.0","60ebd10c620f3e024c3a39a5","F1","batch6","","6781","tol_tohand","","","","tol_peg_1","6781","6781","0","[[1,0,0],[3,0],[0]]","1","[[0,0,0],[2,3],[1]]","12","0","","","","","","4","","","","","","","","",""
"","","","","","single-stim-button","252","500162","0.0-2.0-46.0-1.0","60ebd10c620f3e024c3a39a5","F1","batch6","","801","tol_toboard","","","","tol_peg_2","801","801","0","[[1,0,0],[3,2],[0]]","1","[[0,0,0],[2,3],[1]]","12","0","","","","","","4","","","","","","","","",""
"","","","","","single-stim-button","253","504001","0.0-2.0-46.1-0.1","60ebd10c620f3e024c3a39a5","F1","batch6","","3838","tol_tohand","","","","tol_peg_1","3838","3838","0","[[0,0,0],[3,2],[0]]","2","[[0,0,0],[2,3],[1]]","12","0","","","","","","4","","","","","","","","",""
"","","","","","single-stim-button","254","504551","0.0-2.0-46.1-1.1","60ebd10c620f3e024c3a39a5","F1","batch6","","550","tol_toboard","","","","tol_peg_3","550","550","0","[[0,0,0],[3,2],[1]]","2","[[0,0,0],[2,3],[1]]","12","0","","","","","","4","","","","","","","","",""
"","","","","","single-stim-button","255","506394","0.0-2.0-46.2-0.2","60ebd10c620f3e024c3a39a5","F1","batch6","","1843","tol_tohand","","","","tol_peg_2","1843","1843","0","[[0,0,0],[3,0],[1]]","3","[[0,0,0],[2,3],[1]]","12","0","","","","","","4","","","","","","","","",""
"","","","","","single-stim-button","256","511667","0.0-2.0-46.2-1.2","60ebd10c620f3e024c3a39a5","F1","batch6","","5272","tol_toboard","","","","tol_peg_2","5272","5272","0","[[0,0,0],[3,2],[1]]","3","[[0,0,0],[2,3],[1]]","12","0","","","","","","4","","","","","","","","",""
"","","","","","single-stim-button","257","512249","0.0-2.0-46.3-0.3","60ebd10c620f3e024c3a39a5","F1","batch6","","581","tol_tohand","","","","tol_peg_3","581","581","0","[[0,0,0],[3,2],[0]]","4","[[0,0,0],[2,3],[1]]","12","0","","","","","","4","","","","","","","","",""
"","","","","","single-stim-button","258","513043","0.0-2.0-46.3-1.3","60ebd10c620f3e024c3a39a5","F1","batch6","","793","tol_toboard","","","","tol_peg_1","793","793","0","[[1,0,0],[3,2],[0]]","4","[[0,0,0],[2,3],[1]]","12","0","","","","","","4","","","","","","","","",""
"","","","","","single-stim-button","259","513483","0.0-2.0-46.4-0.4","60ebd10c620f3e024c3a39a5","F1","batch6","","440","tol_tohand","","","","tol_peg_2","440","440","0","[[1,0,0],[3,0],[0]]","5","[[0,0,0],[2,3],[1]]","12","0","","","","","","4","","","","","","","","",""
"","","","","","single-stim-button","260","514099","0.0-2.0-46.4-1.4","60ebd10c620f3e024c3a39a5","F1","batch6","","615","tol_toboard","","","","tol_peg_3","615","615","0","[[1,0,0],[3,0],[2]]","5","[[0,0,0],[2,3],[1]]","12","0","","","","","","4","","","","","","","","",""
"","","","","","single-stim-button","261","514823","0.0-2.0-46.5-0.5","60ebd10c620f3e024c3a39a5","F1","batch6","","724","tol_tohand","","","","tol_peg_2","724","724","0","[[1,0,0],[0,0],[2]]","6","[[0,0,0],[2,3],[1]]","12","0","","","","","","4","","","","","","","","",""
"","","","","","single-stim-button","262","515352","0.0-2.0-46.5-1.5","60ebd10c620f3e024c3a39a5","F1","batch6","","529","tol_toboard","","","","tol_peg_1","529","529","0","[[1,3,0],[0,0],[2]]","6","[[0,0,0],[2,3],[1]]","12","0","","","","","","4","","","","","","","","",""
"","","","","","single-stim-button","263","516242","0.0-2.0-46.6-0.6","60ebd10c620f3e024c3a39a5","F1","batch6","","890","tol_tohand","","","","tol_peg_3","890","890","0","[[1,3,0],[0,0],[0]]","7","[[0,0,0],[2,3],[1]]","12","0","","","","","","4","","","","","","","","",""
"","","","","","single-stim-button","264","516780","0.0-2.0-46.6-1.6","60ebd10c620f3e024c3a39a5","F1","batch6","","538","tol_toboard","","","","tol_peg_2","538","538","0","[[1,3,0],[2,0],[0]]","7","[[0,0,0],[2,3],[1]]","12","0","","","","","","4","","","","","","","","",""
"","","","","","single-stim-button","265","517259","0.0-2.0-46.7-0.7","60ebd10c620f3e024c3a39a5","F1","batch6","","479","tol_tohand","","","","tol_peg_1","479","479","0","[[1,0,0],[2,0],[0]]","8","[[0,0,0],[2,3],[1]]","12","0","","","","","","4","","","","","","","","",""
"","","","","","single-stim-button","266","517753","0.0-2.0-46.7-1.7","60ebd10c620f3e024c3a39a5","F1","batch6","","493","tol_toboard","","","","tol_peg_2","493","493","0","[[1,0,0],[2,3],[0]]","8","[[0,0,0],[2,3],[1]]","12","0","","","","","","4","","","","","","","","",""
"","","","","","single-stim-button","267","518225","0.0-2.0-46.8-0.8","60ebd10c620f3e024c3a39a5","F1","batch6","","471","tol_tohand","","","","tol_peg_1","471","471","0","[[0,0,0],[2,3],[0]]","9","[[0,0,0],[2,3],[1]]","12","0","","","","","","4","","","","","","","","",""
"","","","","","single-stim-button","268","519483","0.0-2.0-46.8-1.8","60ebd10c620f3e024c3a39a5","F1","batch6","","1257","tol_toboard","","","","tol_peg_3","1257","1257","0","[[0,0,0],[2,3],[1]]","9","[[0,0,0],[2,3],[1]]","12","0","","","","","","4","","","","","","","","",""
"","","","","","poldrack-single-stim","269","520492","0.0-2.0-47.0","60ebd10c620f3e024c3a39a5","F1","batch6","","-1","tol_feedback","","","true","","1000","1000","500","","","","","","-1","none","true","6781","16047","","","","","","","","","",""
"","","","","","html-button-response","270","528113","0.0-2.0-48.0","60ebd10c620f3e024c3a39a5","F1","batch6","","7619.5999999996275","attention_check","<p class = block-text>How many balls are in your board<br></p>","1","true","","","","","","","","","","","","","","","","","","","","","","","",""
"","","","","","html-button-response","271","528935","0.0-2.0-49.0","60ebd10c620f3e024c3a39a5","F1","batch6","","821","tol_trial_num","<div class = centerbox><p class = center-block-text>problem <strong>14</strong> out of 25 problems</p></div>","0","","","","","","","","","","","","","","","","","","","","","","","","",""
"","","","","","single-stim-button","272","533489","0.0-2.0-50.0-0.0","60ebd10c620f3e024c3a39a5","F1","batch6","","4553","tol_tohand","","","","tol_peg_1","4553","4553","0","[[2,0,0],[3,0],[0]]","1","[[1,2,0],[3,0],[0]]","13","0","","","","","","4","","","","","","","","",""
"","","","","","single-stim-button","273","534455","0.0-2.0-50.0-1.0","60ebd10c620f3e024c3a39a5","F1","batch6","","965","tol_toboard","","","","tol_peg_3","965","965","0","[[2,0,0],[3,0],[1]]","1","[[1,2,0],[3,0],[0]]","13","0","","","","","","4","","","","","","","","",""
"","","","","","single-stim-button","274","534845","0.0-2.0-50.1-0.1","60ebd10c620f3e024c3a39a5","F1","batch6","","389","tol_tohand","","","","tol_peg_1","389","389","0","[[0,0,0],[3,0],[1]]","2","[[1,2,0],[3,0],[0]]","13","0","","","","","","4","","","","","","","","",""
"","","","","","single-stim-button","275","535383","0.0-2.0-50.1-1.1","60ebd10c620f3e024c3a39a5","F1","batch6","","537","tol_toboard","","","","tol_peg_2","537","537","0","[[0,0,0],[3,2],[1]]","2","[[1,2,0],[3,0],[0]]","13","0","","","","","","4","","","","","","","","",""
"","","","","","single-stim-button","276","535891","0.0-2.0-50.2-0.2","60ebd10c620f3e024c3a39a5","F1","batch6","","507","tol_tohand","","","","tol_peg_3","507","507","0","[[0,0,0],[3,2],[0]]","3","[[1,2,0],[3,0],[0]]","13","0","","","","","","4","","","","","","","","",""
"","","","","","single-stim-button","277","536443","0.0-2.0-50.2-1.2","60ebd10c620f3e024c3a39a5","F1","batch6","","551","tol_toboard","","","","tol_peg_1","551","551","0","[[1,0,0],[3,2],[0]]","3","[[1,2,0],[3,0],[0]]","13","0","","","","","","4","","","","","","","","",""
"","","","","","single-stim-button","278","536990","0.0-2.0-50.3-0.3","60ebd10c620f3e024c3a39a5","F1","batch6","","547","tol_tohand","","","","tol_peg_2","547","547","0","[[1,0,0],[3,0],[0]]","4","[[1,2,0],[3,0],[0]]","13","0","","","","","","4","","","","","","","","",""
"","","","","","single-stim-button","279","537542","0.0-2.0-50.3-1.3","60ebd10c620f3e024c3a39a5","F1","batch6","","552","tol_toboard","","","","tol_peg_1","552","552","0","[[1,2,0],[3,0],[0]]","4","[[1,2,0],[3,0],[0]]","13","0","","","","","","4","","","","","","","","",""
"","","","","","poldrack-single-stim","280","538549","0.0-2.0-51.0","60ebd10c620f3e024c3a39a5","F1","batch6","","-1","tol_feedback","","","true","","1000","1000","500","","","","","","-1","none","true","4553","5996","","","","","","","","","",""
"","","","","","html-button-response","281","539398","0.0-2.0-52.0","60ebd10c620f3e024c3a39a5","F1","batch6","","848.3000000007451","tol_trial_num","<div class = centerbox><p class = center-block-text>problem <strong>15</strong> out of 25 problems</p></div>","0","","","","","","","","","","","","","","","","","","","","","","","","",""
"","","","","","single-stim-button","282","542315","0.0-2.0-53.0-0.0","60ebd10c620f3e024c3a39a5","F1","batch6","","2915","tol_tohand","","","","tol_peg_1","2915","2915","0","[[1,0,0],[3,0],[0]]","1","[[2,0,0],[3,0],[1]]","14","0","","","","","","3","","","","","","","","",""
"","","","","","single-stim-button","283","542927","0.0-2.0-53.0-1.0","60ebd10c620f3e024c3a39a5","F1","batch6","","611","tol_toboard","","","","tol_peg_3","611","611","0","[[1,0,0],[3,0],[2]]","1","[[2,0,0],[3,0],[1]]","14","0","","","","","","3","","","","","","","","",""
"","","","","","single-stim-button","284","543476","0.0-2.0-53.1-0.1","60ebd10c620f3e024c3a39a5","F1","batch6","","549","tol_tohand","","","","tol_peg_1","549","549","0","[[0,0,0],[3,0],[2]]","2","[[2,0,0],[3,0],[1]]","14","0","","","","","","3","","","","","","","","",""
"","","","","","single-stim-button","285","544058","0.0-2.0-53.1-1.1","60ebd10c620f3e024c3a39a5","F1","batch6","","581","tol_toboard","","","","tol_peg_2","581","581","0","[[0,0,0],[3,1],[2]]","2","[[2,0,0],[3,0],[1]]","14","0","","","","","","3","","","","","","","","",""
"","","","","","single-stim-button","286","544439","0.0-2.0-53.2-0.2","60ebd10c620f3e024c3a39a5","F1","batch6","","380","tol_tohand","","","","tol_peg_3","380","380","0","[[0,0,0],[3,1],[0]]","3","[[2,0,0],[3,0],[1]]","14","0","","","","","","3","","","","","","","","",""
"","","","","","single-stim-button","287","545063","0.0-2.0-53.2-1.2","60ebd10c620f3e024c3a39a5","F1","batch6","","623","tol_toboard","","","","tol_peg_1","623","623","0","[[2,0,0],[3,1],[0]]","3","[[2,0,0],[3,0],[1]]","14","0","","","","","","3","","","","","","","","",""
"","","","","","single-stim-button","288","545471","0.0-2.0-53.3-0.3","60ebd10c620f3e024c3a39a5","F1","batch6","","407","tol_tohand","","","","tol_peg_2","407","407","0","[[2,0,0],[3,0],[0]]","4","[[2,0,0],[3,0],[1]]","14","0","","","","","","3","","","","","","","","",""
"","","","","","single-stim-button","289","545973","0.0-2.0-53.3-1.3","60ebd10c620f3e024c3a39a5","F1","batch6","","501","tol_toboard","","","","tol_peg_3","501","501","0","[[2,0,0],[3,0],[1]]","4","[[2,0,0],[3,0],[1]]","14","0","","","","","","3","","","","","","","","",""
"","","","","","poldrack-single-stim","290","546979","0.0-2.0-54.0","60ebd10c620f3e024c3a39a5","F1","batch6","","-1","tol_feedback","","","true","","1000","1000","500","","","","","","-1","none","true","2915","4251","","","","","","","","","",""
"","","","","","html-button-response","291","547849","0.0-2.0-55.0","60ebd10c620f3e024c3a39a5","F1","batch6","","868.4000000003725","tol_trial_num","<div class = centerbox><p class = center-block-text>problem <strong>16</strong> out of 25 problems</p></div>","0","","","","","","","","","","","","","","","","","","","","","","","","",""
"","","","","","single-stim-button","292","555588","0.0-2.0-56.0-0.0","60ebd10c620f3e024c3a39a5","F1","batch6","","7739","tol_tohand","","","","tol_peg_3","7739","7739","0","[[0,0,0],[2,3],[0]]","1","[[2,3,0],[1,0],[0]]","15","0","","","","","","7","","","","","","","","",""
"","","","","","single-stim-button","293","556657","0.0-2.0-56.0-1.0","60ebd10c620f3e024c3a39a5","F1","batch6","","1067","tol_toboard","","","","tol_peg_1","1067","1067","0","[[1,0,0],[2,3],[0]]","1","[[2,3,0],[1,0],[0]]","15","0","","","","","","7","","","","","","","","",""
"","","","","","single-stim-button","294","557056","0.0-2.0-56.1-0.1","60ebd10c620f3e024c3a39a5","F1","batch6","","399","tol_tohand","","","","tol_peg_2","399","399","0","[[1,0,0],[2,0],[0]]","2","[[2,3,0],[1,0],[0]]","15","0","","","","","","7","","","","","","","","",""
"","","","","","single-stim-button","295","557455","0.0-2.0-56.1-1.1","60ebd10c620f3e024c3a39a5","F1","batch6","","398","tol_toboard","","","","tol_peg_1","398","398","0","[[1,3,0],[2,0],[0]]","2","[[2,3,0],[1,0],[0]]","15","0","","","","","","7","","","","","","","","",""
"","","","","","single-stim-button","296","557839","0.0-2.0-56.2-0.2","60ebd10c620f3e024c3a39a5","F1","batch6","","383","tol_tohand","","","","tol_peg_2","383","383","0","[[1,3,0],[0,0],[0]]","3","[[2,3,0],[1,0],[0]]","15","0","","","","","","7","","","","","","","","",""
"","","","","","single-stim-button","297","558481","0.0-2.0-56.2-1.2","60ebd10c620f3e024c3a39a5","F1","batch6","","641","tol_toboard","","","","tol_peg_3","641","641","0","[[1,3,0],[0,0],[2]]","3","[[2,3,0],[1,0],[0]]","15","0","","","","","","7","","","","","","","","",""
"","","","","","single-stim-button","298","561048","0.0-2.0-56.3-0.3","60ebd10c620f3e024c3a39a5","F1","batch6","","2567","tol_tohand","","","","tol_peg_1","2567","2567","0","[[1,0,0],[0,0],[2]]","4","[[2,3,0],[1,0],[0]]","15","0","","","","","","7","","","","","","","","",""
"","","","","","single-stim-button","299","561434","0.0-2.0-56.3-1.3","60ebd10c620f3e024c3a39a5","F1","batch6","","385","tol_toboard","","","","tol_peg_2","385","385","0","[[1,0,0],[3,0],[2]]","4","[[2,3,0],[1,0],[0]]","15","0","","","","","","7","","","","","","","","",""
"","","","","","single-stim-button","300","561843","0.0-2.0-56.4-0.4","60ebd10c620f3e024c3a39a5","F1","batch6","","407","tol_tohand","","","","tol_peg_1","407","407","0","[[0,0,0],[3,0],[2]]","5","[[2,3,0],[1,0],[0]]","15","0","","","","","","7","","","","","","","","",""
"","","","","","single-stim-button","301","562190","0.0-2.0-56.4-1.4","60ebd10c620f3e024c3a39a5","F1","batch6","","347","tol_toboard","","","","tol_peg_2","347","347","0","[[0,0,0],[3,1],[2]]","5","[[2,3,0],[1,0],[0]]","15","0","","","","","","7","","","","","","","","",""
"","","","","","single-stim-button","302","562752","0.0-2.0-56.5-0.5","60ebd10c620f3e024c3a39a5","F1","batch6","","562","tol_tohand","","","","tol_peg_3","562","562","0","[[0,0,0],[3,1],[0]]","6","[[2,3,0],[1,0],[0]]","15","0","","","","","","7","","","","","","","","",""
"","","","","","single-stim-button","303","563427","0.0-2.0-56.5-1.5","60ebd10c620f3e024c3a39a5","F1","batch6","","674","tol_toboard","","","","tol_peg_1","674","674","0","[[2,0,0],[3,1],[0]]","6","[[2,3,0],[1,0],[0]]","15","0","","","","","","7","","","","","","","","",""
"","","","","","single-stim-button","304","563916","0.0-2.0-56.6-0.6","60ebd10c620f3e024c3a39a5","F1","batch6","","489","tol_tohand","","","","tol_peg_2","489","489","0","[[2,0,0],[3,0],[0]]","7","[[2,3,0],[1,0],[0]]","15","0","","","","","","7","","","","","","","","",""
"","","","","","single-stim-button","305","564346","0.0-2.0-56.6-1.6","60ebd10c620f3e024c3a39a5","F1","batch6","","430","tol_toboard","","","","tol_peg_3","430","430","0","[[2,0,0],[3,0],[1]]","7","[[2,3,0],[1,0],[0]]","15","0","","","","","","7","","","","","","","","",""
"","","","","","single-stim-button","306","564852","0.0-2.0-56.7-0.7","60ebd10c620f3e024c3a39a5","F1","batch6","","506","tol_tohand","","","","tol_peg_2","506","506","0","[[2,0,0],[0,0],[1]]","8","[[2,3,0],[1,0],[0]]","15","0","","","","","","7","","","","","","","","",""
"","","","","","single-stim-button","307","565171","0.0-2.0-56.7-1.7","60ebd10c620f3e024c3a39a5","F1","batch6","","318","tol_toboard","","","","tol_peg_1","318","318","0","[[2,3,0],[0,0],[1]]","8","[[2,3,0],[1,0],[0]]","15","0","","","","","","7","","","","","","","","",""
"","","","","","single-stim-button","308","567753","0.0-2.0-56.8-0.8","60ebd10c620f3e024c3a39a5","F1","batch6","","2581","tol_tohand","","","","tol_peg_3","2581","2581","0","[[2,3,0],[0,0],[0]]","9","[[2,3,0],[1,0],[0]]","15","0","","","","","","7","","","","","","","","",""
"","","","","","single-stim-button","309","568298","0.0-2.0-56.8-1.8","60ebd10c620f3e024c3a39a5","F1","batch6","","545","tol_toboard","","","","tol_peg_2","545","545","0","[[2,3,0],[1,0],[0]]","9","[[2,3,0],[1,0],[0]]","15","0","","","","","","7","","","","","","","","",""
"","","","","","poldrack-single-stim","310","569307","0.0-2.0-57.0","60ebd10c620f3e024c3a39a5","F1","batch6","","-1","tol_feedback","","","true","","1000","1000","500","","","","","","-1","none","true","7739","15633","","","","","","","","","",""
"","","","","","html-button-response","311","570298","0.0-2.0-58.0","60ebd10c620f3e024c3a39a5","F1","batch6","","990.3000000007451","tol_trial_num","<div class = centerbox><p class = center-block-text>problem <strong>17</strong> out of 25 problems</p></div>","0","","","","","","","","","","","","","","","","","","","","","","","","",""
"","","","","","single-stim-button","312","575757","0.0-2.0-59.0-0.0","60ebd10c620f3e024c3a39a5","F1","batch6","","5458","tol_tohand","","","","tol_peg_2","5458","5458","0","[[1,2,0],[0,0],[0]]","1","[[3,1,0],[2,0],[0]]","16","0","","","","","","5","","","","","","","","",""
"","","","","","single-stim-button","313","576424","0.0-2.0-59.0-1.0","60ebd10c620f3e024c3a39a5","F1","batch6","","667","tol_toboard","","","","tol_peg_3","667","667","0","[[1,2,0],[0,0],[3]]","1","[[3,1,0],[2,0],[0]]","16","0","","","","","","5","","","","","","","","",""
"","","","","","single-stim-button","314","577153","0.0-2.0-59.1-0.1","60ebd10c620f3e024c3a39a5","F1","batch6","","729","tol_tohand","","","","tol_peg_1","729","729","0","[[1,0,0],[0,0],[3]]","2","[[3,1,0],[2,0],[0]]","16","0","","","","","","5","","","","","","","","",""
"","","","","","single-stim-button","315","577548","0.0-2.0-59.1-1.1","60ebd10c620f3e024c3a39a5","F1","batch6","","395","tol_toboard","","","","tol_peg_2","395","395","0","[[1,0,0],[2,0],[3]]","2","[[3,1,0],[2,0],[0]]","16","0","","","","","","5","","","","","","","","",""
"","","","","","single-stim-button","316","578276","0.0-2.0-59.2-0.2","60ebd10c620f3e024c3a39a5","F1","batch6","","728","tol_tohand","","","","tol_peg_1","728","728","0","[[0,0,0],[2,0],[3]]","3","[[3,1,0],[2,0],[0]]","16","0","","","","","","5","","","","","","","","",""
"","","","","","single-stim-button","317","578727","0.0-2.0-59.2-1.2","60ebd10c620f3e024c3a39a5","F1","batch6","","449","tol_toboard","","","","tol_peg_2","449","449","0","[[0,0,0],[2,1],[3]]","3","[[3,1,0],[2,0],[0]]","16","0","","","","","","5","","","","","","","","",""
"","","","","","single-stim-button","318","579146","0.0-2.0-59.3-0.3","60ebd10c620f3e024c3a39a5","F1","batch6","","419","tol_tohand","","","","tol_peg_3","419","419","0","[[0,0,0],[2,1],[0]]","4","[[3,1,0],[2,0],[0]]","16","0","","","","","","5","","","","","","","","",""
"","","","","","single-stim-button","319","579819","0.0-2.0-59.3-1.3","60ebd10c620f3e024c3a39a5","F1","batch6","","672","tol_toboard","","","","tol_peg_1","672","672","0","[[3,0,0],[2,1],[0]]","4","[[3,1,0],[2,0],[0]]","16","0","","","","","","5","","","","","","","","",""
"","","","","","single-stim-button","320","580206","0.0-2.0-59.4-0.4","60ebd10c620f3e024c3a39a5","F1","batch6","","387","tol_tohand","","","","tol_peg_2","387","387","0","[[3,0,0],[2,0],[0]]","5","[[3,1,0],[2,0],[0]]","16","0","","","","","","5","","","","","","","","",""
"","","","","","single-stim-button","321","580600","0.0-2.0-59.4-1.4","60ebd10c620f3e024c3a39a5","F1","batch6","","394","tol_toboard","","","","tol_peg_1","394","394","0","[[3,1,0],[2,0],[0]]","5","[[3,1,0],[2,0],[0]]","16","0","","","","","","5","","","","","","","","",""
"","","","","","poldrack-single-stim","322","581615","0.0-2.0-60.0","60ebd10c620f3e024c3a39a5","F1","batch6","","-1","tol_feedback","","","true","","1000","1000","500","","","","","","-1","none","true","5458","7721","","","","","","","","","",""
"","","","","","html-button-response","323","582254","0.0-2.0-61.0","60ebd10c620f3e024c3a39a5","F1","batch6","","638.5","tol_trial_num","<div class = centerbox><p class = center-block-text>problem <strong>18</strong> out of 25 problems</p></div>","0","","","","","","","","","","","","","","","","","","","","","","","","",""
"","","","","","single-stim-button","324","584439","0.0-2.0-62.0-0.0","60ebd10c620f3e024c3a39a5","F1","batch6","","2183","tol_tohand","","","","tol_peg_2","2183","2183","0","[[1,2,0],[0,0],[0]]","1","[[3,0,0],[2,0],[1]]","17","0","","","","","","5","","","","","","","","",""
"","","","","","single-stim-button","325","584928","0.0-2.0-62.0-1.0","60ebd10c620f3e024c3a39a5","F1","batch6","","489","tol_toboard","","","","tol_peg_3","489","489","0","[[1,2,0],[0,0],[3]]","1","[[3,0,0],[2,0],[1]]","17","0","","","","","","5","","","","","","","","",""
"","","","","","single-stim-button","326","586030","0.0-2.0-62.1-0.1","60ebd10c620f3e024c3a39a5","F1","batch6","","1102","tol_tohand","","","","tol_peg_1","1102","1102","0","[[1,0,0],[0,0],[3]]","2","[[3,0,0],[2,0],[1]]","17","0","","","","","","5","","","","","","","","",""
"","","","","","single-stim-button","327","587313","0.0-2.0-62.1-1.1","60ebd10c620f3e024c3a39a5","F1","batch6","","1282","tol_toboard","","","","tol_peg_2","1282","1282","0","[[1,0,0],[2,0],[3]]","2","[[3,0,0],[2,0],[1]]","17","0","","","","","","5","","","","","","","","",""
"","","","","","single-stim-button","328","588000","0.0-2.0-62.2-0.2","60ebd10c620f3e024c3a39a5","F1","batch6","","687","tol_tohand","","","","tol_peg_1","687","687","0","[[0,0,0],[2,0],[3]]","3","[[3,0,0],[2,0],[1]]","17","0","","","","","","5","","","","","","","","",""
"","","","","","single-stim-button","329","588349","0.0-2.0-62.2-1.2","60ebd10c620f3e024c3a39a5","F1","batch6","","349","tol_toboard","","","","tol_peg_2","349","349","0","[[0,0,0],[2,1],[3]]","3","[[3,0,0],[2,0],[1]]","17","0","","","","","","5","","","","","","","","",""
"","","","","","single-stim-button","330","588701","0.0-2.0-62.3-0.3","60ebd10c620f3e024c3a39a5","F1","batch6","","351","tol_tohand","","","","tol_peg_3","351","351","0","[[0,0,0],[2,1],[0]]","4","[[3,0,0],[2,0],[1]]","17","0","","","","","","5","","","","","","","","",""
"","","","","","single-stim-button","331","589400","0.0-2.0-62.3-1.3","60ebd10c620f3e024c3a39a5","F1","batch6","","699","tol_toboard","","","","tol_peg_1","699","699","0","[[3,0,0],[2,1],[0]]","4","[[3,0,0],[2,0],[1]]","17","0","","","","","","5","","","","","","","","",""
"","","","","","single-stim-button","332","589804","0.0-2.0-62.4-0.4","60ebd10c620f3e024c3a39a5","F1","batch6","","404","tol_tohand","","","","tol_peg_2","404","404","0","[[3,0,0],[2,0],[0]]","5","[[3,0,0],[2,0],[1]]","17","0","","","","","","5","","","","","","","","",""
"","","","","","single-stim-button","333","590234","0.0-2.0-62.4-1.4","60ebd10c620f3e024c3a39a5","F1","batch6","","430","tol_toboard","","","","tol_peg_3","430","430","0","[[3,0,0],[2,0],[1]]","5","[[3,0,0],[2,0],[1]]","17","0","","","","","","5","","","","","","","","",""
"","","","","","poldrack-single-stim","334","591246","0.0-2.0-63.0","60ebd10c620f3e024c3a39a5","F1","batch6","","-1","tol_feedback","","","true","","1000","1000","500","","","","","","-1","none","true","2183","4727","","","","","","","","","",""
"","","","","","html-button-response","335","591958","0.0-2.0-64.0","60ebd10c620f3e024c3a39a5","F1","batch6","","711.9000000003725","tol_trial_num","<div class = centerbox><p class = center-block-text>problem <strong>19</strong> out of 25 problems</p></div>","0","","","","","","","","","","","","","","","","","","","","","","","","",""
"","","","","","single-stim-button","336","596347","0.0-2.0-65.0-0.0","60ebd10c620f3e024c3a39a5","F1","batch6","","4388","tol_tohand","","","","tol_peg_1","4388","4388","0","[[1,0,0],[3,0],[0]]","1","[[0,0,0],[1,2],[3]]","18","0","","","","","","7","","","","","","","","",""
"","","","","","single-stim-button","337","596974","0.0-2.0-65.0-1.0","60ebd10c620f3e024c3a39a5","F1","batch6","","627","tol_toboard","","","","tol_peg_2","627","627","0","[[1,0,0],[3,2],[0]]","1","[[0,0,0],[1,2],[3]]","18","0","","","","","","7","","","","","","","","",""
"","","","","","single-stim-button","338","597382","0.0-2.0-65.1-0.1","60ebd10c620f3e024c3a39a5","F1","batch6","","408","tol_tohand","","","","tol_peg_1","408","408","0","[[0,0,0],[3,2],[0]]","2","[[0,0,0],[1,2],[3]]","18","0","","","","","","7","","","","","","","","",""
"","","","","","single-stim-button","339","598023","0.0-2.0-65.1-1.1","60ebd10c620f3e024c3a39a5","F1","batch6","","640","tol_toboard","","","","tol_peg_3","640","640","0","[[0,0,0],[3,2],[1]]","2","[[0,0,0],[1,2],[3]]","18","0","","","","","","7","","","","","","","","",""
"","","","","","single-stim-button","340","598533","0.0-2.0-65.2-0.2","60ebd10c620f3e024c3a39a5","F1","batch6","","510","tol_tohand","","","","tol_peg_2","510","510","0","[[0,0,0],[3,0],[1]]","3","[[0,0,0],[1,2],[3]]","18","0","","","","","","7","","","","","","","","",""
"","","","","","single-stim-button","341","599344","0.0-2.0-65.2-1.2","60ebd10c620f3e024c3a39a5","F1","batch6","","811","tol_toboard","","","","tol_peg_1","811","811","0","[[2,0,0],[3,0],[1]]","3","[[0,0,0],[1,2],[3]]","18","0","","","","","","7","","","","","","","","",""
"","","","","","single-stim-button","342","599759","0.0-2.0-65.3-0.3","60ebd10c620f3e024c3a39a5","F1","batch6","","413","tol_tohand","","","","tol_peg_2","413","413","0","[[2,0,0],[0,0],[1]]","4","[[0,0,0],[1,2],[3]]","18","0","","","","","","7","","","","","","","","",""
"","","","","","single-stim-button","343","600106","0.0-2.0-65.3-1.3","60ebd10c620f3e024c3a39a5","F1","batch6","","347","tol_toboard","","","","tol_peg_1","347","347","0","[[2,3,0],[0,0],[1]]","4","[[0,0,0],[1,2],[3]]","18","0","","","","","","7","","","","","","","","",""
"","","","","","single-stim-button","344","600612","0.0-2.0-65.4-0.4","60ebd10c620f3e024c3a39a5","F1","batch6","","506","tol_tohand","","","","tol_peg_3","506","506","0","[[2,3,0],[0,0],[0]]","5","[[0,0,0],[1,2],[3]]","18","0","","","","","","7","","","","","","","","",""
"","","","","","single-stim-button","345","600989","0.0-2.0-65.4-1.4","60ebd10c620f3e024c3a39a5","F1","batch6","","376","tol_toboard","","","","tol_peg_2","376","376","0","[[2,3,0],[1,0],[0]]","5","[[0,0,0],[1,2],[3]]","18","0","","","","","","7","","","","","","","","",""
"","","","","","single-stim-button","346","602427","0.0-2.0-65.5-0.5","60ebd10c620f3e024c3a39a5","F1","batch6","","1437","tol_tohand","","","","tol_peg_1","1437","1437","0","[[2,0,0],[1,0],[0]]","6","[[0,0,0],[1,2],[3]]","18","0","","","","","","7","","","","","","","","",""
"","","","","","single-stim-button","347","603656","0.0-2.0-65.5-1.5","60ebd10c620f3e024c3a39a5","F1","batch6","","1229","tol_toboard","","","","tol_peg_3","1229","1229","0","[[2,0,0],[1,0],[3]]","6","[[0,0,0],[1,2],[3]]","18","0","","","","","","7","","","","","","","","",""
"","","","","","single-stim-button","348","604260","0.0-2.0-65.6-0.6","60ebd10c620f3e024c3a39a5","F1","batch6","","604","tol_tohand","","","","tol_peg_1","604","604","0","[[0,0,0],[1,0],[3]]","7","[[0,0,0],[1,2],[3]]","18","0","","","","","","7","","","","","","","","",""
"","","","","","single-stim-button","349","604693","0.0-2.0-65.6-1.6","60ebd10c620f3e024c3a39a5","F1","batch6","","431","tol_toboard","","","","tol_peg_2","431","431","0","[[0,0,0],[1,2],[3]]","7","[[0,0,0],[1,2],[3]]","18","0","","","","","","7","","","","","","","","",""
"","","","","","poldrack-single-stim","350","605709","0.0-2.0-66.0","60ebd10c620f3e024c3a39a5","F1","batch6","","-1","tol_feedback","","","true","","1000","1000","500","","","","","","-1","none","true","4388","8266","","","","","","","","","",""
"","","","","","html-button-response","351","606383","0.0-2.0-67.0","60ebd10c620f3e024c3a39a5","F1","batch6","","672.3000000007451","tol_trial_num","<div class = centerbox><p class = center-block-text>problem <strong>20</strong> out of 25 problems</p></div>","0","","","","","","","","","","","","","","","","","","","","","","","","",""
"","","","","","single-stim-button","352","608712","0.0-2.0-68.0-0.0","60ebd10c620f3e024c3a39a5","F1","batch6","","2329","tol_tohand","","","","tol_peg_1","2329","2329","0","[[1,0,0],[3,0],[0]]","1","[[2,1,0],[0,0],[3]]","19","0","","","","","","5","","","","","","","","",""
"","","","","","single-stim-button","353","609551","0.0-2.0-68.0-1.0","60ebd10c620f3e024c3a39a5","F1","batch6","","838","tol_toboard","","","","tol_peg_3","838","838","0","[[1,0,0],[3,0],[2]]","1","[[2,1,0],[0,0],[3]]","19","0","","","","","","5","","","","","","","","",""
"","","","","","single-stim-button","354","610549","0.0-2.0-68.1-0.1","60ebd10c620f3e024c3a39a5","F1","batch6","","997","tol_tohand","","","","tol_peg_1","997","997","0","[[0,0,0],[3,0],[2]]","2","[[2,1,0],[0,0],[3]]","19","0","","","","","","5","","","","","","","","",""
