"success","timeout","failed_images","failed_audio","failed_video","trial_type","trial_index","time_elapsed","internal_node_id","subject_id","study_id","session_id","view_history","rt","stimulus","response","task","correct","answer","item","fiar_detect_rt","fiar_detect_correct","total_correct_fiar_detect","post_trial_gap","choices","mouse_click","stim_duration","block_duration","timing_post_trial","current_position","tol_num_moves_made","tol_target","tol_problem_id","tol_rt","key_press","possible_responses","tol_correct","preplanning","tol_rt_per_trial","tol_min_moves","spm_correct","spm_rt"
"true","false","[]","[]","[]","preload","0","3957","0.0-0.0","60f3c1b003bbf8263f002824","C3","batch3","","","","","","","","","","","","","","","","","","","","","","","","","","","","","",""
"true","","","","","fullscreen","1","54196","0.0-1.0-0.0","60f3c1b003bbf8263f002824","C3","batch3","","","","","","","","","","","","","","","","","","","","","","","","","","","","","",""
"true","","","","","fullscreen","2","66766","0.0-2.0-0.0","60f3c1b003bbf8263f002824","C3","batch3","","","","","","","","","","","","","","","","","","","","","","","","","","","","","",""
"","","","","","instructions","3","103305","0.0-2.0-1.0-0.0","60f3c1b003bbf8263f002824","C3","batch3","[{""page_index"":0,""viewing_time"":21837.200000047684},{""page_index"":1,""viewing_time"":14700}]","36537.60000002384","","","","","","","","","","","","","","","","","","","","","","","","","","","",""
"","","","","","html-button-response","4","105452","0.0-2.0-1.0-1.0-0.0","60f3c1b003bbf8263f002824","C3","batch3","","2145.399999976158","<p class=block-text> Let's answer a few questions <br>","0","pattern_enter_quiz","","","","","","","","","","","","","","","","","","","","","","","","",""
"","","","","","html-button-response","5","108628","0.0-2.0-1.0-1.0-1.0","60f3c1b003bbf8263f002824","C3","batch3","","3174.7000000476837","<p class = block-text>True or False: You will have as much time as you want to make each choice. <br></p>","1","pattern_quiz","true","","","","","","","","","","","","","","","","","","","","","","","",""
"","","","","","html-button-response","6","110373","0.0-2.0-1.0-1.0-2.0","60f3c1b003bbf8263f002824","C3","batch3","","1742.8999999761581","<p class = block-text>Correct! You should make your choice <strong> as fast as you can</strong>.</p>","0","pattern_quiz_feedback","","","","","","","","","","","","","","","","","","","","","","","","",""
"","","","","","html-button-response","7","118597","0.0-2.0-1.0-1.0-3.0","60f3c1b003bbf8263f002824","C3","batch3","","8222.700000047684","<p class = block-text>True or False: You will look for 4 pieces in black or white color connected in a row either horizontally, vertically or diagonally. <br></p>","0","pattern_quiz","true","","","","","","","","","","","","","","","","","","","","","","","",""
"","","","","","html-button-response","8","120136","0.0-2.0-1.0-1.0-4.0","60f3c1b003bbf8263f002824","C3","batch3","","1536.7000000476837","<p class = block-text>Correct! </p>","0","pattern_quiz_feedback","","","","","","","","","","","","","","","","","","","","","","","","",""
"","","","","","html-button-response","9","128457","0.0-2.0-2.0","60f3c1b003bbf8263f002824","C3","batch3","","8319.099999904633","<p class=block-text> Now that you've understood the game, let's do a few practice trials before we start!<br> <br>","0","pattern_enter_practice","","","","","","","","","","","","","","","","","","","","","","","","",""
"","","","","","image-keyboard-response","10","129595","0.0-2.0-3.0-0.0","60f3c1b003bbf8263f002824","C3","batch3","","1135.3999999761581","stim/prac_yes_20_dia_b1.png","j","pattern_practice","false","f","","","","","","","","","","","","","","","","","","","","","","",""
"","","","","","html-keyboard-response","11","130613","0.0-2.0-3.0-1.0","60f3c1b003bbf8263f002824","C3","batch3","","null","<p style=""font-size:30px;color:red;"">Wrong.</p>","null","pattern_feedback","","","","","","","","","","","","","","","","","","","","","","","","",""
"","","","","","image-keyboard-response","12","132795","0.0-2.0-3.0-0.1","60f3c1b003bbf8263f002824","C3","batch3","","2180.399999976158","stim/prac_no_16_1.png","j","pattern_practice","true","j","","","","","","","","","","","","","","","","","","","","","","",""
"","","","","","html-keyboard-response","13","133813","0.0-2.0-3.0-1.1","60f3c1b003bbf8263f002824","C3","batch3","","null","<p style=""font-size:30px;color:green;"">Correct!</p>","null","pattern_feedback","","","","","","","","","","","","","","","","","","","","","","","","",""
"","","","","","image-keyboard-response","14","134785","0.0-2.0-3.0-0.2","60f3c1b003bbf8263f002824","C3","batch3","","971.3999999761581","stim/prac_yes_16_ver_w1.png","f","pattern_practice","true","f","","","","","","","","","","","","","","","","","","","","","","",""
"","","","","","html-keyboard-response","15","135805","0.0-2.0-3.0-1.2","60f3c1b003bbf8263f002824","C3","batch3","","null","<p style=""font-size:30px;color:green;"">Correct!</p>","null","pattern_feedback","","","","","","","","","","","","","","","","","","","","","","","","",""
"","","","","","image-keyboard-response","16","136687","0.0-2.0-3.0-0.3","60f3c1b003bbf8263f002824","C3","batch3","","881","stim/prac_yes_18_hor_w1.png","f","pattern_practice","true","f","","","","","","","","","","","","","","","","","","","","","","",""
"","","","","","html-keyboard-response","17","137708","0.0-2.0-3.0-1.3","60f3c1b003bbf8263f002824","C3","batch3","","null","<p style=""font-size:30px;color:green;"">Correct!</p>","null","pattern_feedback","","","","","","","","","","","","","","","","","","","","","","","","",""
"","","","","","image-keyboard-response","18","138970","0.0-2.0-3.0-0.4","60f3c1b003bbf8263f002824","C3","batch3","","1260.7999999523163","stim/prac_no_18_1.png","j","pattern_practice","true","j","","","","","","","","","","","","","","","","","","","","","","",""
"","","","","","html-keyboard-response","19","139992","0.0-2.0-3.0-1.4","60f3c1b003bbf8263f002824","C3","batch3","","null","<p style=""font-size:30px;color:green;"">Correct!</p>","null","pattern_feedback","","","","","","","","","","","","","","","","","","","","","","","","",""
"","","","","","html-button-response","20","146717","0.0-2.0-4.0","60f3c1b003bbf8263f002824","C3","batch3","","6722.899999976158","<p class=block-text> Good job! You are done with practice trials!<br>
        You responded correctly on 80% of the trials.<br>
        Press the button below to start official trials. Now you won't see any feedback about your response</p>","0","pattern_enter_official_trials","","","","","","","","","","","","","","","","","","","","","","","","",""
"","","","","","html-keyboard-response","21","147531","0.0-2.0-5.0-0.0","60f3c1b003bbf8263f002824","C3","batch3","","null","<p class=block-text>Trial 1 out of 78</p>","null","pattern_show_trial_num","","","","","","","","","","","","","","","","","","","","","","","","",""
"","","","","","image-keyboard-response","22","149204","0.0-2.0-5.0-1.0","60f3c1b003bbf8263f002824","C3","batch3","","1672.5","stim/no_58_1_w.png","j","pattern_response","true","j","pattern_35","1672.5","true","1","","","","","","","","","","","","","","","","","","",""
"","","","","","html-keyboard-response","23","150531","0.0-2.0-5.0-0.1","60f3c1b003bbf8263f002824","C3","batch3","","null","<p class=block-text>Trial 2 out of 78</p>","null","pattern_show_trial_num","","","","","","","","","","","","","","","","","","","","","","","","",""
"","","","","","image-keyboard-response","24","151979","0.0-2.0-5.0-1.1","60f3c1b003bbf8263f002824","C3","batch3","","1447.3000000715256","stim/yes_33_dia_w1_w.png","j","pattern_response","false","f","pattern_56","1447.3000000715256","false","1","","","","","","","","","","","","","","","","","","",""
"","","","","","html-keyboard-response","25","153296","0.0-2.0-5.0-0.2","60f3c1b003bbf8263f002824","C3","batch3","","null","<p class=block-text>Trial 3 out of 78</p>","null","pattern_show_trial_num","","","","","","","","","","","","","","","","","","","","","","","","",""
"","","","","","image-keyboard-response","26","155388","0.0-2.0-5.0-1.2","60f3c1b003bbf8263f002824","C3","batch3","","2090.399999976158","stim/no_22_1_b.png","j","pattern_response","true","j","pattern_07","2090.399999976158","true","2","","","","","","","","","","","","","","","","","","",""
"","","","","","html-keyboard-response","27","156700","0.0-2.0-5.0-0.3","60f3c1b003bbf8263f002824","C3","batch3","","null","<p class=block-text>Trial 4 out of 78</p>","null","pattern_show_trial_num","","","","","","","","","","","","","","","","","","","","","","","","",""
"","","","","","image-keyboard-response","28","158442","0.0-2.0-5.0-1.3","60f3c1b003bbf8263f002824","C3","batch3","","1739.8999999761581","stim/no_43_2_b.png","j","pattern_response","true","j","pattern_23","1739.8999999761581","true","3","","","","","","","","","","","","","","","","","","",""
"","","","","","html-keyboard-response","29","159764","0.0-2.0-5.0-0.4","60f3c1b003bbf8263f002824","C3","batch3","","null","<p class=block-text>Trial 5 out of 78</p>","null","pattern_show_trial_num","","","","","","","","","","","","","","","","","","","","","","","","",""
"","","","","","image-keyboard-response","30","161086","0.0-2.0-5.0-1.4","60f3c1b003bbf8263f002824","C3","batch3","","1320.6000000238419","stim/no_36_1_b.png","j","pattern_response","true","j","pattern_17","1320.6000000238419","true","4","","","","","","","","","","","","","","","","","","",""
"","","","","","html-keyboard-response","31","162415","0.0-2.0-5.0-0.5","60f3c1b003bbf8263f002824","C3","batch3","","null","<p class=block-text>Trial 6 out of 78</p>","null","pattern_show_trial_num","","","","","","","","","","","","","","","","","","","","","","","","",""
"","","","","","image-keyboard-response","32","163115","0.0-2.0-5.0-1.5","60f3c1b003bbf8263f002824","C3","batch3","","699","stim/yes_12_hor_w1_w.png","f","pattern_response","true","f","pattern_42","699","true","5","","","","","","","","","","","","","","","","","","",""
"","","","","","html-keyboard-response","33","164423","0.0-2.0-5.0-0.6","60f3c1b003bbf8263f002824","C3","batch3","","null","<p class=block-text>Trial 7 out of 78</p>","null","pattern_show_trial_num","","","","","","","","","","","","","","","","","","","","","","","","",""
"","","","","","image-keyboard-response","34","166314","0.0-2.0-5.0-1.6","60f3c1b003bbf8263f002824","C3","batch3","","1890.3000000715256","stim/no_53_1_b.png","j","pattern_response","true","j","pattern_33","1890.3000000715256","true","6","","","","","","","","","","","","","","","","","","",""
"","","","","","html-keyboard-response","35","167633","0.0-2.0-5.0-0.7","60f3c1b003bbf8263f002824","C3","batch3","","null","<p class=block-text>Trial 8 out of 78</p>","null","pattern_show_trial_num","","","","","","","","","","","","","","","","","","","","","","","","",""
"","","","","","image-keyboard-response","36","168740","0.0-2.0-5.0-1.7","60f3c1b003bbf8263f002824","C3","batch3","","1105.8999999761581","stim/yes_46_ver_b1_b.png","f","pattern_response","true","f","pattern_68","1105.8999999761581","true","7","","","","","","","","","","","","","","","","","","",""
"","","","","","html-keyboard-response","37","170055","0.0-2.0-5.0-0.8","60f3c1b003bbf8263f002824","C3","batch3","","null","<p class=block-text>Trial 9 out of 78</p>","null","pattern_show_trial_num","","","","","","","","","","","","","","","","","","","","","","","","",""
"","","","","","image-keyboard-response","38","170807","0.0-2.0-5.0-1.8","60f3c1b003bbf8263f002824","C3","batch3","","750.6999999284744","stim/yes_29_hor_b1_b.png","f","pattern_response","true","f","pattern_52","750.6999999284744","true","8","","","","","","","","","","","","","","","","","","",""
"","","","","","html-keyboard-response","39","172114","0.0-2.0-5.0-0.9","60f3c1b003bbf8263f002824","C3","batch3","","null","<p class=block-text>Trial 10 out of 78</p>","null","pattern_show_trial_num","","","","","","","","","","","","","","","","","","","","","","","","",""
"","","","","","image-keyboard-response","40","174204","0.0-2.0-5.0-1.9","60f3c1b003bbf8263f002824","C3","batch3","","2088.600000023842","stim/no_45_1_w.png","j","pattern_response","true","j","pattern_25","2088.600000023842","true","9","","","","","","","","","","","","","","","","","","",""
"","","","","","html-keyboard-response","41","175530","0.0-2.0-5.0-0.10","60f3c1b003bbf8263f002824","C3","batch3","","null","<p class=block-text>Trial 11 out of 78</p>","null","pattern_show_trial_num","","","","","","","","","","","","","","","","","","","","","","","","",""
"","","","","","image-keyboard-response","42","176543","0.0-2.0-5.0-1.10","60f3c1b003bbf8263f002824","C3","batch3","","1012.2000000476837","stim/yes_37_hor_w1_w.png","f","pattern_response","true","f","pattern_60","1012.2000000476837","true","10","","","","","","","","","","","","","","","","","","",""
"","","","","","html-keyboard-response","43","177855","0.0-2.0-5.0-0.11","60f3c1b003bbf8263f002824","C3","batch3","","null","<p class=block-text>Trial 12 out of 78</p>","null","pattern_show_trial_num","","","","","","","","","","","","","","","","","","","","","","","","",""
"","","","","","image-keyboard-response","44","179719","0.0-2.0-5.0-1.11","60f3c1b003bbf8263f002824","C3","batch3","","1863.2000000476837","stim/yes_42_dia_w1_w.png","j","pattern_response","false","f","pattern_64","1863.2000000476837","false","10","","","","","","","","","","","","","","","","","","",""
"","","","","","html-keyboard-response","45","181055","0.0-2.0-5.0-0.12","60f3c1b003bbf8263f002824","C3","batch3","","null","<p class=block-text>Trial 13 out of 78</p>","null","pattern_show_trial_num","","","","","","","","","","","","","","","","","","","","","","","","",""
"","","","","","image-keyboard-response","46","183785","0.0-2.0-5.0-1.12","60f3c1b003bbf8263f002824","C3","batch3","","2729.3000000715256","stim/yes_51_dia_b1.png","j","pattern_response","false","f","pattern_72","2729.3000000715256","false","10","","","","","","","","","","","","","","","","","","",""
"","","","","","html-keyboard-response","47","185105","0.0-2.0-5.0-0.13","60f3c1b003bbf8263f002824","C3","batch3","","null","<p class=block-text>Trial 14 out of 78</p>","null","pattern_show_trial_num","","","","","","","","","","","","","","","","","","","","","","","","",""
"","","","","","image-keyboard-response","48","185929","0.0-2.0-5.0-1.13","60f3c1b003bbf8263f002824","C3","batch3","","822.6000000238419","stim/yes_70_ver_b1.png","f","pattern_response","true","f","pattern_80","822.6000000238419","true","11","","","","","","","","","","","","","","","","","","",""
"","","","","","html-keyboard-response","49","187248","0.0-2.0-5.0-0.14","60f3c1b003bbf8263f002824","C3","batch3","","null","<p class=block-text>Trial 15 out of 78</p>","null","pattern_show_trial_num","","","","","","","","","","","","","","","","","","","","","","","","",""
"","","","","","image-keyboard-response","50","189375","0.0-2.0-5.0-1.14","60f3c1b003bbf8263f002824","C3","batch3","","2126.100000023842","stim/no_51_1.png","j","pattern_response","true","j","pattern_31","2126.100000023842","true","12","","","","","","","","","","","","","","","","","","",""
"","","","","","html-keyboard-response","51","190691","0.0-2.0-5.0-0.15","60f3c1b003bbf8263f002824","C3","batch3","","null","<p class=block-text>Trial 16 out of 78</p>","null","pattern_show_trial_num","","","","","","","","","","","","","","","","","","","","","","","","",""
"","","","","","image-keyboard-response","52","193131","0.0-2.0-5.0-1.15","60f3c1b003bbf8263f002824","C3","batch3","","2438.399999976158","stim/yes_63_dia_b1.png","j","pattern_response","false","f","pattern_78","2438.399999976158","false","12","","","","","","","","","","","","","","","","","","",""
"","","","","","html-keyboard-response","53","194445","0.0-2.0-5.0-0.16","60f3c1b003bbf8263f002824","C3","batch3","","null","<p class=block-text>Trial 17 out of 78</p>","null","pattern_show_trial_num","","","","","","","","","","","","","","","","","","","","","","","","",""
"","","","","","image-keyboard-response","54","196235","0.0-2.0-5.0-1.16","60f3c1b003bbf8263f002824","C3","batch3","","1788.8000000715256","stim/no_18_1_b.png","j","pattern_response","true","j","pattern_05","1788.8000000715256","true","13","","","","","","","","","","","","","","","","","","",""
"","","","","","html-keyboard-response","55","197552","0.0-2.0-5.0-0.17","60f3c1b003bbf8263f002824","C3","batch3","","null","<p class=block-text>Trial 18 out of 78</p>","null","pattern_show_trial_num","","","","","","","","","","","","","","","","","","","","","","","","",""
"","","","","","image-keyboard-response","56","198947","0.0-2.0-5.0-1.17","60f3c1b003bbf8263f002824","C3","batch3","","1393.1999999284744","stim/no_39_1_w.png","j","pattern_response","true","j","pattern_21","1393.1999999284744","true","14","","","","","","","","","","","","","","","","","","",""
"","","","","","html-keyboard-response","57","200259","0.0-2.0-5.0-0.18","60f3c1b003bbf8263f002824","C3","batch3","","null","<p class=block-text>Trial 19 out of 78</p>","null","pattern_show_trial_num","","","","","","","","","","","","","","","","","","","","","","","","",""
"","","","","","image-keyboard-response","58","200951","0.0-2.0-5.0-1.18","60f3c1b003bbf8263f002824","C3","batch3","","691.2000000476837","stim/no_15_1_w.png","j","pattern_response","true","j","pattern_03","691.2000000476837","true","15","","","","","","","","","","","","","","","","","","",""
"","","","","","html-keyboard-response","59","202271","0.0-2.0-5.0-0.19","60f3c1b003bbf8263f002824","C3","batch3","","null","<p class=block-text>Trial 20 out of 78</p>","null","pattern_show_trial_num","","","","","","","","","","","","","","","","","","","","","","","","",""
"","","","","","image-keyboard-response","60","203381","0.0-2.0-5.0-1.19","60f3c1b003bbf8263f002824","C3","batch3","","1109.3999999761581","stim/no_25_1_b.png","j","pattern_response","true","j","pattern_09","1109.3999999761581","true","16","","","","","","","","","","","","","","","","","","",""
"","","","","","html-keyboard-response","61","204703","0.0-2.0-5.0-0.20","60f3c1b003bbf8263f002824","C3","batch3","","null","<p class=block-text>Trial 21 out of 78</p>","null","pattern_show_trial_num","","","","","","","","","","","","","","","","","","","","","","","","",""
"","","","","","image-keyboard-response","62","205752","0.0-2.0-5.0-1.20","60f3c1b003bbf8263f002824","C3","batch3","","1049","stim/yes_49_hor_w1_b.png","f","pattern_response","true","f","pattern_70","1049","true","17","","","","","","","","","","","","","","","","","","",""
"","","","","","html-keyboard-response","63","207063","0.0-2.0-5.0-0.21","60f3c1b003bbf8263f002824","C3","batch3","","null","<p class=block-text>Trial 22 out of 78</p>","null","pattern_show_trial_num","","","","","","","","","","","","","","","","","","","","","","","","",""
"","","","","","image-keyboard-response","64","208650","0.0-2.0-5.0-1.21","60f3c1b003bbf8263f002824","C3","batch3","","1585.7000000476837","stim/yes_44_ver_w1_w.png","j","pattern_response","false","f","pattern_66","1585.7000000476837","false","17","","","","","","","","","","","","","","","","","","",""
"","","","","","html-keyboard-response","65","209962","0.0-2.0-5.0-0.22","60f3c1b003bbf8263f002824","C3","batch3","","null","<p class=block-text>Trial 23 out of 78</p>","null","pattern_show_trial_num","","","","","","","","","","","","","","","","","","","","","","","","",""
"","","","","","image-keyboard-response","66","211210","0.0-2.0-5.0-1.22","60f3c1b003bbf8263f002824","C3","batch3","","1246.2000000476837","stim/no_28_2.png","j","pattern_response","true","j","pattern_11","1246.2000000476837","true","18","","","","","","","","","","","","","","","","","","",""
"","","","","","html-keyboard-response","67","212535","0.0-2.0-5.0-0.23","60f3c1b003bbf8263f002824","C3","batch3","","null","<p class=block-text>Trial 24 out of 78</p>","null","pattern_show_trial_num","","","","","","","","","","","","","","","","","","","","","","","","",""
"","","","","","image-keyboard-response","68","213160","0.0-2.0-5.0-1.23","60f3c1b003bbf8263f002824","C3","batch3","","624.1000000238419","stim/no_12_1.png","j","pattern_response","true","j","pattern_01","624.1000000238419","true","19","","","","","","","","","","","","","","","","","","",""
"","","","","","html-keyboard-response","69","214464","0.0-2.0-5.0-0.24","60f3c1b003bbf8263f002824","C3","batch3","","null","<p class=block-text>Trial 25 out of 78</p>","null","pattern_show_trial_num","","","","","","","","","","","","","","","","","","","","","","","","",""
"","","","","","image-keyboard-response","70","215412","0.0-2.0-5.0-1.24","60f3c1b003bbf8263f002824","C3","batch3","","947.6000000238419","stim/yes_26_dia_w2_w.png","j","pattern_response","false","f","pattern_50","947.6000000238419","false","19","","","","","","","","","","","","","","","","","","",""
"","","","","","html-keyboard-response","71","216732","0.0-2.0-5.0-0.25","60f3c1b003bbf8263f002824","C3","batch3","","null","<p class=block-text>Trial 26 out of 78</p>","null","pattern_show_trial_num","","","","","","","","","","","","","","","","","","","","","","","","",""
"","","","","","image-keyboard-response","72","218491","0.0-2.0-5.0-1.25","60f3c1b003bbf8263f002824","C3","batch3","","1757.6000000238419","stim/no_47_1_b.png","j","pattern_response","true","j","pattern_27","1757.6000000238419","true","20","","","","","","","","","","","","","","","","","","",""
"","","","","","html-keyboard-response","73","219815","0.0-2.0-5.0-0.26","60f3c1b003bbf8263f002824","C3","batch3","","null","<p class=block-text>Trial 27 out of 78</p>","null","pattern_show_trial_num","","","","","","","","","","","","","","","","","","","","","","","","",""
"","","","","","image-keyboard-response","74","220857","0.0-2.0-5.0-1.26","60f3c1b003bbf8263f002824","C3","batch3","","1040.1000000238419","stim/no_30_1_b.png","j","pattern_response","true","j","pattern_13","1040.1000000238419","true","21","","","","","","","","","","","","","","","","","","",""
"","","","","","html-keyboard-response","75","222179","0.0-2.0-5.0-0.27","60f3c1b003bbf8263f002824","C3","batch3","","null","<p class=block-text>Trial 28 out of 78</p>","null","pattern_show_trial_num","","","","","","","","","","","","","","","","","","","","","","","","",""
"","","","","","image-keyboard-response","76","223315","0.0-2.0-5.0-1.27","60f3c1b003bbf8263f002824","C3","batch3","","1134.5","stim/yes_53_ver_b1_b.png","f","pattern_response","true","f","pattern_74","1134.5","true","22","","","","","","","","","","","","","","","","","","",""
"","","","","","html-keyboard-response","77","224639","0.0-2.0-5.0-0.28","60f3c1b003bbf8263f002824","C3","batch3","","null","<p class=block-text>Trial 29 out of 78</p>","null","pattern_show_trial_num","","","","","","","","","","","","","","","","","","","","","","","","",""
"","","","","","image-keyboard-response","78","227722","0.0-2.0-5.0-1.28","60f3c1b003bbf8263f002824","C3","batch3","","3082.600000023842","stim/no_67_1.png","j","pattern_response","true","j","pattern_39","3082.600000023842","true","23","","","","","","","","","","","","","","","","","","",""
"","","","","","html-keyboard-response","79","229046","0.0-2.0-5.0-0.29","60f3c1b003bbf8263f002824","C3","batch3","","null","<p class=block-text>Trial 30 out of 78</p>","null","pattern_show_trial_num","","","","","","","","","","","","","","","","","","","","","","","","",""
"","","","","","image-keyboard-response","80","231289","0.0-2.0-5.0-1.29","60f3c1b003bbf8263f002824","C3","batch3","","2242.399999976158","stim/no_33_1_b.png","j","pattern_response","true","j","pattern_15","2242.399999976158","true","24","","","","","","","","","","","","","","","","","","",""
"","","","","","html-keyboard-response","81","232605","0.0-2.0-5.0-0.30","60f3c1b003bbf8263f002824","C3","batch3","","null","<p class=block-text>Trial 31 out of 78</p>","null","pattern_show_trial_num","","","","","","","","","","","","","","","","","","","","","","","","",""
"","","","","","image-keyboard-response","82","234062","0.0-2.0-5.0-1.30","60f3c1b003bbf8263f002824","C3","batch3","","1455.8999999761581","stim/yes_17_ver_b1_b.png","f","pattern_response","true","f","pattern_46","1455.8999999761581","true","25","","","","","","","","","","","","","","","","","","",""
"","","","","","html-keyboard-response","83","235377","0.0-2.0-5.0-0.31","60f3c1b003bbf8263f002824","C3","batch3","","null","<p class=block-text>Trial 32 out of 78</p>","null","pattern_show_trial_num","","","","","","","","","","","","","","","","","","","","","","","","",""
"","","","","","image-keyboard-response","84","236833","0.0-2.0-5.0-1.31","60f3c1b003bbf8263f002824","C3","batch3","","1455","stim/yes_30_ver_b1_b.png","f","pattern_response","true","f","pattern_54","1455","true","26","","","","","","","","","","","","","","","","","","",""
"","","","","","html-keyboard-response","85","238146","0.0-2.0-5.0-0.32","60f3c1b003bbf8263f002824","C3","batch3","","null","<p class=block-text>Trial 33 out of 78</p>","null","pattern_show_trial_num","","","","","","","","","","","","","","","","","","","","","","","","",""
"","","","","","image-keyboard-response","86","240242","0.0-2.0-5.0-1.32","60f3c1b003bbf8263f002824","C3","batch3","","2094.600000023842","stim/no_37_2_w.png","j","pattern_response","true","j","pattern_19","2094.600000023842","true","27","","","","","","","","","","","","","","","","","","",""
"","","","","","html-keyboard-response","87","241568","0.0-2.0-5.0-0.33","60f3c1b003bbf8263f002824","C3","batch3","","null","<p class=block-text>Trial 34 out of 78</p>","null","pattern_show_trial_num","","","","","","","","","","","","","","","","","","","","","","","","",""
"","","","","","image-keyboard-response","88","243646","0.0-2.0-5.0-1.33","60f3c1b003bbf8263f002824","C3","batch3","","2077.1999999284744","stim/yes_58_dia_w1_w.png","j","pattern_response","false","f","pattern_76","2077.1999999284744","false","27","","","","","","","","","","","","","","","","","","",""
"","","","","","html-keyboard-response","89","244967","0.0-2.0-5.0-0.34","60f3c1b003bbf8263f002824","C3","batch3","","null","<p class=block-text>Trial 35 out of 78</p>","null","pattern_show_trial_num","","","","","","","","","","","","","","","","","","","","","","","","",""
"","","","","","image-keyboard-response","90","246088","0.0-2.0-5.0-1.34","60f3c1b003bbf8263f002824","C3","batch3","","1119.2999999523163","stim/yes_39_hor_w1_w.png","f","pattern_response","true","f","pattern_62","1119.2999999523163","true","28","","","","","","","","","","","","","","","","","","",""
"","","","","","html-keyboard-response","91","247405","0.0-2.0-5.0-0.35","60f3c1b003bbf8263f002824","C3","batch3","","null","<p class=block-text>Trial 36 out of 78</p>","null","pattern_show_trial_num","","","","","","","","","","","","","","","","","","","","","","","","",""
"","","","","","image-keyboard-response","92","249163","0.0-2.0-5.0-1.35","60f3c1b003bbf8263f002824","C3","batch3","","1757.1999999284744","stim/no_49_2_b.png","j","pattern_response","true","j","pattern_29","1757.1999999284744","true","29","","","","","","","","","","","","","","","","","","",""
"","","","","","html-keyboard-response","93","250469","0.0-2.0-5.0-0.36","60f3c1b003bbf8263f002824","C3","batch3","","null","<p class=block-text>Trial 37 out of 78</p>","null","pattern_show_trial_num","","","","","","","","","","","","","","","","","","","","","","","","",""
"","","","","","image-keyboard-response","94","251582","0.0-2.0-5.0-1.36","60f3c1b003bbf8263f002824","C3","batch3","","1111.3999999761581","stim/yes_23_ver_b1.png","f","pattern_response","true","f","pattern_48","1111.3999999761581","true","30","","","","","","","","","","","","","","","","","","",""
"","","","","","html-keyboard-response","95","252891","0.0-2.0-5.0-0.37","60f3c1b003bbf8263f002824","C3","batch3","","null","<p class=block-text>Trial 38 out of 78</p>","null","pattern_show_trial_num","","","","","","","","","","","","","","","","","","","","","","","","",""
"","","","","","image-keyboard-response","96","253555","0.0-2.0-5.0-1.37","60f3c1b003bbf8263f002824","C3","batch3","","663.2000000476837","stim/yes_36_ver_w1_w.png","f","pattern_response","true","f","pattern_58","663.2000000476837","true","31","","","","","","","","","","","","","","","","","","",""
"","","","","","html-keyboard-response","97","254880","0.0-2.0-5.0-0.38","60f3c1b003bbf8263f002824","C3","batch3","","null","<p class=block-text>Trial 39 out of 78</p>","null","pattern_show_trial_num","","","","","","","","","","","","","","","","","","","","","","","","",""
"","","","","","image-keyboard-response","98","255665","0.0-2.0-5.0-1.38","60f3c1b003bbf8263f002824","C3","batch3","","783.7999999523163","stim/yes_15_dia_b1u_b.png","f","pattern_response","true","f","pattern_44","783.7999999523163","true","32","","","","","","","","","","","","","","","","","","",""
"","","","","","image-keyboard-response","99","260471","0.0-2.0-6.0","60f3c1b003bbf8263f002824","C3","batch3","","4298.800000071526","stim/empty_board.png","j","attention_check","true","j","","","","","500","[""f"",""j""]","","","","","","","","","","","","","","","","",""
"","","","","","html-keyboard-response","100","261281","0.0-2.0-7.0-0.0","60f3c1b003bbf8263f002824","C3","batch3","","null","<p class=block-text>Trial 40 out of 78</p>","null","pattern_show_trial_num","","","","","","","","","","","","","","","","","","","","","","","","",""
"","","","","","image-keyboard-response","101","263416","0.0-2.0-7.0-1.0","60f3c1b003bbf8263f002824","C3","batch3","","2133.600000023842","stim/yes_67_hor_b1.png","f","pattern_response","true","f","pattern_79","2133.600000023842","true","33","","","","","","","","","","","","","","","","","","",""
"","","","","","html-keyboard-response","102","264747","0.0-2.0-7.0-0.1","60f3c1b003bbf8263f002824","C3","batch3","","null","<p class=block-text>Trial 41 out of 78</p>","null","pattern_show_trial_num","","","","","","","","","","","","","","","","","","","","","","","","",""
"","","","","","image-keyboard-response","103","266218","0.0-2.0-7.0-1.1","60f3c1b003bbf8263f002824","C3","batch3","","1469.3000000715256","stim/no_26_1_w.png","j","pattern_response","true","j","pattern_10","1469.3000000715256","true","34","","","","","","","","","","","","","","","","","","",""
"","","","","","html-keyboard-response","104","267526","0.0-2.0-7.0-0.2","60f3c1b003bbf8263f002824","C3","batch3","","null","<p class=block-text>Trial 42 out of 78</p>","null","pattern_show_trial_num","","","","","","","","","","","","","","","","","","","","","","","","",""
"","","","","","image-keyboard-response","105","269269","0.0-2.0-7.0-1.2","60f3c1b003bbf8263f002824","C3","batch3","","1742.1000000238419","stim/yes_37_dia_w1.png","j","pattern_response","false","f","pattern_59","1742.1000000238419","false","34","","","","","","","","","","","","","","","","","","",""
"","","","","","html-keyboard-response","106","270598","0.0-2.0-7.0-0.3","60f3c1b003bbf8263f002824","C3","batch3","","null","<p class=block-text>Trial 43 out of 78</p>","null","pattern_show_trial_num","","","","","","","","","","","","","","","","","","","","","","","","",""
"","","","","","image-keyboard-response","107","273069","0.0-2.0-7.0-1.3","60f3c1b003bbf8263f002824","C3","batch3","","2469.399999976158","stim/no_70_2.png","j","pattern_response","true","j","pattern_40","2469.399999976158","true","35","","","","","","","","","","","","","","","","","","",""
"","","","","","html-keyboard-response","108","274384","0.0-2.0-7.0-0.4","60f3c1b003bbf8263f002824","C3","batch3","","null","<p class=block-text>Trial 44 out of 78</p>","null","pattern_show_trial_num","","","","","","","","","","","","","","","","","","","","","","","","",""
"","","","","","image-keyboard-response","109","275882","0.0-2.0-7.0-1.4","60f3c1b003bbf8263f002824","C3","batch3","","1496.6000000238419","stim/yes_45_hor_b2_b.png","f","pattern_response","true","f","pattern_67","1496.6000000238419","true","36","","","","","","","","","","","","","","","","","","",""
"","","","","","html-keyboard-response","110","277194","0.0-2.0-7.0-0.5","60f3c1b003bbf8263f002824","C3","batch3","","null","<p class=block-text>Trial 45 out of 78</p>","null","pattern_show_trial_num","","","","","","","","","","","","","","","","","","","","","","","","",""
"","","","","","image-keyboard-response","111","278935","0.0-2.0-7.0-1.5","60f3c1b003bbf8263f002824","C3","batch3","","1739.7999999523163","stim/no_23_1.png","j","pattern_response","true","j","pattern_08","1739.7999999523163","true","37","","","","","","","","","","","","","","","","","","",""
"","","","","","html-keyboard-response","112","280240","0.0-2.0-7.0-0.6","60f3c1b003bbf8263f002824","C3","batch3","","null","<p class=block-text>Trial 46 out of 78</p>","null","pattern_show_trial_num","","","","","","","","","","","","","","","","","","","","","","","","",""
"","","","","","image-keyboard-response","113","282362","0.0-2.0-7.0-1.6","60f3c1b003bbf8263f002824","C3","batch3","","2120.3000000715256","stim/no_34_1_b.png","j","pattern_response","true","j","pattern_16","2120.3000000715256","true","38","","","","","","","","","","","","","","","","","","",""
"","","","","","html-keyboard-response","114","283690","0.0-2.0-7.0-0.7","60f3c1b003bbf8263f002824","C3","batch3","","null","<p class=block-text>Trial 47 out of 78</p>","null","pattern_show_trial_num","","","","","","","","","","","","","","","","","","","","","","","","",""
"","","","","","image-keyboard-response","115","285306","0.0-2.0-7.0-1.7","60f3c1b003bbf8263f002824","C3","batch3","","1615.5","stim/yes_22_ver_w1.png","f","pattern_response","true","f","pattern_47","1615.5","true","39","","","","","","","","","","","","","","","","","","",""
"","","","","","html-keyboard-response","116","286627","0.0-2.0-7.0-0.8","60f3c1b003bbf8263f002824","C3","batch3","","null","<p class=block-text>Trial 48 out of 78</p>","null","pattern_show_trial_num","","","","","","","","","","","","","","","","","","","","","","","","",""
"","","","","","image-keyboard-response","117","288769","0.0-2.0-7.0-1.8","60f3c1b003bbf8263f002824","C3","batch3","","2141.2000000476837","stim/no_50_1.png","j","pattern_response","true","j","pattern_30","2141.2000000476837","true","40","","","","","","","","","","","","","","","","","","",""
"","","","","","html-keyboard-response","118","290082","0.0-2.0-7.0-0.9","60f3c1b003bbf8263f002824","C3","batch3","","null","<p class=block-text>Trial 49 out of 78</p>","null","pattern_show_trial_num","","","","","","","","","","","","","","","","","","","","","","","","",""
"","","","","","image-keyboard-response","119","291893","0.0-2.0-7.0-1.9","60f3c1b003bbf8263f002824","C3","batch3","","1810","stim/yes_60_ver_b1_b.png","f","pattern_response","true","f","pattern_77","1810","true","41","","","","","","","","","","","","","","","","","","",""
"","","","","","html-keyboard-response","120","293207","0.0-2.0-7.0-0.10","60f3c1b003bbf8263f002824","C3","batch3","","null","<p class=block-text>Trial 50 out of 78</p>","null","pattern_show_trial_num","","","","","","","","","","","","","","","","","","","","","","","","",""
"","","","","","image-keyboard-response","121","295148","0.0-2.0-7.0-1.10","60f3c1b003bbf8263f002824","C3","batch3","","1940.2000000476837","stim/no_46_1_b.png","j","pattern_response","true","j","pattern_26","1940.2000000476837","true","42","","","","","","","","","","","","","","","","","","",""
"","","","","","html-keyboard-response","122","296470","0.0-2.0-7.0-0.11","60f3c1b003bbf8263f002824","C3","batch3","","null","<p class=block-text>Trial 51 out of 78</p>","null","pattern_show_trial_num","","","","","","","","","","","","","","","","","","","","","","","","",""
"","","","","","image-keyboard-response","123","298213","0.0-2.0-7.0-1.11","60f3c1b003bbf8263f002824","C3","batch3","","1741.2000000476837","stim/yes_50_dia_w1.png","j","pattern_response","false","f","pattern_71","1741.2000000476837","false","42","","","","","","","","","","","","","","","","","","",""
"","","","","","html-keyboard-response","124","299527","0.0-2.0-7.0-0.12","60f3c1b003bbf8263f002824","C3","batch3","","null","<p class=block-text>Trial 52 out of 78</p>","null","pattern_show_trial_num","","","","","","","","","","","","","","","","","","","","","","","","",""
"","","","","","image-keyboard-response","125","301127","0.0-2.0-7.0-1.12","60f3c1b003bbf8263f002824","C3","batch3","","1598.7000000476837","stim/no_55_1_w.png","j","pattern_response","true","j","pattern_34","1598.7000000476837","true","43","","","","","","","","","","","","","","","","","","",""
"","","","","","html-keyboard-response","126","302437","0.0-2.0-7.0-0.13","60f3c1b003bbf8263f002824","C3","batch3","","null","<p class=block-text>Trial 53 out of 78</p>","null","pattern_show_trial_num","","","","","","","","","","","","","","","","","","","","","","","","",""
"","","","","","image-keyboard-response","127","303650","0.0-2.0-7.0-1.13","60f3c1b003bbf8263f002824","C3","batch3","","1211.8000000715256","stim/yes_38_hor_b1_b.png","f","pattern_response","true","f","pattern_61","1211.8000000715256","true","44","","","","","","","","","","","","","","","","","","",""
"","","","","","html-keyboard-response","128","304974","0.0-2.0-7.0-0.14","60f3c1b003bbf8263f002824","C3","batch3","","null","<p class=block-text>Trial 54 out of 78</p>","null","pattern_show_trial_num","","","","","","","","","","","","","","","","","","","","","","","","",""
"","","","","","image-keyboard-response","129","305926","0.0-2.0-7.0-1.14","60f3c1b003bbf8263f002824","C3","batch3","","951.2999999523163","stim/yes_14_hor_b1_w.png","f","pattern_response","true","f","pattern_43","951.2999999523163","true","45","","","","","","","","","","","","","","","","","","",""
"","","","","","html-keyboard-response","130","307248","0.0-2.0-7.0-0.15","60f3c1b003bbf8263f002824","C3","batch3","","null","<p class=block-text>Trial 55 out of 78</p>","null","pattern_show_trial_num","","","","","","","","","","","","","","","","","","","","","","","","",""
"","","","","","image-keyboard-response","131","308156","0.0-2.0-7.0-1.15","60f3c1b003bbf8263f002824","C3","batch3","","906.5","stim/no_13_2_b.png","j","pattern_response","true","j","pattern_02","906.5","true","46","","","","","","","","","","","","","","","","","","",""
"","","","","","html-keyboard-response","132","309470","0.0-2.0-7.0-0.16","60f3c1b003bbf8263f002824","C3","batch3","","null","<p class=block-text>Trial 56 out of 78</p>","null","pattern_show_trial_num","","","","","","","","","","","","","","","","","","","","","","","","",""
"","","","","","image-keyboard-response","133","311342","0.0-2.0-7.0-1.16","60f3c1b003bbf8263f002824","C3","batch3","","1870.7999999523163","stim/no_52_1.png","j","pattern_response","true","j","pattern_32","1870.7999999523163","true","47","","","","","","","","","","","","","","","","","","",""
"","","","","","html-keyboard-response","134","312663","0.0-2.0-7.0-0.17","60f3c1b003bbf8263f002824","C3","batch3","","null","<p class=block-text>Trial 57 out of 78</p>","null","pattern_show_trial_num","","","","","","","","","","","","","","","","","","","","","","","","",""
"","","","","","image-keyboard-response","135","314554","0.0-2.0-7.0-1.17","60f3c1b003bbf8263f002824","C3","batch3","","1889.2999999523163","stim/no_48_1_w.png","j","pattern_response","true","j","pattern_28","1889.2999999523163","true","48","","","","","","","","","","","","","","","","","","",""
"","","","","","html-keyboard-response","136","315870","0.0-2.0-7.0-0.18","60f3c1b003bbf8263f002824","C3","batch3","","null","<p class=block-text>Trial 58 out of 78</p>","null","pattern_show_trial_num","","","","","","","","","","","","","","","","","","","","","","","","",""
"","","","","","image-keyboard-response","137","318337","0.0-2.0-7.0-1.18","60f3c1b003bbf8263f002824","C3","batch3","","2466.7000000476837","stim/yes_48_dia_w1_w.png","f","pattern_response","true","f","pattern_69","2466.7000000476837","true","49","","","","","","","","","","","","","","","","","","",""
"","","","","","html-keyboard-response","138","319645","0.0-2.0-7.0-0.19","60f3c1b003bbf8263f002824","C3","batch3","","null","<p class=block-text>Trial 59 out of 78</p>","null","pattern_show_trial_num","","","","","","","","","","","","","","","","","","","","","","","","",""
"","","","","","image-keyboard-response","139","320394","0.0-2.0-7.0-1.19","60f3c1b003bbf8263f002824","C3","batch3","","748.1999999284744","stim/no_20_1_w.png","j","pattern_response","true","j","pattern_06","748.1999999284744","true","50","","","","","","","","","","","","","","","","","","",""
"","","","","","html-keyboard-response","140","321699","0.0-2.0-7.0-0.20","60f3c1b003bbf8263f002824","C3","batch3","","null","<p class=block-text>Trial 60 out of 78</p>","null","pattern_show_trial_num","","","","","","","","","","","","","","","","","","","","","","","","",""
"","","","","","image-keyboard-response","141","323361","0.0-2.0-7.0-1.20","60f3c1b003bbf8263f002824","C3","batch3","","1661","stim/yes_35_dia_b1.png","f","pattern_response","true","f","pattern_57","1661","true","51","","","","","","","","","","","","","","","","","","",""
"","","","","","html-keyboard-response","142","324690","0.0-2.0-7.0-0.21","60f3c1b003bbf8263f002824","C3","batch3","","null","<p class=block-text>Trial 61 out of 78</p>","null","pattern_show_trial_num","","","","","","","","","","","","","","","","","","","","","","","","",""
"","","","","","image-keyboard-response","143","325555","0.0-2.0-7.0-1.21","60f3c1b003bbf8263f002824","C3","batch3","","864","stim/yes_28_ver_b1.png","f","pattern_response","true","f","pattern_51","864","true","52","","","","","","","","","","","","","","","","","","",""
"","","","","","html-keyboard-response","144","326870","0.0-2.0-7.0-0.22","60f3c1b003bbf8263f002824","C3","batch3","","null","<p class=block-text>Trial 62 out of 78</p>","null","pattern_show_trial_num","","","","","","","","","","","","","","","","","","","","","","","","",""
"","","","","","image-keyboard-response","145","329144","0.0-2.0-7.0-1.22","60f3c1b003bbf8263f002824","C3","batch3","","2273","stim/no_62_1_w.png","j","pattern_response","true","j","pattern_36","2273","true","53","","","","","","","","","","","","","","","","","","",""
"","","","","","html-keyboard-response","146","330458","0.0-2.0-7.0-0.23","60f3c1b003bbf8263f002824","C3","batch3","","null","<p class=block-text>Trial 63 out of 78</p>","null","pattern_show_trial_num","","","","","","","","","","","","","","","","","","","","","","","","",""
"","","","","","image-keyboard-response","147","332788","0.0-2.0-7.0-1.23","60f3c1b003bbf8263f002824","C3","batch3","","2328.899999976158","stim/no_65_1_b.png","j","pattern_response","true","j","pattern_38","2328.899999976158","true","54","","","","","","","","","","","","","","","","","","",""
"","","","","","html-keyboard-response","148","334112","0.0-2.0-7.0-0.24","60f3c1b003bbf8263f002824","C3","batch3","","null","<p class=block-text>Trial 64 out of 78</p>","null","pattern_show_trial_num","","","","","","","","","","","","","","","","","","","","","","","","",""
"","","","","","image-keyboard-response","149","335421","0.0-2.0-7.0-1.24","60f3c1b003bbf8263f002824","C3","batch3","","1309","stim/yes_55_hor_w1_w.png","j","pattern_response","false","f","pattern_75","1309","false","54","","","","","","","","","","","","","","","","","","",""
"","","","","","html-keyboard-response","150","336743","0.0-2.0-7.0-0.25","60f3c1b003bbf8263f002824","C3","batch3","","null","<p class=block-text>Trial 65 out of 78</p>","null","pattern_show_trial_num","","","","","","","","","","","","","","","","","","","","","","","","",""
"","","","","","image-keyboard-response","151","338738","0.0-2.0-7.0-1.25","60f3c1b003bbf8263f002824","C3","batch3","","1994.4000000953674","stim/yes_31_hor_b1.png","f","pattern_response","true","f","pattern_55","1994.4000000953674","true","55","","","","","","","","","","","","","","","","","","",""
"","","","","","html-keyboard-response","152","340049","0.0-2.0-7.0-0.26","60f3c1b003bbf8263f002824","C3","batch3","","null","<p class=block-text>Trial 66 out of 78</p>","null","pattern_show_trial_num","","","","","","","","","","","","","","","","","","","","","","","","",""
"","","","","","image-keyboard-response","153","341969","0.0-2.0-7.0-1.26","60f3c1b003bbf8263f002824","C3","batch3","","1918.7999999523163","stim/yes_40_dia_b1_b.png","j","pattern_response","false","f","pattern_63","1918.7999999523163","false","55","","","","","","","","","","","","","","","","","","",""
"","","","","","html-keyboard-response","154","343289","0.0-2.0-7.0-0.27","60f3c1b003bbf8263f002824","C3","batch3","","null","<p class=block-text>Trial 67 out of 78</p>","null","pattern_show_trial_num","","","","","","","","","","","","","","","","","","","","","","","","",""
"","","","","","image-keyboard-response","155","344871","0.0-2.0-7.0-1.27","60f3c1b003bbf8263f002824","C3","batch3","","1581.2999999523163","stim/yes_52_ver_w1.png","j","pattern_response","false","f","pattern_73","1581.2999999523163","false","55","","","","","","","","","","","","","","","","","","",""
"","","","","","html-keyboard-response","156","346178","0.0-2.0-7.0-0.28","60f3c1b003bbf8263f002824","C3","batch3","","null","<p class=block-text>Trial 68 out of 78</p>","null","pattern_show_trial_num","","","","","","","","","","","","","","","","","","","","","","","","",""
"","","","","","image-keyboard-response","157","347126","0.0-2.0-7.0-1.28","60f3c1b003bbf8263f002824","C3","batch3","","946.6999999284744","stim/yes_25_hor_b1_b.png","f","pattern_response","true","f","pattern_49","946.6999999284744","true","56","","","","","","","","","","","","","","","","","","",""
"","","","","","html-keyboard-response","158","348450","0.0-2.0-7.0-0.29","60f3c1b003bbf8263f002824","C3","batch3","","null","<p class=block-text>Trial 69 out of 78</p>","null","pattern_show_trial_num","","","","","","","","","","","","","","","","","","","","","","","","",""
"","","","","","image-keyboard-response","159","349540","0.0-2.0-7.0-1.29","60f3c1b003bbf8263f002824","C3","batch3","","1088.2000000476837","stim/no_36_2_w.png","j","pattern_response","true","j","pattern_18","1088.2000000476837","true","57","","","","","","","","","","","","","","","","","","",""
"","","","","","html-keyboard-response","160","350846","0.0-2.0-7.0-0.30","60f3c1b003bbf8263f002824","C3","batch3","","null","<p class=block-text>Trial 70 out of 78</p>","null","pattern_show_trial_num","","","","","","","","","","","","","","","","","","","","","","","","",""
"","","","","","image-keyboard-response","161","351927","0.0-2.0-7.0-1.30","60f3c1b003bbf8263f002824","C3","batch3","","1079.6000000238419","stim/yes_29_ver_w1.png","f","pattern_response","true","f","pattern_53","1079.6000000238419","true","58","","","","","","","","","","","","","","","","","","",""
"","","","","","html-keyboard-response","162","353235","0.0-2.0-7.0-0.31","60f3c1b003bbf8263f002824","C3","batch3","","null","<p class=block-text>Trial 71 out of 78</p>","null","pattern_show_trial_num","","","","","","","","","","","","","","","","","","","","","","","","",""
"","","","","","image-keyboard-response","163","354662","0.0-2.0-7.0-1.31","60f3c1b003bbf8263f002824","C3","batch3","","1426.4000000953674","stim/no_32_1_w.png","j","pattern_response","true","j","pattern_14","1426.4000000953674","true","59","","","","","","","","","","","","","","","","","","",""
"","","","","","html-keyboard-response","164","355976","0.0-2.0-7.0-0.32","60f3c1b003bbf8263f002824","C3","batch3","","null","<p class=block-text>Trial 72 out of 78</p>","null","pattern_show_trial_num","","","","","","","","","","","","","","","","","","","","","","","","",""
"","","","","","image-keyboard-response","165","358623","0.0-2.0-7.0-1.32","60f3c1b003bbf8263f002824","C3","batch3","","2645.8000000715256","stim/yes_17_dia_w1.png","f","pattern_response","true","f","pattern_45","2645.8000000715256","true","60","","","","","","","","","","","","","","","","","","",""
"","","","","","html-keyboard-response","166","359933","0.0-2.0-7.0-0.33","60f3c1b003bbf8263f002824","C3","batch3","","null","<p class=block-text>Trial 73 out of 78</p>","null","pattern_show_trial_num","","","","","","","","","","","","","","","","","","","","","","","","",""
"","","","","","image-keyboard-response","167","361247","0.0-2.0-7.0-1.33","60f3c1b003bbf8263f002824","C3","batch3","","1313.5","stim/no_17_1_w.png","j","pattern_response","true","j","pattern_04","1313.5","true","61","","","","","","","","","","","","","","","","","","",""
"","","","","","html-keyboard-response","168","362559","0.0-2.0-7.0-0.34","60f3c1b003bbf8263f002824","C3","batch3","","null","<p class=block-text>Trial 74 out of 78</p>","null","pattern_show_trial_num","","","","","","","","","","","","","","","","","","","","","","","","",""
"","","","","","image-keyboard-response","169","364586","0.0-2.0-7.0-1.34","60f3c1b003bbf8263f002824","C3","batch3","","2025.6000000238419","stim/no_29_1_b.png","j","pattern_response","true","j","pattern_12","2025.6000000238419","true","62","","","","","","","","","","","","","","","","","","",""
"","","","","","html-keyboard-response","170","365906","0.0-2.0-7.0-0.35","60f3c1b003bbf8263f002824","C3","batch3","","null","<p class=block-text>Trial 75 out of 78</p>","null","pattern_show_trial_num","","","","","","","","","","","","","","","","","","","","","","","","",""
"","","","","","image-keyboard-response","171","368220","0.0-2.0-7.0-1.35","60f3c1b003bbf8263f002824","C3","batch3","","2312.1999999284744","stim/no_38_1_b.png","j","pattern_response","true","j","pattern_20","2312.1999999284744","true","63","","","","","","","","","","","","","","","","","","",""
"","","","","","html-keyboard-response","172","369551","0.0-2.0-7.0-0.36","60f3c1b003bbf8263f002824","C3","batch3","","null","<p class=block-text>Trial 76 out of 78</p>","null","pattern_show_trial_num","","","","","","","","","","","","","","","","","","","","","","","","",""
"","","","","","image-keyboard-response","173","371731","0.0-2.0-7.0-1.36","60f3c1b003bbf8263f002824","C3","batch3","","2178.7999999523163","stim/no_42_1_w.png","j","pattern_response","true","j","pattern_22","2178.7999999523163","true","64","","","","","","","","","","","","","","","","","","",""
"","","","","","html-keyboard-response","174","373055","0.0-2.0-7.0-0.37","60f3c1b003bbf8263f002824","C3","batch3","","null","<p class=block-text>Trial 77 out of 78</p>","null","pattern_show_trial_num","","","","","","","","","","","","","","","","","","","","","","","","",""
"","","","","","image-keyboard-response","175","375548","0.0-2.0-7.0-1.37","60f3c1b003bbf8263f002824","C3","batch3","","2491.899999976158","stim/no_44_1.png","j","pattern_response","true","j","pattern_24","2491.899999976158","true","65","","","","","","","","","","","","","","","","","","",""
"","","","","","html-keyboard-response","176","376861","0.0-2.0-7.0-0.38","60f3c1b003bbf8263f002824","C3","batch3","","null","<p class=block-text>Trial 78 out of 78</p>","null","pattern_show_trial_num","","","","","","","","","","","","","","","","","","","","","","","","",""
"","","","","","image-keyboard-response","177","378747","0.0-2.0-7.0-1.38","60f3c1b003bbf8263f002824","C3","batch3","","1884","stim/yes_43_ver_w1_w.png","f","pattern_response","true","f","pattern_65","1884","true","66","","","","","","","","","","","","","","","","","","",""
"","","","","","html-button-response","178","383674","0.0-2.0-8.0","60f3c1b003bbf8263f002824","C3","batch3","","4415.799999952316","<p class = block-text>This concludes the 4-in-a-row detection game.Thank you for your responses!<br>
            You responded correctly on 85% of the trials.<br>
            When you are ready, press ""Continue"" button to continue </p>","0","","","","","","","","","","","","","","","","","","","","","","","","","",""
"true","","","","","fullscreen","179","391721","0.0-3.0-0.0","60f3c1b003bbf8263f002824","C3","batch3","","","","","","","","","","","","","","","","","","","","","","","","","","","","","",""
"","","","","","instructions","180","485385","0.0-3.0-1.0-0.0-0.0","60f3c1b003bbf8263f002824","C3","batch3","[{""page_index"":0,""viewing_time"":14836.199999928474},{""page_index"":1,""viewing_time"":12965.700000047684},{""page_index"":2,""viewing_time"":6722.899999976158},{""page_index"":3,""viewing_time"":13073.600000023842},{""page_index"":4,""viewing_time"":9388.5},{""page_index"":5,""viewing_time"":29293.399999976158},{""page_index"":6,""viewing_time"":7381.5}]","93662.19999992847","","","tol-instructions","","","","","","","","","","","","","","","","","","","","","","","","",""
"","","","","","html-button-response","181","487188","0.0-3.0-1.0-1.0-0.0","60f3c1b003bbf8263f002824","C3","batch3","","1801.7999999523163","<p class=block-text> Let's answer a few questions <br>","0","tol_enter_quiz","","","","","","","","","","","","","","","","","","","","","","","","",""
"","","","","","html-button-response","182","505828","0.0-3.0-1.0-1.0-1.0","60f3c1b003bbf8263f002824","C3","batch3","","18639","<p class = block-text>True or False: You can only move the ball on top of a peg. <br></p>","1","tol_quiz","false","","","","","","","","","","","","","","","","","","","","","","","",""
"","","","","","html-button-response","183","514570","0.0-3.0-1.0-1.0-2.0","60f3c1b003bbf8263f002824","C3","batch3","","8740.399999976158","<p class = block-text>Incorrect. Remember, you can only move the ball on top of a peg.</p>","0","tol_quiz_feedback","","","","","","","","","","","","","","","","","","","","","","","","",""
"","","","","","html-button-response","184","517814","0.0-3.0-1.0-1.0-3.0","60f3c1b003bbf8263f002824","C3","batch3","","3242.7000000476837","<p class = block-text>True or False: You should try to match your board with the target board with fewest moves possible. <br></p>","0","tol_quiz","true","","","","","","","","","","","","","","","","","","","","","","","",""
"","","","","","html-button-response","185","519216","0.0-3.0-1.0-1.0-4.0","60f3c1b003bbf8263f002824","C3","batch3","","1399.8999999761581","<p class = block-text>Correct! </p>","0","tol_quiz_feedback","","","","","","","","","","","","","","","","","","","","","","","","",""
"","","","","","html-button-response","186","523068","0.0-3.0-1.0-2.0-0.0","60f3c1b003bbf8263f002824","C3","batch3","","3850.7999999523163","<p class = block-text>You made too many incorrect choices.</p><p class = block-text>You will now repeat the instructions and quiz</p>","0","","","","","","","","","","","","","","","","","","","","","","","","","",""
"","","","","","instructions","187","559230","0.0-3.0-1.1-0.1-0.1","60f3c1b003bbf8263f002824","C3","batch3","[{""page_index"":0,""viewing_time"":6928.100000023842},{""page_index"":1,""viewing_time"":4097.199999928474},{""page_index"":2,""viewing_time"":3184.100000023842},{""page_index"":3,""viewing_time"":5272.100000023842},{""page_index"":4,""viewing_time"":4400},{""page_index"":5,""viewing_time"":8869.100000023842},{""page_index"":6,""viewing_time"":3410.7999999523163}]","36161.699999928474","","","tol-instructions","","","","","","","","","","","","","","","","","","","","","","","","",""
"","","","","","html-button-response","188","560818","0.0-3.0-1.1-1.1-0.1","60f3c1b003bbf8263f002824","C3","batch3","","1586.8999999761581","<p class=block-text> Let's answer a few questions <br>","0","tol_enter_quiz","","","","","","","","","","","","","","","","","","","","","","","","",""
"","","","","","html-button-response","189","564426","0.0-3.0-1.1-1.1-1.1","60f3c1b003bbf8263f002824","C3","batch3","","3606.5","<p class = block-text>True or False: You can only move the ball on top of a peg. <br></p>","0","tol_quiz","true","","","","","","","","","","","","","","","","","","","","","","","",""
"","","","","","html-button-response","190","566023","0.0-3.0-1.1-1.1-2.1","60f3c1b003bbf8263f002824","C3","batch3","","1596","<p class = block-text>Correct! You can only move the ball on top of a peg.</p>","0","tol_quiz_feedback","","","","","","","","","","","","","","","","","","","","","","","","",""
"","","","","","html-button-response","191","569081","0.0-3.0-1.1-1.1-3.1","60f3c1b003bbf8263f002824","C3","batch3","","3056.2999999523163","<p class = block-text>True or False: You should try to match your board with the target board with fewest moves possible. <br></p>","0","tol_quiz","true","","","","","","","","","","","","","","","","","","","","","","","",""
"","","","","","html-button-response","192","570629","0.0-3.0-1.1-1.1-4.1","60f3c1b003bbf8263f002824","C3","batch3","","1547.0999999046326","<p class = block-text>Correct! </p>","0","tol_quiz_feedback","","","","","","","","","","","","","","","","","","","","","","","","",""
"","","","","","html-button-response","193","572893","0.0-3.0-2.0","60f3c1b003bbf8263f002824","C3","batch3","","2262.899999976158","<p class=block-text> Now that you've understood the game, let's practice a few easier examples before we start!<br> <br>","0","","","","","","","","","","","","","","","","","","","","","","","","","",""
"","","","","","single-stim-button","194","579619","0.0-3.0-3.0-0.0","60f3c1b003bbf8263f002824","C3","batch3","","6723","","","tol_practice","","","","","","","","","tol_peg_2","6723","6723","0","[[1,2,0],[0,0],[0]]","1","[[1,2,0],[0,0],[3]]","practice","6723","","","","","","","",""
"","","","","","single-stim-button","195","582284","0.0-3.0-3.0-1.0","60f3c1b003bbf8263f002824","C3","batch3","","2663","","","tol_practice","","","","","","","","","tol_peg_3","2663","2663","0","[[1,2,0],[0,0],[3]]","1","[[1,2,0],[0,0],[3]]","practice","2663","","","","","","","",""
"","","","","","poldrack-single-stim","196","583287","0.0-3.0-4.0","60f3c1b003bbf8263f002824","C3","batch3","","-1","","","tol_feedback","true","","","","","","","","","1000","1000","500","","","","","","-1","none","true","","0","","",""
"","","","","","single-stim-button","197","591156","0.0-3.0-5.0-0.0","60f3c1b003bbf8263f002824","C3","batch3","","7866","","","tol_practice","","","","","","","","","tol_peg_1","7866","7866","0","[[1,0,0],[3,0],[0]]","2","[[0,0,0],[3,1],[2]]","practice","7866","","","","","","","",""
"","","","","","single-stim-button","198","593223","0.0-3.0-5.0-1.0","60f3c1b003bbf8263f002824","C3","batch3","","2066","","","tol_practice","","","","","","","","","tol_peg_3","2066","2066","0","[[1,0,0],[3,0],[2]]","2","[[0,0,0],[3,1],[2]]","practice","2066","","","","","","","",""
"","","","","","single-stim-button","199","596203","0.0-3.0-5.1-0.1","60f3c1b003bbf8263f002824","C3","batch3","","2979","","","tol_practice","","","","","","","","","tol_peg_1","2979","2979","0","[[0,0,0],[3,0],[2]]","3","[[0,0,0],[3,1],[2]]","practice","2979","","","","","","","",""
"","","","","","single-stim-button","200","598478","0.0-3.0-5.1-1.1","60f3c1b003bbf8263f002824","C3","batch3","","2275","","","tol_practice","","","","","","","","","tol_peg_2","2275","2275","0","[[0,0,0],[3,1],[2]]","3","[[0,0,0],[3,1],[2]]","practice","2275","","","","","","","",""
"","","","","","poldrack-single-stim","201","599487","0.0-3.0-6.0","60f3c1b003bbf8263f002824","C3","batch3","","-1","","","tol_feedback","true","","","","","","","","","1000","1000","500","","","","","","-1","none","true","","0","","",""
"","","","","","single-stim-button","202","603889","0.0-3.0-7.0-0.0","60f3c1b003bbf8263f002824","C3","batch3","","4402","","","tol_practice","","","","","","","","","tol_peg_2","4402","4402","0","[[1,2,0],[0,0],[0]]","4","[[1,0,0],[2,0],[3]]","practice","4402","","","","","","","",""
"","","","","","single-stim-button","203","610143","0.0-3.0-7.0-1.0","60f3c1b003bbf8263f002824","C3","batch3","","6253","","","tol_practice","","","","","","","","","tol_peg_3","6253","6253","0","[[1,2,0],[0,0],[3]]","4","[[1,0,0],[2,0],[3]]","practice","6253","","","","","","","",""
"","","","","","single-stim-button","204","611682","0.0-3.0-7.1-0.1","60f3c1b003bbf8263f002824","C3","batch3","","1538","","","tol_practice","","","","","","","","","tol_peg_1","1538","1538","0","[[1,0,0],[0,0],[3]]","5","[[1,0,0],[2,0],[3]]","practice","1538","","","","","","","",""
"","","","","","single-stim-button","205","613271","0.0-3.0-7.1-1.1","60f3c1b003bbf8263f002824","C3","batch3","","1587","","","tol_practice","","","","","","","","","tol_peg_2","1587","1587","0","[[1,0,0],[2,0],[3]]","5","[[1,0,0],[2,0],[3]]","practice","1587","","","","","","","",""
"","","","","","poldrack-single-stim","206","614282","0.0-3.0-8.0","60f3c1b003bbf8263f002824","C3","batch3","","-1","","","tol_feedback","true","","","","","","","","","1000","1000","500","","","","","","-1","none","true","","0","","",""
"","","","","","html-button-response","207","616221","0.0-3.0-9.0","60f3c1b003bbf8263f002824","C3","batch3","","1937.1000000238419","<div class = centerbox><p class = center-block-text>Great job! You are done with practice trials<br>You are about to start official trials.<br> <br> Problem <strong>1</strong> out of 25 problems</p></div>","0","tol_instruction","","","","","","","","","","","","","","","","","","","","","","","","",""
"","","","","","single-stim-button","208","621397","0.0-3.0-10.0-0.0","60f3c1b003bbf8263f002824","C3","batch3","","4172","","","tol_tohand","","","","","","","","","tol_peg_1","4172","4172","0","[[1,0,0],[3,0],[0]]","1","[[1,3,0],[2,0],[0]]","0","0","","","","","","3","",""
"","","","","","single-stim-button","209","623112","0.0-3.0-10.0-1.0","60f3c1b003bbf8263f002824","C3","batch3","","1715","","","tol_toboard","","","","","","","","","tol_peg_3","1715","1715","0","[[1,0,0],[3,0],[2]]","1","[[1,3,0],[2,0],[0]]","0","0","","","","","","3","",""
"","","","","","single-stim-button","210","624671","0.0-3.0-10.1-0.1","60f3c1b003bbf8263f002824","C3","batch3","","1557","","","tol_tohand","","","","","","","","","tol_peg_2","1557","1557","0","[[1,0,0],[0,0],[2]]","2","[[1,3,0],[2,0],[0]]","0","0","","","","","","3","",""
"","","","","","single-stim-button","211","626396","0.0-3.0-10.1-1.1","60f3c1b003bbf8263f002824","C3","batch3","","1724","","","tol_toboard","","","","","","","","","tol_peg_1","1724","1724","0","[[1,3,0],[0,0],[2]]","2","[[1,3,0],[2,0],[0]]","0","0","","","","","","3","",""
"","","","","","single-stim-button","212","627778","0.0-3.0-10.2-0.2","60f3c1b003bbf8263f002824","C3","batch3","","1381","","","tol_tohand","","","","","","","","","tol_peg_3","1381","1381","0","[[1,3,0],[0,0],[0]]","3","[[1,3,0],[2,0],[0]]","0","0","","","","","","3","",""
"","","","","","single-stim-button","213","629082","0.0-3.0-10.2-1.2","60f3c1b003bbf8263f002824","C3","batch3","","1303","","","tol_toboard","","","","","","","","","tol_peg_2","1303","1303","0","[[1,3,0],[2,0],[0]]","3","[[1,3,0],[2,0],[0]]","0","0","","","","","","3","",""
"","","","","","poldrack-single-stim","214","630095","0.0-3.0-11.0","60f3c1b003bbf8263f002824","C3","batch3","","-1","","","tol_feedback","true","","","","","","","","","1000","1000","500","","","","","","-1","none","true","4172","7110","","",""
"","","","","","html-button-response","215","631336","0.0-3.0-12.0","60f3c1b003bbf8263f002824","C3","batch3","","1240.3000000715256","<div class = centerbox><p class = center-block-text>problem <strong>2</strong> out of 25 problems</p></div>","0","tol_trial_num","","","","","","","","","","","","","","","","","","","","","","","","",""
"","","","","","single-stim-button","216","634051","0.0-3.0-13.0-0.0","60f3c1b003bbf8263f002824","C3","batch3","","2714","","","tol_tohand","","","","","","","","","tol_peg_2","2714","2714","0","[[1,2,0],[0,0],[0]]","1","[[2,1,3],[0,0],[0]]","1","0","","","","","","5","",""
"","","","","","single-stim-button","217","636619","0.0-3.0-13.0-1.0","60f3c1b003bbf8263f002824","C3","batch3","","2567","","","tol_toboard","","","","","","","","","tol_peg_3","2567","2567","0","[[1,2,0],[0,0],[3]]","1","[[2,1,3],[0,0],[0]]","1","0","","","","","","5","",""
"","","","","","single-stim-button","218","638462","0.0-3.0-13.1-0.1","60f3c1b003bbf8263f002824","C3","batch3","","1842","","","tol_tohand","","","","","","","","","tol_peg_1","1842","1842","0","[[1,0,0],[0,0],[3]]","2","[[2,1,3],[0,0],[0]]","1","0","","","","","","5","",""
"","","","","","single-stim-button","219","643079","0.0-3.0-13.1-1.1","60f3c1b003bbf8263f002824","C3","batch3","","4616","","","tol_toboard","","","","","","","","","tol_peg_2","4616","4616","0","[[1,0,0],[2,0],[3]]","2","[[2,1,3],[0,0],[0]]","1","0","","","","","","5","",""
"","","","","","single-stim-button","220","644912","0.0-3.0-13.2-0.2","60f3c1b003bbf8263f002824","C3","batch3","","1832","","","tol_tohand","","","","","","","","","tol_peg_1","1832","1832","0","[[0,0,0],[2,0],[3]]","3","[[2,1,3],[0,0],[0]]","1","0","","","","","","5","",""
"","","","","","single-stim-button","221","648676","0.0-3.0-13.2-1.2","60f3c1b003bbf8263f002824","C3","batch3","","3763","","","tol_toboard","","","","","","","","","tol_peg_2","3763","3763","0","[[0,0,0],[2,1],[3]]","3","[[2,1,3],[0,0],[0]]","1","0","","","","","","5","",""
"","","","","","single-stim-button","222","651939","0.0-3.0-13.3-0.3","60f3c1b003bbf8263f002824","C3","batch3","","3262","","","tol_tohand","","","","","","","","","tol_peg_2","3262","3262","0","[[0,0,0],[2,0],[3]]","4","[[2,1,3],[0,0],[0]]","1","0","","","","","","5","",""
"","","","","","single-stim-button","223","654870","0.0-3.0-13.3-1.3","60f3c1b003bbf8263f002824","C3","batch3","","2930","","","tol_toboard","","","","","","","","","tol_peg_2","2930","2930","0","[[0,0,0],[2,1],[3]]","4","[[2,1,3],[0,0],[0]]","1","0","","","","","","5","",""
"","","","","","single-stim-button","224","656900","0.0-3.0-13.4-0.4","60f3c1b003bbf8263f002824","C3","batch3","","2028","","","tol_tohand","","","","","","","","","tol_peg_2","2028","2028","0","[[0,0,0],[2,0],[3]]","5","[[2,1,3],[0,0],[0]]","1","0","","","","","","5","",""
"","","","","","single-stim-button","225","662517","0.0-3.0-13.4-1.4","60f3c1b003bbf8263f002824","C3","batch3","","5616","","","tol_toboard","","","","","","","","","tol_peg_2","5616","5616","0","[[0,0,0],[2,1],[3]]","5","[[2,1,3],[0,0],[0]]","1","0","","","","","","5","",""
"","","","","","single-stim-button","226","664938","0.0-3.0-13.5-0.5","60f3c1b003bbf8263f002824","C3","batch3","","2420","","","tol_tohand","","","","","","","","","tol_peg_3","2420","2420","0","[[0,0,0],[2,1],[0]]","6","[[2,1,3],[0,0],[0]]","1","0","","","","","","5","",""
"","","","","","single-stim-button","227","671044","0.0-3.0-13.5-1.5","60f3c1b003bbf8263f002824","C3","batch3","","6106","","","tol_toboard","","","","","","","","","tol_peg_1","6106","6106","0","[[3,0,0],[2,1],[0]]","6","[[2,1,3],[0,0],[0]]","1","0","","","","","","5","",""
"","","","","","single-stim-button","228","672987","0.0-3.0-13.6-0.6","60f3c1b003bbf8263f002824","C3","batch3","","1942","","","tol_tohand","","","","","","","","","tol_peg_2","1942","1942","0","[[3,0,0],[2,0],[0]]","7","[[2,1,3],[0,0],[0]]","1","0","","","","","","5","",""
"","","","","","single-stim-button","229","675681","0.0-3.0-13.6-1.6","60f3c1b003bbf8263f002824","C3","batch3","","2694","","","tol_toboard","","","","","","","","","tol_peg_3","2694","2694","0","[[3,0,0],[2,0],[1]]","7","[[2,1,3],[0,0],[0]]","1","0","","","","","","5","",""
"","","","","","single-stim-button","230","677124","0.0-3.0-13.7-0.7","60f3c1b003bbf8263f002824","C3","batch3","","1441","","","tol_tohand","","","","","","","","","tol_peg_1","1441","1441","0","[[0,0,0],[2,0],[1]]","8","[[2,1,3],[0,0],[0]]","1","0","","","","","","5","",""
"","","","","","single-stim-button","231","678671","0.0-3.0-13.7-1.7","60f3c1b003bbf8263f002824","C3","batch3","","1547","","","tol_toboard","","","","","","","","","tol_peg_2","1547","1547","0","[[0,0,0],[2,3],[1]]","8","[[2,1,3],[0,0],[0]]","1","0","","","","","","5","",""
"","","","","","single-stim-button","232","680544","0.0-3.0-13.8-0.8","60f3c1b003bbf8263f002824","C3","batch3","","1871","","","tol_tohand","","","","","","","","","tol_peg_2","1871","1871","0","[[0,0,0],[2,0],[1]]","9","[[2,1,3],[0,0],[0]]","1","0","","","","","","5","",""
"","","","","","single-stim-button","233","692872","0.0-3.0-13.8-1.8","60f3c1b003bbf8263f002824","C3","batch3","","12328","","","tol_toboard","","","","","","","","","tol_peg_2","12328","12328","0","[[0,0,0],[2,3],[1]]","9","[[2,1,3],[0,0],[0]]","1","0","","","","","","5","",""
"","","","","","single-stim-button","234","694244","0.0-3.0-13.9-0.9","60f3c1b003bbf8263f002824","C3","batch3","","1371","","","tol_tohand","","","","","","","","","tol_peg_2","1371","1371","0","[[0,0,0],[2,0],[1]]","10","[[2,1,3],[0,0],[0]]","1","0","","","","","","5","",""
"","","","","","single-stim-button","235","699156","0.0-3.0-13.9-1.9","60f3c1b003bbf8263f002824","C3","batch3","","4911","","","tol_toboard","","","","","","","","","tol_peg_2","4911","4911","0","[[0,0,0],[2,3],[1]]","10","[[2,1,3],[0,0],[0]]","1","0","","","","","","5","",""
"","","","","","single-stim-button","236","701184","0.0-3.0-13.10-0.10","60f3c1b003bbf8263f002824","C3","batch3","","2027","","","tol_tohand","","","","","","","","","tol_peg_2","2027","2027","0","[[0,0,0],[2,0],[1]]","11","[[2,1,3],[0,0],[0]]","1","0","","","","","","5","",""
"","","","","","single-stim-button","237","704507","0.0-3.0-13.10-1.10","60f3c1b003bbf8263f002824","C3","batch3","","3322","","","tol_toboard","","","","","","","","","tol_peg_1","3322","3322","0","[[3,0,0],[2,0],[1]]","11","[[2,1,3],[0,0],[0]]","1","0","","","","","","5","",""
"","","","","","single-stim-button","238","707056","0.0-3.0-13.11-0.11","60f3c1b003bbf8263f002824","C3","batch3","","2548","","","tol_tohand","","","","","","","","","tol_peg_2","2548","2548","0","[[3,0,0],[0,0],[1]]","12","[[2,1,3],[0,0],[0]]","1","0","","","","","","5","",""
"","","","","","single-stim-button","239","708448","0.0-3.0-13.11-1.11","60f3c1b003bbf8263f002824","C3","batch3","","1391","","","tol_toboard","","","","","","","","","tol_peg_1","1391","1391","0","[[3,2,0],[0,0],[1]]","12","[[2,1,3],[0,0],[0]]","1","0","","","","","","5","",""
"","","","","","single-stim-button","240","709732","0.0-3.0-13.12-0.12","60f3c1b003bbf8263f002824","C3","batch3","","1283","","","tol_tohand","","","","","","","","","tol_peg_3","1283","1283","0","[[3,2,0],[0,0],[0]]","13","[[2,1,3],[0,0],[0]]","1","0","","","","","","5","",""
"","","","","","single-stim-button","241","711252","0.0-3.0-13.12-1.12","60f3c1b003bbf8263f002824","C3","batch3","","1519","","","tol_toboard","","","","","","","","","tol_peg_1","1519","1519","0","[[3,2,1],[0,0],[0]]","13","[[2,1,3],[0,0],[0]]","1","0","","","","","","5","",""
"","","","","","single-stim-button","242","722023","0.0-3.0-13.13-0.13","60f3c1b003bbf8263f002824","C3","batch3","","10770","","","tol_tohand","","","","","","","","","tol_peg_1","10770","10770","0","[[3,2,0],[0,0],[0]]","14","[[2,1,3],[0,0],[0]]","1","0","","","","","","5","",""
"","","","","","single-stim-button","243","723395","0.0-3.0-13.13-1.13","60f3c1b003bbf8263f002824","C3","batch3","","1372","","","tol_toboard","","","","","","","","","tol_peg_3","1372","1372","0","[[3,2,0],[0,0],[1]]","14","[[2,1,3],[0,0],[0]]","1","0","","","","","","5","",""
"","","","","","single-stim-button","244","727287","0.0-3.0-13.14-0.14","60f3c1b003bbf8263f002824","C3","batch3","","3892","","","tol_tohand","","","","","","","","","tol_peg_1","3892","3892","0","[[3,0,0],[0,0],[1]]","15","[[2,1,3],[0,0],[0]]","1","0","","","","","","5","",""
"","","","","","single-stim-button","245","728746","0.0-3.0-13.14-1.14","60f3c1b003bbf8263f002824","C3","batch3","","1459","","","tol_toboard","","","","","","","","","tol_peg_1","1459","1459","0","[[3,2,0],[0,0],[1]]","15","[[2,1,3],[0,0],[0]]","1","0","","","","","","5","",""
"","","","","","single-stim-button","246","730197","0.0-3.0-13.15-0.15","60f3c1b003bbf8263f002824","C3","batch3","","1449","","","tol_tohand","","","","","","","","","tol_peg_1","1449","1449","0","[[3,0,0],[0,0],[1]]","16","[[2,1,3],[0,0],[0]]","1","0","","","","","","5","",""
"","","","","","single-stim-button","247","733353","0.0-3.0-13.15-1.15","60f3c1b003bbf8263f002824","C3","batch3","","3156","","","tol_toboard","","","","","","","","","tol_peg_2","3156","3156","0","[[3,0,0],[2,0],[1]]","16","[[2,1,3],[0,0],[0]]","1","0","","","","","","5","",""
"","","","","","single-stim-button","248","734470","0.0-3.0-13.16-0.16","60f3c1b003bbf8263f002824","C3","batch3","","1116","","","tol_tohand","","","","","","","","","tol_peg_1","1116","1116","0","[[0,0,0],[2,0],[1]]","17","[[2,1,3],[0,0],[0]]","1","0","","","","","","5","",""
"","","","","","single-stim-button","249","735970","0.0-3.0-13.16-1.16","60f3c1b003bbf8263f002824","C3","batch3","","1499","","","tol_toboard","","","","","","","","","tol_peg_2","1499","1499","0","[[0,0,0],[2,3],[1]]","17","[[2,1,3],[0,0],[0]]","1","0","","","","","","5","",""
"","","","","","single-stim-button","250","738391","0.0-3.0-13.17-0.17","60f3c1b003bbf8263f002824","C3","batch3","","2420","","","tol_tohand","","","","","","","","","tol_peg_2","2420","2420","0","[[0,0,0],[2,0],[1]]","18","[[2,1,3],[0,0],[0]]","1","0","","","","","","5","",""
"","","","","","single-stim-button","251","739420","0.0-3.0-13.17-1.17","60f3c1b003bbf8263f002824","C3","batch3","","1027","","","tol_toboard","","","","","","","","","tol_peg_2","1027","1027","0","[[0,0,0],[2,3],[1]]","18","[[2,1,3],[0,0],[0]]","1","0","","","","","","5","",""
"","","","","","single-stim-button","252","740821","0.0-3.0-13.18-0.18","60f3c1b003bbf8263f002824","C3","batch3","","1401","","","tol_tohand","","","","","","","","","tol_peg_2","1401","1401","0","[[0,0,0],[2,0],[1]]","19","[[2,1,3],[0,0],[0]]","1","0","","","","","","5","",""
"","","","","","single-stim-button","253","798717","0.0-3.0-13.18-1.18","60f3c1b003bbf8263f002824","C3","batch3","","57895","","","tol_toboard","","","","","","","","","tol_peg_2","57895","57895","0","[[0,0,0],[2,3],[1]]","19","[[2,1,3],[0,0],[0]]","1","0","","","","","","5","",""
"","","","","","single-stim-button","254","805587","0.0-3.0-13.19-0.19","60f3c1b003bbf8263f002824","C3","batch3","","6869","","","tol_tohand","","","","","","","","","tol_peg_3","6869","6869","0","[[0,0,0],[2,3],[0]]","20","[[2,1,3],[0,0],[0]]","1","0","","","","","","5","",""
"","","","","","single-stim-button","255","808067","0.0-3.0-13.19-1.19","60f3c1b003bbf8263f002824","C3","batch3","","2479","","","tol_toboard","","","","","","","","","tol_peg_1","2479","2479","0","[[1,0,0],[2,3],[0]]","20","[[2,1,3],[0,0],[0]]","1","0","","","","","","5","",""
"","","","","","single-stim-button","256","809567","0.0-3.0-13.20-0.20","60f3c1b003bbf8263f002824","C3","batch3","","1499","","","tol_tohand","","","","","","","","","tol_peg_2","1499","1499","0","[[1,0,0],[2,0],[0]]","21","[[2,1,3],[0,0],[0]]","1","0","","","","","","5","",""
"","","","","","single-stim-button","257","810782","0.0-3.0-13.20-1.20","60f3c1b003bbf8263f002824","C3","batch3","","1215","","","tol_toboard","","","","","","","","","tol_peg_3","1215","1215","0","[[1,0,0],[2,0],[3]]","21","[[2,1,3],[0,0],[0]]","1","0","","","","","","5","",""
"","","","","","single-stim-button","258","813918","0.0-3.0-13.21-0.21","60f3c1b003bbf8263f002824","C3","batch3","","3135","","","tol_tohand","","","","","","","","","tol_peg_1","3135","3135","0","[[0,0,0],[2,0],[3]]","22","[[2,1,3],[0,0],[0]]","1","0","","","","","","5","",""
"","","","","","single-stim-button","259","815173","0.0-3.0-13.21-1.21","60f3c1b003bbf8263f002824","C3","batch3","","1254","","","tol_toboard","","","","","","","","","tol_peg_2","1254","1254","0","[[0,0,0],[2,1],[3]]","22","[[2,1,3],[0,0],[0]]","1","0","","","","","","5","",""
"","","","","","single-stim-button","260","816545","0.0-3.0-13.22-0.22","60f3c1b003bbf8263f002824","C3","batch3","","1371","","","tol_tohand","","","","","","","","","tol_peg_2","1371","1371","0","[[0,0,0],[2,0],[3]]","23","[[2,1,3],[0,0],[0]]","1","0","","","","","","5","",""
"","","","","","single-stim-button","261","818163","0.0-3.0-13.22-1.22","60f3c1b003bbf8263f002824","C3","batch3","","1618","","","tol_toboard","","","","","","","","","tol_peg_2","1618","1618","0","[[0,0,0],[2,1],[3]]","23","[[2,1,3],[0,0],[0]]","1","0","","","","","","5","",""
"","","","","","single-stim-button","262","819388","0.0-3.0-13.23-0.23","60f3c1b003bbf8263f002824","C3","batch3","","1225","","","tol_tohand","","","","","","","","","tol_peg_2","1225","1225","0","[[0,0,0],[2,0],[3]]","24","[[2,1,3],[0,0],[0]]","1","0","","","","","","5","",""
"","","","","","single-stim-button","263","822250","0.0-3.0-13.23-1.23","60f3c1b003bbf8263f002824","C3","batch3","","2862","","","tol_toboard","","","","","","","","","tol_peg_2","2862","2862","0","[[0,0,0],[2,1],[3]]","24","[[2,1,3],[0,0],[0]]","1","0","","","","","","5","",""
"","","","","","single-stim-button","264","825190","0.0-3.0-13.24-0.24","60f3c1b003bbf8263f002824","C3","batch3","","2940","","","tol_tohand","","","","","","","","","tol_peg_2","2940","2940","0","[[0,0,0],[2,0],[3]]","25","[[2,1,3],[0,0],[0]]","1","0","","","","","","5","",""
"","","","","","single-stim-button","265","826415","0.0-3.0-13.24-1.24","60f3c1b003bbf8263f002824","C3","batch3","","1225","","","tol_toboard","","","","","","","","","tol_peg_2","1225","1225","0","[[0,0,0],[2,1],[3]]","25","[[2,1,3],[0,0],[0]]","1","0","","","","","","5","",""
"","","","","","single-stim-button","266","827630","0.0-3.0-13.25-0.25","60f3c1b003bbf8263f002824","C3","batch3","","1215","","","tol_tohand","","","","","","","","","tol_peg_3","1215","1215","0","[[0,0,0],[2,1],[0]]","26","[[2,1,3],[0,0],[0]]","1","0","","","","","","5","",""
"","","","","","single-stim-button","267","834178","0.0-3.0-13.25-1.25","60f3c1b003bbf8263f002824","C3","batch3","","6546","","","tol_toboard","","","","","","","","","tol_peg_1","6546","6546","0","[[3,0,0],[2,1],[0]]","26","[[2,1,3],[0,0],[0]]","1","0","","","","","","5","",""
"","","","","","single-stim-button","268","836178","0.0-3.0-13.26-0.26","60f3c1b003bbf8263f002824","C3","batch3","","1999","","","tol_tohand","","","","","","","","","tol_peg_2","1999","1999","0","[[3,0,0],[2,0],[0]]","27","[[2,1,3],[0,0],[0]]","1","0","","","","","","5","",""
"","","","","","single-stim-button","269","837364","0.0-3.0-13.26-1.26","60f3c1b003bbf8263f002824","C3","batch3","","1186","","","tol_toboard","","","","","","","","","tol_peg_3","1186","1186","0","[[3,0,0],[2,0],[1]]","27","[[2,1,3],[0,0],[0]]","1","0","","","","","","5","",""
"","","","","","single-stim-button","270","839725","0.0-3.0-13.27-0.27","60f3c1b003bbf8263f002824","C3","batch3","","2360","","","tol_tohand","","","","","","","","","tol_peg_2","2360","2360","0","[[3,0,0],[0,0],[1]]","28","[[2,1,3],[0,0],[0]]","1","0","","","","","","5","",""
"","","","","","single-stim-button","271","840882","0.0-3.0-13.27-1.27","60f3c1b003bbf8263f002824","C3","batch3","","1156","","","tol_toboard","","","","","","","","","tol_peg_1","1156","1156","0","[[3,2,0],[0,0],[1]]","28","[[2,1,3],[0,0],[0]]","1","0","","","","","","5","",""
"","","","","","single-stim-button","272","847331","0.0-3.0-13.28-0.28","60f3c1b003bbf8263f002824","C3","batch3","","6448","","","tol_tohand","","","","","","","","","tol_peg_1","6448","6448","0","[[3,0,0],[0,0],[1]]","29","[[2,1,3],[0,0],[0]]","1","0","","","","","","5","",""
"","","","","","single-stim-button","273","850644","0.0-3.0-13.28-1.28","60f3c1b003bbf8263f002824","C3","batch3","","3313","","","tol_toboard","","","","","","","","","tol_peg_2","3313","3313","0","[[3,0,0],[2,0],[1]]","29","[[2,1,3],[0,0],[0]]","1","0","","","","","","5","",""
"","","","","","single-stim-button","274","851752","0.0-3.0-13.29-0.29","60f3c1b003bbf8263f002824","C3","batch3","","1106","","","tol_tohand","","","","","","","","","tol_peg_1","1106","1106","0","[[0,0,0],[2,0],[1]]","30","[[2,1,3],[0,0],[0]]","1","0","","","","","","5","",""
"","","","","","single-stim-button","275","852791","0.0-3.0-13.29-1.29","60f3c1b003bbf8263f002824","C3","batch3","","1038","","","tol_toboard","","","","","","","","","tol_peg_2","1038","1038","0","[[0,0,0],[2,3],[1]]","30","[[2,1,3],[0,0],[0]]","1","0","","","","","","5","",""
"","","","","","single-stim-button","276","855162","0.0-3.0-13.30-0.30","60f3c1b003bbf8263f002824","C3","batch3","","2371","","","tol_tohand","","","","","","","","","tol_peg_2","2371","2371","0","[[0,0,0],[2,0],[1]]","31","[[2,1,3],[0,0],[0]]","1","0","","","","","","5","",""
"","","","","","single-stim-button","277","857867","0.0-3.0-13.30-1.30","60f3c1b003bbf8263f002824","C3","batch3","","2704","","","tol_toboard","","","","","","","","","tol_peg_2","2704","2704","0","[[0,0,0],[2,3],[1]]","31","[[2,1,3],[0,0],[0]]","1","0","","","","","","5","",""
"","","","","","single-stim-button","278","859692","0.0-3.0-13.31-0.31","60f3c1b003bbf8263f002824","C3","batch3","","1824","","","tol_tohand","","","","","","","","","tol_peg_2","1824","1824","0","[[0,0,0],[2,0],[1]]","32","[[2,1,3],[0,0],[0]]","1","0","","","","","","5","",""
"","","","","","single-stim-button","279","861542","0.0-3.0-13.31-1.31","60f3c1b003bbf8263f002824","C3","batch3","","1850","","","tol_toboard","","","","","","","","","tol_peg_1","1850","1850","0","[[3,0,0],[2,0],[1]]","32","[[2,1,3],[0,0],[0]]","1","0","","","","","","5","",""
"","","","","","single-stim-button","280","863297","0.0-3.0-13.32-0.32","60f3c1b003bbf8263f002824","C3","batch3","","1753","","","tol_tohand","","","","","","","","","tol_peg_2","1753","1753","0","[[3,0,0],[0,0],[1]]","33","[[2,1,3],[0,0],[0]]","1","0","","","","","","5","",""
"","","","","","single-stim-button","281","864414","0.0-3.0-13.32-1.32","60f3c1b003bbf8263f002824","C3","batch3","","1117","","","tol_toboard","","","","","","","","","tol_peg_1","1117","1117","0","[[3,2,0],[0,0],[1]]","33","[[2,1,3],[0,0],[0]]","1","0","","","","","","5","",""
"","","","","","single-stim-button","282","865473","0.0-3.0-13.33-0.33","60f3c1b003bbf8263f002824","C3","batch3","","1058","","","tol_tohand","","","","","","","","","tol_peg_3","1058","1058","0","[[3,2,0],[0,0],[0]]","34","[[2,1,3],[0,0],[0]]","1","0","","","","","","5","",""
"","","","","","single-stim-button","283","867306","0.0-3.0-13.33-1.33","60f3c1b003bbf8263f002824","C3","batch3","","1832","","","tol_toboard","","","","","","","","","tol_peg_1","1832","1832","0","[[3,2,1],[0,0],[0]]","34","[[2,1,3],[0,0],[0]]","1","0","","","","","","5","",""
"","","","","","single-stim-button","284","869070","0.0-3.0-13.34-0.34","60f3c1b003bbf8263f002824","C3","batch3","","1763","","","tol_tohand","","","","","","","","","tol_peg_1","1763","1763","0","[[3,2,0],[0,0],[0]]","35","[[2,1,3],[0,0],[0]]","1","0","","","","","","5","",""
"","","","","","single-stim-button","285","874177","0.0-3.0-13.34-1.34","60f3c1b003bbf8263f002824","C3","batch3","","5107","","","tol_toboard","","","","","","","","","tol_peg_2","5107","5107","0","[[3,2,0],[1,0],[0]]","35","[[2,1,3],[0,0],[0]]","1","0","","","","","","5","",""
"","","","","","single-stim-button","286","875451","0.0-3.0-13.35-0.35","60f3c1b003bbf8263f002824","C3","batch3","","1273","","","tol_tohand","","","","","","","","","tol_peg_1","1273","1273","0","[[3,0,0],[1,0],[0]]","36","[[2,1,3],[0,0],[0]]","1","0","","","","","","5","",""
"","","","","","single-stim-button","287","876441","0.0-3.0-13.35-1.35","60f3c1b003bbf8263f002824","C3","batch3","","989","","","tol_toboard","","","","","","","","","tol_peg_2","989","989","0","[[3,0,0],[1,2],[0]]","36","[[2,1,3],[0,0],[0]]","1","0","","","","","","5","",""
"","","","","","single-stim-button","288","877421","0.0-3.0-13.36-0.36","60f3c1b003bbf8263f002824","C3","batch3","","979","","","tol_tohand","","","","","","","","","tol_peg_1","979","979","0","[[0,0,0],[1,2],[0]]","37","[[2,1,3],[0,0],[0]]","1","0","","","","","","5","",""
"","","","","","single-stim-button","289","878893","0.0-3.0-13.36-1.36","60f3c1b003bbf8263f002824","C3","batch3","","1470","","","tol_toboard","","","","","","","","","tol_peg_3","1470","1470","0","[[0,0,0],[1,2],[3]]","37","[[2,1,3],[0,0],[0]]","1","0","","","","","","5","",""
"","","","","","single-stim-button","290","880040","0.0-3.0-13.37-0.37","60f3c1b003bbf8263f002824","C3","batch3","","1146","","","tol_tohand","","","","","","","","","tol_peg_2","1146","1146","0","[[0,0,0],[1,0],[3]]","38","[[2,1,3],[0,0],[0]]","1","0","","","","","","5","",""
"","","","","","single-stim-button","291","882333","0.0-3.0-13.37-1.37","60f3c1b003bbf8263f002824","C3","batch3","","2292","","","tol_toboard","","","","","","","","","tol_peg_1","2292","2292","0","[[2,0,0],[1,0],[3]]","38","[[2,1,3],[0,0],[0]]","1","0","","","","","","5","",""
"","","","","","single-stim-button","292","883528","0.0-3.0-13.38-0.38","60f3c1b003bbf8263f002824","C3","batch3","","1195","","","tol_tohand","","","","","","","","","tol_peg_2","1195","1195","0","[[2,0,0],[0,0],[3]]","39","[[2,1,3],[0,0],[0]]","1","0","","","","","","5","",""
"","","","","","single-stim-button","293","886145","0.0-3.0-13.38-1.38","60f3c1b003bbf8263f002824","C3","batch3","","2616","","","tol_toboard","","","","","","","","","tol_peg_1","2616","2616","0","[[2,1,0],[0,0],[3]]","39","[[2,1,3],[0,0],[0]]","1","0","","","","","","5","",""
"","","","","","single-stim-button","294","887145","0.0-3.0-13.39-0.39","60f3c1b003bbf8263f002824","C3","batch3","","999","","","tol_tohand","","","","","","","","","tol_peg_3","999","999","0","[[2,1,0],[0,0],[0]]","40","[[2,1,3],[0,0],[0]]","1","0","","","","","","5","",""
"","","","","","single-stim-button","295","888949","0.0-3.0-13.39-1.39","60f3c1b003bbf8263f002824","C3","batch3","","1802","","","tol_toboard","","","","","","","","","tol_peg_1","1802","1802","0","[[2,1,3],[0,0],[0]]","40","[[2,1,3],[0,0],[0]]","1","0","","","","","","5","",""
"","","","","","poldrack-single-stim","296","889962","0.0-3.0-14.0","60f3c1b003bbf8263f002824","C3","batch3","","-1","","","tol_feedback","true","","","","","","","","","1000","1000","500","","","","","","-1","none","true","2714","92157","","",""
"","","","","","html-button-response","297","891322","0.0-3.0-15.0","60f3c1b003bbf8263f002824","C3","batch3","","1359.1999999284744","<div class = centerbox><p class = center-block-text>problem <strong>3</strong> out of 25 problems</p></div>","0","tol_trial_num","","","","","","","","","","","","","","","","","","","","","","","","",""
"","","","","","single-stim-button","298","897153","0.0-3.0-16.0-0.0","60f3c1b003bbf8263f002824","C3","batch3","","5829","","","tol_tohand","","","","","","","","","tol_peg_1","5829","5829","0","[[2,0,0],[0,0],[1]]","1","[[1,2,0],[3,0],[0]]","2","0","","","","","","4","",""
"","","","","","single-stim-button","299","898662","0.0-3.0-16.0-1.0","60f3c1b003bbf8263f002824","C3","batch3","","1509","","","tol_toboard","","","","","","","","","tol_peg_2","1509","1509","0","[[2,0,0],[3,0],[1]]","1","[[1,2,0],[3,0],[0]]","2","0","","","","","","4","",""
"","","","","","single-stim-button","300","903611","0.0-3.0-16.1-0.1","60f3c1b003bbf8263f002824","C3","batch3","","4948","","","tol_tohand","","","","","","","","","tol_peg_1","4948","4948","0","[[0,0,0],[3,0],[1]]","2","[[1,2,0],[3,0],[0]]","2","0","","","","","","4","",""
"","","","","","single-stim-button","301","905092","0.0-3.0-16.1-1.1","60f3c1b003bbf8263f002824","C3","batch3","","1480","","","tol_toboard","","","","","","","","","tol_peg_2","1480","1480","0","[[0,0,0],[3,2],[1]]","2","[[1,2,0],[3,0],[0]]","2","0","","","","","","4","",""
"","","","","","single-stim-button","302","906209","0.0-3.0-16.2-0.2","60f3c1b003bbf8263f002824","C3","batch3","","1117","","","tol_tohand","","","","","","","","","tol_peg_3","1117","1117","0","[[0,0,0],[3,2],[0]]","3","[[1,2,0],[3,0],[0]]","2","0","","","","","","4","",""
"","","","","","single-stim-button","303","908023","0.0-3.0-16.2-1.2","60f3c1b003bbf8263f002824","C3","batch3","","1813","","","tol_toboard","","","","","","","","","tol_peg_1","1813","1813","0","[[1,0,0],[3,2],[0]]","3","[[1,2,0],[3,0],[0]]","2","0","","","","","","4","",""
"","","","","","single-stim-button","304","909122","0.0-3.0-16.3-0.3","60f3c1b003bbf8263f002824","C3","batch3","","1098","","","tol_tohand","","","","","","","","","tol_peg_2","1098","1098","0","[[1,0,0],[3,0],[0]]","4","[[1,2,0],[3,0],[0]]","2","0","","","","","","4","",""
"","","","","","single-stim-button","305","910327","0.0-3.0-16.3-1.3","60f3c1b003bbf8263f002824","C3","batch3","","1204","","","tol_toboard","","","","","","","","","tol_peg_1","1204","1204","0","[[1,2,0],[3,0],[0]]","4","[[1,2,0],[3,0],[0]]","2","0","","","","","","4","",""
"","","","","","poldrack-single-stim","306","911328","0.0-3.0-17.0","60f3c1b003bbf8263f002824","C3","batch3","","-1","","","tol_feedback","true","","","","","","","","","1000","1000","500","","","","","","-1","none","true","5829","12992","","",""
"","","","","","html-button-response","307","913258","0.0-3.0-18.0","60f3c1b003bbf8263f002824","C3","batch3","","1928.1000000238419","<div class = centerbox><p class = center-block-text>problem <strong>4</strong> out of 25 problems</p></div>","0","tol_trial_num","","","","","","","","","","","","","","","","","","","","","","","","",""
"","","","","","single-stim-button","308","927967","0.0-3.0-19.0-0.0","60f3c1b003bbf8263f002824","C3","batch3","","14709","","","tol_tohand","","","","","","","","","tol_peg_2","14709","14709","0","[[3,0,0],[2,0],[0]]","1","[[3,0,0],[1,0],[2]]","3","0","","","","","","3","",""
"","","","","","single-stim-button","309","929849","0.0-3.0-19.0-1.0","60f3c1b003bbf8263f002824","C3","batch3","","1882","","","tol_toboard","","","","","","","","","tol_peg_1","1882","1882","0","[[3,1,0],[2,0],[0]]","1","[[3,0,0],[1,0],[2]]","3","0","","","","","","3","",""
"","","","","","single-stim-button","310","931025","0.0-3.0-19.1-0.1","60f3c1b003bbf8263f002824","C3","batch3","","1176","","","tol_tohand","","","","","","","","","tol_peg_2","1176","1176","0","[[3,1,0],[0,0],[0]]","2","[[3,0,0],[1,0],[2]]","3","0","","","","","","3","",""
"","","","","","single-stim-button","311","932585","0.0-3.0-19.1-1.1","60f3c1b003bbf8263f002824","C3","batch3","","1558","","","tol_toboard","","","","","","","","","tol_peg_3","1558","1558","0","[[3,1,0],[0,0],[2]]","2","[[3,0,0],[1,0],[2]]","3","0","","","","","","3","",""
"","","","","","single-stim-button","312","933574","0.0-3.0-19.2-0.2","60f3c1b003bbf8263f002824","C3","batch3","","989","","","tol_tohand","","","","","","","","","tol_peg_1","989","989","0","[[3,0,0],[0,0],[2]]","3","[[3,0,0],[1,0],[2]]","3","0","","","","","","3","",""
"","","","","","single-stim-button","313","934868","0.0-3.0-19.2-1.2","60f3c1b003bbf8263f002824","C3","batch3","","1292","","","tol_toboard","","","","","","","","","tol_peg_2","1292","1292","0","[[3,0,0],[1,0],[2]]","3","[[3,0,0],[1,0],[2]]","3","0","","","","","","3","",""
"","","","","","poldrack-single-stim","314","935869","0.0-3.0-20.0","60f3c1b003bbf8263f002824","C3","batch3","","-1","","","tol_feedback","true","","","","","","","","","1000","1000","500","","","","","","-1","none","true","14709","16874","","",""
"","","","","","html-button-response","315","937357","0.0-3.0-21.0","60f3c1b003bbf8263f002824","C3","batch3","","1487.6000000238419","<div class = centerbox><p class = center-block-text>problem <strong>5</strong> out of 25 problems</p></div>","0","tol_trial_num","","","","","","","","","","","","","","","","","","","","","","","","",""
"","","","","","single-stim-button","316","943443","0.0-3.0-22.0-0.0","60f3c1b003bbf8263f002824","C3","batch3","","6084","","","tol_tohand","","","","","","","","","tol_peg_2","6084","6084","0","[[1,0,0],[0,0],[3]]","1","[[0,0,0],[1,2],[3]]","4","0","","","","","","7","",""
"","","","","","single-stim-button","317","945207","0.0-3.0-22.0-1.0","60f3c1b003bbf8263f002824","C3","batch3","","1764","","","tol_toboard","","","","","","","","","tol_peg_1","1764","1764","0","[[1,2,0],[0,0],[3]]","1","[[0,0,0],[1,2],[3]]","4","0","","","","","","7","",""
"","","","","","single-stim-button","318","951528","0.0-3.0-22.1-0.1","60f3c1b003bbf8263f002824","C3","batch3","","6321","","","tol_tohand","","","","","","","","","tol_peg_1","6321","6321","0","[[1,0,0],[0,0],[3]]","2","[[0,0,0],[1,2],[3]]","4","0","","","","","","7","",""
"","","","","","single-stim-button","319","961985","0.0-3.0-22.1-1.1","60f3c1b003bbf8263f002824","C3","batch3","","10456","","","tol_toboard","","","","","","","","","tol_peg_1","10456","10456","0","[[1,2,0],[0,0],[3]]","2","[[0,0,0],[1,2],[3]]","4","0","","","","","","7","",""
"","","","","","single-stim-button","320","966610","0.0-3.0-22.2-0.2","60f3c1b003bbf8263f002824","C3","batch3","","4624","","","tol_tohand","","","","","","","","","tol_peg_3","4624","4624","0","[[1,2,0],[0,0],[0]]","3","[[0,0,0],[1,2],[3]]","4","0","","","","","","7","",""
"","","","","","single-stim-button","321","967640","0.0-3.0-22.2-1.2","60f3c1b003bbf8263f002824","C3","batch3","","1028","","","tol_toboard","","","","","","","","","tol_peg_1","1028","1028","0","[[1,2,3],[0,0],[0]]","3","[[0,0,0],[1,2],[3]]","4","0","","","","","","7","",""
"","","","","","single-stim-button","322","969962","0.0-3.0-22.3-0.3","60f3c1b003bbf8263f002824","C3","batch3","","2322","","","tol_tohand","","","","","","","","","tol_peg_1","2322","2322","0","[[1,2,0],[0,0],[0]]","4","[[0,0,0],[1,2],[3]]","4","0","","","","","","7","",""
"","","","","","single-stim-button","323","973824","0.0-3.0-22.3-1.3","60f3c1b003bbf8263f002824","C3","batch3","","3860","","","tol_toboard","","","","","","","","","tol_peg_2","3860","3860","0","[[1,2,0],[3,0],[0]]","4","[[0,0,0],[1,2],[3]]","4","0","","","","","","7","",""
"","","","","","single-stim-button","324","974725","0.0-3.0-22.4-0.4","60f3c1b003bbf8263f002824","C3","batch3","","901","","","tol_tohand","","","","","","","","","tol_peg_1","901","901","0","[[1,0,0],[3,0],[0]]","5","[[0,0,0],[1,2],[3]]","4","0","","","","","","7","",""
"","","","","","single-stim-button","325","979969","0.0-3.0-22.4-1.4","60f3c1b003bbf8263f002824","C3","batch3","","5242","","","tol_toboard","","","","","","","","","tol_peg_1","5242","5242","0","[[1,2,0],[3,0],[0]]","5","[[0,0,0],[1,2],[3]]","4","0","","","","","","7","",""
"","","","","","single-stim-button","326","981106","0.0-3.0-22.5-0.5","60f3c1b003bbf8263f002824","C3","batch3","","1137","","","tol_tohand","","","","","","","","","tol_peg_2","1137","1137","0","[[1,2,0],[0,0],[0]]","6","[[0,0,0],[1,2],[3]]","4","0","","","","","","7","",""
"","","","","","single-stim-button","327","982390","0.0-3.0-22.5-1.5","60f3c1b003bbf8263f002824","C3","batch3","","1283","","","tol_toboard","","","","","","","","","tol_peg_3","1283","1283","0","[[1,2,0],[0,0],[3]]","6","[[0,0,0],[1,2],[3]]","4","0","","","","","","7","",""
"","","","","","single-stim-button","328","984840","0.0-3.0-22.6-0.6","60f3c1b003bbf8263f002824","C3","batch3","","2450","","","tol_tohand","","","","","","","","","tol_peg_1","2450","2450","0","[[1,0,0],[0,0],[3]]","7","[[0,0,0],[1,2],[3]]","4","0","","","","","","7","",""
"","","","","","single-stim-button","329","991681","0.0-3.0-22.6-1.6","60f3c1b003bbf8263f002824","C3","batch3","","6840","","","tol_toboard","","","","","","","","","tol_peg_2","6840","6840","0","[[1,0,0],[2,0],[3]]","7","[[0,0,0],[1,2],[3]]","4","0","","","","","","7","",""
"","","","","","single-stim-button","330","993024","0.0-3.0-22.7-0.7","60f3c1b003bbf8263f002824","C3","batch3","","1342","","","tol_tohand","","","","","","","","","tol_peg_1","1342","1342","0","[[0,0,0],[2,0],[3]]","8","[[0,0,0],[1,2],[3]]","4","0","","","","","","7","",""
"","","","","","single-stim-button","331","994161","0.0-3.0-22.7-1.7","60f3c1b003bbf8263f002824","C3","batch3","","1136","","","tol_toboard","","","","","","","","","tol_peg_2","1136","1136","0","[[0,0,0],[2,1],[3]]","8","[[0,0,0],[1,2],[3]]","4","0","","","","","","7","",""
"","","","","","single-stim-button","332","995965","0.0-3.0-22.8-0.8","60f3c1b003bbf8263f002824","C3","batch3","","1804","","","tol_tohand","","","","","","","","","tol_peg_3","1804","1804","0","[[0,0,0],[2,1],[0]]","9","[[0,0,0],[1,2],[3]]","4","0","","","","","","7","",""
"","","","","","single-stim-button","333","1000031","0.0-3.0-22.8-1.8","60f3c1b003bbf8263f002824","C3","batch3","","4065","","","tol_toboard","","","","","","","","","tol_peg_1","4065","4065","0","[[3,0,0],[2,1],[0]]","9","[[0,0,0],[1,2],[3]]","4","0","","","","","","7","",""
"","","","","","single-stim-button","334","1004637","0.0-3.0-22.9-0.9","60f3c1b003bbf8263f002824","C3","batch3","","4605","","","tol_tohand","","","","","","","","","tol_peg_2","4605","4605","0","[[3,0,0],[2,0],[0]]","10","[[0,0,0],[1,2],[3]]","4","0","","","","","","7","",""
"","","","","","single-stim-button","335","1006450","0.0-3.0-22.9-1.9","60f3c1b003bbf8263f002824","C3","batch3","","1812","","","tol_toboard","","","","","","","","","tol_peg_3","1812","1812","0","[[3,0,0],[2,0],[1]]","10","[[0,0,0],[1,2],[3]]","4","0","","","","","","7","",""
"","","","","","single-stim-button","336","1007443","0.0-3.0-22.10-0.10","60f3c1b003bbf8263f002824","C3","batch3","","992","","","tol_tohand","","","","","","","","","tol_peg_2","992","992","0","[[3,0,0],[0,0],[1]]","11","[[0,0,0],[1,2],[3]]","4","0","","","","","","7","",""
"","","","","","single-stim-button","337","1008607","0.0-3.0-22.10-1.10","60f3c1b003bbf8263f002824","C3","batch3","","1162","","","tol_toboard","","","","","","","","","tol_peg_1","1162","1162","0","[[3,2,0],[0,0],[1]]","11","[[0,0,0],[1,2],[3]]","4","0","","","","","","7","",""
"","","","","","single-stim-button","338","1009862","0.0-3.0-22.11-0.11","60f3c1b003bbf8263f002824","C3","batch3","","1254","","","tol_tohand","","","","","","","","","tol_peg_3","1254","1254","0","[[3,2,0],[0,0],[0]]","12","[[0,0,0],[1,2],[3]]","4","0","","","","","","7","",""
"","","","","","single-stim-button","339","1011185","0.0-3.0-22.11-1.11","60f3c1b003bbf8263f002824","C3","batch3","","1322","","","tol_toboard","","","","","","","","","tol_peg_2","1322","1322","0","[[3,2,0],[1,0],[0]]","12","[[0,0,0],[1,2],[3]]","4","0","","","","","","7","",""
"","","","","","single-stim-button","340","1012302","0.0-3.0-22.12-0.12","60f3c1b003bbf8263f002824","C3","batch3","","1117","","","tol_tohand","","","","","","","","","tol_peg_1","1117","1117","0","[[3,0,0],[1,0],[0]]","13","[[0,0,0],[1,2],[3]]","4","0","","","","","","7","",""
"","","","","","single-stim-button","341","1013666","0.0-3.0-22.12-1.12","60f3c1b003bbf8263f002824","C3","batch3","","1362","","","tol_toboard","","","","","","","","","tol_peg_2","1362","1362","0","[[3,0,0],[1,2],[0]]","13","[[0,0,0],[1,2],[3]]","4","0","","","","","","7","",""
"","","","","","single-stim-button","342","1015086","0.0-3.0-22.13-0.13","60f3c1b003bbf8263f002824","C3","batch3","","1420","","","tol_tohand","","","","","","","","","tol_peg_1","1420","1420","0","[[0,0,0],[1,2],[0]]","14","[[0,0,0],[1,2],[3]]","4","0","","","","","","7","",""
"","","","","","single-stim-button","343","1016743","0.0-3.0-22.13-1.13","60f3c1b003bbf8263f002824","C3","batch3","","1656","","","tol_toboard","","","","","","","","","tol_peg_3","1656","1656","0","[[0,0,0],[1,2],[3]]","14","[[0,0,0],[1,2],[3]]","4","0","","","","","","7","",""
"","","","","","poldrack-single-stim","344","1017760","0.0-3.0-23.0","60f3c1b003bbf8263f002824","C3","batch3","","-1","","","tol_feedback","true","","","","","","","","","1000","1000","500","","","","","","-1","none","true","6084","36373","","",""
"","","","","","html-button-response","345","1019928","0.0-3.0-24.0","60f3c1b003bbf8263f002824","C3","batch3","","2167.100000023842","<div class = centerbox><p class = center-block-text>problem <strong>6</strong> out of 25 problems</p></div>","0","tol_trial_num","","","","","","","","","","","","","","","","","","","","","","","","",""
