"success","timeout","failed_images","failed_audio","failed_video","trial_type","trial_index","time_elapsed","internal_node_id","subject_id","study_id","session_id","view_history","rt","stimulus","response","task","correct","answer","item","fiar_detect_rt","fiar_detect_correct","total_correct_fiar_detect","post_trial_gap","choices","mouse_click","stim_duration","block_duration","timing_post_trial","current_position","tol_num_moves_made","tol_target","tol_problem_id","tol_rt","key_press","possible_responses","tol_correct","preplanning","tol_rt_per_trial","tol_min_moves","spm_correct","spm_rt"
"true","false","[]","[]","[]","preload","0","2762","0.0-0.0","60f5dc6cba19bf6145b8c921","D2","batch4","","","","","","","","","","","","","","","","","","","","","","","","","","","","","",""
"true","","","","","fullscreen","1","9785","0.0-1.0-0.0","60f5dc6cba19bf6145b8c921","D2","batch4","","","","","","","","","","","","","","","","","","","","","","","","","","","","","",""
"true","","","","","fullscreen","2","13509","0.0-2.0-0.0","60f5dc6cba19bf6145b8c921","D2","batch4","","","","","","","","","","","","","","","","","","","","","","","","","","","","","",""
"","","","","","instructions","3","24754","0.0-2.0-1.0-0.0","60f5dc6cba19bf6145b8c921","D2","batch4","[{""page_index"":0,""viewing_time"":7894.699999928474},{""page_index"":1,""viewing_time"":3347.899999976158}]","11243.199999928474","","","","","","","","","","","","","","","","","","","","","","","","","","","",""
"","","","","","html-button-response","4","25884","0.0-2.0-1.0-1.0-0.0","60f5dc6cba19bf6145b8c921","D2","batch4","","1128","<p class=block-text> Let's answer a few questions <br>","0","pattern_enter_quiz","","","","","","","","","","","","","","","","","","","","","","","","",""
"","","","","","html-button-response","5","28227","0.0-2.0-1.0-1.0-1.0","60f5dc6cba19bf6145b8c921","D2","batch4","","2340.899999976158","<p class = block-text>True or False: You will have as much time as you want to make each choice. <br></p>","1","pattern_quiz","true","","","","","","","","","","","","","","","","","","","","","","","",""
"","","","","","html-button-response","6","29162","0.0-2.0-1.0-1.0-2.0","60f5dc6cba19bf6145b8c921","D2","batch4","","933.1000000238419","<p class = block-text>Correct! You should make your choice <strong> as fast as you can</strong>.</p>","0","pattern_quiz_feedback","","","","","","","","","","","","","","","","","","","","","","","","",""
"","","","","","html-button-response","7","32084","0.0-2.0-1.0-1.0-3.0","60f5dc6cba19bf6145b8c921","D2","batch4","","2921","<p class = block-text>True or False: You will look for 4 pieces in black or white color connected in a row either horizontally, vertically or diagonally. <br></p>","0","pattern_quiz","true","","","","","","","","","","","","","","","","","","","","","","","",""
"","","","","","html-button-response","8","33041","0.0-2.0-1.0-1.0-4.0","60f5dc6cba19bf6145b8c921","D2","batch4","","954.7999999523163","<p class = block-text>Correct! </p>","0","pattern_quiz_feedback","","","","","","","","","","","","","","","","","","","","","","","","",""
"","","","","","html-button-response","9","36415","0.0-2.0-2.0","60f5dc6cba19bf6145b8c921","D2","batch4","","3372.7000000476837","<p class=block-text> Now that you've understood the game, let's do a few practice trials before we start!<br> <br>","0","pattern_enter_practice","","","","","","","","","","","","","","","","","","","","","","","","",""
"","","","","","image-keyboard-response","10","37941","0.0-2.0-3.0-0.0","60f5dc6cba19bf6145b8c921","D2","batch4","","1508.7999999523163","stim/prac_no_16_1.png","j","pattern_practice","true","j","","","","","","","","","","","","","","","","","","","","","","",""
"","","","","","html-keyboard-response","11","38962","0.0-2.0-3.0-1.0","60f5dc6cba19bf6145b8c921","D2","batch4","","null","<p style=""font-size:30px;color:green;"">Correct!</p>","null","pattern_feedback","","","","","","","","","","","","","","","","","","","","","","","","",""
"","","","","","image-keyboard-response","12","39778","0.0-2.0-3.0-0.1","60f5dc6cba19bf6145b8c921","D2","batch4","","813","stim/prac_no_18_1.png","j","pattern_practice","true","j","","","","","","","","","","","","","","","","","","","","","","",""
"","","","","","html-keyboard-response","13","40792","0.0-2.0-3.0-1.1","60f5dc6cba19bf6145b8c921","D2","batch4","","null","<p style=""font-size:30px;color:green;"">Correct!</p>","null","pattern_feedback","","","","","","","","","","","","","","","","","","","","","","","","",""
"","","","","","image-keyboard-response","14","41465","0.0-2.0-3.0-0.2","60f5dc6cba19bf6145b8c921","D2","batch4","","670.5","stim/prac_yes_18_hor_w1.png","f","pattern_practice","true","f","","","","","","","","","","","","","","","","","","","","","","",""
"","","","","","html-keyboard-response","15","42482","0.0-2.0-3.0-1.2","60f5dc6cba19bf6145b8c921","D2","batch4","","null","<p style=""font-size:30px;color:green;"">Correct!</p>","null","pattern_feedback","","","","","","","","","","","","","","","","","","","","","","","","",""
"","","","","","image-keyboard-response","16","43224","0.0-2.0-3.0-0.3","60f5dc6cba19bf6145b8c921","D2","batch4","","739.6000000238419","stim/prac_yes_16_ver_w1.png","f","pattern_practice","true","f","","","","","","","","","","","","","","","","","","","","","","",""
"","","","","","html-keyboard-response","17","44244","0.0-2.0-3.0-1.3","60f5dc6cba19bf6145b8c921","D2","batch4","","null","<p style=""font-size:30px;color:green;"">Correct!</p>","null","pattern_feedback","","","","","","","","","","","","","","","","","","","","","","","","",""
"","","","","","image-keyboard-response","18","45913","0.0-2.0-3.0-0.4","60f5dc6cba19bf6145b8c921","D2","batch4","","1666.4000000953674","stim/prac_yes_20_dia_b1.png","f","pattern_practice","true","f","","","","","","","","","","","","","","","","","","","","","","",""
"","","","","","html-keyboard-response","19","46927","0.0-2.0-3.0-1.4","60f5dc6cba19bf6145b8c921","D2","batch4","","null","<p style=""font-size:30px;color:green;"">Correct!</p>","null","pattern_feedback","","","","","","","","","","","","","","","","","","","","","","","","",""
"","","","","","html-button-response","20","49864","0.0-2.0-4.0","60f5dc6cba19bf6145b8c921","D2","batch4","","2934.5","<p class=block-text> Good job! You are done with practice trials!<br>
        You responded correctly on 100% of the trials.<br>
        Press the button below to start official trials. Now you won't see any feedback about your response</p>","0","pattern_enter_official_trials","","","","","","","","","","","","","","","","","","","","","","","","",""
"","","","","","html-keyboard-response","21","50672","0.0-2.0-5.0-0.0","60f5dc6cba19bf6145b8c921","D2","batch4","","null","<p class=block-text>Trial 1 out of 78</p>","null","pattern_show_trial_num","","","","","","","","","","","","","","","","","","","","","","","","",""
"","","","","","image-keyboard-response","22","51723","0.0-2.0-5.0-1.0","60f5dc6cba19bf6145b8c921","D2","batch4","","1048.7999999523163","stim/yes_39_hor_w1_w.png","f","pattern_response","true","f","pattern_62","1048.7999999523163","true","1","","","","","","","","","","","","","","","","","","",""
"","","","","","html-keyboard-response","23","53041","0.0-2.0-5.0-0.1","60f5dc6cba19bf6145b8c921","D2","batch4","","null","<p class=block-text>Trial 2 out of 78</p>","null","pattern_show_trial_num","","","","","","","","","","","","","","","","","","","","","","","","",""
"","","","","","image-keyboard-response","24","54495","0.0-2.0-5.0-1.1","60f5dc6cba19bf6145b8c921","D2","batch4","","1451","stim/no_25_1_b.png","j","pattern_response","true","j","pattern_09","1451","true","2","","","","","","","","","","","","","","","","","","",""
"","","","","","html-keyboard-response","25","55807","0.0-2.0-5.0-0.2","60f5dc6cba19bf6145b8c921","D2","batch4","","null","<p class=block-text>Trial 3 out of 78</p>","null","pattern_show_trial_num","","","","","","","","","","","","","","","","","","","","","","","","",""
"","","","","","image-keyboard-response","26","56805","0.0-2.0-5.0-1.2","60f5dc6cba19bf6145b8c921","D2","batch4","","995.8999999761581","stim/yes_33_dia_w1_w.png","f","pattern_response","true","f","pattern_56","995.8999999761581","true","3","","","","","","","","","","","","","","","","","","",""
"","","","","","html-keyboard-response","27","58115","0.0-2.0-5.0-0.3","60f5dc6cba19bf6145b8c921","D2","batch4","","null","<p class=block-text>Trial 4 out of 78</p>","null","pattern_show_trial_num","","","","","","","","","","","","","","","","","","","","","","","","",""
"","","","","","image-keyboard-response","28","60595","0.0-2.0-5.0-1.3","60f5dc6cba19bf6145b8c921","D2","batch4","","2478.0999999046326","stim/no_45_1_w.png","j","pattern_response","true","j","pattern_25","2478.0999999046326","true","4","","","","","","","","","","","","","","","","","","",""
"","","","","","html-keyboard-response","29","61911","0.0-2.0-5.0-0.4","60f5dc6cba19bf6145b8c921","D2","batch4","","null","<p class=block-text>Trial 5 out of 78</p>","null","pattern_show_trial_num","","","","","","","","","","","","","","","","","","","","","","","","",""
"","","","","","image-keyboard-response","30","62883","0.0-2.0-5.0-1.4","60f5dc6cba19bf6145b8c921","D2","batch4","","968.6999999284744","stim/yes_23_ver_b1.png","f","pattern_response","true","f","pattern_48","968.6999999284744","true","5","","","","","","","","","","","","","","","","","","",""
"","","","","","html-keyboard-response","31","64198","0.0-2.0-5.0-0.5","60f5dc6cba19bf6145b8c921","D2","batch4","","null","<p class=block-text>Trial 6 out of 78</p>","null","pattern_show_trial_num","","","","","","","","","","","","","","","","","","","","","","","","",""
"","","","","","image-keyboard-response","32","65148","0.0-2.0-5.0-1.5","60f5dc6cba19bf6145b8c921","D2","batch4","","947.5","stim/no_15_1_w.png","j","pattern_response","true","j","pattern_03","947.5","true","6","","","","","","","","","","","","","","","","","","",""
"","","","","","html-keyboard-response","33","66463","0.0-2.0-5.0-0.6","60f5dc6cba19bf6145b8c921","D2","batch4","","null","<p class=block-text>Trial 7 out of 78</p>","null","pattern_show_trial_num","","","","","","","","","","","","","","","","","","","","","","","","",""
"","","","","","image-keyboard-response","34","67299","0.0-2.0-5.0-1.6","60f5dc6cba19bf6145b8c921","D2","batch4","","833.2999999523163","stim/no_18_1_b.png","j","pattern_response","true","j","pattern_05","833.2999999523163","true","7","","","","","","","","","","","","","","","","","","",""
"","","","","","html-keyboard-response","35","68615","0.0-2.0-5.0-0.7","60f5dc6cba19bf6145b8c921","D2","batch4","","null","<p class=block-text>Trial 8 out of 78</p>","null","pattern_show_trial_num","","","","","","","","","","","","","","","","","","","","","","","","",""
"","","","","","image-keyboard-response","36","69871","0.0-2.0-5.0-1.7","60f5dc6cba19bf6145b8c921","D2","batch4","","1253.3999999761581","stim/yes_53_ver_b1_b.png","f","pattern_response","true","f","pattern_74","1253.3999999761581","true","8","","","","","","","","","","","","","","","","","","",""
"","","","","","html-keyboard-response","37","71191","0.0-2.0-5.0-0.8","60f5dc6cba19bf6145b8c921","D2","batch4","","null","<p class=block-text>Trial 9 out of 78</p>","null","pattern_show_trial_num","","","","","","","","","","","","","","","","","","","","","","","","",""
"","","","","","image-keyboard-response","38","74133","0.0-2.0-5.0-1.8","60f5dc6cba19bf6145b8c921","D2","batch4","","2938.6999999284744","stim/yes_51_dia_b1.png","j","pattern_response","false","f","pattern_72","2938.6999999284744","false","8","","","","","","","","","","","","","","","","","","",""
"","","","","","html-keyboard-response","39","75446","0.0-2.0-5.0-0.9","60f5dc6cba19bf6145b8c921","D2","batch4","","null","<p class=block-text>Trial 10 out of 78</p>","null","pattern_show_trial_num","","","","","","","","","","","","","","","","","","","","","","","","",""
"","","","","","image-keyboard-response","40","79547","0.0-2.0-5.0-1.9","60f5dc6cba19bf6145b8c921","D2","batch4","","4097.799999952316","stim/yes_63_dia_b1.png","j","pattern_response","false","f","pattern_78","4097.799999952316","false","8","","","","","","","","","","","","","","","","","","",""
"","","","","","html-keyboard-response","41","80858","0.0-2.0-5.0-0.10","60f5dc6cba19bf6145b8c921","D2","batch4","","null","<p class=block-text>Trial 11 out of 78</p>","null","pattern_show_trial_num","","","","","","","","","","","","","","","","","","","","","","","","",""
"","","","","","image-keyboard-response","42","81814","0.0-2.0-5.0-1.10","60f5dc6cba19bf6145b8c921","D2","batch4","","952.6000000238419","stim/yes_37_hor_w1_w.png","f","pattern_response","true","f","pattern_60","952.6000000238419","true","9","","","","","","","","","","","","","","","","","","",""
"","","","","","html-keyboard-response","43","83134","0.0-2.0-5.0-0.11","60f5dc6cba19bf6145b8c921","D2","batch4","","null","<p class=block-text>Trial 12 out of 78</p>","null","pattern_show_trial_num","","","","","","","","","","","","","","","","","","","","","","","","",""
"","","","","","image-keyboard-response","44","83894","0.0-2.0-5.0-1.11","60f5dc6cba19bf6145b8c921","D2","batch4","","756.5","stim/yes_17_ver_b1_b.png","f","pattern_response","true","f","pattern_46","756.5","true","10","","","","","","","","","","","","","","","","","","",""
"","","","","","html-keyboard-response","45","85214","0.0-2.0-5.0-0.12","60f5dc6cba19bf6145b8c921","D2","batch4","","null","<p class=block-text>Trial 13 out of 78</p>","null","pattern_show_trial_num","","","","","","","","","","","","","","","","","","","","","","","","",""
"","","","","","image-keyboard-response","46","85976","0.0-2.0-5.0-1.12","60f5dc6cba19bf6145b8c921","D2","batch4","","759.2999999523163","stim/no_12_1.png","j","pattern_response","true","j","pattern_01","759.2999999523163","true","11","","","","","","","","","","","","","","","","","","",""
"","","","","","html-keyboard-response","47","87296","0.0-2.0-5.0-0.13","60f5dc6cba19bf6145b8c921","D2","batch4","","null","<p class=block-text>Trial 14 out of 78</p>","null","pattern_show_trial_num","","","","","","","","","","","","","","","","","","","","","","","","",""
"","","","","","image-keyboard-response","48","90650","0.0-2.0-5.0-1.13","60f5dc6cba19bf6145b8c921","D2","batch4","","3351.9000000953674","stim/no_58_1_w.png","j","pattern_response","true","j","pattern_35","3351.9000000953674","true","12","","","","","","","","","","","","","","","","","","",""
"","","","","","html-keyboard-response","49","91967","0.0-2.0-5.0-0.14","60f5dc6cba19bf6145b8c921","D2","batch4","","null","<p class=block-text>Trial 15 out of 78</p>","null","pattern_show_trial_num","","","","","","","","","","","","","","","","","","","","","","","","",""
"","","","","","image-keyboard-response","50","92813","0.0-2.0-5.0-1.14","60f5dc6cba19bf6145b8c921","D2","batch4","","842.2000000476837","stim/yes_15_dia_b1u_b.png","f","pattern_response","true","f","pattern_44","842.2000000476837","true","13","","","","","","","","","","","","","","","","","","",""
"","","","","","html-keyboard-response","51","94128","0.0-2.0-5.0-0.15","60f5dc6cba19bf6145b8c921","D2","batch4","","null","<p class=block-text>Trial 16 out of 78</p>","null","pattern_show_trial_num","","","","","","","","","","","","","","","","","","","","","","","","",""
"","","","","","image-keyboard-response","52","97774","0.0-2.0-5.0-1.15","60f5dc6cba19bf6145b8c921","D2","batch4","","3643.9000000953674","stim/no_53_1_b.png","j","pattern_response","true","j","pattern_33","3643.9000000953674","true","14","","","","","","","","","","","","","","","","","","",""
"","","","","","html-keyboard-response","53","99099","0.0-2.0-5.0-0.16","60f5dc6cba19bf6145b8c921","D2","batch4","","null","<p class=block-text>Trial 17 out of 78</p>","null","pattern_show_trial_num","","","","","","","","","","","","","","","","","","","","","","","","",""
"","","","","","image-keyboard-response","54","102726","0.0-2.0-5.0-1.16","60f5dc6cba19bf6145b8c921","D2","batch4","","3625.5","stim/no_43_2_b.png","j","pattern_response","true","j","pattern_23","3625.5","true","15","","","","","","","","","","","","","","","","","","",""
"","","","","","html-keyboard-response","55","104042","0.0-2.0-5.0-0.17","60f5dc6cba19bf6145b8c921","D2","batch4","","null","<p class=block-text>Trial 18 out of 78</p>","null","pattern_show_trial_num","","","","","","","","","","","","","","","","","","","","","","","","",""
"","","","","","image-keyboard-response","56","106169","0.0-2.0-5.0-1.17","60f5dc6cba19bf6145b8c921","D2","batch4","","2124.2000000476837","stim/no_37_2_w.png","j","pattern_response","true","j","pattern_19","2124.2000000476837","true","16","","","","","","","","","","","","","","","","","","",""
"","","","","","html-keyboard-response","57","107485","0.0-2.0-5.0-0.18","60f5dc6cba19bf6145b8c921","D2","batch4","","null","<p class=block-text>Trial 19 out of 78</p>","null","pattern_show_trial_num","","","","","","","","","","","","","","","","","","","","","","","","",""
"","","","","","image-keyboard-response","58","109683","0.0-2.0-5.0-1.18","60f5dc6cba19bf6145b8c921","D2","batch4","","2183","stim/no_36_1_b.png","j","pattern_response","true","j","pattern_17","2183","true","17","","","","","","","","","","","","","","","","","","",""
"","","","","","html-keyboard-response","59","110999","0.0-2.0-5.0-0.19","60f5dc6cba19bf6145b8c921","D2","batch4","","null","<p class=block-text>Trial 20 out of 78</p>","null","pattern_show_trial_num","","","","","","","","","","","","","","","","","","","","","","","","",""
"","","","","","image-keyboard-response","60","113717","0.0-2.0-5.0-1.19","60f5dc6cba19bf6145b8c921","D2","batch4","","2716.1999999284744","stim/no_47_1_b.png","j","pattern_response","true","j","pattern_27","2716.1999999284744","true","18","","","","","","","","","","","","","","","","","","",""
"","","","","","html-keyboard-response","61","115032","0.0-2.0-5.0-0.20","60f5dc6cba19bf6145b8c921","D2","batch4","","null","<p class=block-text>Trial 21 out of 78</p>","null","pattern_show_trial_num","","","","","","","","","","","","","","","","","","","","","","","","",""
"","","","","","image-keyboard-response","62","115927","0.0-2.0-5.0-1.20","60f5dc6cba19bf6145b8c921","D2","batch4","","891.7999999523163","stim/yes_36_ver_w1_w.png","f","pattern_response","true","f","pattern_58","891.7999999523163","true","19","","","","","","","","","","","","","","","","","","",""
"","","","","","html-keyboard-response","63","117245","0.0-2.0-5.0-0.21","60f5dc6cba19bf6145b8c921","D2","batch4","","null","<p class=block-text>Trial 22 out of 78</p>","null","pattern_show_trial_num","","","","","","","","","","","","","","","","","","","","","","","","",""
"","","","","","image-keyboard-response","64","118871","0.0-2.0-5.0-1.21","60f5dc6cba19bf6145b8c921","D2","batch4","","1623","stim/no_33_1_b.png","j","pattern_response","true","j","pattern_15","1623","true","20","","","","","","","","","","","","","","","","","","",""
"","","","","","html-keyboard-response","65","120190","0.0-2.0-5.0-0.22","60f5dc6cba19bf6145b8c921","D2","batch4","","null","<p class=block-text>Trial 23 out of 78</p>","null","pattern_show_trial_num","","","","","","","","","","","","","","","","","","","","","","","","",""
"","","","","","image-keyboard-response","66","124590","0.0-2.0-5.0-1.22","60f5dc6cba19bf6145b8c921","D2","batch4","","4397.299999952316","stim/no_67_1.png","j","pattern_response","true","j","pattern_39","4397.299999952316","true","21","","","","","","","","","","","","","","","","","","",""
"","","","","","html-keyboard-response","67","125918","0.0-2.0-5.0-0.23","60f5dc6cba19bf6145b8c921","D2","batch4","","null","<p class=block-text>Trial 24 out of 78</p>","null","pattern_show_trial_num","","","","","","","","","","","","","","","","","","","","","","","","",""
"","","","","","image-keyboard-response","68","128260","0.0-2.0-5.0-1.23","60f5dc6cba19bf6145b8c921","D2","batch4","","2338.399999976158","stim/no_51_1.png","j","pattern_response","true","j","pattern_31","2338.399999976158","true","22","","","","","","","","","","","","","","","","","","",""
"","","","","","html-keyboard-response","69","129578","0.0-2.0-5.0-0.24","60f5dc6cba19bf6145b8c921","D2","batch4","","null","<p class=block-text>Trial 25 out of 78</p>","null","pattern_show_trial_num","","","","","","","","","","","","","","","","","","","","","","","","",""
"","","","","","image-keyboard-response","70","131895","0.0-2.0-5.0-1.24","60f5dc6cba19bf6145b8c921","D2","batch4","","2313.7000000476837","stim/no_39_1_w.png","j","pattern_response","true","j","pattern_21","2313.7000000476837","true","23","","","","","","","","","","","","","","","","","","",""
"","","","","","html-keyboard-response","71","133212","0.0-2.0-5.0-0.25","60f5dc6cba19bf6145b8c921","D2","batch4","","null","<p class=block-text>Trial 26 out of 78</p>","null","pattern_show_trial_num","","","","","","","","","","","","","","","","","","","","","","","","",""
"","","","","","image-keyboard-response","72","134649","0.0-2.0-5.0-1.25","60f5dc6cba19bf6145b8c921","D2","batch4","","1434.6000000238419","stim/no_28_2.png","j","pattern_response","true","j","pattern_11","1434.6000000238419","true","24","","","","","","","","","","","","","","","","","","",""
"","","","","","html-keyboard-response","73","135964","0.0-2.0-5.0-0.26","60f5dc6cba19bf6145b8c921","D2","batch4","","null","<p class=block-text>Trial 27 out of 78</p>","null","pattern_show_trial_num","","","","","","","","","","","","","","","","","","","","","","","","",""
"","","","","","image-keyboard-response","74","138235","0.0-2.0-5.0-1.26","60f5dc6cba19bf6145b8c921","D2","batch4","","2267.7999999523163","stim/yes_42_dia_w1_w.png","j","pattern_response","false","f","pattern_64","2267.7999999523163","false","24","","","","","","","","","","","","","","","","","","",""
"","","","","","html-keyboard-response","75","139553","0.0-2.0-5.0-0.27","60f5dc6cba19bf6145b8c921","D2","batch4","","null","<p class=block-text>Trial 28 out of 78</p>","null","pattern_show_trial_num","","","","","","","","","","","","","","","","","","","","","","","","",""
"","","","","","image-keyboard-response","76","142166","0.0-2.0-5.0-1.27","60f5dc6cba19bf6145b8c921","D2","batch4","","2609.2999999523163","stim/no_49_2_b.png","j","pattern_response","true","j","pattern_29","2609.2999999523163","true","25","","","","","","","","","","","","","","","","","","",""
"","","","","","html-keyboard-response","77","143479","0.0-2.0-5.0-0.28","60f5dc6cba19bf6145b8c921","D2","batch4","","null","<p class=block-text>Trial 29 out of 78</p>","null","pattern_show_trial_num","","","","","","","","","","","","","","","","","","","","","","","","",""
"","","","","","image-keyboard-response","78","144555","0.0-2.0-5.0-1.28","60f5dc6cba19bf6145b8c921","D2","batch4","","1073.4000000953674","stim/no_22_1_b.png","j","pattern_response","true","j","pattern_07","1073.4000000953674","true","26","","","","","","","","","","","","","","","","","","",""
"","","","","","html-keyboard-response","79","145875","0.0-2.0-5.0-0.29","60f5dc6cba19bf6145b8c921","D2","batch4","","null","<p class=block-text>Trial 30 out of 78</p>","null","pattern_show_trial_num","","","","","","","","","","","","","","","","","","","","","","","","",""
"","","","","","image-keyboard-response","80","146708","0.0-2.0-5.0-1.29","60f5dc6cba19bf6145b8c921","D2","batch4","","830.2999999523163","stim/yes_29_hor_b1_b.png","f","pattern_response","true","f","pattern_52","830.2999999523163","true","27","","","","","","","","","","","","","","","","","","",""
"","","","","","html-keyboard-response","81","148026","0.0-2.0-5.0-0.30","60f5dc6cba19bf6145b8c921","D2","batch4","","null","<p class=block-text>Trial 31 out of 78</p>","null","pattern_show_trial_num","","","","","","","","","","","","","","","","","","","","","","","","",""
"","","","","","image-keyboard-response","82","148816","0.0-2.0-5.0-1.30","60f5dc6cba19bf6145b8c921","D2","batch4","","787.7000000476837","stim/yes_70_ver_b1.png","f","pattern_response","true","f","pattern_80","787.7000000476837","true","28","","","","","","","","","","","","","","","","","","",""
"","","","","","html-keyboard-response","83","150127","0.0-2.0-5.0-0.31","60f5dc6cba19bf6145b8c921","D2","batch4","","null","<p class=block-text>Trial 32 out of 78</p>","null","pattern_show_trial_num","","","","","","","","","","","","","","","","","","","","","","","","",""
"","","","","","image-keyboard-response","84","153446","0.0-2.0-5.0-1.31","60f5dc6cba19bf6145b8c921","D2","batch4","","3316.899999976158","stim/yes_58_dia_w1_w.png","f","pattern_response","true","f","pattern_76","3316.899999976158","true","29","","","","","","","","","","","","","","","","","","",""
"","","","","","html-keyboard-response","85","154765","0.0-2.0-5.0-0.32","60f5dc6cba19bf6145b8c921","D2","batch4","","null","<p class=block-text>Trial 33 out of 78</p>","null","pattern_show_trial_num","","","","","","","","","","","","","","","","","","","","","","","","",""
"","","","","","image-keyboard-response","86","156437","0.0-2.0-5.0-1.32","60f5dc6cba19bf6145b8c921","D2","batch4","","1669.2000000476837","stim/yes_49_hor_w1_b.png","f","pattern_response","true","f","pattern_70","1669.2000000476837","true","30","","","","","","","","","","","","","","","","","","",""
"","","","","","html-keyboard-response","87","157753","0.0-2.0-5.0-0.33","60f5dc6cba19bf6145b8c921","D2","batch4","","null","<p class=block-text>Trial 34 out of 78</p>","null","pattern_show_trial_num","","","","","","","","","","","","","","","","","","","","","","","","",""
"","","","","","image-keyboard-response","88","159211","0.0-2.0-5.0-1.33","60f5dc6cba19bf6145b8c921","D2","batch4","","1454.6000000238419","stim/no_30_1_b.png","j","pattern_response","true","j","pattern_13","1454.6000000238419","true","31","","","","","","","","","","","","","","","","","","",""
"","","","","","html-keyboard-response","89","160531","0.0-2.0-5.0-0.34","60f5dc6cba19bf6145b8c921","D2","batch4","","null","<p class=block-text>Trial 35 out of 78</p>","null","pattern_show_trial_num","","","","","","","","","","","","","","","","","","","","","","","","",""
"","","","","","image-keyboard-response","90","161393","0.0-2.0-5.0-1.34","60f5dc6cba19bf6145b8c921","D2","batch4","","860.1000000238419","stim/yes_44_ver_w1_w.png","f","pattern_response","true","f","pattern_66","860.1000000238419","true","32","","","","","","","","","","","","","","","","","","",""
"","","","","","html-keyboard-response","91","162709","0.0-2.0-5.0-0.35","60f5dc6cba19bf6145b8c921","D2","batch4","","null","<p class=block-text>Trial 36 out of 78</p>","null","pattern_show_trial_num","","","","","","","","","","","","","","","","","","","","","","","","",""
"","","","","","image-keyboard-response","92","164024","0.0-2.0-5.0-1.35","60f5dc6cba19bf6145b8c921","D2","batch4","","1312.7000000476837","stim/yes_30_ver_b1_b.png","f","pattern_response","true","f","pattern_54","1312.7000000476837","true","33","","","","","","","","","","","","","","","","","","",""
"","","","","","html-keyboard-response","93","165341","0.0-2.0-5.0-0.36","60f5dc6cba19bf6145b8c921","D2","batch4","","null","<p class=block-text>Trial 37 out of 78</p>","null","pattern_show_trial_num","","","","","","","","","","","","","","","","","","","","","","","","",""
"","","","","","image-keyboard-response","94","166419","0.0-2.0-5.0-1.36","60f5dc6cba19bf6145b8c921","D2","batch4","","1076.1000000238419","stim/yes_26_dia_w2_w.png","f","pattern_response","true","f","pattern_50","1076.1000000238419","true","34","","","","","","","","","","","","","","","","","","",""
"","","","","","html-keyboard-response","95","167737","0.0-2.0-5.0-0.37","60f5dc6cba19bf6145b8c921","D2","batch4","","null","<p class=block-text>Trial 38 out of 78</p>","null","pattern_show_trial_num","","","","","","","","","","","","","","","","","","","","","","","","",""
"","","","","","image-keyboard-response","96","168412","0.0-2.0-5.0-1.37","60f5dc6cba19bf6145b8c921","D2","batch4","","672.2000000476837","stim/yes_12_hor_w1_w.png","f","pattern_response","true","f","pattern_42","672.2000000476837","true","35","","","","","","","","","","","","","","","","","","",""
"","","","","","html-keyboard-response","97","169727","0.0-2.0-5.0-0.38","60f5dc6cba19bf6145b8c921","D2","batch4","","null","<p class=block-text>Trial 39 out of 78</p>","null","pattern_show_trial_num","","","","","","","","","","","","","","","","","","","","","","","","",""
"","","","","","image-keyboard-response","98","170447","0.0-2.0-5.0-1.38","60f5dc6cba19bf6145b8c921","D2","batch4","","717.6999999284744","stim/yes_46_ver_b1_b.png","f","pattern_response","true","f","pattern_68","717.6999999284744","true","36","","","","","","","","","","","","","","","","","","",""
"","","","","","image-keyboard-response","99","172619","0.0-2.0-6.0","60f5dc6cba19bf6145b8c921","D2","batch4","","1667.6000000238419","stim/empty_board.png","j","attention_check","true","j","","","","","500","[""f"",""j""]","","","","","","","","","","","","","","","","",""
"","","","","","html-keyboard-response","100","173424","0.0-2.0-7.0-0.0","60f5dc6cba19bf6145b8c921","D2","batch4","","null","<p class=block-text>Trial 40 out of 78</p>","null","pattern_show_trial_num","","","","","","","","","","","","","","","","","","","","","","","","",""
"","","","","","image-keyboard-response","101","179552","0.0-2.0-7.0-1.0","60f5dc6cba19bf6145b8c921","D2","batch4","","6123.699999928474","stim/no_46_1_b.png","j","pattern_response","true","j","pattern_26","6123.699999928474","true","37","","","","","","","","","","","","","","","","","","",""
"","","","","","html-keyboard-response","102","180864","0.0-2.0-7.0-0.1","60f5dc6cba19bf6145b8c921","D2","batch4","","null","<p class=block-text>Trial 41 out of 78</p>","null","pattern_show_trial_num","","","","","","","","","","","","","","","","","","","","","","","","",""
"","","","","","image-keyboard-response","103","181785","0.0-2.0-7.0-1.1","60f5dc6cba19bf6145b8c921","D2","batch4","","917.6000000238419","stim/yes_67_hor_b1.png","f","pattern_response","true","f","pattern_79","917.6000000238419","true","38","","","","","","","","","","","","","","","","","","",""
"","","","","","html-keyboard-response","104","183100","0.0-2.0-7.0-0.2","60f5dc6cba19bf6145b8c921","D2","batch4","","null","<p class=block-text>Trial 42 out of 78</p>","null","pattern_show_trial_num","","","","","","","","","","","","","","","","","","","","","","","","",""
"","","","","","image-keyboard-response","105","186696","0.0-2.0-7.0-1.2","60f5dc6cba19bf6145b8c921","D2","batch4","","3582","stim/no_62_1_w.png","j","pattern_response","true","j","pattern_36","3582","true","39","","","","","","","","","","","","","","","","","","",""
"","","","","","html-keyboard-response","106","188007","0.0-2.0-7.0-0.3","60f5dc6cba19bf6145b8c921","D2","batch4","","null","<p class=block-text>Trial 43 out of 78</p>","null","pattern_show_trial_num","","","","","","","","","","","","","","","","","","","","","","","","",""
"","","","","","image-keyboard-response","107","190278","0.0-2.0-7.0-1.3","60f5dc6cba19bf6145b8c921","D2","batch4","","2267.6999999284744","stim/yes_48_dia_w1_w.png","j","pattern_response","false","f","pattern_69","2267.6999999284744","false","39","","","","","","","","","","","","","","","","","","",""
"","","","","","html-keyboard-response","108","191595","0.0-2.0-7.0-0.4","60f5dc6cba19bf6145b8c921","D2","batch4","","null","<p class=block-text>Trial 44 out of 78</p>","null","pattern_show_trial_num","","","","","","","","","","","","","","","","","","","","","","","","",""
"","","","","","image-keyboard-response","109","192689","0.0-2.0-7.0-1.4","60f5dc6cba19bf6145b8c921","D2","batch4","","1090","stim/yes_22_ver_w1.png","f","pattern_response","true","f","pattern_47","1090","true","40","","","","","","","","","","","","","","","","","","",""
"","","","","","html-keyboard-response","110","194005","0.0-2.0-7.0-0.5","60f5dc6cba19bf6145b8c921","D2","batch4","","null","<p class=block-text>Trial 45 out of 78</p>","null","pattern_show_trial_num","","","","","","","","","","","","","","","","","","","","","","","","",""
"","","","","","image-keyboard-response","111","196462","0.0-2.0-7.0-1.5","60f5dc6cba19bf6145b8c921","D2","batch4","","2454.2999999523163","stim/no_50_1.png","j","pattern_response","true","j","pattern_30","2454.2999999523163","true","41","","","","","","","","","","","","","","","","","","",""
"","","","","","html-keyboard-response","112","197774","0.0-2.0-7.0-0.6","60f5dc6cba19bf6145b8c921","D2","batch4","","null","<p class=block-text>Trial 46 out of 78</p>","null","pattern_show_trial_num","","","","","","","","","","","","","","","","","","","","","","","","",""
"","","","","","image-keyboard-response","113","199815","0.0-2.0-7.0-1.6","60f5dc6cba19bf6145b8c921","D2","batch4","","2037.8999999761581","stim/yes_37_dia_w1.png","j","pattern_response","false","f","pattern_59","2037.8999999761581","false","41","","","","","","","","","","","","","","","","","","",""
"","","","","","html-keyboard-response","114","201131","0.0-2.0-7.0-0.7","60f5dc6cba19bf6145b8c921","D2","batch4","","null","<p class=block-text>Trial 47 out of 78</p>","null","pattern_show_trial_num","","","","","","","","","","","","","","","","","","","","","","","","",""
"","","","","","image-keyboard-response","115","202016","0.0-2.0-7.0-1.7","60f5dc6cba19bf6145b8c921","D2","batch4","","883.1999999284744","stim/yes_25_hor_b1_b.png","f","pattern_response","true","f","pattern_49","883.1999999284744","true","42","","","","","","","","","","","","","","","","","","",""
"","","","","","html-keyboard-response","116","203337","0.0-2.0-7.0-0.8","60f5dc6cba19bf6145b8c921","D2","batch4","","null","<p class=block-text>Trial 48 out of 78</p>","null","pattern_show_trial_num","","","","","","","","","","","","","","","","","","","","","","","","",""
"","","","","","image-keyboard-response","117","204652","0.0-2.0-7.0-1.8","60f5dc6cba19bf6145b8c921","D2","batch4","","1313.1999999284744","stim/yes_29_ver_w1.png","f","pattern_response","true","f","pattern_53","1313.1999999284744","true","43","","","","","","","","","","","","","","","","","","",""
"","","","","","html-keyboard-response","118","205968","0.0-2.0-7.0-0.9","60f5dc6cba19bf6145b8c921","D2","batch4","","null","<p class=block-text>Trial 49 out of 78</p>","null","pattern_show_trial_num","","","","","","","","","","","","","","","","","","","","","","","","",""
"","","","","","image-keyboard-response","119","207302","0.0-2.0-7.0-1.9","60f5dc6cba19bf6145b8c921","D2","batch4","","1331.2000000476837","stim/yes_38_hor_b1_b.png","f","pattern_response","true","f","pattern_61","1331.2000000476837","true","44","","","","","","","","","","","","","","","","","","",""
"","","","","","html-keyboard-response","120","208616","0.0-2.0-7.0-0.10","60f5dc6cba19bf6145b8c921","D2","batch4","","null","<p class=block-text>Trial 50 out of 78</p>","null","pattern_show_trial_num","","","","","","","","","","","","","","","","","","","","","","","","",""
"","","","","","image-keyboard-response","121","209885","0.0-2.0-7.0-1.10","60f5dc6cba19bf6145b8c921","D2","batch4","","1266.8999999761581","stim/no_34_1_b.png","j","pattern_response","true","j","pattern_16","1266.8999999761581","true","45","","","","","","","","","","","","","","","","","","",""
"","","","","","html-keyboard-response","122","211199","0.0-2.0-7.0-0.11","60f5dc6cba19bf6145b8c921","D2","batch4","","null","<p class=block-text>Trial 51 out of 78</p>","null","pattern_show_trial_num","","","","","","","","","","","","","","","","","","","","","","","","",""
"","","","","","image-keyboard-response","123","212489","0.0-2.0-7.0-1.11","60f5dc6cba19bf6145b8c921","D2","batch4","","1287.6999999284744","stim/yes_60_ver_b1_b.png","f","pattern_response","true","f","pattern_77","1287.6999999284744","true","46","","","","","","","","","","","","","","","","","","",""
"","","","","","html-keyboard-response","124","213798","0.0-2.0-7.0-0.12","60f5dc6cba19bf6145b8c921","D2","batch4","","null","<p class=block-text>Trial 52 out of 78</p>","null","pattern_show_trial_num","","","","","","","","","","","","","","","","","","","","","","","","",""
"","","","","","image-keyboard-response","125","214917","0.0-2.0-7.0-1.12","60f5dc6cba19bf6145b8c921","D2","batch4","","1116.3000000715256","stim/yes_40_dia_b1_b.png","f","pattern_response","true","f","pattern_63","1116.3000000715256","true","47","","","","","","","","","","","","","","","","","","",""
"","","","","","html-keyboard-response","126","216230","0.0-2.0-7.0-0.13","60f5dc6cba19bf6145b8c921","D2","batch4","","null","<p class=block-text>Trial 53 out of 78</p>","null","pattern_show_trial_num","","","","","","","","","","","","","","","","","","","","","","","","",""
"","","","","","image-keyboard-response","127","219265","0.0-2.0-7.0-1.13","60f5dc6cba19bf6145b8c921","D2","batch4","","3033.7000000476837","stim/yes_50_dia_w1.png","j","pattern_response","false","f","pattern_71","3033.7000000476837","false","47","","","","","","","","","","","","","","","","","","",""
"","","","","","html-keyboard-response","128","220584","0.0-2.0-7.0-0.14","60f5dc6cba19bf6145b8c921","D2","batch4","","null","<p class=block-text>Trial 54 out of 78</p>","null","pattern_show_trial_num","","","","","","","","","","","","","","","","","","","","","","","","",""
"","","","","","image-keyboard-response","129","224411","0.0-2.0-7.0-1.14","60f5dc6cba19bf6145b8c921","D2","batch4","","3824.2000000476837","stim/no_65_1_b.png","j","pattern_response","true","j","pattern_38","3824.2000000476837","true","48","","","","","","","","","","","","","","","","","","",""
"","","","","","html-keyboard-response","130","225738","0.0-2.0-7.0-0.15","60f5dc6cba19bf6145b8c921","D2","batch4","","null","<p class=block-text>Trial 55 out of 78</p>","null","pattern_show_trial_num","","","","","","","","","","","","","","","","","","","","","","","","",""
"","","","","","image-keyboard-response","131","227600","0.0-2.0-7.0-1.15","60f5dc6cba19bf6145b8c921","D2","batch4","","1858.5","stim/yes_31_hor_b1.png","f","pattern_response","true","f","pattern_55","1858.5","true","49","","","","","","","","","","","","","","","","","","",""
"","","","","","html-keyboard-response","132","228918","0.0-2.0-7.0-0.16","60f5dc6cba19bf6145b8c921","D2","batch4","","null","<p class=block-text>Trial 56 out of 78</p>","null","pattern_show_trial_num","","","","","","","","","","","","","","","","","","","","","","","","",""
"","","","","","image-keyboard-response","133","230025","0.0-2.0-7.0-1.16","60f5dc6cba19bf6145b8c921","D2","batch4","","1104","stim/yes_43_ver_w1_w.png","f","pattern_response","true","f","pattern_65","1104","true","50","","","","","","","","","","","","","","","","","","",""
"","","","","","html-keyboard-response","134","231344","0.0-2.0-7.0-0.17","60f5dc6cba19bf6145b8c921","D2","batch4","","null","<p class=block-text>Trial 57 out of 78</p>","null","pattern_show_trial_num","","","","","","","","","","","","","","","","","","","","","","","","",""
"","","","","","image-keyboard-response","135","234805","0.0-2.0-7.0-1.17","60f5dc6cba19bf6145b8c921","D2","batch4","","3459.600000023842","stim/no_55_1_w.png","j","pattern_response","true","j","pattern_34","3459.600000023842","true","51","","","","","","","","","","","","","","","","","","",""
"","","","","","html-keyboard-response","136","236115","0.0-2.0-7.0-0.18","60f5dc6cba19bf6145b8c921","D2","batch4","","null","<p class=block-text>Trial 58 out of 78</p>","null","pattern_show_trial_num","","","","","","","","","","","","","","","","","","","","","","","","",""
"","","","","","image-keyboard-response","137","239234","0.0-2.0-7.0-1.18","60f5dc6cba19bf6145b8c921","D2","batch4","","3115.100000023842","stim/no_38_1_b.png","j","pattern_response","true","j","pattern_20","3115.100000023842","true","52","","","","","","","","","","","","","","","","","","",""
"","","","","","html-keyboard-response","138","240561","0.0-2.0-7.0-0.19","60f5dc6cba19bf6145b8c921","D2","batch4","","null","<p class=block-text>Trial 59 out of 78</p>","null","pattern_show_trial_num","","","","","","","","","","","","","","","","","","","","","","","","",""
"","","","","","image-keyboard-response","139","241508","0.0-2.0-7.0-1.19","60f5dc6cba19bf6145b8c921","D2","batch4","","943.5","stim/yes_52_ver_w1.png","f","pattern_response","true","f","pattern_73","943.5","true","53","","","","","","","","","","","","","","","","","","",""
"","","","","","html-keyboard-response","140","242822","0.0-2.0-7.0-0.20","60f5dc6cba19bf6145b8c921","D2","batch4","","null","<p class=block-text>Trial 60 out of 78</p>","null","pattern_show_trial_num","","","","","","","","","","","","","","","","","","","","","","","","",""
"","","","","","image-keyboard-response","141","245556","0.0-2.0-7.0-1.20","60f5dc6cba19bf6145b8c921","D2","batch4","","2732.399999976158","stim/no_36_2_w.png","j","pattern_response","true","j","pattern_18","2732.399999976158","true","54","","","","","","","","","","","","","","","","","","",""
"","","","","","html-keyboard-response","142","246873","0.0-2.0-7.0-0.21","60f5dc6cba19bf6145b8c921","D2","batch4","","null","<p class=block-text>Trial 61 out of 78</p>","null","pattern_show_trial_num","","","","","","","","","","","","","","","","","","","","","","","","",""
"","","","","","image-keyboard-response","143","249540","0.0-2.0-7.0-1.21","60f5dc6cba19bf6145b8c921","D2","batch4","","2663.5","stim/no_48_1_w.png","j","pattern_response","true","j","pattern_28","2663.5","true","55","","","","","","","","","","","","","","","","","","",""
"","","","","","html-keyboard-response","144","250853","0.0-2.0-7.0-0.22","60f5dc6cba19bf6145b8c921","D2","batch4","","null","<p class=block-text>Trial 62 out of 78</p>","null","pattern_show_trial_num","","","","","","","","","","","","","","","","","","","","","","","","",""
"","","","","","image-keyboard-response","145","252269","0.0-2.0-7.0-1.22","60f5dc6cba19bf6145b8c921","D2","batch4","","1413","stim/no_17_1_w.png","j","pattern_response","true","j","pattern_04","1413","true","56","","","","","","","","","","","","","","","","","","",""
"","","","","","html-keyboard-response","146","253583","0.0-2.0-7.0-0.23","60f5dc6cba19bf6145b8c921","D2","batch4","","null","<p class=block-text>Trial 63 out of 78</p>","null","pattern_show_trial_num","","","","","","","","","","","","","","","","","","","","","","","","",""
"","","","","","image-keyboard-response","147","256009","0.0-2.0-7.0-1.23","60f5dc6cba19bf6145b8c921","D2","batch4","","2423.399999976158","stim/no_32_1_w.png","j","pattern_response","true","j","pattern_14","2423.399999976158","true","57","","","","","","","","","","","","","","","","","","",""
"","","","","","html-keyboard-response","148","257329","0.0-2.0-7.0-0.24","60f5dc6cba19bf6145b8c921","D2","batch4","","null","<p class=block-text>Trial 64 out of 78</p>","null","pattern_show_trial_num","","","","","","","","","","","","","","","","","","","","","","","","",""
"","","","","","image-keyboard-response","149","258777","0.0-2.0-7.0-1.24","60f5dc6cba19bf6145b8c921","D2","batch4","","1445.6000000238419","stim/yes_45_hor_b2_b.png","f","pattern_response","true","f","pattern_67","1445.6000000238419","true","58","","","","","","","","","","","","","","","","","","",""
"","","","","","html-keyboard-response","150","260097","0.0-2.0-7.0-0.25","60f5dc6cba19bf6145b8c921","D2","batch4","","null","<p class=block-text>Trial 65 out of 78</p>","null","pattern_show_trial_num","","","","","","","","","","","","","","","","","","","","","","","","",""
"","","","","","image-keyboard-response","151","262204","0.0-2.0-7.0-1.25","60f5dc6cba19bf6145b8c921","D2","batch4","","2104.600000023842","stim/no_42_1_w.png","j","pattern_response","true","j","pattern_22","2104.600000023842","true","59","","","","","","","","","","","","","","","","","","",""
"","","","","","html-keyboard-response","152","263513","0.0-2.0-7.0-0.26","60f5dc6cba19bf6145b8c921","D2","batch4","","null","<p class=block-text>Trial 66 out of 78</p>","null","pattern_show_trial_num","","","","","","","","","","","","","","","","","","","","","","","","",""
"","","","","","image-keyboard-response","153","264704","0.0-2.0-7.0-1.26","60f5dc6cba19bf6145b8c921","D2","batch4","","1189.7000000476837","stim/yes_28_ver_b1.png","f","pattern_response","true","f","pattern_51","1189.7000000476837","true","60","","","","","","","","","","","","","","","","","","",""
"","","","","","html-keyboard-response","154","266018","0.0-2.0-7.0-0.27","60f5dc6cba19bf6145b8c921","D2","batch4","","null","<p class=block-text>Trial 67 out of 78</p>","null","pattern_show_trial_num","","","","","","","","","","","","","","","","","","","","","","","","",""
"","","","","","image-keyboard-response","155","268997","0.0-2.0-7.0-1.27","60f5dc6cba19bf6145b8c921","D2","batch4","","2978","stim/no_52_1.png","j","pattern_response","true","j","pattern_32","2978","true","61","","","","","","","","","","","","","","","","","","",""
"","","","","","html-keyboard-response","156","270318","0.0-2.0-7.0-0.28","60f5dc6cba19bf6145b8c921","D2","batch4","","null","<p class=block-text>Trial 68 out of 78</p>","null","pattern_show_trial_num","","","","","","","","","","","","","","","","","","","","","","","","",""
"","","","","","image-keyboard-response","157","273786","0.0-2.0-7.0-1.28","60f5dc6cba19bf6145b8c921","D2","batch4","","3465","stim/no_44_1.png","j","pattern_response","true","j","pattern_24","3465","true","62","","","","","","","","","","","","","","","","","","",""
"","","","","","html-keyboard-response","158","275097","0.0-2.0-7.0-0.29","60f5dc6cba19bf6145b8c921","D2","batch4","","null","<p class=block-text>Trial 69 out of 78</p>","null","pattern_show_trial_num","","","","","","","","","","","","","","","","","","","","","","","","",""
"","","","","","image-keyboard-response","159","276080","0.0-2.0-7.0-1.29","60f5dc6cba19bf6145b8c921","D2","batch4","","980.3000000715256","stim/yes_14_hor_b1_w.png","f","pattern_response","true","f","pattern_43","980.3000000715256","true","63","","","","","","","","","","","","","","","","","","",""
"","","","","","html-keyboard-response","160","277396","0.0-2.0-7.0-0.30","60f5dc6cba19bf6145b8c921","D2","batch4","","null","<p class=block-text>Trial 70 out of 78</p>","null","pattern_show_trial_num","","","","","","","","","","","","","","","","","","","","","","","","",""
"","","","","","image-keyboard-response","161","279368","0.0-2.0-7.0-1.30","60f5dc6cba19bf6145b8c921","D2","batch4","","1969.7999999523163","stim/no_29_1_b.png","j","pattern_response","true","j","pattern_12","1969.7999999523163","true","64","","","","","","","","","","","","","","","","","","",""
"","","","","","html-keyboard-response","162","280682","0.0-2.0-7.0-0.31","60f5dc6cba19bf6145b8c921","D2","batch4","","null","<p class=block-text>Trial 71 out of 78</p>","null","pattern_show_trial_num","","","","","","","","","","","","","","","","","","","","","","","","",""
"","","","","","image-keyboard-response","163","282967","0.0-2.0-7.0-1.31","60f5dc6cba19bf6145b8c921","D2","batch4","","2282.5","stim/yes_55_hor_w1_w.png","f","pattern_response","true","f","pattern_75","2282.5","true","65","","","","","","","","","","","","","","","","","","",""
"","","","","","html-keyboard-response","164","284281","0.0-2.0-7.0-0.32","60f5dc6cba19bf6145b8c921","D2","batch4","","null","<p class=block-text>Trial 72 out of 78</p>","null","pattern_show_trial_num","","","","","","","","","","","","","","","","","","","","","","","","",""
"","","","","","image-keyboard-response","165","285262","0.0-2.0-7.0-1.32","60f5dc6cba19bf6145b8c921","D2","batch4","","977.6999999284744","stim/no_13_2_b.png","j","pattern_response","true","j","pattern_02","977.6999999284744","true","66","","","","","","","","","","","","","","","","","","",""
"","","","","","html-keyboard-response","166","286578","0.0-2.0-7.0-0.33","60f5dc6cba19bf6145b8c921","D2","batch4","","null","<p class=block-text>Trial 73 out of 78</p>","null","pattern_show_trial_num","","","","","","","","","","","","","","","","","","","","","","","","",""
"","","","","","image-keyboard-response","167","288464","0.0-2.0-7.0-1.33","60f5dc6cba19bf6145b8c921","D2","batch4","","1883.7000000476837","stim/yes_35_dia_b1.png","f","pattern_response","true","f","pattern_57","1883.7000000476837","true","67","","","","","","","","","","","","","","","","","","",""
"","","","","","html-keyboard-response","168","289781","0.0-2.0-7.0-0.34","60f5dc6cba19bf6145b8c921","D2","batch4","","null","<p class=block-text>Trial 74 out of 78</p>","null","pattern_show_trial_num","","","","","","","","","","","","","","","","","","","","","","","","",""
"","","","","","image-keyboard-response","169","294342","0.0-2.0-7.0-1.34","60f5dc6cba19bf6145b8c921","D2","batch4","","4558.399999976158","stim/no_70_2.png","j","pattern_response","true","j","pattern_40","4558.399999976158","true","68","","","","","","","","","","","","","","","","","","",""
"","","","","","html-keyboard-response","170","295661","0.0-2.0-7.0-0.35","60f5dc6cba19bf6145b8c921","D2","batch4","","null","<p class=block-text>Trial 75 out of 78</p>","null","pattern_show_trial_num","","","","","","","","","","","","","","","","","","","","","","","","",""
"","","","","","image-keyboard-response","171","296674","0.0-2.0-7.0-1.35","60f5dc6cba19bf6145b8c921","D2","batch4","","1010","stim/yes_17_dia_w1.png","f","pattern_response","true","f","pattern_45","1010","true","69","","","","","","","","","","","","","","","","","","",""
"","","","","","html-keyboard-response","172","297988","0.0-2.0-7.0-0.36","60f5dc6cba19bf6145b8c921","D2","batch4","","null","<p class=block-text>Trial 76 out of 78</p>","null","pattern_show_trial_num","","","","","","","","","","","","","","","","","","","","","","","","",""
"","","","","","image-keyboard-response","173","299111","0.0-2.0-7.0-1.36","60f5dc6cba19bf6145b8c921","D2","batch4","","1119.2999999523163","stim/no_26_1_w.png","j","pattern_response","true","j","pattern_10","1119.2999999523163","true","70","","","","","","","","","","","","","","","","","","",""
"","","","","","html-keyboard-response","174","300425","0.0-2.0-7.0-0.37","60f5dc6cba19bf6145b8c921","D2","batch4","","null","<p class=block-text>Trial 77 out of 78</p>","null","pattern_show_trial_num","","","","","","","","","","","","","","","","","","","","","","","","",""
"","","","","","image-keyboard-response","175","301832","0.0-2.0-7.0-1.37","60f5dc6cba19bf6145b8c921","D2","batch4","","1404.7999999523163","stim/no_20_1_w.png","j","pattern_response","true","j","pattern_06","1404.7999999523163","true","71","","","","","","","","","","","","","","","","","","",""
"","","","","","html-keyboard-response","176","303151","0.0-2.0-7.0-0.38","60f5dc6cba19bf6145b8c921","D2","batch4","","null","<p class=block-text>Trial 78 out of 78</p>","null","pattern_show_trial_num","","","","","","","","","","","","","","","","","","","","","","","","",""
"","","","","","image-keyboard-response","177","304733","0.0-2.0-7.0-1.38","60f5dc6cba19bf6145b8c921","D2","batch4","","1579.6999999284744","stim/no_23_1.png","j","pattern_response","true","j","pattern_08","1579.6999999284744","true","72","","","","","","","","","","","","","","","","","","",""
"","","","","","html-button-response","178","307498","0.0-2.0-8.0","60f5dc6cba19bf6145b8c921","D2","batch4","","2250.100000023842","<p class = block-text>This concludes the 4-in-a-row detection game.Thank you for your responses!<br>
            You responded correctly on 92% of the trials.<br>
            When you are ready, press ""Continue"" button to continue </p>","0","","","","","","","","","","","","","","","","","","","","","","","","","",""
"true","","","","","fullscreen","179","310052","0.0-3.0-0.0","60f5dc6cba19bf6145b8c921","D2","batch4","","","","","","","","","","","","","","","","","","","","","","","","","","","","","",""
"","","","","","instructions","180","355734","0.0-3.0-1.0-0.0-0.0","60f5dc6cba19bf6145b8c921","D2","batch4","[{""page_index"":0,""viewing_time"":9961.900000095367},{""page_index"":1,""viewing_time"":2859},{""page_index"":2,""viewing_time"":6047.199999928474},{""page_index"":3,""viewing_time"":6843.100000023842},{""page_index"":4,""viewing_time"":6000.399999976158},{""page_index"":5,""viewing_time"":10763.800000071526},{""page_index"":6,""viewing_time"":3206.2999999523163}]","45682.200000047684","","","tol-instructions","","","","","","","","","","","","","","","","","","","","","","","","",""
"","","","","","html-button-response","181","356695","0.0-3.0-1.0-1.0-0.0","60f5dc6cba19bf6145b8c921","D2","batch4","","959.2999999523163","<p class=block-text> Let's answer a few questions <br>","0","tol_enter_quiz","","","","","","","","","","","","","","","","","","","","","","","","",""
"","","","","","html-button-response","182","360159","0.0-3.0-1.0-1.0-1.0","60f5dc6cba19bf6145b8c921","D2","batch4","","3462.5","<p class = block-text>True or False: You can only move the ball on top of a peg. <br></p>","0","tol_quiz","true","","","","","","","","","","","","","","","","","","","","","","","",""
"","","","","","html-button-response","183","361108","0.0-3.0-1.0-1.0-2.0","60f5dc6cba19bf6145b8c921","D2","batch4","","947.6000000238419","<p class = block-text>Correct! You can only move the ball on top of a peg.</p>","0","tol_quiz_feedback","","","","","","","","","","","","","","","","","","","","","","","","",""
"","","","","","html-button-response","184","363780","0.0-3.0-1.0-1.0-3.0","60f5dc6cba19bf6145b8c921","D2","batch4","","2670.6999999284744","<p class = block-text>True or False: You should try to match your board with the target board with fewest moves possible. <br></p>","0","tol_quiz","true","","","","","","","","","","","","","","","","","","","","","","","",""
"","","","","","html-button-response","185","364668","0.0-3.0-1.0-1.0-4.0","60f5dc6cba19bf6145b8c921","D2","batch4","","886.7000000476837","<p class = block-text>Correct! </p>","0","tol_quiz_feedback","","","","","","","","","","","","","","","","","","","","","","","","",""
"","","","","","html-button-response","186","365481","0.0-3.0-2.0","60f5dc6cba19bf6145b8c921","D2","batch4","","810.5999999046326","<p class=block-text> Now that you've understood the game, let's practice a few easier examples before we start!<br> <br>","0","","","","","","","","","","","","","","","","","","","","","","","","","",""
"","","","","","single-stim-button","187","367249","0.0-3.0-3.0-0.0","60f5dc6cba19bf6145b8c921","D2","batch4","","1766","","","tol_practice","","","","","","","","","tol_peg_2","1766","1766","0","[[1,2,0],[0,0],[0]]","1","[[1,2,0],[0,0],[3]]","practice","1766","","","","","","","",""
"","","","","","single-stim-button","188","368268","0.0-3.0-3.0-1.0","60f5dc6cba19bf6145b8c921","D2","batch4","","1017","","","tol_practice","","","","","","","","","tol_peg_3","1017","1017","0","[[1,2,0],[0,0],[3]]","1","[[1,2,0],[0,0],[3]]","practice","1017","","","","","","","",""
"","","","","","poldrack-single-stim","189","369279","0.0-3.0-4.0","60f5dc6cba19bf6145b8c921","D2","batch4","","-1","","","tol_feedback","true","","","","","","","","","1000","1000","500","","","","","","-1","none","true","","0","","",""
"","","","","","single-stim-button","190","372041","0.0-3.0-5.0-0.0","60f5dc6cba19bf6145b8c921","D2","batch4","","2761","","","tol_practice","","","","","","","","","tol_peg_1","2761","2761","0","[[1,0,0],[3,0],[0]]","2","[[0,0,0],[3,1],[2]]","practice","2761","","","","","","","",""
"","","","","","single-stim-button","191","373307","0.0-3.0-5.0-1.0","60f5dc6cba19bf6145b8c921","D2","batch4","","1264","","","tol_practice","","","","","","","","","tol_peg_3","1264","1264","0","[[1,0,0],[3,0],[2]]","2","[[0,0,0],[3,1],[2]]","practice","1264","","","","","","","",""
"","","","","","single-stim-button","192","374624","0.0-3.0-5.1-0.1","60f5dc6cba19bf6145b8c921","D2","batch4","","1317","","","tol_practice","","","","","","","","","tol_peg_1","1317","1317","0","[[0,0,0],[3,0],[2]]","3","[[0,0,0],[3,1],[2]]","practice","1317","","","","","","","",""
"","","","","","single-stim-button","193","376374","0.0-3.0-5.1-1.1","60f5dc6cba19bf6145b8c921","D2","batch4","","1748","","","tol_practice","","","","","","","","","tol_peg_2","1748","1748","0","[[0,0,0],[3,1],[2]]","3","[[0,0,0],[3,1],[2]]","practice","1748","","","","","","","",""
"","","","","","poldrack-single-stim","194","377382","0.0-3.0-6.0","60f5dc6cba19bf6145b8c921","D2","batch4","","-1","","","tol_feedback","true","","","","","","","","","1000","1000","500","","","","","","-1","none","true","","0","","",""
"","","","","","single-stim-button","195","380194","0.0-3.0-7.0-0.0","60f5dc6cba19bf6145b8c921","D2","batch4","","2810","","","tol_practice","","","","","","","","","tol_peg_2","2810","2810","0","[[1,2,0],[0,0],[0]]","4","[[1,0,0],[2,0],[3]]","practice","2810","","","","","","","",""
"","","","","","single-stim-button","196","380992","0.0-3.0-7.0-1.0","60f5dc6cba19bf6145b8c921","D2","batch4","","796","","","tol_practice","","","","","","","","","tol_peg_3","796","796","0","[[1,2,0],[0,0],[3]]","4","[[1,0,0],[2,0],[3]]","practice","796","","","","","","","",""
"","","","","","single-stim-button","197","381772","0.0-3.0-7.1-0.1","60f5dc6cba19bf6145b8c921","D2","batch4","","779","","","tol_practice","","","","","","","","","tol_peg_1","779","779","0","[[1,0,0],[0,0],[3]]","5","[[1,0,0],[2,0],[3]]","practice","779","","","","","","","",""
"","","","","","single-stim-button","198","382490","0.0-3.0-7.1-1.1","60f5dc6cba19bf6145b8c921","D2","batch4","","717","","","tol_practice","","","","","","","","","tol_peg_2","717","717","0","[[1,0,0],[2,0],[3]]","5","[[1,0,0],[2,0],[3]]","practice","717","","","","","","","",""
"","","","","","poldrack-single-stim","199","383493","0.0-3.0-8.0","60f5dc6cba19bf6145b8c921","D2","batch4","","-1","","","tol_feedback","true","","","","","","","","","1000","1000","500","","","","","","-1","none","true","","0","","",""
"","","","","","html-button-response","200","384953","0.0-3.0-9.0","60f5dc6cba19bf6145b8c921","D2","batch4","","1458.8000000715256","<div class = centerbox><p class = center-block-text>Great job! You are done with practice trials<br>You are about to start official trials.<br> <br> Problem <strong>1</strong> out of 25 problems</p></div>","0","tol_instruction","","","","","","","","","","","","","","","","","","","","","","","","",""
"","","","","","single-stim-button","201","388060","0.0-3.0-10.0-0.0","60f5dc6cba19bf6145b8c921","D2","batch4","","2099","","","tol_tohand","","","","","","","","","tol_peg_1","2099","2099","0","[[1,0,0],[3,0],[0]]","1","[[1,3,0],[2,0],[0]]","0","0","","","","","","3","",""
"","","","","","single-stim-button","202","389442","0.0-3.0-10.0-1.0","60f5dc6cba19bf6145b8c921","D2","batch4","","1381","","","tol_toboard","","","","","","","","","tol_peg_3","1381","1381","0","[[1,0,0],[3,0],[2]]","1","[[1,3,0],[2,0],[0]]","0","0","","","","","","3","",""
"","","","","","single-stim-button","203","390194","0.0-3.0-10.1-0.1","60f5dc6cba19bf6145b8c921","D2","batch4","","750","","","tol_tohand","","","","","","","","","tol_peg_2","750","750","0","[[1,0,0],[0,0],[2]]","2","[[1,3,0],[2,0],[0]]","0","0","","","","","","3","",""
"","","","","","single-stim-button","204","390959","0.0-3.0-10.1-1.1","60f5dc6cba19bf6145b8c921","D2","batch4","","764","","","tol_toboard","","","","","","","","","tol_peg_1","764","764","0","[[1,3,0],[0,0],[2]]","2","[[1,3,0],[2,0],[0]]","0","0","","","","","","3","",""
"","","","","","single-stim-button","205","391773","0.0-3.0-10.2-0.2","60f5dc6cba19bf6145b8c921","D2","batch4","","814","","","tol_tohand","","","","","","","","","tol_peg_3","814","814","0","[[1,3,0],[0,0],[0]]","3","[[1,3,0],[2,0],[0]]","0","0","","","","","","3","",""
"","","","","","single-stim-button","206","392641","0.0-3.0-10.2-1.2","60f5dc6cba19bf6145b8c921","D2","batch4","","867","","","tol_toboard","","","","","","","","","tol_peg_2","867","867","0","[[1,3,0],[2,0],[0]]","3","[[1,3,0],[2,0],[0]]","0","0","","","","","","3","",""
"","","","","","poldrack-single-stim","207","393651","0.0-3.0-11.0","60f5dc6cba19bf6145b8c921","D2","batch4","","-1","","","tol_feedback","true","","","","","","","","","1000","1000","500","","","","","","-1","none","true","2099","3663","","",""
"","","","","","html-button-response","208","394741","0.0-3.0-12.0","60f5dc6cba19bf6145b8c921","D2","batch4","","1087.8999999761581","<div class = centerbox><p class = center-block-text>problem <strong>2</strong> out of 25 problems</p></div>","0","tol_trial_num","","","","","","","","","","","","","","","","","","","","","","","","",""
"","","","","","single-stim-button","209","397105","0.0-3.0-13.0-0.0","60f5dc6cba19bf6145b8c921","D2","batch4","","2363","","","tol_tohand","","","","","","","","","tol_peg_1","2363","2363","0","[[1,0,0],[3,0],[0]]","1","[[2,1,3],[0,0],[0]]","1","0","","","","","","5","",""
"","","","","","single-stim-button","210","400026","0.0-3.0-13.0-1.0","60f5dc6cba19bf6145b8c921","D2","batch4","","2920","","","tol_toboard","","","","","","","","","tol_peg_3","2920","2920","0","[[1,0,0],[3,0],[2]]","1","[[2,1,3],[0,0],[0]]","1","0","","","","","","5","",""
"","","","","","single-stim-button","211","400912","0.0-3.0-13.1-0.1","60f5dc6cba19bf6145b8c921","D2","batch4","","884","","","tol_tohand","","","","","","","","","tol_peg_1","884","884","0","[[0,0,0],[3,0],[2]]","2","[[2,1,3],[0,0],[0]]","1","0","","","","","","5","",""
"","","","","","single-stim-button","212","401926","0.0-3.0-13.1-1.1","60f5dc6cba19bf6145b8c921","D2","batch4","","1014","","","tol_toboard","","","","","","","","","tol_peg_2","1014","1014","0","[[0,0,0],[3,1],[2]]","2","[[2,1,3],[0,0],[0]]","1","0","","","","","","5","",""
"","","","","","single-stim-button","213","402775","0.0-3.0-13.2-0.2","60f5dc6cba19bf6145b8c921","D2","batch4","","847","","","tol_tohand","","","","","","","","","tol_peg_3","847","847","0","[[0,0,0],[3,1],[0]]","3","[[2,1,3],[0,0],[0]]","1","0","","","","","","5","",""
"","","","","","single-stim-button","214","403791","0.0-3.0-13.2-1.2","60f5dc6cba19bf6145b8c921","D2","batch4","","1016","","","tol_toboard","","","","","","","","","tol_peg_1","1016","1016","0","[[2,0,0],[3,1],[0]]","3","[[2,1,3],[0,0],[0]]","1","0","","","","","","5","",""
"","","","","","single-stim-button","215","404526","0.0-3.0-13.3-0.3","60f5dc6cba19bf6145b8c921","D2","batch4","","733","","","tol_tohand","","","","","","","","","tol_peg_2","733","733","0","[[2,0,0],[3,0],[0]]","4","[[2,1,3],[0,0],[0]]","1","0","","","","","","5","",""
"","","","","","single-stim-button","216","405390","0.0-3.0-13.3-1.3","60f5dc6cba19bf6145b8c921","D2","batch4","","864","","","tol_toboard","","","","","","","","","tol_peg_1","864","864","0","[[2,1,0],[3,0],[0]]","4","[[2,1,3],[0,0],[0]]","1","0","","","","","","5","",""
"","","","","","single-stim-button","217","406137","0.0-3.0-13.4-0.4","60f5dc6cba19bf6145b8c921","D2","batch4","","745","","","tol_tohand","","","","","","","","","tol_peg_2","745","745","0","[[2,1,0],[0,0],[0]]","5","[[2,1,3],[0,0],[0]]","1","0","","","","","","5","",""
"","","","","","single-stim-button","218","407031","0.0-3.0-13.4-1.4","60f5dc6cba19bf6145b8c921","D2","batch4","","894","","","tol_toboard","","","","","","","","","tol_peg_1","894","894","0","[[2,1,3],[0,0],[0]]","5","[[2,1,3],[0,0],[0]]","1","0","","","","","","5","",""
"","","","","","poldrack-single-stim","219","408040","0.0-3.0-14.0","60f5dc6cba19bf6145b8c921","D2","batch4","","-1","","","tol_feedback","true","","","","","","","","","1000","1000","500","","","","","","-1","none","true","2363","5572","","",""
"","","","","","html-button-response","220","408943","0.0-3.0-15.0","60f5dc6cba19bf6145b8c921","D2","batch4","","901.6000000238419","<div class = centerbox><p class = center-block-text>problem <strong>3</strong> out of 25 problems</p></div>","0","tol_trial_num","","","","","","","","","","","","","","","","","","","","","","","","",""
"","","","","","single-stim-button","221","412464","0.0-3.0-16.0-0.0","60f5dc6cba19bf6145b8c921","D2","batch4","","3519","","","tol_tohand","","","","","","","","","tol_peg_1","3519","3519","0","[[2,0,0],[0,0],[1]]","1","[[1,2,0],[3,0],[0]]","2","0","","","","","","4","",""
"","","","","","single-stim-button","222","413596","0.0-3.0-16.0-1.0","60f5dc6cba19bf6145b8c921","D2","batch4","","1132","","","tol_toboard","","","","","","","","","tol_peg_2","1132","1132","0","[[2,0,0],[3,0],[1]]","1","[[1,2,0],[3,0],[0]]","2","0","","","","","","4","",""
"","","","","","single-stim-button","223","414614","0.0-3.0-16.1-0.1","60f5dc6cba19bf6145b8c921","D2","batch4","","1017","","","tol_tohand","","","","","","","","","tol_peg_1","1017","1017","0","[[0,0,0],[3,0],[1]]","2","[[1,2,0],[3,0],[0]]","2","0","","","","","","4","",""
"","","","","","single-stim-button","224","415551","0.0-3.0-16.1-1.1","60f5dc6cba19bf6145b8c921","D2","batch4","","936","","","tol_toboard","","","","","","","","","tol_peg_2","936","936","0","[[0,0,0],[3,2],[1]]","2","[[1,2,0],[3,0],[0]]","2","0","","","","","","4","",""
"","","","","","single-stim-button","225","416216","0.0-3.0-16.2-0.2","60f5dc6cba19bf6145b8c921","D2","batch4","","663","","","tol_tohand","","","","","","","","","tol_peg_3","663","663","0","[[0,0,0],[3,2],[0]]","3","[[1,2,0],[3,0],[0]]","2","0","","","","","","4","",""
"","","","","","single-stim-button","226","417182","0.0-3.0-16.2-1.2","60f5dc6cba19bf6145b8c921","D2","batch4","","966","","","tol_toboard","","","","","","","","","tol_peg_1","966","966","0","[[1,0,0],[3,2],[0]]","3","[[1,2,0],[3,0],[0]]","2","0","","","","","","4","",""
"","","","","","single-stim-button","227","417867","0.0-3.0-16.3-0.3","60f5dc6cba19bf6145b8c921","D2","batch4","","683","","","tol_tohand","","","","","","","","","tol_peg_2","683","683","0","[[1,0,0],[3,0],[0]]","4","[[1,2,0],[3,0],[0]]","2","0","","","","","","4","",""
"","","","","","single-stim-button","228","418582","0.0-3.0-16.3-1.3","60f5dc6cba19bf6145b8c921","D2","batch4","","714","","","tol_toboard","","","","","","","","","tol_peg_1","714","714","0","[[1,2,0],[3,0],[0]]","4","[[1,2,0],[3,0],[0]]","2","0","","","","","","4","",""
"","","","","","poldrack-single-stim","229","419588","0.0-3.0-17.0","60f5dc6cba19bf6145b8c921","D2","batch4","","-1","","","tol_feedback","true","","","","","","","","","1000","1000","500","","","","","","-1","none","true","3519","5882","","",""
"","","","","","html-button-response","230","420498","0.0-3.0-18.0","60f5dc6cba19bf6145b8c921","D2","batch4","","908","<div class = centerbox><p class = center-block-text>problem <strong>4</strong> out of 25 problems</p></div>","0","tol_trial_num","","","","","","","","","","","","","","","","","","","","","","","","",""
"","","","","","single-stim-button","231","423365","0.0-3.0-19.0-0.0","60f5dc6cba19bf6145b8c921","D2","batch4","","2867","","","tol_tohand","","","","","","","","","tol_peg_2","2867","2867","0","[[3,0,0],[2,0],[0]]","1","[[3,0,0],[1,0],[2]]","3","0","","","","","","3","",""
"","","","","","single-stim-button","232","424451","0.0-3.0-19.0-1.0","60f5dc6cba19bf6145b8c921","D2","batch4","","1085","","","tol_toboard","","","","","","","","","tol_peg_1","1085","1085","0","[[3,1,0],[2,0],[0]]","1","[[3,0,0],[1,0],[2]]","3","0","","","","","","3","",""
"","","","","","single-stim-button","233","425069","0.0-3.0-19.1-0.1","60f5dc6cba19bf6145b8c921","D2","batch4","","617","","","tol_tohand","","","","","","","","","tol_peg_2","617","617","0","[[3,1,0],[0,0],[0]]","2","[[3,0,0],[1,0],[2]]","3","0","","","","","","3","",""
"","","","","","single-stim-button","234","426073","0.0-3.0-19.1-1.1","60f5dc6cba19bf6145b8c921","D2","batch4","","1002","","","tol_toboard","","","","","","","","","tol_peg_3","1002","1002","0","[[3,1,0],[0,0],[2]]","2","[[3,0,0],[1,0],[2]]","3","0","","","","","","3","",""
"","","","","","single-stim-button","235","426872","0.0-3.0-19.2-0.2","60f5dc6cba19bf6145b8c921","D2","batch4","","798","","","tol_tohand","","","","","","","","","tol_peg_1","798","798","0","[[3,0,0],[0,0],[2]]","3","[[3,0,0],[1,0],[2]]","3","0","","","","","","3","",""
"","","","","","single-stim-button","236","427637","0.0-3.0-19.2-1.2","60f5dc6cba19bf6145b8c921","D2","batch4","","764","","","tol_toboard","","","","","","","","","tol_peg_2","764","764","0","[[3,0,0],[1,0],[2]]","3","[[3,0,0],[1,0],[2]]","3","0","","","","","","3","",""
"","","","","","poldrack-single-stim","237","428644","0.0-3.0-20.0","60f5dc6cba19bf6145b8c921","D2","batch4","","-1","","","tol_feedback","true","","","","","","","","","1000","1000","500","","","","","","-1","none","true","2867","4282","","",""
"","","","","","html-button-response","238","429940","0.0-3.0-21.0","60f5dc6cba19bf6145b8c921","D2","batch4","","1293.6999999284744","<div class = centerbox><p class = center-block-text>problem <strong>5</strong> out of 25 problems</p></div>","0","tol_trial_num","","","","","","","","","","","","","","","","","","","","","","","","",""
"","","","","","single-stim-button","239","433869","0.0-3.0-22.0-0.0","60f5dc6cba19bf6145b8c921","D2","batch4","","3928","","","tol_tohand","","","","","","","","","tol_peg_2","3928","3928","0","[[1,0,0],[0,0],[3]]","1","[[0,0,0],[1,2],[3]]","4","0","","","","","","7","",""
"","","","","","single-stim-button","240","440732","0.0-3.0-22.0-1.0","60f5dc6cba19bf6145b8c921","D2","batch4","","6861","","","tol_toboard","","","","","","","","","tol_peg_2","6861","6861","0","[[1,0,0],[2,0],[3]]","1","[[0,0,0],[1,2],[3]]","4","0","","","","","","7","",""
"","","","","","single-stim-button","241","442101","0.0-3.0-22.1-0.1","60f5dc6cba19bf6145b8c921","D2","batch4","","1368","","","tol_tohand","","","","","","","","","tol_peg_1","1368","1368","0","[[0,0,0],[2,0],[3]]","2","[[0,0,0],[1,2],[3]]","4","0","","","","","","7","",""
"","","","","","single-stim-button","242","445063","0.0-3.0-22.1-1.1","60f5dc6cba19bf6145b8c921","D2","batch4","","2961","","","tol_toboard","","","","","","","","","tol_peg_1","2961","2961","0","[[1,0,0],[2,0],[3]]","2","[[0,0,0],[1,2],[3]]","4","0","","","","","","7","",""
"","","","","","single-stim-button","243","446298","0.0-3.0-22.2-0.2","60f5dc6cba19bf6145b8c921","D2","batch4","","1233","","","tol_tohand","","","","","","","","","tol_peg_3","1233","1233","0","[[1,0,0],[2,0],[0]]","3","[[0,0,0],[1,2],[3]]","4","0","","","","","","7","",""
"","","","","","single-stim-button","244","448729","0.0-3.0-22.2-1.2","60f5dc6cba19bf6145b8c921","D2","batch4","","2430","","","tol_toboard","","","","","","","","","tol_peg_2","2430","2430","0","[[1,0,0],[2,3],[0]]","3","[[0,0,0],[1,2],[3]]","4","0","","","","","","7","",""
"","","","","","single-stim-button","245","449362","0.0-3.0-22.3-0.3","60f5dc6cba19bf6145b8c921","D2","batch4","","632","","","tol_tohand","","","","","","","","","tol_peg_1","632","632","0","[[0,0,0],[2,3],[0]]","4","[[0,0,0],[1,2],[3]]","4","0","","","","","","7","",""
"","","","","","single-stim-button","246","450344","0.0-3.0-22.3-1.3","60f5dc6cba19bf6145b8c921","D2","batch4","","982","","","tol_toboard","","","","","","","","","tol_peg_3","982","982","0","[[0,0,0],[2,3],[1]]","4","[[0,0,0],[1,2],[3]]","4","0","","","","","","7","",""
"","","","","","single-stim-button","247","452010","0.0-3.0-22.4-0.4","60f5dc6cba19bf6145b8c921","D2","batch4","","1665","","","tol_tohand","","","","","","","","","tol_peg_2","1665","1665","0","[[0,0,0],[2,0],[1]]","5","[[0,0,0],[1,2],[3]]","4","0","","","","","","7","",""
"","","","","","single-stim-button","248","453024","0.0-3.0-22.4-1.4","60f5dc6cba19bf6145b8c921","D2","batch4","","1013","","","tol_toboard","","","","","","","","","tol_peg_1","1013","1013","0","[[3,0,0],[2,0],[1]]","5","[[0,0,0],[1,2],[3]]","4","0","","","","","","7","",""
"","","","","","single-stim-button","249","453658","0.0-3.0-22.5-0.5","60f5dc6cba19bf6145b8c921","D2","batch4","","633","","","tol_tohand","","","","","","","","","tol_peg_2","633","633","0","[[3,0,0],[0,0],[1]]","6","[[0,0,0],[1,2],[3]]","4","0","","","","","","7","",""
"","","","","","single-stim-button","250","454714","0.0-3.0-22.5-1.5","60f5dc6cba19bf6145b8c921","D2","batch4","","1055","","","tol_toboard","","","","","","","","","tol_peg_1","1055","1055","0","[[3,2,0],[0,0],[1]]","6","[[0,0,0],[1,2],[3]]","4","0","","","","","","7","",""
"","","","","","single-stim-button","251","456443","0.0-3.0-22.6-0.6","60f5dc6cba19bf6145b8c921","D2","batch4","","1727","","","tol_tohand","","","","","","","","","tol_peg_3","1727","1727","0","[[3,2,0],[0,0],[0]]","7","[[0,0,0],[1,2],[3]]","4","0","","","","","","7","",""
"","","","","","single-stim-button","252","457312","0.0-3.0-22.6-1.6","60f5dc6cba19bf6145b8c921","D2","batch4","","868","","","tol_toboard","","","","","","","","","tol_peg_2","868","868","0","[[3,2,0],[1,0],[0]]","7","[[0,0,0],[1,2],[3]]","4","0","","","","","","7","",""
"","","","","","single-stim-button","253","457996","0.0-3.0-22.7-0.7","60f5dc6cba19bf6145b8c921","D2","batch4","","682","","","tol_tohand","","","","","","","","","tol_peg_1","682","682","0","[[3,0,0],[1,0],[0]]","8","[[0,0,0],[1,2],[3]]","4","0","","","","","","7","",""
"","","","","","single-stim-button","254","458994","0.0-3.0-22.7-1.7","60f5dc6cba19bf6145b8c921","D2","batch4","","998","","","tol_toboard","","","","","","","","","tol_peg_2","998","998","0","[[3,0,0],[1,2],[0]]","8","[[0,0,0],[1,2],[3]]","4","0","","","","","","7","",""
"","","","","","single-stim-button","255","459660","0.0-3.0-22.8-0.8","60f5dc6cba19bf6145b8c921","D2","batch4","","664","","","tol_tohand","","","","","","","","","tol_peg_1","664","664","0","[[0,0,0],[1,2],[0]]","9","[[0,0,0],[1,2],[3]]","4","0","","","","","","7","",""
"","","","","","single-stim-button","256","460395","0.0-3.0-22.8-1.8","60f5dc6cba19bf6145b8c921","D2","batch4","","735","","","tol_toboard","","","","","","","","","tol_peg_3","735","735","0","[[0,0,0],[1,2],[3]]","9","[[0,0,0],[1,2],[3]]","4","0","","","","","","7","",""
"","","","","","poldrack-single-stim","257","461405","0.0-3.0-23.0","60f5dc6cba19bf6145b8c921","D2","batch4","","-1","","","tol_feedback","true","","","","","","","","","1000","1000","500","","","","","","-1","none","true","3928","12532","","",""
"","","","","","html-button-response","258","462205","0.0-3.0-24.0","60f5dc6cba19bf6145b8c921","D2","batch4","","798.3999999761581","<div class = centerbox><p class = center-block-text>problem <strong>6</strong> out of 25 problems</p></div>","0","tol_trial_num","","","","","","","","","","","","","","","","","","","","","","","","",""
"","","","","","single-stim-button","259","470809","0.0-3.0-25.0-0.0","60f5dc6cba19bf6145b8c921","D2","batch4","","8603","","","tol_tohand","","","","","","","","","tol_peg_2","8603","8603","0","[[0,0,0],[1,0],[3]]","1","[[1,0,0],[2,3],[0]]","5","0","","","","","","6","",""
"","","","","","single-stim-button","260","472096","0.0-3.0-25.0-1.0","60f5dc6cba19bf6145b8c921","D2","batch4","","1286","","","tol_toboard","","","","","","","","","tol_peg_1","1286","1286","0","[[2,0,0],[1,0],[3]]","1","[[1,0,0],[2,3],[0]]","5","0","","","","","","6","",""
"","","","","","single-stim-button","261","473463","0.0-3.0-25.1-0.1","60f5dc6cba19bf6145b8c921","D2","batch4","","1365","","","tol_tohand","","","","","","","","","tol_peg_3","1365","1365","0","[[2,0,0],[1,0],[0]]","2","[[1,0,0],[2,3],[0]]","5","0","","","","","","6","",""
"","","","","","single-stim-button","262","476536","0.0-3.0-25.1-1.1","60f5dc6cba19bf6145b8c921","D2","batch4","","3071","","","tol_toboard","","","","","","","","","tol_peg_1","3071","3071","0","[[2,3,0],[1,0],[0]]","2","[[1,0,0],[2,3],[0]]","5","0","","","","","","6","",""
"","","","","","single-stim-button","263","477536","0.0-3.0-25.2-0.2","60f5dc6cba19bf6145b8c921","D2","batch4","","998","","","tol_tohand","","","","","","","","","tol_peg_2","998","998","0","[[2,3,0],[0,0],[0]]","3","[[1,0,0],[2,3],[0]]","5","0","","","","","","6","",""
"","","","","","single-stim-button","264","479566","0.0-3.0-25.2-1.2","60f5dc6cba19bf6145b8c921","D2","batch4","","2029","","","tol_toboard","","","","","","","","","tol_peg_3","2029","2029","0","[[2,3,0],[0,0],[1]]","3","[[1,0,0],[2,3],[0]]","5","0","","","","","","6","",""
"","","","","","single-stim-button","265","480886","0.0-3.0-25.3-0.3","60f5dc6cba19bf6145b8c921","D2","batch4","","1320","","","tol_tohand","","","","","","","","","tol_peg_1","1320","1320","0","[[2,0,0],[0,0],[1]]","4","[[1,0,0],[2,3],[0]]","5","0","","","","","","6","",""
"","","","","","single-stim-button","266","484383","0.0-3.0-25.3-1.3","60f5dc6cba19bf6145b8c921","D2","batch4","","3495","","","tol_toboard","","","","","","","","","tol_peg_2","3495","3495","0","[[2,0,0],[3,0],[1]]","4","[[1,0,0],[2,3],[0]]","5","0","","","","","","6","",""
"","","","","","single-stim-button","267","485280","0.0-3.0-25.4-0.4","60f5dc6cba19bf6145b8c921","D2","batch4","","897","","","tol_tohand","","","","","","","","","tol_peg_1","897","897","0","[[0,0,0],[3,0],[1]]","5","[[1,0,0],[2,3],[0]]","5","0","","","","","","6","",""
"","","","","","single-stim-button","268","485879","0.0-3.0-25.4-1.4","60f5dc6cba19bf6145b8c921","D2","batch4","","598","","","tol_toboard","","","","","","","","","tol_peg_2","598","598","0","[[0,0,0],[3,2],[1]]","5","[[1,0,0],[2,3],[0]]","5","0","","","","","","6","",""
"","","","","","single-stim-button","269","486478","0.0-3.0-25.5-0.5","60f5dc6cba19bf6145b8c921","D2","batch4","","598","","","tol_tohand","","","","","","","","","tol_peg_3","598","598","0","[[0,0,0],[3,2],[0]]","6","[[1,0,0],[2,3],[0]]","5","0","","","","","","6","",""
"","","","","","single-stim-button","270","487343","0.0-3.0-25.5-1.5","60f5dc6cba19bf6145b8c921","D2","batch4","","864","","","tol_toboard","","","","","","","","","tol_peg_1","864","864","0","[[1,0,0],[3,2],[0]]","6","[[1,0,0],[2,3],[0]]","5","0","","","","","","6","",""
"","","","","","single-stim-button","271","488691","0.0-3.0-25.6-0.6","60f5dc6cba19bf6145b8c921","D2","batch4","","1347","","","tol_tohand","","","","","","","","","tol_peg_2","1347","1347","0","[[1,0,0],[3,0],[0]]","7","[[1,0,0],[2,3],[0]]","5","0","","","","","","6","",""
"","","","","","single-stim-button","272","489985","0.0-3.0-25.6-1.6","60f5dc6cba19bf6145b8c921","D2","batch4","","1292","","","tol_toboard","","","","","","","","","tol_peg_1","1292","1292","0","[[1,2,0],[3,0],[0]]","7","[[1,0,0],[2,3],[0]]","5","0","","","","","","6","",""
"","","","","","single-stim-button","273","490878","0.0-3.0-25.7-0.7","60f5dc6cba19bf6145b8c921","D2","batch4","","891","","","tol_tohand","","","","","","","","","tol_peg_2","891","891","0","[[1,2,0],[0,0],[0]]","8","[[1,0,0],[2,3],[0]]","5","0","","","","","","6","",""
"","","","","","single-stim-button","274","492095","0.0-3.0-25.7-1.7","60f5dc6cba19bf6145b8c921","D2","batch4","","1217","","","tol_toboard","","","","","","","","","tol_peg_3","1217","1217","0","[[1,2,0],[0,0],[3]]","8","[[1,0,0],[2,3],[0]]","5","0","","","","","","6","",""
"","","","","","single-stim-button","275","493077","0.0-3.0-25.8-0.8","60f5dc6cba19bf6145b8c921","D2","batch4","","980","","","tol_tohand","","","","","","","","","tol_peg_1","980","980","0","[[1,0,0],[0,0],[3]]","9","[[1,0,0],[2,3],[0]]","5","0","","","","","","6","",""
"","","","","","single-stim-button","276","494008","0.0-3.0-25.8-1.8","60f5dc6cba19bf6145b8c921","D2","batch4","","931","","","tol_toboard","","","","","","","","","tol_peg_2","931","931","0","[[1,0,0],[2,0],[3]]","9","[[1,0,0],[2,3],[0]]","5","0","","","","","","6","",""
"","","","","","single-stim-button","277","494713","0.0-3.0-25.9-0.9","60f5dc6cba19bf6145b8c921","D2","batch4","","704","","","tol_tohand","","","","","","","","","tol_peg_3","704","704","0","[[1,0,0],[2,0],[0]]","10","[[1,0,0],[2,3],[0]]","5","0","","","","","","6","",""
"","","","","","single-stim-button","278","495446","0.0-3.0-25.9-1.9","60f5dc6cba19bf6145b8c921","D2","batch4","","732","","","tol_toboard","","","","","","","","","tol_peg_2","732","732","0","[[1,0,0],[2,3],[0]]","10","[[1,0,0],[2,3],[0]]","5","0","","","","","","6","",""
"","","","","","poldrack-single-stim","279","496459","0.0-3.0-26.0","60f5dc6cba19bf6145b8c921","D2","batch4","","-1","","","tol_feedback","true","","","","","","","","","1000","1000","500","","","","","","-1","none","true","8603","17703","","",""
"","","","","","html-button-response","280","497452","0.0-3.0-27.0","60f5dc6cba19bf6145b8c921","D2","batch4","","992.1000000238419","<div class = centerbox><p class = center-block-text>problem <strong>7</strong> out of 25 problems</p></div>","0","tol_trial_num","","","","","","","","","","","","","","","","","","","","","","","","",""
"","","","","","single-stim-button","281","505799","0.0-3.0-28.0-0.0","60f5dc6cba19bf6145b8c921","D2","batch4","","8345","","","tol_tohand","","","","","","","","","tol_peg_3","8345","8345","0","[[2,1,0],[0,0],[0]]","1","[[1,2,0],[3,0],[0]]","6","0","","","","","","5","",""
"","","","","","single-stim-button","282","506735","0.0-3.0-28.0-1.0","60f5dc6cba19bf6145b8c921","D2","batch4","","935","","","tol_toboard","","","","","","","","","tol_peg_2","935","935","0","[[2,1,0],[3,0],[0]]","1","[[1,2,0],[3,0],[0]]","6","0","","","","","","5","",""
"","","","","","single-stim-button","283","507503","0.0-3.0-28.1-0.1","60f5dc6cba19bf6145b8c921","D2","batch4","","766","","","tol_tohand","","","","","","","","","tol_peg_1","766","766","0","[[2,0,0],[3,0],[0]]","2","[[1,2,0],[3,0],[0]]","6","0","","","","","","5","",""
"","","","","","single-stim-button","284","508535","0.0-3.0-28.1-1.1","60f5dc6cba19bf6145b8c921","D2","batch4","","1031","","","tol_toboard","","","","","","","","","tol_peg_3","1031","1031","0","[[2,0,0],[3,0],[1]]","2","[[1,2,0],[3,0],[0]]","6","0","","","","","","5","",""
"","","","","","single-stim-button","285","509292","0.0-3.0-28.2-0.2","60f5dc6cba19bf6145b8c921","D2","batch4","","756","","","tol_tohand","","","","","","","","","tol_peg_1","756","756","0","[[0,0,0],[3,0],[1]]","3","[[1,2,0],[3,0],[0]]","6","0","","","","","","5","",""
"","","","","","single-stim-button","286","510072","0.0-3.0-28.2-1.2","60f5dc6cba19bf6145b8c921","D2","batch4","","780","","","tol_toboard","","","","","","","","","tol_peg_2","780","780","0","[[0,0,0],[3,2],[1]]","3","[[1,2,0],[3,0],[0]]","6","0","","","","","","5","",""
"","","","","","single-stim-button","287","510736","0.0-3.0-28.3-0.3","60f5dc6cba19bf6145b8c921","D2","batch4","","663","","","tol_tohand","","","","","","","","","tol_peg_3","663","663","0","[[0,0,0],[3,2],[0]]","4","[[1,2,0],[3,0],[0]]","6","0","","","","","","5","",""
"","","","","","single-stim-button","288","511618","0.0-3.0-28.3-1.3","60f5dc6cba19bf6145b8c921","D2","batch4","","881","","","tol_toboard","","","","","","","","","tol_peg_1","881","881","0","[[1,0,0],[3,2],[0]]","4","[[1,2,0],[3,0],[0]]","6","0","","","","","","5","",""
"","","","","","single-stim-button","289","512408","0.0-3.0-28.4-0.4","60f5dc6cba19bf6145b8c921","D2","batch4","","789","","","tol_tohand","","","","","","","","","tol_peg_2","789","789","0","[[1,0,0],[3,0],[0]]","5","[[1,2,0],[3,0],[0]]","6","0","","","","","","5","",""
"","","","","","single-stim-button","290","513007","0.0-3.0-28.4-1.4","60f5dc6cba19bf6145b8c921","D2","batch4","","598","","","tol_toboard","","","","","","","","","tol_peg_1","598","598","0","[[1,2,0],[3,0],[0]]","5","[[1,2,0],[3,0],[0]]","6","0","","","","","","5","",""
"","","","","","poldrack-single-stim","291","514018","0.0-3.0-29.0","60f5dc6cba19bf6145b8c921","D2","batch4","","-1","","","tol_feedback","true","","","","","","","","","1000","1000","500","","","","","","-1","none","true","8345","11319","","",""
"","","","","","html-button-response","292","515373","0.0-3.0-30.0","60f5dc6cba19bf6145b8c921","D2","batch4","","1353.4000000953674","<div class = centerbox><p class = center-block-text>problem <strong>8</strong> out of 25 problems</p></div>","0","tol_trial_num","","","","","","","","","","","","","","","","","","","","","","","","",""
"","","","","","single-stim-button","293","518425","0.0-3.0-31.0-0.0","60f5dc6cba19bf6145b8c921","D2","batch4","","3052","","","tol_tohand","","","","","","","","","tol_peg_3","3052","3052","0","[[0,0,0],[2,3],[0]]","1","[[1,2,0],[3,0],[0]]","7","0","","","","","","4","",""
"","","","","","single-stim-button","294","519637","0.0-3.0-31.0-1.0","60f5dc6cba19bf6145b8c921","D2","batch4","","1211","","","tol_toboard","","","","","","","","","tol_peg_1","1211","1211","0","[[1,0,0],[2,3],[0]]","1","[[1,2,0],[3,0],[0]]","7","0","","","","","","4","",""
"","","","","","single-stim-button","295","520497","0.0-3.0-31.1-0.1","60f5dc6cba19bf6145b8c921","D2","batch4","","860","","","tol_tohand","","","","","","","","","tol_peg_2","860","860","0","[[1,0,0],[2,0],[0]]","2","[[1,2,0],[3,0],[0]]","7","0","","","","","","4","",""
"","","","","","single-stim-button","296","521358","0.0-3.0-31.1-1.1","60f5dc6cba19bf6145b8c921","D2","batch4","","860","","","tol_toboard","","","","","","","","","tol_peg_3","860","860","0","[[1,0,0],[2,0],[3]]","2","[[1,2,0],[3,0],[0]]","7","0","","","","","","4","",""
"","","","","","single-stim-button","297","521935","0.0-3.0-31.2-0.2","60f5dc6cba19bf6145b8c921","D2","batch4","","576","","","tol_tohand","","","","","","","","","tol_peg_2","576","576","0","[[1,0,0],[0,0],[3]]","3","[[1,2,0],[3,0],[0]]","7","0","","","","","","4","",""
"","","","","","single-stim-button","298","522610","0.0-3.0-31.2-1.2","60f5dc6cba19bf6145b8c921","D2","batch4","","674","","","tol_toboard","","","","","","","","","tol_peg_1","674","674","0","[[1,2,0],[0,0],[3]]","3","[[1,2,0],[3,0],[0]]","7","0","","","","","","4","",""
"","","","","","single-stim-button","299","523318","0.0-3.0-31.3-0.3","60f5dc6cba19bf6145b8c921","D2","batch4","","708","","","tol_tohand","","","","","","","","","tol_peg_3","708","708","0","[[1,2,0],[0,0],[0]]","4","[[1,2,0],[3,0],[0]]","7","0","","","","","","4","",""
"","","","","","single-stim-button","300","523994","0.0-3.0-31.3-1.3","60f5dc6cba19bf6145b8c921","D2","batch4","","675","","","tol_toboard","","","","","","","","","tol_peg_2","675","675","0","[[1,2,0],[3,0],[0]]","4","[[1,2,0],[3,0],[0]]","7","0","","","","","","4","",""
"","","","","","poldrack-single-stim","301","524998","0.0-3.0-32.0","60f5dc6cba19bf6145b8c921","D2","batch4","","-1","","","tol_feedback","true","","","","","","","","","1000","1000","500","","","","","","-1","none","true","3052","5196","","",""
"","","","","","html-button-response","302","525744","0.0-3.0-33.0","60f5dc6cba19bf6145b8c921","D2","batch4","","745.2999999523163","<div class = centerbox><p class = center-block-text>problem <strong>9</strong> out of 25 problems</p></div>","0","tol_trial_num","","","","","","","","","","","","","","","","","","","","","","","","",""
"","","","","","single-stim-button","303","530965","0.0-3.0-34.0-0.0","60f5dc6cba19bf6145b8c921","D2","batch4","","5219","","","tol_tohand","","","","","","","","","tol_peg_1","5219","5219","0","[[3,0,0],[0,0],[1]]","1","[[2,1,0],[3,0],[0]]","8","0","","","","","","6","",""
"","","","","","single-stim-button","304","535960","0.0-3.0-34.0-1.0","60f5dc6cba19bf6145b8c921","D2","batch4","","4995","","","tol_toboard","","","","","","","","","tol_peg_2","4995","4995","0","[[3,0,0],[2,0],[1]]","1","[[2,1,0],[3,0],[0]]","8","0","","","","","","6","",""
"","","","","","single-stim-button","305","541738","0.0-3.0-34.1-0.1","60f5dc6cba19bf6145b8c921","D2","batch4","","5776","","","tol_tohand","","","","","","","","","tol_peg_1","5776","5776","0","[[0,0,0],[2,0],[1]]","2","[[2,1,0],[3,0],[0]]","8","0","","","","","","6","",""
"","","","","","single-stim-button","306","544065","0.0-3.0-34.1-1.1","60f5dc6cba19bf6145b8c921","D2","batch4","","2327","","","tol_toboard","","","","","","","","","tol_peg_2","2327","2327","0","[[0,0,0],[2,3],[1]]","2","[[2,1,0],[3,0],[0]]","8","0","","","","","","6","",""
"","","","","","single-stim-button","307","544965","0.0-3.0-34.2-0.2","60f5dc6cba19bf6145b8c921","D2","batch4","","899","","","tol_tohand","","","","","","","","","tol_peg_3","899","899","0","[[0,0,0],[2,3],[0]]","3","[[2,1,0],[3,0],[0]]","8","0","","","","","","6","",""
"","","","","","single-stim-button","308","546731","0.0-3.0-34.2-1.2","60f5dc6cba19bf6145b8c921","D2","batch4","","1764","","","tol_toboard","","","","","","","","","tol_peg_1","1764","1764","0","[[1,0,0],[2,3],[0]]","3","[[2,1,0],[3,0],[0]]","8","0","","","","","","6","",""
"","","","","","single-stim-button","309","547437","0.0-3.0-34.3-0.3","60f5dc6cba19bf6145b8c921","D2","batch4","","705","","","tol_tohand","","","","","","","","","tol_peg_2","705","705","0","[[1,0,0],[2,0],[0]]","4","[[2,1,0],[3,0],[0]]","8","0","","","","","","6","",""
"","","","","","single-stim-button","310","548396","0.0-3.0-34.3-1.3","60f5dc6cba19bf6145b8c921","D2","batch4","","959","","","tol_toboard","","","","","","","","","tol_peg_3","959","959","0","[[1,0,0],[2,0],[3]]","4","[[2,1,0],[3,0],[0]]","8","0","","","","","","6","",""
"","","","","","single-stim-button","311","549980","0.0-3.0-34.4-0.4","60f5dc6cba19bf6145b8c921","D2","batch4","","1583","","","tol_tohand","","","","","","","","","tol_peg_2","1583","1583","0","[[1,0,0],[0,0],[3]]","5","[[2,1,0],[3,0],[0]]","8","0","","","","","","6","",""
"","","","","","single-stim-button","312","552112","0.0-3.0-34.4-1.4","60f5dc6cba19bf6145b8c921","D2","batch4","","2131","","","tol_toboard","","","","","","","","","tol_peg_2","2131","2131","0","[[1,0,0],[2,0],[3]]","5","[[2,1,0],[3,0],[0]]","8","0","","","","","","6","",""
"","","","","","single-stim-button","313","554329","0.0-3.0-34.5-0.5","60f5dc6cba19bf6145b8c921","D2","batch4","","2215","","","tol_tohand","","","","","","","","","tol_peg_2","2215","2215","0","[[1,0,0],[0,0],[3]]","6","[[2,1,0],[3,0],[0]]","8","0","","","","","","6","",""
"","","","","","single-stim-button","314","554343","0.0-3.0-34.5-1.5","60f5dc6cba19bf6145b8c921","D2","batch4","","13","","","tol_toboard","","","","","","","","","tol_peg_2","13","13","0","[[1,0,0],[2,0],[3]]","6","[[2,1,0],[3,0],[0]]","8","0","","","","","","6","",""
"","","","","","single-stim-button","315","554548","0.0-3.0-34.6-0.6","60f5dc6cba19bf6145b8c921","D2","batch4","","205","","","tol_tohand","","","","","","","","","tol_peg_2","205","205","0","[[1,0,0],[0,0],[3]]","7","[[2,1,0],[3,0],[0]]","8","0","","","","","","6","",""
"","","","","","single-stim-button","316","555645","0.0-3.0-34.6-1.6","60f5dc6cba19bf6145b8c921","D2","batch4","","1096","","","tol_toboard","","","","","","","","","tol_peg_1","1096","1096","0","[[1,2,0],[0,0],[3]]","7","[[2,1,0],[3,0],[0]]","8","0","","","","","","6","",""
"","","","","","single-stim-button","317","557713","0.0-3.0-34.7-0.7","60f5dc6cba19bf6145b8c921","D2","batch4","","2067","","","tol_tohand","","","","","","","","","tol_peg_3","2067","2067","0","[[1,2,0],[0,0],[0]]","8","[[2,1,0],[3,0],[0]]","8","0","","","","","","6","",""
"","","","","","single-stim-button","318","558595","0.0-3.0-34.7-1.7","60f5dc6cba19bf6145b8c921","D2","batch4","","881","","","tol_toboard","","","","","","","","","tol_peg_2","881","881","0","[[1,2,0],[3,0],[0]]","8","[[2,1,0],[3,0],[0]]","8","0","","","","","","6","",""
"","","","","","single-stim-button","319","559394","0.0-3.0-34.8-0.8","60f5dc6cba19bf6145b8c921","D2","batch4","","798","","","tol_tohand","","","","","","","","","tol_peg_1","798","798","0","[[1,0,0],[3,0],[0]]","9","[[2,1,0],[3,0],[0]]","8","0","","","","","","6","",""
"","","","","","single-stim-button","320","560465","0.0-3.0-34.8-1.8","60f5dc6cba19bf6145b8c921","D2","batch4","","1070","","","tol_toboard","","","","","","","","","tol_peg_2","1070","1070","0","[[1,0,0],[3,2],[0]]","9","[[2,1,0],[3,0],[0]]","8","0","","","","","","6","",""
"","","","","","single-stim-button","321","561215","0.0-3.0-34.9-0.9","60f5dc6cba19bf6145b8c921","D2","batch4","","749","","","tol_tohand","","","","","","","","","tol_peg_1","749","749","0","[[0,0,0],[3,2],[0]]","10","[[2,1,0],[3,0],[0]]","8","0","","","","","","6","",""
"","","","","","single-stim-button","322","562116","0.0-3.0-34.9-1.9","60f5dc6cba19bf6145b8c921","D2","batch4","","900","","","tol_toboard","","","","","","","","","tol_peg_3","900","900","0","[[0,0,0],[3,2],[1]]","10","[[2,1,0],[3,0],[0]]","8","0","","","","","","6","",""
"","","","","","single-stim-button","323","562733","0.0-3.0-34.10-0.10","60f5dc6cba19bf6145b8c921","D2","batch4","","616","","","tol_tohand","","","","","","","","","tol_peg_2","616","616","0","[[0,0,0],[3,0],[1]]","11","[[2,1,0],[3,0],[0]]","8","0","","","","","","6","",""
"","","","","","single-stim-button","324","563596","0.0-3.0-34.10-1.10","60f5dc6cba19bf6145b8c921","D2","batch4","","862","","","tol_toboard","","","","","","","","","tol_peg_1","862","862","0","[[2,0,0],[3,0],[1]]","11","[[2,1,0],[3,0],[0]]","8","0","","","","","","6","",""
"","","","","","single-stim-button","325","564757","0.0-3.0-34.11-0.11","60f5dc6cba19bf6145b8c921","D2","batch4","","1160","","","tol_tohand","","","","","","","","","tol_peg_3","1160","1160","0","[[2,0,0],[3,0],[0]]","12","[[2,1,0],[3,0],[0]]","8","0","","","","","","6","",""
"","","","","","single-stim-button","326","565623","0.0-3.0-34.11-1.11","60f5dc6cba19bf6145b8c921","D2","batch4","","865","","","tol_toboard","","","","","","","","","tol_peg_1","865","865","0","[[2,1,0],[3,0],[0]]","12","[[2,1,0],[3,0],[0]]","8","0","","","","","","6","",""
"","","","","","poldrack-single-stim","327","566630","0.0-3.0-35.0","60f5dc6cba19bf6145b8c921","D2","batch4","","-1","","","tol_feedback","true","","","","","","","","","1000","1000","500","","","","","","-1","none","true","5219","21992","","",""
"","","","","","html-button-response","328","567739","0.0-3.0-36.0","60f5dc6cba19bf6145b8c921","D2","batch4","","1107.6999999284744","<div class = centerbox><p class = center-block-text>problem <strong>10</strong> out of 25 problems</p></div>","0","tol_trial_num","","","","","","","","","","","","","","","","","","","","","","","","",""
"","","","","","single-stim-button","329","570801","0.0-3.0-37.0-0.0","60f5dc6cba19bf6145b8c921","D2","batch4","","3060","","","tol_tohand","","","","","","","","","tol_peg_2","3060","3060","0","[[3,0,0],[0,0],[2]]","1","[[3,0,0],[2,1],[0]]","9","0","","","","","","3","",""
"","","","","","single-stim-button","330","571517","0.0-3.0-37.0-1.0","60f5dc6cba19bf6145b8c921","D2","batch4","","716","","","tol_toboard","","","","","","","","","tol_peg_1","716","716","0","[[3,1,0],[0,0],[2]]","1","[[3,0,0],[2,1],[0]]","9","0","","","","","","3","",""
"","","","","","single-stim-button","331","572151","0.0-3.0-37.1-0.1","60f5dc6cba19bf6145b8c921","D2","batch4","","632","","","tol_tohand","","","","","","","","","tol_peg_3","632","632","0","[[3,1,0],[0,0],[0]]","2","[[3,0,0],[2,1],[0]]","9","0","","","","","","3","",""
"","","","","","single-stim-button","332","572933","0.0-3.0-37.1-1.1","60f5dc6cba19bf6145b8c921","D2","batch4","","782","","","tol_toboard","","","","","","","","","tol_peg_2","782","782","0","[[3,1,0],[2,0],[0]]","2","[[3,0,0],[2,1],[0]]","9","0","","","","","","3","",""
"","","","","","single-stim-button","333","573682","0.0-3.0-37.2-0.2","60f5dc6cba19bf6145b8c921","D2","batch4","","748","","","tol_tohand","","","","","","","","","tol_peg_1","748","748","0","[[3,0,0],[2,0],[0]]","3","[[3,0,0],[2,1],[0]]","9","0","","","","","","3","",""
"","","","","","single-stim-button","334","574308","0.0-3.0-37.2-1.2","60f5dc6cba19bf6145b8c921","D2","batch4","","624","","","tol_toboard","","","","","","","","","tol_peg_2","624","624","0","[[3,0,0],[2,1],[0]]","3","[[3,0,0],[2,1],[0]]","9","0","","","","","","3","",""
"","","","","","poldrack-single-stim","335","575316","0.0-3.0-38.0","60f5dc6cba19bf6145b8c921","D2","batch4","","-1","","","tol_feedback","true","","","","","","","","","1000","1000","500","","","","","","-1","none","true","3060","4440","","",""
"","","","","","html-button-response","336","576098","0.0-3.0-39.0","60f5dc6cba19bf6145b8c921","D2","batch4","","779.7999999523163","<div class = centerbox><p class = center-block-text>problem <strong>11</strong> out of 25 problems</p></div>","0","tol_trial_num","","","","","","","","","","","","","","","","","","","","","","","","",""
"","","","","","single-stim-button","337","578587","0.0-3.0-40.0-0.0","60f5dc6cba19bf6145b8c921","D2","batch4","","2488","","","tol_tohand","","","","","","","","","tol_peg_2","2488","2488","0","[[1,2,0],[0,0],[0]]","1","[[2,0,0],[1,3],[0]]","10","0","","","","","","6","",""
"","","","","","single-stim-button","338","579686","0.0-3.0-40.0-1.0","60f5dc6cba19bf6145b8c921","D2","batch4","","1098","","","tol_toboard","","","","","","","","","tol_peg_3","1098","1098","0","[[1,2,0],[0,0],[3]]","1","[[2,0,0],[1,3],[0]]","10","0","","","","","","6","",""
"","","","","","single-stim-button","339","584553","0.0-3.0-40.1-0.1","60f5dc6cba19bf6145b8c921","D2","batch4","","4866","","","tol_tohand","","","","","","","","","tol_peg_1","4866","4866","0","[[1,0,0],[0,0],[3]]","2","[[2,0,0],[1,3],[0]]","10","0","","","","","","6","",""
"","","","","","single-stim-button","340","585507","0.0-3.0-40.1-1.1","60f5dc6cba19bf6145b8c921","D2","batch4","","952","","","tol_toboard","","","","","","","","","tol_peg_2","952","952","0","[[1,0,0],[2,0],[3]]","2","[[2,0,0],[1,3],[0]]","10","0","","","","","","6","",""
"","","","","","single-stim-button","341","588270","0.0-3.0-40.2-0.2","60f5dc6cba19bf6145b8c921","D2","batch4","","2761","","","tol_tohand","","","","","","","","","tol_peg_1","2761","2761","0","[[0,0,0],[2,0],[3]]","3","[[2,0,0],[1,3],[0]]","10","0","","","","","","6","",""
"","","","","","single-stim-button","342","589005","0.0-3.0-40.2-1.2","60f5dc6cba19bf6145b8c921","D2","batch4","","734","","","tol_toboard","","","","","","","","","tol_peg_2","734","734","0","[[0,0,0],[2,1],[3]]","3","[[2,0,0],[1,3],[0]]","10","0","","","","","","6","",""
"","","","","","single-stim-button","343","589869","0.0-3.0-40.3-0.3","60f5dc6cba19bf6145b8c921","D2","batch4","","862","","","tol_tohand","","","","","","","","","tol_peg_3","862","862","0","[[0,0,0],[2,1],[0]]","4","[[2,0,0],[1,3],[0]]","10","0","","","","","","6","",""
"","","","","","single-stim-button","344","590752","0.0-3.0-40.3-1.3","60f5dc6cba19bf6145b8c921","D2","batch4","","882","","","tol_toboard","","","","","","","","","tol_peg_1","882","882","0","[[3,0,0],[2,1],[0]]","4","[[2,0,0],[1,3],[0]]","10","0","","","","","","6","",""
"","","","","","single-stim-button","345","591734","0.0-3.0-40.4-0.4","60f5dc6cba19bf6145b8c921","D2","batch4","","981","","","tol_tohand","","","","","","","","","tol_peg_2","981","981","0","[[3,0,0],[2,0],[0]]","5","[[2,0,0],[1,3],[0]]","10","0","","","","","","6","",""
"","","","","","single-stim-button","346","592714","0.0-3.0-40.4-1.4","60f5dc6cba19bf6145b8c921","D2","batch4","","979","","","tol_toboard","","","","","","","","","tol_peg_3","979","979","0","[[3,0,0],[2,0],[1]]","5","[[2,0,0],[1,3],[0]]","10","0","","","","","","6","",""
"","","","","","single-stim-button","347","593744","0.0-3.0-40.5-0.5","60f5dc6cba19bf6145b8c921","D2","batch4","","1030","","","tol_tohand","","","","","","","","","tol_peg_1","1030","1030","0","[[0,0,0],[2,0],[1]]","6","[[2,0,0],[1,3],[0]]","10","0","","","","","","6","",""
"","","","","","single-stim-button","348","597286","0.0-3.0-40.5-1.5","60f5dc6cba19bf6145b8c921","D2","batch4","","3540","","","tol_toboard","","","","","","","","","tol_peg_2","3540","3540","0","[[0,0,0],[2,3],[1]]","6","[[2,0,0],[1,3],[0]]","10","0","","","","","","6","",""
"","","","","","single-stim-button","349","601961","0.0-3.0-40.6-0.6","60f5dc6cba19bf6145b8c921","D2","batch4","","4674","","","tol_tohand","","","","","","","","","tol_peg_2","4674","4674","0","[[0,0,0],[2,0],[1]]","7","[[2,0,0],[1,3],[0]]","10","0","","","","","","6","",""
