"success","timeout","failed_images","failed_audio","failed_video","trial_type","trial_index","time_elapsed","internal_node_id","subject_id","study_id","session_id","task","rt","stimulus","response","item","answer","correct","spm_correct","spm_rt","view_history","fiar_detect_rt","fiar_detect_correct","total_correct_fiar_detect","post_trial_gap","choices","mouse_click","stim_duration","block_duration","timing_post_trial","current_position","tol_num_moves_made","tol_target","tol_problem_id","tol_rt","key_press","possible_responses","tol_correct","preplanning","tol_rt_per_trial","tol_min_moves"
"true","false","[]","[]","[]","preload","0","13156","0.0-0.0","60f59dfcc7f2c3ebb0307926","C3","batch3","","","","","","","","","","","","","","","","","","","","","","","","","","","","","",""
"true","","","","","fullscreen","1","27634","0.0-1.0-0.0","60f59dfcc7f2c3ebb0307926","C3","batch3","","","","","","","","","","","","","","","","","","","","","","","","","","","","","",""
"true","","","","","fullscreen","2","32396","0.0-2.0-0.0","60f59dfcc7f2c3ebb0307926","C3","batch3","spm_fullscreen","","","","","","","","","","","","","","","","","","","","","","","","","","","","",""
"","","","","","html-button-response","3","111040","0.0-2.0-1.0","60f59dfcc7f2c3ebb0307926","C3","batch3","","78637","<p class = block-text><b>Instructions</b> <br>This is a widely used intelligence test in research. <br>In this test, a figure with a missing piece will be presented.<br>Below the figure are alternative pieces to complete the figure, only one of which is correct.<br> Different figures might involve different principles for obtaining the missing piece<br>Your job is to select the most logical piece to complete the figure.</p>","0","","","","","","","","","","","","","","","","","","","","","","","","","",""
"","","","","","html-keyboard-response","4","111843","0.0-2.0-2.0-0.0","60f59dfcc7f2c3ebb0307926","C3","batch3","spm_show_trial_num","null","<p class=block-text>Trial 1 out of 60</p>","null","","","","","","","","","","","","","","","","","","","","","","","","","",""
"","","","","","image-button-response","5","115888","0.0-2.0-2.0-1.0","60f59dfcc7f2c3ebb0307926","C3","batch3","spm_respsonse","4022","img/question_1_1.jpeg","3","mat_01","4","1","1","4022","","","","","","","","","","","","","","","","","","","","",""
"","","","","","html-keyboard-response","6","116945","0.0-2.0-2.0-0.1","60f59dfcc7f2c3ebb0307926","C3","batch3","spm_show_trial_num","null","<p class=block-text>Trial 2 out of 60</p>","null","","","","","","","","","","","","","","","","","","","","","","","","","",""
"","","","","","image-button-response","7","119594","0.0-2.0-2.0-1.1","60f59dfcc7f2c3ebb0307926","C3","batch3","spm_respsonse","2644","img/question_1_2.jpeg","4","mat_02","5","1","1","2644","","","","","","","","","","","","","","","","","","","","",""
"","","","","","html-keyboard-response","8","120646","0.0-2.0-2.0-0.2","60f59dfcc7f2c3ebb0307926","C3","batch3","spm_show_trial_num","null","<p class=block-text>Trial 3 out of 60</p>","null","","","","","","","","","","","","","","","","","","","","","","","","","",""
"","","","","","image-button-response","9","123764","0.0-2.0-2.0-1.2","60f59dfcc7f2c3ebb0307926","C3","batch3","spm_respsonse","3113","img/question_1_3.jpeg","0","mat_03","1","1","1","3113","","","","","","","","","","","","","","","","","","","","",""
"","","","","","html-keyboard-response","10","124839","0.0-2.0-2.0-0.3","60f59dfcc7f2c3ebb0307926","C3","batch3","spm_show_trial_num","null","<p class=block-text>Trial 4 out of 60</p>","null","","","","","","","","","","","","","","","","","","","","","","","","","",""
"","","","","","image-button-response","11","127720","0.0-2.0-2.0-1.3","60f59dfcc7f2c3ebb0307926","C3","batch3","spm_respsonse","2876","img/question_1_4.jpeg","1","mat_04","2","1","1","2876","","","","","","","","","","","","","","","","","","","","",""
"","","","","","html-keyboard-response","12","128782","0.0-2.0-2.0-0.4","60f59dfcc7f2c3ebb0307926","C3","batch3","spm_show_trial_num","null","<p class=block-text>Trial 5 out of 60</p>","null","","","","","","","","","","","","","","","","","","","","","","","","","",""
"","","","","","image-button-response","13","132972","0.0-2.0-2.0-1.4","60f59dfcc7f2c3ebb0307926","C3","batch3","spm_respsonse","4184","img/question_1_5.jpeg","5","mat_05","6","1","1","4184","","","","","","","","","","","","","","","","","","","","",""
"","","","","","html-keyboard-response","14","134042","0.0-2.0-2.0-0.5","60f59dfcc7f2c3ebb0307926","C3","batch3","spm_show_trial_num","null","<p class=block-text>Trial 6 out of 60</p>","null","","","","","","","","","","","","","","","","","","","","","","","","","",""
"","","","","","image-button-response","15","136688","0.0-2.0-2.0-1.5","60f59dfcc7f2c3ebb0307926","C3","batch3","spm_respsonse","2640","img/question_1_6.jpeg","2","mat_06","3","1","1","2640","","","","","","","","","","","","","","","","","","","","",""
"","","","","","html-keyboard-response","16","137751","0.0-2.0-2.0-0.6","60f59dfcc7f2c3ebb0307926","C3","batch3","spm_show_trial_num","null","<p class=block-text>Trial 7 out of 60</p>","null","","","","","","","","","","","","","","","","","","","","","","","","","",""
"","","","","","image-button-response","17","141525","0.0-2.0-2.0-1.6","60f59dfcc7f2c3ebb0307926","C3","batch3","spm_respsonse","3769","img/question_1_7.jpeg","5","mat_07","6","1","1","3769","","","","","","","","","","","","","","","","","","","","",""
"","","","","","html-keyboard-response","18","142591","0.0-2.0-2.0-0.7","60f59dfcc7f2c3ebb0307926","C3","batch3","spm_show_trial_num","null","<p class=block-text>Trial 8 out of 60</p>","null","","","","","","","","","","","","","","","","","","","","","","","","","",""
"","","","","","image-button-response","19","147383","0.0-2.0-2.0-1.7","60f59dfcc7f2c3ebb0307926","C3","batch3","spm_respsonse","4787","img/question_1_8.jpeg","1","mat_08","2","1","1","4787","","","","","","","","","","","","","","","","","","","","",""
"","","","","","html-keyboard-response","20","148434","0.0-2.0-2.0-0.8","60f59dfcc7f2c3ebb0307926","C3","batch3","spm_show_trial_num","null","<p class=block-text>Trial 9 out of 60</p>","null","","","","","","","","","","","","","","","","","","","","","","","","","",""
"","","","","","image-button-response","21","154259","0.0-2.0-2.0-1.8","60f59dfcc7f2c3ebb0307926","C3","batch3","spm_respsonse","5821","img/question_1_9.jpeg","0","mat_09","1","1","1","5821","","","","","","","","","","","","","","","","","","","","",""
"","","","","","html-keyboard-response","22","155316","0.0-2.0-2.0-0.9","60f59dfcc7f2c3ebb0307926","C3","batch3","spm_show_trial_num","null","<p class=block-text>Trial 10 out of 60</p>","null","","","","","","","","","","","","","","","","","","","","","","","","","",""
"","","","","","image-button-response","23","160592","0.0-2.0-2.0-1.9","60f59dfcc7f2c3ebb0307926","C3","batch3","spm_respsonse","5271","img/question_1_10.jpeg","4","mat_10","3","0","0","5271","","","","","","","","","","","","","","","","","","","","",""
"","","","","","html-keyboard-response","24","161671","0.0-2.0-2.0-0.10","60f59dfcc7f2c3ebb0307926","C3","batch3","spm_show_trial_num","null","<p class=block-text>Trial 11 out of 60</p>","null","","","","","","","","","","","","","","","","","","","","","","","","","",""
"","","","","","image-button-response","25","169892","0.0-2.0-2.0-1.10","60f59dfcc7f2c3ebb0307926","C3","batch3","spm_respsonse","8216","img/question_1_11.jpeg","3","mat_11","4","1","1","8216","","","","","","","","","","","","","","","","","","","","",""
"","","","","","html-keyboard-response","26","170952","0.0-2.0-2.0-0.11","60f59dfcc7f2c3ebb0307926","C3","batch3","spm_show_trial_num","null","<p class=block-text>Trial 12 out of 60</p>","null","","","","","","","","","","","","","","","","","","","","","","","","","",""
"","","","","","image-button-response","27","182209","0.0-2.0-2.0-1.11","60f59dfcc7f2c3ebb0307926","C3","batch3","spm_respsonse","11251","img/question_1_12.jpeg","4","mat_12","5","1","1","11251","","","","","","","","","","","","","","","","","","","","",""
"","","","","","html-keyboard-response","28","183264","0.0-2.0-2.0-0.12","60f59dfcc7f2c3ebb0307926","C3","batch3","spm_show_trial_num","null","<p class=block-text>Trial 13 out of 60</p>","null","","","","","","","","","","","","","","","","","","","","","","","","","",""
"","","","","","image-button-response","29","185370","0.0-2.0-2.0-1.12","60f59dfcc7f2c3ebb0307926","C3","batch3","spm_respsonse","2100","img/question_2_1.jpeg","1","mat_13","2","1","1","2100","","","","","","","","","","","","","","","","","","","","",""
"","","","","","html-keyboard-response","30","186434","0.0-2.0-2.0-0.13","60f59dfcc7f2c3ebb0307926","C3","batch3","spm_show_trial_num","null","<p class=block-text>Trial 14 out of 60</p>","null","","","","","","","","","","","","","","","","","","","","","","","","","",""
"","","","","","image-button-response","31","190876","0.0-2.0-2.0-1.13","60f59dfcc7f2c3ebb0307926","C3","batch3","spm_respsonse","4438","img/question_2_2.jpeg","5","mat_14","6","1","1","4438","","","","","","","","","","","","","","","","","","","","",""
"","","","","","html-keyboard-response","32","191945","0.0-2.0-2.0-0.14","60f59dfcc7f2c3ebb0307926","C3","batch3","spm_show_trial_num","null","<p class=block-text>Trial 15 out of 60</p>","null","","","","","","","","","","","","","","","","","","","","","","","","","",""
"","","","","","image-button-response","33","194332","0.0-2.0-2.0-1.14","60f59dfcc7f2c3ebb0307926","C3","batch3","spm_respsonse","2381","img/question_2_3.jpeg","0","mat_15","1","1","1","2381","","","","","","","","","","","","","","","","","","","","",""
"","","","","","html-keyboard-response","34","195390","0.0-2.0-2.0-0.15","60f59dfcc7f2c3ebb0307926","C3","batch3","spm_show_trial_num","null","<p class=block-text>Trial 16 out of 60</p>","null","","","","","","","","","","","","","","","","","","","","","","","","","",""
"","","","","","image-button-response","35","198261","0.0-2.0-2.0-1.15","60f59dfcc7f2c3ebb0307926","C3","batch3","spm_respsonse","2866","img/question_2_4.jpeg","1","mat_16","2","1","1","2866","","","","","","","","","","","","","","","","","","","","",""
"","","","","","html-keyboard-response","36","199333","0.0-2.0-2.0-0.16","60f59dfcc7f2c3ebb0307926","C3","batch3","spm_show_trial_num","null","<p class=block-text>Trial 17 out of 60</p>","null","","","","","","","","","","","","","","","","","","","","","","","","","",""
"","","","","","image-button-response","37","203635","0.0-2.0-2.0-1.16","60f59dfcc7f2c3ebb0307926","C3","batch3","spm_respsonse","4297","img/question_2_5.jpeg","0","mat_17","1","1","1","4297","","","","","","","","","","","","","","","","","","","","",""
"","","","","","html-keyboard-response","38","204714","0.0-2.0-2.0-0.17","60f59dfcc7f2c3ebb0307926","C3","batch3","spm_show_trial_num","null","<p class=block-text>Trial 18 out of 60</p>","null","","","","","","","","","","","","","","","","","","","","","","","","","",""
"","","","","","image-button-response","39","208882","0.0-2.0-2.0-1.17","60f59dfcc7f2c3ebb0307926","C3","batch3","spm_respsonse","4162","img/question_2_6.jpeg","2","mat_18","3","1","1","4162","","","","","","","","","","","","","","","","","","","","",""
"","","","","","html-keyboard-response","40","209946","0.0-2.0-2.0-0.18","60f59dfcc7f2c3ebb0307926","C3","batch3","spm_show_trial_num","null","<p class=block-text>Trial 19 out of 60</p>","null","","","","","","","","","","","","","","","","","","","","","","","","","",""
"","","","","","image-button-response","41","229270","0.0-2.0-2.0-1.18","60f59dfcc7f2c3ebb0307926","C3","batch3","spm_respsonse","19319","img/question_2_7.jpeg","4","mat_19","5","1","1","19319","","","","","","","","","","","","","","","","","","","","",""
"","","","","","html-keyboard-response","42","230328","0.0-2.0-2.0-0.19","60f59dfcc7f2c3ebb0307926","C3","batch3","spm_show_trial_num","null","<p class=block-text>Trial 20 out of 60</p>","null","","","","","","","","","","","","","","","","","","","","","","","","","",""
"","","","","","image-button-response","43","234885","0.0-2.0-2.0-1.19","60f59dfcc7f2c3ebb0307926","C3","batch3","spm_respsonse","4552","img/question_2_8.jpeg","5","mat_20","6","1","1","4552","","","","","","","","","","","","","","","","","","","","",""
"","","","","","html-keyboard-response","44","235946","0.0-2.0-2.0-0.20","60f59dfcc7f2c3ebb0307926","C3","batch3","spm_show_trial_num","null","<p class=block-text>Trial 21 out of 60</p>","null","","","","","","","","","","","","","","","","","","","","","","","","","",""
"","","","","","image-button-response","45","240781","0.0-2.0-2.0-1.20","60f59dfcc7f2c3ebb0307926","C3","batch3","spm_respsonse","4830","img/question_2_9.jpeg","3","mat_21","4","1","1","4830","","","","","","","","","","","","","","","","","","","","",""
"","","","","","html-keyboard-response","46","241851","0.0-2.0-2.0-0.21","60f59dfcc7f2c3ebb0307926","C3","batch3","spm_show_trial_num","null","<p class=block-text>Trial 22 out of 60</p>","null","","","","","","","","","","","","","","","","","","","","","","","","","",""
"","","","","","image-button-response","47","245996","0.0-2.0-2.0-1.21","60f59dfcc7f2c3ebb0307926","C3","batch3","spm_respsonse","4140","img/question_2_10.jpeg","2","mat_22","3","1","1","4140","","","","","","","","","","","","","","","","","","","","",""
"","","","","","html-keyboard-response","48","247054","0.0-2.0-2.0-0.22","60f59dfcc7f2c3ebb0307926","C3","batch3","spm_show_trial_num","null","<p class=block-text>Trial 23 out of 60</p>","null","","","","","","","","","","","","","","","","","","","","","","","","","",""
"","","","","","image-button-response","49","257983","0.0-2.0-2.0-1.22","60f59dfcc7f2c3ebb0307926","C3","batch3","spm_respsonse","10923","img/question_2_11.jpeg","3","mat_23","4","1","1","10923","","","","","","","","","","","","","","","","","","","","",""
"","","","","","html-keyboard-response","50","259046","0.0-2.0-2.0-0.23","60f59dfcc7f2c3ebb0307926","C3","batch3","spm_show_trial_num","null","<p class=block-text>Trial 24 out of 60</p>","null","","","","","","","","","","","","","","","","","","","","","","","","","",""
"","","","","","image-button-response","51","278697","0.0-2.0-2.0-1.23","60f59dfcc7f2c3ebb0307926","C3","batch3","spm_respsonse","19646","img/question_2_12.jpeg","4","mat_24","5","1","1","19646","","","","","","","","","","","","","","","","","","","","",""
"","","","","","html-button-response","52","280518","0.0-2.0-3.0","60f59dfcc7f2c3ebb0307926","C3","batch3","attention_check","1557","<p class = block-text>Attention check: Please choose 1<br></p>","0","","","true","","","","","","","","","","","","","","","","","","","","","","",""
"","","","","","html-keyboard-response","53","281321","0.0-2.0-4.0-0.0","60f59dfcc7f2c3ebb0307926","C3","batch3","spm_show_trial_num","null","<p class=block-text>Trial 25 out of 60</p>","null","","","","","","","","","","","","","","","","","","","","","","","","","",""
"","","","","","image-button-response","54","290194","0.0-2.0-4.0-1.0","60f59dfcc7f2c3ebb0307926","C3","batch3","spm_respsonse","8866","img/question_3_1.jpeg","7","mat_25","8","1","1","8866","","","","","","","","","","","","","","","","","","","","",""
"","","","","","html-keyboard-response","55","291270","0.0-2.0-4.0-0.1","60f59dfcc7f2c3ebb0307926","C3","batch3","spm_show_trial_num","null","<p class=block-text>Trial 26 out of 60</p>","null","","","","","","","","","","","","","","","","","","","","","","","","","",""
"","","","","","image-button-response","56","298409","0.0-2.0-4.0-1.1","60f59dfcc7f2c3ebb0307926","C3","batch3","spm_respsonse","7134","img/question_3_2.jpeg","1","mat_26","2","1","1","7134","","","","","","","","","","","","","","","","","","","","",""
"","","","","","html-keyboard-response","57","299484","0.0-2.0-4.0-0.2","60f59dfcc7f2c3ebb0307926","C3","batch3","spm_show_trial_num","null","<p class=block-text>Trial 27 out of 60</p>","null","","","","","","","","","","","","","","","","","","","","","","","","","",""
"","","","","","image-button-response","58","306154","0.0-2.0-4.0-1.2","60f59dfcc7f2c3ebb0307926","C3","batch3","spm_respsonse","6665","img/question_3_3.jpeg","2","mat_27","3","1","1","6665","","","","","","","","","","","","","","","","","","","","",""
"","","","","","html-keyboard-response","59","307228","0.0-2.0-4.0-0.3","60f59dfcc7f2c3ebb0307926","C3","batch3","spm_show_trial_num","null","<p class=block-text>Trial 28 out of 60</p>","null","","","","","","","","","","","","","","","","","","","","","","","","","",""
"","","","","","image-button-response","60","313624","0.0-2.0-4.0-1.3","60f59dfcc7f2c3ebb0307926","C3","batch3","spm_respsonse","6390","img/question_3_4.jpeg","7","mat_28","8","1","1","6390","","","","","","","","","","","","","","","","","","","","",""
"","","","","","html-keyboard-response","61","314676","0.0-2.0-4.0-0.4","60f59dfcc7f2c3ebb0307926","C3","batch3","spm_show_trial_num","null","<p class=block-text>Trial 29 out of 60</p>","null","","","","","","","","","","","","","","","","","","","","","","","","","",""
"","","","","","image-button-response","62","322261","0.0-2.0-4.0-1.4","60f59dfcc7f2c3ebb0307926","C3","batch3","spm_respsonse","7580","img/question_3_5.jpeg","6","mat_29","7","1","1","7580","","","","","","","","","","","","","","","","","","","","",""
"","","","","","html-keyboard-response","63","323323","0.0-2.0-4.0-0.5","60f59dfcc7f2c3ebb0307926","C3","batch3","spm_show_trial_num","null","<p class=block-text>Trial 30 out of 60</p>","null","","","","","","","","","","","","","","","","","","","","","","","","","",""
"","","","","","image-button-response","64","329355","0.0-2.0-4.0-1.5","60f59dfcc7f2c3ebb0307926","C3","batch3","spm_respsonse","6027","img/question_3_6.jpeg","3","mat_30","4","1","1","6027","","","","","","","","","","","","","","","","","","","","",""
"","","","","","html-keyboard-response","65","330410","0.0-2.0-4.0-0.6","60f59dfcc7f2c3ebb0307926","C3","batch3","spm_show_trial_num","null","<p class=block-text>Trial 31 out of 60</p>","null","","","","","","","","","","","","","","","","","","","","","","","","","",""
"","","","","","image-button-response","66","334374","0.0-2.0-4.0-1.6","60f59dfcc7f2c3ebb0307926","C3","batch3","spm_respsonse","3959","img/question_3_7.jpeg","4","mat_31","5","1","1","3959","","","","","","","","","","","","","","","","","","","","",""
"","","","","","html-keyboard-response","67","335432","0.0-2.0-4.0-0.7","60f59dfcc7f2c3ebb0307926","C3","batch3","spm_show_trial_num","null","<p class=block-text>Trial 32 out of 60</p>","null","","","","","","","","","","","","","","","","","","","","","","","","","",""
"","","","","","image-button-response","68","346690","0.0-2.0-4.0-1.7","60f59dfcc7f2c3ebb0307926","C3","batch3","spm_respsonse","11253","img/question_3_8.jpeg","0","mat_32","1","1","1","11253","","","","","","","","","","","","","","","","","","","","",""
"","","","","","html-keyboard-response","69","347743","0.0-2.0-4.0-0.8","60f59dfcc7f2c3ebb0307926","C3","batch3","spm_show_trial_num","null","<p class=block-text>Trial 33 out of 60</p>","null","","","","","","","","","","","","","","","","","","","","","","","","","",""
"","","","","","image-button-response","70","356445","0.0-2.0-4.0-1.8","60f59dfcc7f2c3ebb0307926","C3","batch3","spm_respsonse","8695","img/question_3_9.jpeg","6","mat_33","7","1","1","8695","","","","","","","","","","","","","","","","","","","","",""
"","","","","","html-keyboard-response","71","357515","0.0-2.0-4.0-0.9","60f59dfcc7f2c3ebb0307926","C3","batch3","spm_show_trial_num","null","<p class=block-text>Trial 34 out of 60</p>","null","","","","","","","","","","","","","","","","","","","","","","","","","",""
"","","","","","image-button-response","72","385056","0.0-2.0-4.0-1.9","60f59dfcc7f2c3ebb0307926","C3","batch3","spm_respsonse","27536","img/question_3_10.jpeg","3","mat_34","6","0","0","27536","","","","","","","","","","","","","","","","","","","","",""
"","","","","","html-keyboard-response","73","386110","0.0-2.0-4.0-0.10","60f59dfcc7f2c3ebb0307926","C3","batch3","spm_show_trial_num","null","<p class=block-text>Trial 35 out of 60</p>","null","","","","","","","","","","","","","","","","","","","","","","","","","",""
"","","","","","image-button-response","74","403300","0.0-2.0-4.0-1.10","60f59dfcc7f2c3ebb0307926","C3","batch3","spm_respsonse","17184","img/question_3_11.jpeg","4","mat_35","1","0","0","17184","","","","","","","","","","","","","","","","","","","","",""
"","","","","","html-keyboard-response","75","404370","0.0-2.0-4.0-0.11","60f59dfcc7f2c3ebb0307926","C3","batch3","spm_show_trial_num","null","<p class=block-text>Trial 36 out of 60</p>","null","","","","","","","","","","","","","","","","","","","","","","","","","",""
"","","","","","image-button-response","76","413171","0.0-2.0-4.0-1.11","60f59dfcc7f2c3ebb0307926","C3","batch3","spm_respsonse","8796","img/question_3_12.jpeg","2","mat_36","2","0","0","8796","","","","","","","","","","","","","","","","","","","","",""
"","","","","","html-keyboard-response","77","414236","0.0-2.0-4.0-0.12","60f59dfcc7f2c3ebb0307926","C3","batch3","spm_show_trial_num","null","<p class=block-text>Trial 37 out of 60</p>","null","","","","","","","","","","","","","","","","","","","","","","","","","",""
"","","","","","image-button-response","78","417459","0.0-2.0-4.0-1.12","60f59dfcc7f2c3ebb0307926","C3","batch3","spm_respsonse","3219","img/question_4_1.jpeg","2","mat_37","3","1","1","3219","","","","","","","","","","","","","","","","","","","","",""
"","","","","","html-keyboard-response","79","418523","0.0-2.0-4.0-0.13","60f59dfcc7f2c3ebb0307926","C3","batch3","spm_show_trial_num","null","<p class=block-text>Trial 38 out of 60</p>","null","","","","","","","","","","","","","","","","","","","","","","","","","",""
"","","","","","image-button-response","80","421953","0.0-2.0-4.0-1.13","60f59dfcc7f2c3ebb0307926","C3","batch3","spm_respsonse","3424","img/question_4_2.jpeg","3","mat_38","4","1","1","3424","","","","","","","","","","","","","","","","","","","","",""
"","","","","","html-keyboard-response","81","423018","0.0-2.0-4.0-0.14","60f59dfcc7f2c3ebb0307926","C3","batch3","spm_show_trial_num","null","<p class=block-text>Trial 39 out of 60</p>","null","","","","","","","","","","","","","","","","","","","","","","","","","",""
"","","","","","image-button-response","82","429458","0.0-2.0-4.0-1.14","60f59dfcc7f2c3ebb0307926","C3","batch3","spm_respsonse","6435","img/question_4_3.jpeg","2","mat_39","3","1","1","6435","","","","","","","","","","","","","","","","","","","","",""
"","","","","","html-keyboard-response","83","430508","0.0-2.0-4.0-0.15","60f59dfcc7f2c3ebb0307926","C3","batch3","spm_show_trial_num","null","<p class=block-text>Trial 40 out of 60</p>","null","","","","","","","","","","","","","","","","","","","","","","","","","",""
"","","","","","image-button-response","84","438123","0.0-2.0-4.0-1.15","60f59dfcc7f2c3ebb0307926","C3","batch3","spm_respsonse","7610","img/question_4_4.jpeg","6","mat_40","7","1","1","7610","","","","","","","","","","","","","","","","","","","","",""
"","","","","","html-keyboard-response","85","439189","0.0-2.0-4.0-0.16","60f59dfcc7f2c3ebb0307926","C3","batch3","spm_show_trial_num","null","<p class=block-text>Trial 41 out of 60</p>","null","","","","","","","","","","","","","","","","","","","","","","","","","",""
"","","","","","image-button-response","86","449984","0.0-2.0-4.0-1.16","60f59dfcc7f2c3ebb0307926","C3","batch3","spm_respsonse","10789","img/question_4_5.jpeg","7","mat_41","8","1","1","10789","","","","","","","","","","","","","","","","","","","","",""
"","","","","","html-keyboard-response","87","451045","0.0-2.0-4.0-0.17","60f59dfcc7f2c3ebb0307926","C3","batch3","spm_show_trial_num","null","<p class=block-text>Trial 42 out of 60</p>","null","","","","","","","","","","","","","","","","","","","","","","","","","",""
"","","","","","image-button-response","88","459497","0.0-2.0-4.0-1.17","60f59dfcc7f2c3ebb0307926","C3","batch3","spm_respsonse","8445","img/question_4_6.jpeg","5","mat_42","6","1","1","8445","","","","","","","","","","","","","","","","","","","","",""
"","","","","","html-keyboard-response","89","460555","0.0-2.0-4.0-0.18","60f59dfcc7f2c3ebb0307926","C3","batch3","spm_show_trial_num","null","<p class=block-text>Trial 43 out of 60</p>","null","","","","","","","","","","","","","","","","","","","","","","","","","",""
"","","","","","image-button-response","90","480791","0.0-2.0-4.0-1.18","60f59dfcc7f2c3ebb0307926","C3","batch3","spm_respsonse","20229","img/question_4_7.jpeg","4","mat_43","5","1","1","20229","","","","","","","","","","","","","","","","","","","","",""
"","","","","","html-keyboard-response","91","481865","0.0-2.0-4.0-0.19","60f59dfcc7f2c3ebb0307926","C3","batch3","spm_show_trial_num","null","<p class=block-text>Trial 44 out of 60</p>","null","","","","","","","","","","","","","","","","","","","","","","","","","",""
"","","","","","image-button-response","92","490739","0.0-2.0-4.0-1.19","60f59dfcc7f2c3ebb0307926","C3","batch3","spm_respsonse","8868","img/question_4_8.jpeg","3","mat_44","4","1","1","8868","","","","","","","","","","","","","","","","","","","","",""
"","","","","","html-keyboard-response","93","491790","0.0-2.0-4.0-0.20","60f59dfcc7f2c3ebb0307926","C3","batch3","spm_show_trial_num","null","<p class=block-text>Trial 45 out of 60</p>","null","","","","","","","","","","","","","","","","","","","","","","","","","",""
"","","","","","image-button-response","94","509219","0.0-2.0-4.0-1.20","60f59dfcc7f2c3ebb0307926","C3","batch3","spm_respsonse","17424","img/question_4_9.jpeg","0","mat_45","1","1","1","17424","","","","","","","","","","","","","","","","","","","","",""
"","","","","","html-keyboard-response","95","510270","0.0-2.0-4.0-0.21","60f59dfcc7f2c3ebb0307926","C3","batch3","spm_show_trial_num","null","<p class=block-text>Trial 46 out of 60</p>","null","","","","","","","","","","","","","","","","","","","","","","","","","",""
"","","","","","image-button-response","96","517330","0.0-2.0-4.0-1.21","60f59dfcc7f2c3ebb0307926","C3","batch3","spm_respsonse","7054","img/question_4_10.jpeg","1","mat_46","2","1","1","7054","","","","","","","","","","","","","","","","","","","","",""
"","","","","","html-keyboard-response","97","518396","0.0-2.0-4.0-0.22","60f59dfcc7f2c3ebb0307926","C3","batch3","spm_show_trial_num","null","<p class=block-text>Trial 47 out of 60</p>","null","","","","","","","","","","","","","","","","","","","","","","","","","",""
"","","","","","image-button-response","98","526318","0.0-2.0-4.0-1.22","60f59dfcc7f2c3ebb0307926","C3","batch3","spm_respsonse","7915","img/question_4_11.jpeg","2","mat_47","5","0","0","7915","","","","","","","","","","","","","","","","","","","","",""
"","","","","","html-keyboard-response","99","527370","0.0-2.0-4.0-0.23","60f59dfcc7f2c3ebb0307926","C3","batch3","spm_show_trial_num","null","<p class=block-text>Trial 48 out of 60</p>","null","","","","","","","","","","","","","","","","","","","","","","","","","",""
"","","","","","image-button-response","100","552257","0.0-2.0-4.0-1.23","60f59dfcc7f2c3ebb0307926","C3","batch3","spm_respsonse","24883","img/question_4_12.jpeg","7","mat_48","6","0","0","24883","","","","","","","","","","","","","","","","","","","","",""
"","","","","","html-keyboard-response","101","553323","0.0-2.0-4.0-0.24","60f59dfcc7f2c3ebb0307926","C3","batch3","spm_show_trial_num","null","<p class=block-text>Trial 49 out of 60</p>","null","","","","","","","","","","","","","","","","","","","","","","","","","",""
"","","","","","image-button-response","102","568803","0.0-2.0-4.0-1.24","60f59dfcc7f2c3ebb0307926","C3","batch3","spm_respsonse","15475","img/question_5_1.jpeg","2","mat_49","7","0","0","15475","","","","","","","","","","","","","","","","","","","","",""
"","","","","","html-keyboard-response","103","569858","0.0-2.0-4.0-0.25","60f59dfcc7f2c3ebb0307926","C3","batch3","spm_show_trial_num","null","<p class=block-text>Trial 50 out of 60</p>","null","","","","","","","","","","","","","","","","","","","","","","","","","",""
"","","","","","image-button-response","104","583919","0.0-2.0-4.0-1.25","60f59dfcc7f2c3ebb0307926","C3","batch3","spm_respsonse","14056","img/question_5_2.jpeg","5","mat_50","6","1","1","14056","","","","","","","","","","","","","","","","","","","","",""
"","","","","","html-keyboard-response","105","584971","0.0-2.0-4.0-0.26","60f59dfcc7f2c3ebb0307926","C3","batch3","spm_show_trial_num","null","<p class=block-text>Trial 51 out of 60</p>","null","","","","","","","","","","","","","","","","","","","","","","","","","",""
"","","","","","image-button-response","106","596033","0.0-2.0-4.0-1.26","60f59dfcc7f2c3ebb0307926","C3","batch3","spm_respsonse","11057","img/question_5_3.jpeg","1","mat_51","8","0","0","11057","","","","","","","","","","","","","","","","","","","","",""
"","","","","","html-keyboard-response","107","597111","0.0-2.0-4.0-0.27","60f59dfcc7f2c3ebb0307926","C3","batch3","spm_show_trial_num","null","<p class=block-text>Trial 52 out of 60</p>","null","","","","","","","","","","","","","","","","","","","","","","","","","",""
"","","","","","image-button-response","108","617793","0.0-2.0-4.0-1.27","60f59dfcc7f2c3ebb0307926","C3","batch3","spm_respsonse","20676","img/question_5_4.jpeg","1","mat_52","2","1","1","20676","","","","","","","","","","","","","","","","","","","","",""
"","","","","","html-keyboard-response","109","618846","0.0-2.0-4.0-0.28","60f59dfcc7f2c3ebb0307926","C3","batch3","spm_show_trial_num","null","<p class=block-text>Trial 53 out of 60</p>","null","","","","","","","","","","","","","","","","","","","","","","","","","",""
"","","","","","image-button-response","110","635505","0.0-2.0-4.0-1.28","60f59dfcc7f2c3ebb0307926","C3","batch3","spm_respsonse","16654","img/question_5_5.jpeg","0","mat_53","1","1","1","16654","","","","","","","","","","","","","","","","","","","","",""
"","","","","","html-keyboard-response","111","636558","0.0-2.0-4.0-0.29","60f59dfcc7f2c3ebb0307926","C3","batch3","spm_show_trial_num","null","<p class=block-text>Trial 54 out of 60</p>","null","","","","","","","","","","","","","","","","","","","","","","","","","",""
"","","","","","image-button-response","112","657300","0.0-2.0-4.0-1.29","60f59dfcc7f2c3ebb0307926","C3","batch3","spm_respsonse","20736","img/question_5_6.jpeg","4","mat_54","5","1","1","20736","","","","","","","","","","","","","","","","","","","","",""
"","","","","","html-keyboard-response","113","658366","0.0-2.0-4.0-0.30","60f59dfcc7f2c3ebb0307926","C3","batch3","spm_show_trial_num","null","<p class=block-text>Trial 55 out of 60</p>","null","","","","","","","","","","","","","","","","","","","","","","","","","",""
"","","","","","image-button-response","114","694604","0.0-2.0-4.0-1.30","60f59dfcc7f2c3ebb0307926","C3","batch3","spm_respsonse","36234","img/question_5_7.jpeg","0","mat_55","1","1","1","36234","","","","","","","","","","","","","","","","","","","","",""
"","","","","","html-keyboard-response","115","695660","0.0-2.0-4.0-0.31","60f59dfcc7f2c3ebb0307926","C3","batch3","spm_show_trial_num","null","<p class=block-text>Trial 56 out of 60</p>","null","","","","","","","","","","","","","","","","","","","","","","","","","",""
"","","","","","image-button-response","116","710270","0.0-2.0-4.0-1.31","60f59dfcc7f2c3ebb0307926","C3","batch3","spm_respsonse","14605","img/question_5_8.jpeg","0","mat_56","6","0","0","14605","","","","","","","","","","","","","","","","","","","","",""
"","","","","","html-keyboard-response","117","711329","0.0-2.0-4.0-0.32","60f59dfcc7f2c3ebb0307926","C3","batch3","spm_show_trial_num","null","<p class=block-text>Trial 57 out of 60</p>","null","","","","","","","","","","","","","","","","","","","","","","","","","",""
"","","","","","image-button-response","118","730990","0.0-2.0-4.0-1.32","60f59dfcc7f2c3ebb0307926","C3","batch3","spm_respsonse","19656","img/question_5_9.jpeg","0","mat_57","3","0","0","19656","","","","","","","","","","","","","","","","","","","","",""
"","","","","","html-keyboard-response","119","732042","0.0-2.0-4.0-0.33","60f59dfcc7f2c3ebb0307926","C3","batch3","spm_show_trial_num","null","<p class=block-text>Trial 58 out of 60</p>","null","","","","","","","","","","","","","","","","","","","","","","","","","",""
"","","","","","image-button-response","120","771354","0.0-2.0-4.0-1.33","60f59dfcc7f2c3ebb0307926","C3","batch3","spm_respsonse","39306","img/question_5_10.jpeg","1","mat_58","2","1","1","39306","","","","","","","","","","","","","","","","","","","","",""
"","","","","","html-keyboard-response","121","772419","0.0-2.0-4.0-0.34","60f59dfcc7f2c3ebb0307926","C3","batch3","spm_show_trial_num","null","<p class=block-text>Trial 59 out of 60</p>","null","","","","","","","","","","","","","","","","","","","","","","","","","",""
"","","","","","image-button-response","122","797610","0.0-2.0-4.0-1.34","60f59dfcc7f2c3ebb0307926","C3","batch3","spm_respsonse","25186","img/question_5_11.jpeg","2","mat_59","4","0","0","25186","","","","","","","","","","","","","","","","","","","","",""
"","","","","","html-keyboard-response","123","798662","0.0-2.0-4.0-0.35","60f59dfcc7f2c3ebb0307926","C3","batch3","spm_show_trial_num","null","<p class=block-text>Trial 60 out of 60</p>","null","","","","","","","","","","","","","","","","","","","","","","","","","",""
"","","","","","image-button-response","124","859069","0.0-2.0-4.0-1.35","60f59dfcc7f2c3ebb0307926","C3","batch3","spm_respsonse","60401","img/question_5_12.jpeg","4","mat_60","5","1","1","60401","","","","","","","","","","","","","","","","","","","","",""
"","","","","","html-button-response","125","861002","0.0-2.0-5.0","60f59dfcc7f2c3ebb0307926","C3","batch3","spm_goodbye","1672","<p class= block-text>This concludes the Standard Progressive Matrix game. Thank you for your responses!<br> When you are ready, click the button continue</p>","0","","","","","","","","","","","","","","","","","","","","","","","","","",""
"true","","","","","fullscreen","126","863473","0.0-3.0-0.0","60f59dfcc7f2c3ebb0307926","C3","batch3","","","","","","","","","","","","","","","","","","","","","","","","","","","","","",""
"","","","","","instructions","127","872725","0.0-3.0-1.0-0.0","60f59dfcc7f2c3ebb0307926","C3","batch3","","9250","","","","","","","","[{""page_index"":0,""viewing_time"":6228},{""page_index"":1,""viewing_time"":3021}]","","","","","","","","","","","","","","","","","","","",""
"","","","","","html-button-response","128","874315","0.0-3.0-1.0-1.0-0.0","60f59dfcc7f2c3ebb0307926","C3","batch3","pattern_enter_quiz","1588","<p class=block-text> Let's answer a few questions <br>","0","","","","","","","","","","","","","","","","","","","","","","","","","",""
"","","","","","html-button-response","129","876517","0.0-3.0-1.0-1.0-1.0","60f59dfcc7f2c3ebb0307926","C3","batch3","pattern_quiz","2199","<p class = block-text>True or False: You will have as much time as you want to make each choice. <br></p>","1","","","true","","","","","","","","","","","","","","","","","","","","","","",""
"","","","","","html-button-response","130","877182","0.0-3.0-1.0-1.0-2.0","60f59dfcc7f2c3ebb0307926","C3","batch3","pattern_quiz_feedback","662","<p class = block-text>Correct! You should make your choice <strong> as fast as you can</strong>.</p>","0","","","","","","","","","","","","","","","","","","","","","","","","","",""
"","","","","","html-button-response","131","879385","0.0-3.0-1.0-1.0-3.0","60f59dfcc7f2c3ebb0307926","C3","batch3","pattern_quiz","2200","<p class = block-text>True or False: You will look for 4 pieces in black or white color connected in a row either horizontally, vertically or diagonally. <br></p>","0","","","true","","","","","","","","","","","","","","","","","","","","","","",""
"","","","","","html-button-response","132","880143","0.0-3.0-1.0-1.0-4.0","60f59dfcc7f2c3ebb0307926","C3","batch3","pattern_quiz_feedback","756","<p class = block-text>Correct! </p>","0","","","","","","","","","","","","","","","","","","","","","","","","","",""
"","","","","","html-button-response","133","881169","0.0-3.0-2.0","60f59dfcc7f2c3ebb0307926","C3","batch3","pattern_enter_practice","1022","<p class=block-text> Now that you've understood the game, let's do a few practice trials before we start!<br> <br>","0","","","","","","","","","","","","","","","","","","","","","","","","","",""
"","","","","","image-keyboard-response","134","883831","0.0-3.0-3.0-0.0","60f59dfcc7f2c3ebb0307926","C3","batch3","pattern_practice","2658","stim/prac_yes_18_hor_w1.png","f","","f","true","","","","","","","","","","","","","","","","","","","","","","",""
"","","","","","html-keyboard-response","135","884846","0.0-3.0-3.0-1.0","60f59dfcc7f2c3ebb0307926","C3","batch3","pattern_feedback","null","<p style=""font-size:30px;color:green;"">Correct!</p>","null","","","","","","","","","","","","","","","","","","","","","","","","","",""
"","","","","","image-keyboard-response","136","887475","0.0-3.0-3.0-0.1","60f59dfcc7f2c3ebb0307926","C3","batch3","pattern_practice","2626","stim/prac_no_16_1.png","j","","j","true","","","","","","","","","","","","","","","","","","","","","","",""
"","","","","","html-keyboard-response","137","888489","0.0-3.0-3.0-1.1","60f59dfcc7f2c3ebb0307926","C3","batch3","pattern_feedback","null","<p style=""font-size:30px;color:green;"">Correct!</p>","null","","","","","","","","","","","","","","","","","","","","","","","","","",""
"","","","","","image-keyboard-response","138","889515","0.0-3.0-3.0-0.2","60f59dfcc7f2c3ebb0307926","C3","batch3","pattern_practice","1021","stim/prac_yes_20_dia_b1.png","f","","f","true","","","","","","","","","","","","","","","","","","","","","","",""
"","","","","","html-keyboard-response","139","890526","0.0-3.0-3.0-1.2","60f59dfcc7f2c3ebb0307926","C3","batch3","pattern_feedback","null","<p style=""font-size:30px;color:green;"">Correct!</p>","null","","","","","","","","","","","","","","","","","","","","","","","","","",""
"","","","","","image-keyboard-response","140","892214","0.0-3.0-3.0-0.3","60f59dfcc7f2c3ebb0307926","C3","batch3","pattern_practice","1684","stim/prac_no_18_1.png","j","","j","true","","","","","","","","","","","","","","","","","","","","","","",""
"","","","","","html-keyboard-response","141","893224","0.0-3.0-3.0-1.3","60f59dfcc7f2c3ebb0307926","C3","batch3","pattern_feedback","null","<p style=""font-size:30px;color:green;"">Correct!</p>","null","","","","","","","","","","","","","","","","","","","","","","","","","",""
"","","","","","image-keyboard-response","142","894139","0.0-3.0-3.0-0.4","60f59dfcc7f2c3ebb0307926","C3","batch3","pattern_practice","911","stim/prac_yes_16_ver_w1.png","f","","f","true","","","","","","","","","","","","","","","","","","","","","","",""
"","","","","","html-keyboard-response","143","895150","0.0-3.0-3.0-1.4","60f59dfcc7f2c3ebb0307926","C3","batch3","pattern_feedback","null","<p style=""font-size:30px;color:green;"">Correct!</p>","null","","","","","","","","","","","","","","","","","","","","","","","","","",""
"","","","","","html-button-response","144","898625","0.0-3.0-4.0","60f59dfcc7f2c3ebb0307926","C3","batch3","pattern_enter_official_trials","3421","<p class=block-text> Good job! You are done with practice trials!<br>
        You responded correctly on 100% of the trials.<br>
        Press the button below to start official trials. Now you won't see any feedback about your response</p>","0","","","","","","","","","","","","","","","","","","","","","","","","","",""
"","","","","","html-keyboard-response","145","899436","0.0-3.0-5.0-0.0","60f59dfcc7f2c3ebb0307926","C3","batch3","pattern_show_trial_num","null","<p class=block-text>Trial 1 out of 78</p>","null","","","","","","","","","","","","","","","","","","","","","","","","","",""
"","","","","","image-keyboard-response","146","903068","0.0-3.0-5.0-1.0","60f59dfcc7f2c3ebb0307926","C3","batch3","pattern_response","3627","stim/no_58_1_w.png","j","pattern_35","j","true","","","","3627","true","1","","","","","","","","","","","","","","","","",""
"","","","","","html-keyboard-response","147","904383","0.0-3.0-5.0-0.1","60f59dfcc7f2c3ebb0307926","C3","batch3","pattern_show_trial_num","null","<p class=block-text>Trial 2 out of 78</p>","null","","","","","","","","","","","","","","","","","","","","","","","","","",""
"","","","","","image-keyboard-response","148","907757","0.0-3.0-5.0-1.1","60f59dfcc7f2c3ebb0307926","C3","batch3","pattern_response","3369","stim/no_28_2.png","j","pattern_11","j","true","","","","3369","true","2","","","","","","","","","","","","","","","","",""
"","","","","","html-keyboard-response","149","909073","0.0-3.0-5.0-0.2","60f59dfcc7f2c3ebb0307926","C3","batch3","pattern_show_trial_num","null","<p class=block-text>Trial 3 out of 78</p>","null","","","","","","","","","","","","","","","","","","","","","","","","","",""
"","","","","","image-keyboard-response","150","910967","0.0-3.0-5.0-1.2","60f59dfcc7f2c3ebb0307926","C3","batch3","pattern_response","1889","stim/yes_53_ver_b1_b.png","f","pattern_74","f","true","","","","1889","true","3","","","","","","","","","","","","","","","","",""
"","","","","","html-keyboard-response","151","912269","0.0-3.0-5.0-0.3","60f59dfcc7f2c3ebb0307926","C3","batch3","pattern_show_trial_num","null","<p class=block-text>Trial 4 out of 78</p>","null","","","","","","","","","","","","","","","","","","","","","","","","","",""
"","","","","","image-keyboard-response","152","918136","0.0-3.0-5.0-1.3","60f59dfcc7f2c3ebb0307926","C3","batch3","pattern_response","5864","stim/no_33_1_b.png","j","pattern_15","j","true","","","","5864","true","4","","","","","","","","","","","","","","","","",""
"","","","","","html-keyboard-response","153","919446","0.0-3.0-5.0-0.4","60f59dfcc7f2c3ebb0307926","C3","batch3","pattern_show_trial_num","null","<p class=block-text>Trial 5 out of 78</p>","null","","","","","","","","","","","","","","","","","","","","","","","","","",""
"","","","","","image-keyboard-response","154","925118","0.0-3.0-5.0-1.4","60f59dfcc7f2c3ebb0307926","C3","batch3","pattern_response","5666","stim/yes_58_dia_w1_w.png","j","pattern_76","f","false","","","","5666","false","4","","","","","","","","","","","","","","","","",""
"","","","","","html-keyboard-response","155","926429","0.0-3.0-5.0-0.5","60f59dfcc7f2c3ebb0307926","C3","batch3","pattern_show_trial_num","null","<p class=block-text>Trial 6 out of 78</p>","null","","","","","","","","","","","","","","","","","","","","","","","","","",""
"","","","","","image-keyboard-response","156","927554","0.0-3.0-5.0-1.5","60f59dfcc7f2c3ebb0307926","C3","batch3","pattern_response","1121","stim/yes_29_hor_b1_b.png","f","pattern_52","f","true","","","","1121","true","5","","","","","","","","","","","","","","","","",""
"","","","","","html-keyboard-response","157","928867","0.0-3.0-5.0-0.6","60f59dfcc7f2c3ebb0307926","C3","batch3","pattern_show_trial_num","null","<p class=block-text>Trial 7 out of 78</p>","null","","","","","","","","","","","","","","","","","","","","","","","","","",""
"","","","","","image-keyboard-response","158","929627","0.0-3.0-5.0-1.6","60f59dfcc7f2c3ebb0307926","C3","batch3","pattern_response","755","stim/yes_39_hor_w1_w.png","f","pattern_62","f","true","","","","755","true","6","","","","","","","","","","","","","","","","",""
"","","","","","html-keyboard-response","159","930941","0.0-3.0-5.0-0.7","60f59dfcc7f2c3ebb0307926","C3","batch3","pattern_show_trial_num","null","<p class=block-text>Trial 8 out of 78</p>","null","","","","","","","","","","","","","","","","","","","","","","","","","",""
"","","","","","image-keyboard-response","160","931744","0.0-3.0-5.0-1.7","60f59dfcc7f2c3ebb0307926","C3","batch3","pattern_response","799","stim/yes_17_ver_b1_b.png","f","pattern_46","f","true","","","","799","true","7","","","","","","","","","","","","","","","","",""
"","","","","","html-keyboard-response","161","933050","0.0-3.0-5.0-0.8","60f59dfcc7f2c3ebb0307926","C3","batch3","pattern_show_trial_num","null","<p class=block-text>Trial 9 out of 78</p>","null","","","","","","","","","","","","","","","","","","","","","","","","","",""
"","","","","","image-keyboard-response","162","939235","0.0-3.0-5.0-1.8","60f59dfcc7f2c3ebb0307926","C3","batch3","pattern_response","6181","stim/no_67_1.png","j","pattern_39","j","true","","","","6181","true","8","","","","","","","","","","","","","","","","",""
"","","","","","html-keyboard-response","163","940551","0.0-3.0-5.0-0.9","60f59dfcc7f2c3ebb0307926","C3","batch3","pattern_show_trial_num","null","<p class=block-text>Trial 10 out of 78</p>","null","","","","","","","","","","","","","","","","","","","","","","","","","",""
"","","","","","image-keyboard-response","164","945522","0.0-3.0-5.0-1.9","60f59dfcc7f2c3ebb0307926","C3","batch3","pattern_response","4964","stim/no_37_2_w.png","j","pattern_19","j","true","","","","4964","true","9","","","","","","","","","","","","","","","","",""
"","","","","","html-keyboard-response","165","946845","0.0-3.0-5.0-0.10","60f59dfcc7f2c3ebb0307926","C3","batch3","pattern_show_trial_num","null","<p class=block-text>Trial 11 out of 78</p>","null","","","","","","","","","","","","","","","","","","","","","","","","","",""
"","","","","","image-keyboard-response","166","947994","0.0-3.0-5.0-1.10","60f59dfcc7f2c3ebb0307926","C3","batch3","pattern_response","1144","stim/yes_37_hor_w1_w.png","f","pattern_60","f","true","","","","1144","true","10","","","","","","","","","","","","","","","","",""
"","","","","","html-keyboard-response","167","949310","0.0-3.0-5.0-0.11","60f59dfcc7f2c3ebb0307926","C3","batch3","pattern_show_trial_num","null","<p class=block-text>Trial 12 out of 78</p>","null","","","","","","","","","","","","","","","","","","","","","","","","","",""
"","","","","","image-keyboard-response","168","950642","0.0-3.0-5.0-1.11","60f59dfcc7f2c3ebb0307926","C3","batch3","pattern_response","1328","stim/no_15_1_w.png","j","pattern_03","j","true","","","","1328","true","11","","","","","","","","","","","","","","","","",""
"","","","","","html-keyboard-response","169","951950","0.0-3.0-5.0-0.12","60f59dfcc7f2c3ebb0307926","C3","batch3","pattern_show_trial_num","null","<p class=block-text>Trial 13 out of 78</p>","null","","","","","","","","","","","","","","","","","","","","","","","","","",""
"","","","","","image-keyboard-response","170","952997","0.0-3.0-5.0-1.12","60f59dfcc7f2c3ebb0307926","C3","batch3","pattern_response","1044","stim/yes_23_ver_b1.png","f","pattern_48","f","true","","","","1044","true","12","","","","","","","","","","","","","","","","",""
"","","","","","html-keyboard-response","171","954313","0.0-3.0-5.0-0.13","60f59dfcc7f2c3ebb0307926","C3","batch3","pattern_show_trial_num","null","<p class=block-text>Trial 14 out of 78</p>","null","","","","","","","","","","","","","","","","","","","","","","","","","",""
"","","","","","image-keyboard-response","172","958484","0.0-3.0-5.0-1.13","60f59dfcc7f2c3ebb0307926","C3","batch3","pattern_response","4167","stim/no_43_2_b.png","j","pattern_23","j","true","","","","4167","true","13","","","","","","","","","","","","","","","","",""
"","","","","","html-keyboard-response","173","959805","0.0-3.0-5.0-0.14","60f59dfcc7f2c3ebb0307926","C3","batch3","pattern_show_trial_num","null","<p class=block-text>Trial 15 out of 78</p>","null","","","","","","","","","","","","","","","","","","","","","","","","","",""
"","","","","","image-keyboard-response","174","960476","0.0-3.0-5.0-1.14","60f59dfcc7f2c3ebb0307926","C3","batch3","pattern_response","666","stim/yes_12_hor_w1_w.png","f","pattern_42","f","true","","","","666","true","14","","","","","","","","","","","","","","","","",""
"","","","","","html-keyboard-response","175","961785","0.0-3.0-5.0-0.15","60f59dfcc7f2c3ebb0307926","C3","batch3","pattern_show_trial_num","null","<p class=block-text>Trial 16 out of 78</p>","null","","","","","","","","","","","","","","","","","","","","","","","","","",""
"","","","","","image-keyboard-response","176","962514","0.0-3.0-5.0-1.15","60f59dfcc7f2c3ebb0307926","C3","batch3","pattern_response","725","stim/yes_15_dia_b1u_b.png","f","pattern_44","f","true","","","","725","true","15","","","","","","","","","","","","","","","","",""
"","","","","","html-keyboard-response","177","963825","0.0-3.0-5.0-0.16","60f59dfcc7f2c3ebb0307926","C3","batch3","pattern_show_trial_num","null","<p class=block-text>Trial 17 out of 78</p>","null","","","","","","","","","","","","","","","","","","","","","","","","","",""
"","","","","","image-keyboard-response","178","965073","0.0-3.0-5.0-1.16","60f59dfcc7f2c3ebb0307926","C3","batch3","pattern_response","1246","stim/yes_49_hor_w1_b.png","f","pattern_70","f","true","","","","1246","true","16","","","","","","","","","","","","","","","","",""
"","","","","","html-keyboard-response","179","966383","0.0-3.0-5.0-0.17","60f59dfcc7f2c3ebb0307926","C3","batch3","pattern_show_trial_num","null","<p class=block-text>Trial 18 out of 78</p>","null","","","","","","","","","","","","","","","","","","","","","","","","","",""
"","","","","","image-keyboard-response","180","967161","0.0-3.0-5.0-1.17","60f59dfcc7f2c3ebb0307926","C3","batch3","pattern_response","775","stim/yes_36_ver_w1_w.png","f","pattern_58","f","true","","","","775","true","17","","","","","","","","","","","","","","","","",""
"","","","","","html-keyboard-response","181","968477","0.0-3.0-5.0-0.18","60f59dfcc7f2c3ebb0307926","C3","batch3","pattern_show_trial_num","null","<p class=block-text>Trial 19 out of 78</p>","null","","","","","","","","","","","","","","","","","","","","","","","","","",""
"","","","","","image-keyboard-response","182","970445","0.0-3.0-5.0-1.18","60f59dfcc7f2c3ebb0307926","C3","batch3","pattern_response","1964","stim/yes_70_ver_b1.png","f","pattern_80","f","true","","","","1964","true","18","","","","","","","","","","","","","","","","",""
"","","","","","html-keyboard-response","183","971767","0.0-3.0-5.0-0.19","60f59dfcc7f2c3ebb0307926","C3","batch3","pattern_show_trial_num","null","<p class=block-text>Trial 20 out of 78</p>","null","","","","","","","","","","","","","","","","","","","","","","","","","",""
"","","","","","image-keyboard-response","184","973243","0.0-3.0-5.0-1.19","60f59dfcc7f2c3ebb0307926","C3","batch3","pattern_response","1471","stim/yes_46_ver_b1_b.png","f","pattern_68","f","true","","","","1471","true","19","","","","","","","","","","","","","","","","",""
"","","","","","html-keyboard-response","185","974558","0.0-3.0-5.0-0.20","60f59dfcc7f2c3ebb0307926","C3","batch3","pattern_show_trial_num","null","<p class=block-text>Trial 21 out of 78</p>","null","","","","","","","","","","","","","","","","","","","","","","","","","",""
"","","","","","image-keyboard-response","186","980304","0.0-3.0-5.0-1.20","60f59dfcc7f2c3ebb0307926","C3","batch3","pattern_response","5741","stim/no_45_1_w.png","j","pattern_25","j","true","","","","5741","true","20","","","","","","","","","","","","","","","","",""
"","","","","","html-keyboard-response","187","981623","0.0-3.0-5.0-0.21","60f59dfcc7f2c3ebb0307926","C3","batch3","pattern_show_trial_num","null","<p class=block-text>Trial 22 out of 78</p>","null","","","","","","","","","","","","","","","","","","","","","","","","","",""
"","","","","","image-keyboard-response","188","985677","0.0-3.0-5.0-1.21","60f59dfcc7f2c3ebb0307926","C3","batch3","pattern_response","4048","stim/no_47_1_b.png","j","pattern_27","j","true","","","","4048","true","21","","","","","","","","","","","","","","","","",""
"","","","","","html-keyboard-response","189","986994","0.0-3.0-5.0-0.22","60f59dfcc7f2c3ebb0307926","C3","batch3","pattern_show_trial_num","null","<p class=block-text>Trial 23 out of 78</p>","null","","","","","","","","","","","","","","","","","","","","","","","","","",""
"","","","","","image-keyboard-response","190","989226","0.0-3.0-5.0-1.22","60f59dfcc7f2c3ebb0307926","C3","batch3","pattern_response","2227","stim/yes_51_dia_b1.png","f","pattern_72","f","true","","","","2227","true","22","","","","","","","","","","","","","","","","",""
"","","","","","html-keyboard-response","191","990540","0.0-3.0-5.0-0.23","60f59dfcc7f2c3ebb0307926","C3","batch3","pattern_show_trial_num","null","<p class=block-text>Trial 24 out of 78</p>","null","","","","","","","","","","","","","","","","","","","","","","","","","",""
"","","","","","image-keyboard-response","192","993121","0.0-3.0-5.0-1.23","60f59dfcc7f2c3ebb0307926","C3","batch3","pattern_response","2576","stim/no_25_1_b.png","j","pattern_09","j","true","","","","2576","true","23","","","","","","","","","","","","","","","","",""
"","","","","","html-keyboard-response","193","994438","0.0-3.0-5.0-0.24","60f59dfcc7f2c3ebb0307926","C3","batch3","pattern_show_trial_num","null","<p class=block-text>Trial 25 out of 78</p>","null","","","","","","","","","","","","","","","","","","","","","","","","","",""
"","","","","","image-keyboard-response","194","995983","0.0-3.0-5.0-1.24","60f59dfcc7f2c3ebb0307926","C3","batch3","pattern_response","1540","stim/no_30_1_b.png","j","pattern_13","j","true","","","","1540","true","24","","","","","","","","","","","","","","","","",""
"","","","","","html-keyboard-response","195","997295","0.0-3.0-5.0-0.25","60f59dfcc7f2c3ebb0307926","C3","batch3","pattern_show_trial_num","null","<p class=block-text>Trial 26 out of 78</p>","null","","","","","","","","","","","","","","","","","","","","","","","","","",""
"","","","","","image-keyboard-response","196","998169","0.0-3.0-5.0-1.25","60f59dfcc7f2c3ebb0307926","C3","batch3","pattern_response","870","stim/yes_63_dia_b1.png","f","pattern_78","f","true","","","","870","true","25","","","","","","","","","","","","","","","","",""
"","","","","","html-keyboard-response","197","999471","0.0-3.0-5.0-0.26","60f59dfcc7f2c3ebb0307926","C3","batch3","pattern_show_trial_num","null","<p class=block-text>Trial 27 out of 78</p>","null","","","","","","","","","","","","","","","","","","","","","","","","","",""
"","","","","","image-keyboard-response","198","1003631","0.0-3.0-5.0-1.26","60f59dfcc7f2c3ebb0307926","C3","batch3","pattern_response","4157","stim/no_53_1_b.png","j","pattern_33","j","true","","","","4157","true","26","","","","","","","","","","","","","","","","",""
"","","","","","html-keyboard-response","199","1004955","0.0-3.0-5.0-0.27","60f59dfcc7f2c3ebb0307926","C3","batch3","pattern_show_trial_num","null","<p class=block-text>Trial 28 out of 78</p>","null","","","","","","","","","","","","","","","","","","","","","","","","","",""
"","","","","","image-keyboard-response","200","1008593","0.0-3.0-5.0-1.27","60f59dfcc7f2c3ebb0307926","C3","batch3","pattern_response","3633","stim/no_39_1_w.png","j","pattern_21","j","true","","","","3633","true","27","","","","","","","","","","","","","","","","",""
"","","","","","html-keyboard-response","201","1009918","0.0-3.0-5.0-0.28","60f59dfcc7f2c3ebb0307926","C3","batch3","pattern_show_trial_num","null","<p class=block-text>Trial 29 out of 78</p>","null","","","","","","","","","","","","","","","","","","","","","","","","","",""
"","","","","","image-keyboard-response","202","1011763","0.0-3.0-5.0-1.28","60f59dfcc7f2c3ebb0307926","C3","batch3","pattern_response","1841","stim/yes_33_dia_w1_w.png","f","pattern_56","f","true","","","","1841","true","28","","","","","","","","","","","","","","","","",""
"","","","","","html-keyboard-response","203","1013077","0.0-3.0-5.0-0.29","60f59dfcc7f2c3ebb0307926","C3","batch3","pattern_show_trial_num","null","<p class=block-text>Trial 30 out of 78</p>","null","","","","","","","","","","","","","","","","","","","","","","","","","",""
"","","","","","image-keyboard-response","204","1014743","0.0-3.0-5.0-1.29","60f59dfcc7f2c3ebb0307926","C3","batch3","pattern_response","1661","stim/no_18_1_b.png","j","pattern_05","j","true","","","","1661","true","29","","","","","","","","","","","","","","","","",""
"","","","","","html-keyboard-response","205","1016060","0.0-3.0-5.0-0.30","60f59dfcc7f2c3ebb0307926","C3","batch3","pattern_show_trial_num","null","<p class=block-text>Trial 31 out of 78</p>","null","","","","","","","","","","","","","","","","","","","","","","","","","",""
"","","","","","image-keyboard-response","206","1017316","0.0-3.0-5.0-1.30","60f59dfcc7f2c3ebb0307926","C3","batch3","pattern_response","1253","stim/yes_30_ver_b1_b.png","f","pattern_54","f","true","","","","1253","true","30","","","","","","","","","","","","","","","","",""
"","","","","","html-keyboard-response","207","1018627","0.0-3.0-5.0-0.31","60f59dfcc7f2c3ebb0307926","C3","batch3","pattern_show_trial_num","null","<p class=block-text>Trial 32 out of 78</p>","null","","","","","","","","","","","","","","","","","","","","","","","","","",""
"","","","","","image-keyboard-response","208","1020520","0.0-3.0-5.0-1.31","60f59dfcc7f2c3ebb0307926","C3","batch3","pattern_response","1889","stim/yes_44_ver_w1_w.png","f","pattern_66","f","true","","","","1889","true","31","","","","","","","","","","","","","","","","",""
"","","","","","html-keyboard-response","209","1021823","0.0-3.0-5.0-0.32","60f59dfcc7f2c3ebb0307926","C3","batch3","pattern_show_trial_num","null","<p class=block-text>Trial 33 out of 78</p>","null","","","","","","","","","","","","","","","","","","","","","","","","","",""
"","","","","","image-keyboard-response","210","1022614","0.0-3.0-5.0-1.32","60f59dfcc7f2c3ebb0307926","C3","batch3","pattern_response","786","stim/yes_26_dia_w2_w.png","f","pattern_50","f","true","","","","786","true","32","","","","","","","","","","","","","","","","",""
"","","","","","html-keyboard-response","211","1023920","0.0-3.0-5.0-0.33","60f59dfcc7f2c3ebb0307926","C3","batch3","pattern_show_trial_num","null","<p class=block-text>Trial 34 out of 78</p>","null","","","","","","","","","","","","","","","","","","","","","","","","","",""
"","","","","","image-keyboard-response","212","1025492","0.0-3.0-5.0-1.33","60f59dfcc7f2c3ebb0307926","C3","batch3","pattern_response","1569","stim/no_22_1_b.png","j","pattern_07","j","true","","","","1569","true","33","","","","","","","","","","","","","","","","",""
"","","","","","html-keyboard-response","213","1026811","0.0-3.0-5.0-0.34","60f59dfcc7f2c3ebb0307926","C3","batch3","pattern_show_trial_num","null","<p class=block-text>Trial 35 out of 78</p>","null","","","","","","","","","","","","","","","","","","","","","","","","","",""
"","","","","","image-keyboard-response","214","1030625","0.0-3.0-5.0-1.34","60f59dfcc7f2c3ebb0307926","C3","batch3","pattern_response","3809","stim/no_51_1.png","j","pattern_31","j","true","","","","3809","true","34","","","","","","","","","","","","","","","","",""
"","","","","","html-keyboard-response","215","1031931","0.0-3.0-5.0-0.35","60f59dfcc7f2c3ebb0307926","C3","batch3","pattern_show_trial_num","null","<p class=block-text>Trial 36 out of 78</p>","null","","","","","","","","","","","","","","","","","","","","","","","","","",""
"","","","","","image-keyboard-response","216","1034919","0.0-3.0-5.0-1.35","60f59dfcc7f2c3ebb0307926","C3","batch3","pattern_response","2984","stim/no_49_2_b.png","j","pattern_29","j","true","","","","2984","true","35","","","","","","","","","","","","","","","","",""
"","","","","","html-keyboard-response","217","1036223","0.0-3.0-5.0-0.36","60f59dfcc7f2c3ebb0307926","C3","batch3","pattern_show_trial_num","null","<p class=block-text>Trial 37 out of 78</p>","null","","","","","","","","","","","","","","","","","","","","","","","","","",""
"","","","","","image-keyboard-response","218","1038763","0.0-3.0-5.0-1.36","60f59dfcc7f2c3ebb0307926","C3","batch3","pattern_response","2535","stim/no_36_1_b.png","j","pattern_17","j","true","","","","2535","true","36","","","","","","","","","","","","","","","","",""
"","","","","","html-keyboard-response","219","1040070","0.0-3.0-5.0-0.37","60f59dfcc7f2c3ebb0307926","C3","batch3","pattern_show_trial_num","null","<p class=block-text>Trial 38 out of 78</p>","null","","","","","","","","","","","","","","","","","","","","","","","","","",""
"","","","","","image-keyboard-response","220","1041098","0.0-3.0-5.0-1.37","60f59dfcc7f2c3ebb0307926","C3","batch3","pattern_response","1025","stim/no_12_1.png","j","pattern_01","j","true","","","","1025","true","37","","","","","","","","","","","","","","","","",""
"","","","","","html-keyboard-response","221","1042423","0.0-3.0-5.0-0.38","60f59dfcc7f2c3ebb0307926","C3","batch3","pattern_show_trial_num","null","<p class=block-text>Trial 39 out of 78</p>","null","","","","","","","","","","","","","","","","","","","","","","","","","",""
"","","","","","image-keyboard-response","222","1045491","0.0-3.0-5.0-1.38","60f59dfcc7f2c3ebb0307926","C3","batch3","pattern_response","3065","stim/yes_42_dia_w1_w.png","f","pattern_64","f","true","","","","3065","true","38","","","","","","","","","","","","","","","","",""
"","","","","","image-keyboard-response","223","1047818","0.0-3.0-6.0","60f59dfcc7f2c3ebb0307926","C3","batch3","attention_check","1823","stim/empty_board.png","j","","j","true","","","","","","","500","[""f"",""j""]","","","","","","","","","","","","","","",""
"","","","","","html-keyboard-response","224","1048638","0.0-3.0-7.0-0.0","60f59dfcc7f2c3ebb0307926","C3","batch3","pattern_show_trial_num","null","<p class=block-text>Trial 40 out of 78</p>","null","","","","","","","","","","","","","","","","","","","","","","","","","",""
"","","","","","image-keyboard-response","225","1052553","0.0-3.0-7.0-1.0","60f59dfcc7f2c3ebb0307926","C3","batch3","pattern_response","3902","stim/no_44_1.png","j","pattern_24","j","true","","","","3902","true","39","","","","","","","","","","","","","","","","",""
"","","","","","html-keyboard-response","226","1053868","0.0-3.0-7.0-0.1","60f59dfcc7f2c3ebb0307926","C3","batch3","pattern_show_trial_num","null","<p class=block-text>Trial 41 out of 78</p>","null","","","","","","","","","","","","","","","","","","","","","","","","","",""
"","","","","","image-keyboard-response","227","1057120","0.0-3.0-7.0-1.1","60f59dfcc7f2c3ebb0307926","C3","batch3","pattern_response","3247","stim/no_38_1_b.png","j","pattern_20","j","true","","","","3247","true","40","","","","","","","","","","","","","","","","",""
"","","","","","html-keyboard-response","228","1058438","0.0-3.0-7.0-0.2","60f59dfcc7f2c3ebb0307926","C3","batch3","pattern_show_trial_num","null","<p class=block-text>Trial 42 out of 78</p>","null","","","","","","","","","","","","","","","","","","","","","","","","","",""
"","","","","","image-keyboard-response","229","1061552","0.0-3.0-7.0-1.2","60f59dfcc7f2c3ebb0307926","C3","batch3","pattern_response","3109","stim/no_42_1_w.png","j","pattern_22","j","true","","","","3109","true","41","","","","","","","","","","","","","","","","",""
"","","","","","html-keyboard-response","230","1062872","0.0-3.0-7.0-0.3","60f59dfcc7f2c3ebb0307926","C3","batch3","pattern_show_trial_num","null","<p class=block-text>Trial 43 out of 78</p>","null","","","","","","","","","","","","","","","","","","","","","","","","","",""
"","","","","","image-keyboard-response","231","1063883","0.0-3.0-7.0-1.3","60f59dfcc7f2c3ebb0307926","C3","batch3","pattern_response","1006","stim/yes_55_hor_w1_w.png","f","pattern_75","f","true","","","","1006","true","42","","","","","","","","","","","","","","","","",""
"","","","","","html-keyboard-response","232","1065212","0.0-3.0-7.0-0.4","60f59dfcc7f2c3ebb0307926","C3","batch3","pattern_show_trial_num","null","<p class=block-text>Trial 44 out of 78</p>","null","","","","","","","","","","","","","","","","","","","","","","","","","",""
"","","","","","image-keyboard-response","233","1066831","0.0-3.0-7.0-1.4","60f59dfcc7f2c3ebb0307926","C3","batch3","pattern_response","1614","stim/no_26_1_w.png","j","pattern_10","j","true","","","","1614","true","43","","","","","","","","","","","","","","","","",""
"","","","","","html-keyboard-response","234","1068150","0.0-3.0-7.0-0.5","60f59dfcc7f2c3ebb0307926","C3","batch3","pattern_show_trial_num","null","<p class=block-text>Trial 45 out of 78</p>","null","","","","","","","","","","","","","","","","","","","","","","","","","",""
"","","","","","image-keyboard-response","235","1071797","0.0-3.0-7.0-1.5","60f59dfcc7f2c3ebb0307926","C3","batch3","pattern_response","3643","stim/no_46_1_b.png","j","pattern_26","j","true","","","","3643","true","44","","","","","","","","","","","","","","","","",""
"","","","","","html-keyboard-response","236","1073112","0.0-3.0-7.0-0.6","60f59dfcc7f2c3ebb0307926","C3","batch3","pattern_show_trial_num","null","<p class=block-text>Trial 46 out of 78</p>","null","","","","","","","","","","","","","","","","","","","","","","","","","",""
"","","","","","image-keyboard-response","237","1074389","0.0-3.0-7.0-1.6","60f59dfcc7f2c3ebb0307926","C3","batch3","pattern_response","1271","stim/no_17_1_w.png","f","pattern_04","j","false","","","","1271","false","44","","","","","","","","","","","","","","","","",""
"","","","","","html-keyboard-response","238","1075707","0.0-3.0-7.0-0.7","60f59dfcc7f2c3ebb0307926","C3","batch3","pattern_show_trial_num","null","<p class=block-text>Trial 47 out of 78</p>","null","","","","","","","","","","","","","","","","","","","","","","","","","",""
"","","","","","image-keyboard-response","239","1078190","0.0-3.0-7.0-1.7","60f59dfcc7f2c3ebb0307926","C3","batch3","pattern_response","2479","stim/no_32_1_w.png","j","pattern_14","j","true","","","","2479","true","45","","","","","","","","","","","","","","","","",""
"","","","","","html-keyboard-response","240","1079500","0.0-3.0-7.0-0.8","60f59dfcc7f2c3ebb0307926","C3","batch3","pattern_show_trial_num","null","<p class=block-text>Trial 48 out of 78</p>","null","","","","","","","","","","","","","","","","","","","","","","","","","",""
"","","","","","image-keyboard-response","241","1082265","0.0-3.0-7.0-1.8","60f59dfcc7f2c3ebb0307926","C3","batch3","pattern_response","2760","stim/yes_40_dia_b1_b.png","f","pattern_63","f","true","","","","2760","true","46","","","","","","","","","","","","","","","","",""
"","","","","","html-keyboard-response","242","1083589","0.0-3.0-7.0-0.9","60f59dfcc7f2c3ebb0307926","C3","batch3","pattern_show_trial_num","null","<p class=block-text>Trial 49 out of 78</p>","null","","","","","","","","","","","","","","","","","","","","","","","","","",""
"","","","","","image-keyboard-response","243","1084670","0.0-3.0-7.0-1.9","60f59dfcc7f2c3ebb0307926","C3","batch3","pattern_response","1075","stim/yes_25_hor_b1_b.png","f","pattern_49","f","true","","","","1075","true","47","","","","","","","","","","","","","","","","",""
"","","","","","html-keyboard-response","244","1085997","0.0-3.0-7.0-0.10","60f59dfcc7f2c3ebb0307926","C3","batch3","pattern_show_trial_num","null","<p class=block-text>Trial 50 out of 78</p>","null","","","","","","","","","","","","","","","","","","","","","","","","","",""
"","","","","","image-keyboard-response","245","1090038","0.0-3.0-7.0-1.10","60f59dfcc7f2c3ebb0307926","C3","batch3","pattern_response","4037","stim/no_29_1_b.png","j","pattern_12","j","true","","","","4037","true","48","","","","","","","","","","","","","","","","",""
"","","","","","html-keyboard-response","246","1091354","0.0-3.0-7.0-0.11","60f59dfcc7f2c3ebb0307926","C3","batch3","pattern_show_trial_num","null","<p class=block-text>Trial 51 out of 78</p>","null","","","","","","","","","","","","","","","","","","","","","","","","","",""
"","","","","","image-keyboard-response","247","1094179","0.0-3.0-7.0-1.11","60f59dfcc7f2c3ebb0307926","C3","batch3","pattern_response","2819","stim/yes_37_dia_w1.png","f","pattern_59","f","true","","","","2819","true","49","","","","","","","","","","","","","","","","",""
"","","","","","html-keyboard-response","248","1095501","0.0-3.0-7.0-0.12","60f59dfcc7f2c3ebb0307926","C3","batch3","pattern_show_trial_num","null","<p class=block-text>Trial 52 out of 78</p>","null","","","","","","","","","","","","","","","","","","","","","","","","","",""
"","","","","","image-keyboard-response","249","1100539","0.0-3.0-7.0-1.12","60f59dfcc7f2c3ebb0307926","C3","batch3","pattern_response","5033","stim/no_52_1.png","j","pattern_32","j","true","","","","5033","true","50","","","","","","","","","","","","","","","","",""
"","","","","","html-keyboard-response","250","1101860","0.0-3.0-7.0-0.13","60f59dfcc7f2c3ebb0307926","C3","batch3","pattern_show_trial_num","null","<p class=block-text>Trial 53 out of 78</p>","null","","","","","","","","","","","","","","","","","","","","","","","","","",""
"","","","","","image-keyboard-response","251","1104184","0.0-3.0-7.0-1.13","60f59dfcc7f2c3ebb0307926","C3","batch3","pattern_response","2319","stim/yes_67_hor_b1.png","f","pattern_79","f","true","","","","2319","true","51","","","","","","","","","","","","","","","","",""
"","","","","","html-keyboard-response","252","1105500","0.0-3.0-7.0-0.14","60f59dfcc7f2c3ebb0307926","C3","batch3","pattern_show_trial_num","null","<p class=block-text>Trial 54 out of 78</p>","null","","","","","","","","","","","","","","","","","","","","","","","","","",""
"","","","","","image-keyboard-response","253","1106209","0.0-3.0-7.0-1.14","60f59dfcc7f2c3ebb0307926","C3","batch3","pattern_response","704","stim/yes_14_hor_b1_w.png","f","pattern_43","f","true","","","","704","true","52","","","","","","","","","","","","","","","","",""
"","","","","","html-keyboard-response","254","1107532","0.0-3.0-7.0-0.15","60f59dfcc7f2c3ebb0307926","C3","batch3","pattern_show_trial_num","null","<p class=block-text>Trial 55 out of 78</p>","null","","","","","","","","","","","","","","","","","","","","","","","","","",""
"","","","","","image-keyboard-response","255","1110264","0.0-3.0-7.0-1.15","60f59dfcc7f2c3ebb0307926","C3","batch3","pattern_response","2729","stim/no_65_1_b.png","f","pattern_38","j","false","","","","2729","false","52","","","","","","","","","","","","","","","","",""
"","","","","","html-keyboard-response","256","1111576","0.0-3.0-7.0-0.16","60f59dfcc7f2c3ebb0307926","C3","batch3","pattern_show_trial_num","null","<p class=block-text>Trial 56 out of 78</p>","null","","","","","","","","","","","","","","","","","","","","","","","","","",""
"","","","","","image-keyboard-response","257","1112569","0.0-3.0-7.0-1.16","60f59dfcc7f2c3ebb0307926","C3","batch3","pattern_response","988","stim/yes_38_hor_b1_b.png","f","pattern_61","f","true","","","","988","true","53","","","","","","","","","","","","","","","","",""
"","","","","","html-keyboard-response","258","1113880","0.0-3.0-7.0-0.17","60f59dfcc7f2c3ebb0307926","C3","batch3","pattern_show_trial_num","null","<p class=block-text>Trial 57 out of 78</p>","null","","","","","","","","","","","","","","","","","","","","","","","","","",""
"","","","","","image-keyboard-response","259","1121924","0.0-3.0-7.0-1.17","60f59dfcc7f2c3ebb0307926","C3","batch3","pattern_response","8041","stim/no_70_2.png","j","pattern_40","j","true","","","","8041","true","54","","","","","","","","","","","","","","","","",""
"","","","","","html-keyboard-response","260","1123241","0.0-3.0-7.0-0.18","60f59dfcc7f2c3ebb0307926","C3","batch3","pattern_show_trial_num","null","<p class=block-text>Trial 58 out of 78</p>","null","","","","","","","","","","","","","","","","","","","","","","","","","",""
"","","","","","image-keyboard-response","261","1127417","0.0-3.0-7.0-1.18","60f59dfcc7f2c3ebb0307926","C3","batch3","pattern_response","4171","stim/no_48_1_w.png","j","pattern_28","j","true","","","","4171","true","55","","","","","","","","","","","","","","","","",""
"","","","","","html-keyboard-response","262","1128741","0.0-3.0-7.0-0.19","60f59dfcc7f2c3ebb0307926","C3","batch3","pattern_show_trial_num","null","<p class=block-text>Trial 59 out of 78</p>","null","","","","","","","","","","","","","","","","","","","","","","","","","",""
"","","","","","image-keyboard-response","263","1130975","0.0-3.0-7.0-1.19","60f59dfcc7f2c3ebb0307926","C3","batch3","pattern_response","2229","stim/no_20_1_w.png","j","pattern_06","j","true","","","","2229","true","56","","","","","","","","","","","","","","","","",""
"","","","","","html-keyboard-response","264","1132296","0.0-3.0-7.0-0.20","60f59dfcc7f2c3ebb0307926","C3","batch3","pattern_show_trial_num","null","<p class=block-text>Trial 60 out of 78</p>","null","","","","","","","","","","","","","","","","","","","","","","","","","",""
"","","","","","image-keyboard-response","265","1133979","0.0-3.0-7.0-1.20","60f59dfcc7f2c3ebb0307926","C3","batch3","pattern_response","1679","stim/yes_48_dia_w1_w.png","f","pattern_69","f","true","","","","1679","true","57","","","","","","","","","","","","","","","","",""
"","","","","","html-keyboard-response","266","1135300","0.0-3.0-7.0-0.21","60f59dfcc7f2c3ebb0307926","C3","batch3","pattern_show_trial_num","null","<p class=block-text>Trial 61 out of 78</p>","null","","","","","","","","","","","","","","","","","","","","","","","","","",""
"","","","","","image-keyboard-response","267","1137678","0.0-3.0-7.0-1.21","60f59dfcc7f2c3ebb0307926","C3","batch3","pattern_response","2373","stim/no_23_1.png","j","pattern_08","j","true","","","","2373","true","58","","","","","","","","","","","","","","","","",""
"","","","","","html-keyboard-response","268","1138998","0.0-3.0-7.0-0.22","60f59dfcc7f2c3ebb0307926","C3","batch3","pattern_show_trial_num","null","<p class=block-text>Trial 62 out of 78</p>","null","","","","","","","","","","","","","","","","","","","","","","","","","",""
"","","","","","image-keyboard-response","269","1140356","0.0-3.0-7.0-1.22","60f59dfcc7f2c3ebb0307926","C3","batch3","pattern_response","1354","stim/no_13_2_b.png","j","pattern_02","j","true","","","","1354","true","59","","","","","","","","","","","","","","","","",""
"","","","","","html-keyboard-response","270","1141674","0.0-3.0-7.0-0.23","60f59dfcc7f2c3ebb0307926","C3","batch3","pattern_show_trial_num","null","<p class=block-text>Trial 63 out of 78</p>","null","","","","","","","","","","","","","","","","","","","","","","","","","",""
"","","","","","image-keyboard-response","271","1142564","0.0-3.0-7.0-1.23","60f59dfcc7f2c3ebb0307926","C3","batch3","pattern_response","885","stim/yes_17_dia_w1.png","f","pattern_45","f","true","","","","885","true","60","","","","","","","","","","","","","","","","",""
"","","","","","html-keyboard-response","272","1143884","0.0-3.0-7.0-0.24","60f59dfcc7f2c3ebb0307926","C3","batch3","pattern_show_trial_num","null","<p class=block-text>Trial 64 out of 78</p>","null","","","","","","","","","","","","","","","","","","","","","","","","","",""
"","","","","","image-keyboard-response","273","1145898","0.0-3.0-7.0-1.24","60f59dfcc7f2c3ebb0307926","C3","batch3","pattern_response","2011","stim/yes_45_hor_b2_b.png","f","pattern_67","f","true","","","","2011","true","61","","","","","","","","","","","","","","","","",""
"","","","","","html-keyboard-response","274","1147203","0.0-3.0-7.0-0.25","60f59dfcc7f2c3ebb0307926","C3","batch3","pattern_show_trial_num","null","<p class=block-text>Trial 65 out of 78</p>","null","","","","","","","","","","","","","","","","","","","","","","","","","",""
"","","","","","image-keyboard-response","275","1149141","0.0-3.0-7.0-1.25","60f59dfcc7f2c3ebb0307926","C3","batch3","pattern_response","1933","stim/yes_60_ver_b1_b.png","f","pattern_77","f","true","","","","1933","true","62","","","","","","","","","","","","","","","","",""
"","","","","","html-keyboard-response","276","1150450","0.0-3.0-7.0-0.26","60f59dfcc7f2c3ebb0307926","C3","batch3","pattern_show_trial_num","null","<p class=block-text>Trial 66 out of 78</p>","null","","","","","","","","","","","","","","","","","","","","","","","","","",""
"","","","","","image-keyboard-response","277","1154687","0.0-3.0-7.0-1.26","60f59dfcc7f2c3ebb0307926","C3","batch3","pattern_response","4233","stim/no_50_1.png","j","pattern_30","j","true","","","","4233","true","63","","","","","","","","","","","","","","","","",""
"","","","","","html-keyboard-response","278","1155990","0.0-3.0-7.0-0.27","60f59dfcc7f2c3ebb0307926","C3","batch3","pattern_show_trial_num","null","<p class=block-text>Trial 67 out of 78</p>","null","","","","","","","","","","","","","","","","","","","","","","","","","",""
"","","","","","image-keyboard-response","279","1159248","0.0-3.0-7.0-1.27","60f59dfcc7f2c3ebb0307926","C3","batch3","pattern_response","3252","stim/yes_29_ver_w1.png","f","pattern_53","f","true","","","","3252","true","64","","","","","","","","","","","","","","","","",""
"","","","","","html-keyboard-response","280","1160578","0.0-3.0-7.0-0.28","60f59dfcc7f2c3ebb0307926","C3","batch3","pattern_show_trial_num","null","<p class=block-text>Trial 68 out of 78</p>","null","","","","","","","","","","","","","","","","","","","","","","","","","",""
"","","","","","image-keyboard-response","281","1165939","0.0-3.0-7.0-1.28","60f59dfcc7f2c3ebb0307926","C3","batch3","pattern_response","5355","stim/no_55_1_w.png","j","pattern_34","j","true","","","","5355","true","65","","","","","","","","","","","","","","","","",""
"","","","","","html-keyboard-response","282","1167254","0.0-3.0-7.0-0.29","60f59dfcc7f2c3ebb0307926","C3","batch3","pattern_show_trial_num","null","<p class=block-text>Trial 69 out of 78</p>","null","","","","","","","","","","","","","","","","","","","","","","","","","",""
"","","","","","image-keyboard-response","283","1168697","0.0-3.0-7.0-1.29","60f59dfcc7f2c3ebb0307926","C3","batch3","pattern_response","1438","stim/yes_43_ver_w1_w.png","f","pattern_65","f","true","","","","1438","true","66","","","","","","","","","","","","","","","","",""
"","","","","","html-keyboard-response","284","1170013","0.0-3.0-7.0-0.30","60f59dfcc7f2c3ebb0307926","C3","batch3","pattern_show_trial_num","null","<p class=block-text>Trial 70 out of 78</p>","null","","","","","","","","","","","","","","","","","","","","","","","","","",""
"","","","","","image-keyboard-response","285","1174849","0.0-3.0-7.0-1.30","60f59dfcc7f2c3ebb0307926","C3","batch3","pattern_response","4832","stim/no_36_2_w.png","j","pattern_18","j","true","","","","4832","true","67","","","","","","","","","","","","","","","","",""
"","","","","","html-keyboard-response","286","1176174","0.0-3.0-7.0-0.31","60f59dfcc7f2c3ebb0307926","C3","batch3","pattern_show_trial_num","null","<p class=block-text>Trial 71 out of 78</p>","null","","","","","","","","","","","","","","","","","","","","","","","","","",""
"","","","","","image-keyboard-response","287","1177724","0.0-3.0-7.0-1.31","60f59dfcc7f2c3ebb0307926","C3","batch3","pattern_response","1545","stim/yes_35_dia_b1.png","f","pattern_57","f","true","","","","1545","true","68","","","","","","","","","","","","","","","","",""
"","","","","","html-keyboard-response","288","1179038","0.0-3.0-7.0-0.32","60f59dfcc7f2c3ebb0307926","C3","batch3","pattern_show_trial_num","null","<p class=block-text>Trial 72 out of 78</p>","null","","","","","","","","","","","","","","","","","","","","","","","","","",""
"","","","","","image-keyboard-response","289","1183581","0.0-3.0-7.0-1.32","60f59dfcc7f2c3ebb0307926","C3","batch3","pattern_response","4506","stim/no_62_1_w.png","j","pattern_36","j","true","","","","4506","true","69","","","","","","","","","","","","","","","","",""
"","","","","","html-keyboard-response","290","1184905","0.0-3.0-7.0-0.33","60f59dfcc7f2c3ebb0307926","C3","batch3","pattern_show_trial_num","null","<p class=block-text>Trial 73 out of 78</p>","null","","","","","","","","","","","","","","","","","","","","","","","","","",""
"","","","","","image-keyboard-response","291","1188038","0.0-3.0-7.0-1.33","60f59dfcc7f2c3ebb0307926","C3","batch3","pattern_response","3128","stim/yes_50_dia_w1.png","f","pattern_71","f","true","","","","3128","true","70","","","","","","","","","","","","","","","","",""
"","","","","","html-keyboard-response","292","1189352","0.0-3.0-7.0-0.34","60f59dfcc7f2c3ebb0307926","C3","batch3","pattern_show_trial_num","null","<p class=block-text>Trial 74 out of 78</p>","null","","","","","","","","","","","","","","","","","","","","","","","","","",""
"","","","","","image-keyboard-response","293","1190137","0.0-3.0-7.0-1.34","60f59dfcc7f2c3ebb0307926","C3","batch3","pattern_response","779","stim/yes_22_ver_w1.png","f","pattern_47","f","true","","","","779","true","71","","","","","","","","","","","","","","","","",""
"","","","","","html-keyboard-response","294","1191453","0.0-3.0-7.0-0.35","60f59dfcc7f2c3ebb0307926","C3","batch3","pattern_show_trial_num","null","<p class=block-text>Trial 75 out of 78</p>","null","","","","","","","","","","","","","","","","","","","","","","","","","",""
"","","","","","image-keyboard-response","295","1194746","0.0-3.0-7.0-1.35","60f59dfcc7f2c3ebb0307926","C3","batch3","pattern_response","3290","stim/no_34_1_b.png","j","pattern_16","j","true","","","","3290","true","72","","","","","","","","","","","","","","","","",""
"","","","","","html-keyboard-response","296","1196055","0.0-3.0-7.0-0.36","60f59dfcc7f2c3ebb0307926","C3","batch3","pattern_show_trial_num","null","<p class=block-text>Trial 76 out of 78</p>","null","","","","","","","","","","","","","","","","","","","","","","","","","",""
"","","","","","image-keyboard-response","297","1197156","0.0-3.0-7.0-1.36","60f59dfcc7f2c3ebb0307926","C3","batch3","pattern_response","1096","stim/yes_28_ver_b1.png","f","pattern_51","f","true","","","","1096","true","73","","","","","","","","","","","","","","","","",""
"","","","","","html-keyboard-response","298","1198474","0.0-3.0-7.0-0.37","60f59dfcc7f2c3ebb0307926","C3","batch3","pattern_show_trial_num","null","<p class=block-text>Trial 77 out of 78</p>","null","","","","","","","","","","","","","","","","","","","","","","","","","",""
"","","","","","image-keyboard-response","299","1201548","0.0-3.0-7.0-1.37","60f59dfcc7f2c3ebb0307926","C3","batch3","pattern_response","3071","stim/yes_31_hor_b1.png","f","pattern_55","f","true","","","","3071","true","74","","","","","","","","","","","","","","","","",""
"","","","","","html-keyboard-response","300","1202866","0.0-3.0-7.0-0.38","60f59dfcc7f2c3ebb0307926","C3","batch3","pattern_show_trial_num","null","<p class=block-text>Trial 78 out of 78</p>","null","","","","","","","","","","","","","","","","","","","","","","","","","",""
"","","","","","image-keyboard-response","301","1204356","0.0-3.0-7.0-1.38","60f59dfcc7f2c3ebb0307926","C3","batch3","pattern_response","1485","stim/yes_52_ver_w1.png","f","pattern_73","f","true","","","","1485","true","75","","","","","","","","","","","","","","","","",""
"","","","","","html-button-response","302","1207702","0.0-3.0-8.0","60f59dfcc7f2c3ebb0307926","C3","batch3","","2844","<p class = block-text>This concludes the 4-in-a-row detection game.Thank you for your responses!<br>
            You responded correctly on 96% of the trials.<br>
            When you are ready, press ""Continue"" button to continue </p>","0","","","","","","","","","","","","","","","","","","","","","","","","","",""
"true","","","","","fullscreen","303","1209759","0.0-4.0-0.0","60f59dfcc7f2c3ebb0307926","C3","batch3","","","","","","","","","","","","","","","","","","","","","","","","","","","","","",""
"","","","","","instructions","304","1256644","0.0-4.0-1.0-0.0-0.0","60f59dfcc7f2c3ebb0307926","C3","batch3","tol-instructions","46883","","","","","","","","[{""page_index"":0,""viewing_time"":9504},{""page_index"":1,""viewing_time"":7430},{""page_index"":2,""viewing_time"":5370},{""page_index"":3,""viewing_time"":9044},{""page_index"":4,""viewing_time"":3303},{""page_index"":5,""viewing_time"":10809},{""page_index"":6,""viewing_time"":1422}]","","","","","","","","","","","","","","","","","","","",""
"","","","","","html-button-response","305","1257474","0.0-4.0-1.0-1.0-0.0","60f59dfcc7f2c3ebb0307926","C3","batch3","tol_enter_quiz","828","<p class=block-text> Let's answer a few questions <br>","0","","","","","","","","","","","","","","","","","","","","","","","","","",""
"","","","","","html-button-response","306","1259604","0.0-4.0-1.0-1.0-1.0","60f59dfcc7f2c3ebb0307926","C3","batch3","tol_quiz","2126","<p class = block-text>True or False: You can only move the ball on top of a peg. <br></p>","0","","","true","","","","","","","","","","","","","","","","","","","","","","",""
"","","","","","html-button-response","307","1260418","0.0-4.0-1.0-1.0-2.0","60f59dfcc7f2c3ebb0307926","C3","batch3","tol_quiz_feedback","809","<p class = block-text>Correct! You can only move the ball on top of a peg.</p>","0","","","","","","","","","","","","","","","","","","","","","","","","","",""
"","","","","","html-button-response","308","1262017","0.0-4.0-1.0-1.0-3.0","60f59dfcc7f2c3ebb0307926","C3","batch3","tol_quiz","1597","<p class = block-text>True or False: You should try to match your board with the target board with fewest moves possible. <br></p>","0","","","true","","","","","","","","","","","","","","","","","","","","","","",""
"","","","","","html-button-response","309","1262564","0.0-4.0-1.0-1.0-4.0","60f59dfcc7f2c3ebb0307926","C3","batch3","tol_quiz_feedback","544","<p class = block-text>Correct! </p>","0","","","","","","","","","","","","","","","","","","","","","","","","","",""
"","","","","","html-button-response","310","1263496","0.0-4.0-2.0","60f59dfcc7f2c3ebb0307926","C3","batch3","","929","<p class=block-text> Now that you've understood the game, let's practice a few easier examples before we start!<br> <br>","0","","","","","","","","","","","","","","","","","","","","","","","","","",""
"","","","","","single-stim-button","311","1265458","0.0-4.0-3.0-0.0","60f59dfcc7f2c3ebb0307926","C3","batch3","tol_practice","1958","","","","","","","","","","","","","","tol_peg_2","1958","1958","0","[[1,2,0],[0,0],[0]]","1","[[1,2,0],[0,0],[3]]","practice","1958","","","","","",""
"","","","","","single-stim-button","312","1266849","0.0-4.0-3.0-1.0","60f59dfcc7f2c3ebb0307926","C3","batch3","tol_practice","1389","","","","","","","","","","","","","","tol_peg_3","1389","1389","0","[[1,2,0],[0,0],[3]]","1","[[1,2,0],[0,0],[3]]","practice","1389","","","","","",""
"","","","","","poldrack-single-stim","313","1267852","0.0-4.0-4.0","60f59dfcc7f2c3ebb0307926","C3","batch3","tol_feedback","-1","","","","","true","","","","","","","","","","1000","1000","500","","","","","","-1","none","true","","0",""
"","","","","","single-stim-button","314","1273100","0.0-4.0-5.0-0.0","60f59dfcc7f2c3ebb0307926","C3","batch3","tol_practice","5247","","","","","","","","","","","","","","tol_peg_1","5247","5247","0","[[1,0,0],[3,0],[0]]","2","[[0,0,0],[3,1],[2]]","practice","5247","","","","","",""
"","","","","","single-stim-button","315","1274107","0.0-4.0-5.0-1.0","60f59dfcc7f2c3ebb0307926","C3","batch3","tol_practice","1006","","","","","","","","","","","","","","tol_peg_3","1006","1006","0","[[1,0,0],[3,0],[2]]","2","[[0,0,0],[3,1],[2]]","practice","1006","","","","","",""
"","","","","","single-stim-button","316","1275164","0.0-4.0-5.1-0.1","60f59dfcc7f2c3ebb0307926","C3","batch3","tol_practice","1055","","","","","","","","","","","","","","tol_peg_1","1055","1055","0","[[0,0,0],[3,0],[2]]","3","[[0,0,0],[3,1],[2]]","practice","1055","","","","","",""
"","","","","","single-stim-button","317","1275911","0.0-4.0-5.1-1.1","60f59dfcc7f2c3ebb0307926","C3","batch3","tol_practice","746","","","","","","","","","","","","","","tol_peg_2","746","746","0","[[0,0,0],[3,1],[2]]","3","[[0,0,0],[3,1],[2]]","practice","746","","","","","",""
"","","","","","poldrack-single-stim","318","1276923","0.0-4.0-6.0","60f59dfcc7f2c3ebb0307926","C3","batch3","tol_feedback","-1","","","","","true","","","","","","","","","","1000","1000","500","","","","","","-1","none","true","","0",""
"","","","","","single-stim-button","319","1279564","0.0-4.0-7.0-0.0","60f59dfcc7f2c3ebb0307926","C3","batch3","tol_practice","2639","","","","","","","","","","","","","","tol_peg_2","2639","2639","0","[[1,2,0],[0,0],[0]]","4","[[1,0,0],[2,0],[3]]","practice","2639","","","","","",""
"","","","","","single-stim-button","320","1280255","0.0-4.0-7.0-1.0","60f59dfcc7f2c3ebb0307926","C3","batch3","tol_practice","689","","","","","","","","","","","","","","tol_peg_3","689","689","0","[[1,2,0],[0,0],[3]]","4","[[1,0,0],[2,0],[3]]","practice","689","","","","","",""
"","","","","","single-stim-button","321","1281228","0.0-4.0-7.1-0.1","60f59dfcc7f2c3ebb0307926","C3","batch3","tol_practice","971","","","","","","","","","","","","","","tol_peg_1","971","971","0","[[1,0,0],[0,0],[3]]","5","[[1,0,0],[2,0],[3]]","practice","971","","","","","",""
"","","","","","single-stim-button","322","1281879","0.0-4.0-7.1-1.1","60f59dfcc7f2c3ebb0307926","C3","batch3","tol_practice","649","","","","","","","","","","","","","","tol_peg_2","649","649","0","[[1,0,0],[2,0],[3]]","5","[[1,0,0],[2,0],[3]]","practice","649","","","","","",""
"","","","","","poldrack-single-stim","323","1282887","0.0-4.0-8.0","60f59dfcc7f2c3ebb0307926","C3","batch3","tol_feedback","-1","","","","","true","","","","","","","","","","1000","1000","500","","","","","","-1","none","true","","0",""
"","","","","","html-button-response","324","1284815","0.0-4.0-9.0","60f59dfcc7f2c3ebb0307926","C3","batch3","tol_instruction","1926","<div class = centerbox><p class = center-block-text>Great job! You are done with practice trials<br>You are about to start official trials.<br> <br> Problem <strong>1</strong> out of 25 problems</p></div>","0","","","","","","","","","","","","","","","","","","","","","","","","","",""
"","","","","","single-stim-button","325","1289195","0.0-4.0-10.0-0.0","60f59dfcc7f2c3ebb0307926","C3","batch3","tol_tohand","3376","","","","","","","","","","","","","","tol_peg_2","3376","3376","0","[[1,2,0],[0,0],[0]]","1","[[1,3,0],[2,0],[0]]","0","0","","","","","","3"
"","","","","","single-stim-button","326","1292456","0.0-4.0-10.0-1.0","60f59dfcc7f2c3ebb0307926","C3","batch3","tol_toboard","3260","","","","","","","","","","","","","","tol_peg_3","3260","3260","0","[[1,2,0],[0,0],[3]]","1","[[1,3,0],[2,0],[0]]","0","0","","","","","","3"
"","","","","","single-stim-button","327","1294368","0.0-4.0-10.1-0.1","60f59dfcc7f2c3ebb0307926","C3","batch3","tol_tohand","1909","","","","","","","","","","","","","","tol_peg_1","1909","1909","0","[[1,0,0],[0,0],[3]]","2","[[1,3,0],[2,0],[0]]","0","0","","","","","","3"
"","","","","","single-stim-button","328","1295446","0.0-4.0-10.1-1.1","60f59dfcc7f2c3ebb0307926","C3","batch3","tol_toboard","1075","","","","","","","","","","","","","","tol_peg_2","1075","1075","0","[[1,0,0],[2,0],[3]]","2","[[1,3,0],[2,0],[0]]","0","0","","","","","","3"
"","","","","","single-stim-button","329","1296109","0.0-4.0-10.2-0.2","60f59dfcc7f2c3ebb0307926","C3","batch3","tol_tohand","662","","","","","","","","","","","","","","tol_peg_3","662","662","0","[[1,0,0],[2,0],[0]]","3","[[1,3,0],[2,0],[0]]","0","0","","","","","","3"
"","","","","","single-stim-button","330","1297197","0.0-4.0-10.2-1.2","60f59dfcc7f2c3ebb0307926","C3","batch3","tol_toboard","1086","","","","","","","","","","","","","","tol_peg_1","1086","1086","0","[[1,3,0],[2,0],[0]]","3","[[1,3,0],[2,0],[0]]","0","0","","","","","","3"
"","","","","","poldrack-single-stim","331","1298202","0.0-4.0-11.0","60f59dfcc7f2c3ebb0307926","C3","batch3","tol_feedback","-1","","","","","true","","","","","","","","","","1000","1000","500","","","","","","-1","none","true","3376","5947",""
"","","","","","html-button-response","332","1300072","0.0-4.0-12.0","60f59dfcc7f2c3ebb0307926","C3","batch3","tol_trial_num","1868","<div class = centerbox><p class = center-block-text>problem <strong>2</strong> out of 25 problems</p></div>","0","","","","","","","","","","","","","","","","","","","","","","","","","",""
"","","","","","single-stim-button","333","1304114","0.0-4.0-13.0-0.0","60f59dfcc7f2c3ebb0307926","C3","batch3","tol_tohand","4040","","","","","","","","","","","","","","tol_peg_1","4040","4040","0","[[1,0,0],[3,0],[0]]","1","[[2,1,3],[0,0],[0]]","1","0","","","","","","5"
"","","","","","single-stim-button","334","1305283","0.0-4.0-13.0-1.0","60f59dfcc7f2c3ebb0307926","C3","batch3","tol_toboard","1167","","","","","","","","","","","","","","tol_peg_3","1167","1167","0","[[1,0,0],[3,0],[2]]","1","[[2,1,3],[0,0],[0]]","1","0","","","","","","5"
"","","","","","single-stim-button","335","1308715","0.0-4.0-13.1-0.1","60f59dfcc7f2c3ebb0307926","C3","batch3","tol_tohand","3431","","","","","","","","","","","","","","tol_peg_1","3431","3431","0","[[0,0,0],[3,0],[2]]","2","[[2,1,3],[0,0],[0]]","1","0","","","","","","5"
"","","","","","single-stim-button","336","1312829","0.0-4.0-13.1-1.1","60f59dfcc7f2c3ebb0307926","C3","batch3","tol_toboard","4112","","","","","","","","","","","","","","tol_peg_2","4112","4112","0","[[0,0,0],[3,1],[2]]","2","[[2,1,3],[0,0],[0]]","1","0","","","","","","5"
"","","","","","single-stim-button","337","1313542","0.0-4.0-13.2-0.2","60f59dfcc7f2c3ebb0307926","C3","batch3","tol_tohand","711","","","","","","","","","","","","","","tol_peg_3","711","711","0","[[0,0,0],[3,1],[0]]","3","[[2,1,3],[0,0],[0]]","1","0","","","","","","5"
"","","","","","single-stim-button","338","1314501","0.0-4.0-13.2-1.2","60f59dfcc7f2c3ebb0307926","C3","batch3","tol_toboard","957","","","","","","","","","","","","","","tol_peg_1","957","957","0","[[2,0,0],[3,1],[0]]","3","[[2,1,3],[0,0],[0]]","1","0","","","","","","5"
"","","","","","single-stim-button","339","1315226","0.0-4.0-13.3-0.3","60f59dfcc7f2c3ebb0307926","C3","batch3","tol_tohand","724","","","","","","","","","","","","","","tol_peg_2","724","724","0","[[2,0,0],[3,0],[0]]","4","[[2,1,3],[0,0],[0]]","1","0","","","","","","5"
"","","","","","single-stim-button","340","1316078","0.0-4.0-13.3-1.3","60f59dfcc7f2c3ebb0307926","C3","batch3","tol_toboard","850","","","","","","","","","","","","","","tol_peg_1","850","850","0","[[2,1,0],[3,0],[0]]","4","[[2,1,3],[0,0],[0]]","1","0","","","","","","5"
"","","","","","single-stim-button","341","1316577","0.0-4.0-13.4-0.4","60f59dfcc7f2c3ebb0307926","C3","batch3","tol_tohand","496","","","","","","","","","","","","","","tol_peg_2","496","496","0","[[2,1,0],[0,0],[0]]","5","[[2,1,3],[0,0],[0]]","1","0","","","","","","5"
"","","","","","single-stim-button","342","1317208","0.0-4.0-13.4-1.4","60f59dfcc7f2c3ebb0307926","C3","batch3","tol_toboard","629","","","","","","","","","","","","","","tol_peg_1","629","629","0","[[2,1,3],[0,0],[0]]","5","[[2,1,3],[0,0],[0]]","1","0","","","","","","5"
"","","","","","poldrack-single-stim","343","1318211","0.0-4.0-14.0","60f59dfcc7f2c3ebb0307926","C3","batch3","tol_feedback","-1","","","","","true","","","","","","","","","","1000","1000","500","","","","","","-1","none","true","4040","9402",""
"","","","","","html-button-response","344","1319012","0.0-4.0-15.0","60f59dfcc7f2c3ebb0307926","C3","batch3","tol_trial_num","798","<div class = centerbox><p class = center-block-text>problem <strong>3</strong> out of 25 problems</p></div>","0","","","","","","","","","","","","","","","","","","","","","","","","","",""
"","","","","","single-stim-button","345","1327426","0.0-4.0-16.0-0.0","60f59dfcc7f2c3ebb0307926","C3","batch3","tol_tohand","8411","","","","","","","","","","","","","","tol_peg_1","8411","8411","0","[[2,0,0],[0,0],[1]]","1","[[1,2,0],[3,0],[0]]","2","0","","","","","","4"
"","","","","","single-stim-button","346","1329584","0.0-4.0-16.0-1.0","60f59dfcc7f2c3ebb0307926","C3","batch3","tol_toboard","2156","","","","","","","","","","","","","","tol_peg_2","2156","2156","0","[[2,0,0],[3,0],[1]]","1","[[1,2,0],[3,0],[0]]","2","0","","","","","","4"
"","","","","","single-stim-button","347","1330233","0.0-4.0-16.1-0.1","60f59dfcc7f2c3ebb0307926","C3","batch3","tol_tohand","647","","","","","","","","","","","","","","tol_peg_1","647","647","0","[[0,0,0],[3,0],[1]]","2","[[1,2,0],[3,0],[0]]","2","0","","","","","","4"
"","","","","","single-stim-button","348","1331685","0.0-4.0-16.1-1.1","60f59dfcc7f2c3ebb0307926","C3","batch3","tol_toboard","1451","","","","","","","","","","","","","","tol_peg_2","1451","1451","0","[[0,0,0],[3,2],[1]]","2","[[1,2,0],[3,0],[0]]","2","0","","","","","","4"
"","","","","","single-stim-button","349","1332268","0.0-4.0-16.2-0.2","60f59dfcc7f2c3ebb0307926","C3","batch3","tol_tohand","582","","","","","","","","","","","","","","tol_peg_3","582","582","0","[[0,0,0],[3,2],[0]]","3","[[1,2,0],[3,0],[0]]","2","0","","","","","","4"
"","","","","","single-stim-button","350","1333181","0.0-4.0-16.2-1.2","60f59dfcc7f2c3ebb0307926","C3","batch3","tol_toboard","911","","","","","","","","","","","","","","tol_peg_1","911","911","0","[[1,0,0],[3,2],[0]]","3","[[1,2,0],[3,0],[0]]","2","0","","","","","","4"
"","","","","","single-stim-button","351","1334058","0.0-4.0-16.3-0.3","60f59dfcc7f2c3ebb0307926","C3","batch3","tol_tohand","875","","","","","","","","","","","","","","tol_peg_2","875","875","0","[[1,0,0],[3,0],[0]]","4","[[1,2,0],[3,0],[0]]","2","0","","","","","","4"
"","","","","","single-stim-button","352","1335010","0.0-4.0-16.3-1.3","60f59dfcc7f2c3ebb0307926","C3","batch3","tol_toboard","950","","","","","","","","","","","","","","tol_peg_1","950","950","0","[[1,2,0],[3,0],[0]]","4","[[1,2,0],[3,0],[0]]","2","0","","","","","","4"
"","","","","","poldrack-single-stim","353","1336014","0.0-4.0-17.0","60f59dfcc7f2c3ebb0307926","C3","batch3","tol_feedback","-1","","","","","true","","","","","","","","","","1000","1000","500","","","","","","-1","none","true","8411","10515",""
"","","","","","html-button-response","354","1336886","0.0-4.0-18.0","60f59dfcc7f2c3ebb0307926","C3","batch3","tol_trial_num","870","<div class = centerbox><p class = center-block-text>problem <strong>4</strong> out of 25 problems</p></div>","0","","","","","","","","","","","","","","","","","","","","","","","","","",""
"","","","","","single-stim-button","355","1340516","0.0-4.0-19.0-0.0","60f59dfcc7f2c3ebb0307926","C3","batch3","tol_tohand","3627","","","","","","","","","","","","","","tol_peg_2","3627","3627","0","[[3,0,0],[2,0],[0]]","1","[[3,0,0],[1,0],[2]]","3","0","","","","","","3"
"","","","","","single-stim-button","356","1341357","0.0-4.0-19.0-1.0","60f59dfcc7f2c3ebb0307926","C3","batch3","tol_toboard","840","","","","","","","","","","","","","","tol_peg_1","840","840","0","[[3,1,0],[2,0],[0]]","1","[[3,0,0],[1,0],[2]]","3","0","","","","","","3"
"","","","","","single-stim-button","357","1341999","0.0-4.0-19.1-0.1","60f59dfcc7f2c3ebb0307926","C3","batch3","tol_tohand","640","","","","","","","","","","","","","","tol_peg_2","640","640","0","[[3,1,0],[0,0],[0]]","2","[[3,0,0],[1,0],[2]]","3","0","","","","","","3"
"","","","","","single-stim-button","358","1342857","0.0-4.0-19.1-1.1","60f59dfcc7f2c3ebb0307926","C3","batch3","tol_toboard","857","","","","","","","","","","","","","","tol_peg_3","857","857","0","[[3,1,0],[0,0],[2]]","2","[[3,0,0],[1,0],[2]]","3","0","","","","","","3"
"","","","","","single-stim-button","359","1343640","0.0-4.0-19.2-0.2","60f59dfcc7f2c3ebb0307926","C3","batch3","tol_tohand","781","","","","","","","","","","","","","","tol_peg_1","781","781","0","[[3,0,0],[0,0],[2]]","3","[[3,0,0],[1,0],[2]]","3","0","","","","","","3"
