"success","timeout","failed_images","failed_audio","failed_video","trial_type","trial_index","time_elapsed","internal_node_id","subject_id","study_id","session_id","task","rt","stimulus","response","item","answer","correct","spm_correct","spm_rt","view_history","fiar_detect_rt","fiar_detect_correct","total_correct_fiar_detect","post_trial_gap","choices","mouse_click","stim_duration","block_duration","timing_post_trial","current_position","tol_num_moves_made","tol_target","tol_problem_id","tol_rt","key_press","possible_responses","tol_correct","preplanning","tol_rt_per_trial","tol_min_moves"
"true","false","[]","[]","[]","preload","0","2875","0.0-0.0","60f64cc1d280d811a57f1a94","A3","batch1","","","","","","","","","","","","","","","","","","","","","","","","","","","","","",""
"true","","","","","fullscreen","1","94097","0.0-1.0-0.0","60f64cc1d280d811a57f1a94","A3","batch1","","","","","","","","","","","","","","","","","","","","","","","","","","","","","",""
"true","","","","","fullscreen","2","98444","0.0-2.0-0.0","60f64cc1d280d811a57f1a94","A3","batch1","spm_fullscreen","","","","","","","","","","","","","","","","","","","","","","","","","","","","",""
"","","","","","html-button-response","3","112244","0.0-2.0-1.0","60f64cc1d280d811a57f1a94","A3","batch1","","13798.299999952316","<p class = block-text><b>Instructions</b> <br>This is a widely used intelligence test in research. <br>In this test, a figure with a missing piece will be presented.<br>Below the figure are alternative pieces to complete the figure, only one of which is correct.<br> Different figures might involve different principles for obtaining the missing piece<br>Your job is to select the most logical piece to complete the figure.</p>","0","","","","","","","","","","","","","","","","","","","","","","","","","",""
"","","","","","html-keyboard-response","4","113059","0.0-2.0-2.0-0.0","60f64cc1d280d811a57f1a94","A3","batch1","spm_show_trial_num","null","<p class=block-text>Trial 1 out of 60</p>","null","","","","","","","","","","","","","","","","","","","","","","","","","",""
"","","","","","image-button-response","5","121540","0.0-2.0-2.0-1.0","60f64cc1d280d811a57f1a94","A3","batch1","spm_respsonse","8477.400000095367","img/question_1_1.jpeg","3","mat_01","4","1","1","8477.400000095367","","","","","","","","","","","","","","","","","","","","",""
"","","","","","html-keyboard-response","6","122597","0.0-2.0-2.0-0.1","60f64cc1d280d811a57f1a94","A3","batch1","spm_show_trial_num","null","<p class=block-text>Trial 2 out of 60</p>","null","","","","","","","","","","","","","","","","","","","","","","","","","",""
"","","","","","image-button-response","7","127273","0.0-2.0-2.0-1.1","60f64cc1d280d811a57f1a94","A3","batch1","spm_respsonse","4674.700000047684","img/question_1_2.jpeg","4","mat_02","5","1","1","4674.700000047684","","","","","","","","","","","","","","","","","","","","",""
"","","","","","html-keyboard-response","8","128336","0.0-2.0-2.0-0.2","60f64cc1d280d811a57f1a94","A3","batch1","spm_show_trial_num","null","<p class=block-text>Trial 3 out of 60</p>","null","","","","","","","","","","","","","","","","","","","","","","","","","",""
"","","","","","image-button-response","9","139910","0.0-2.0-2.0-1.2","60f64cc1d280d811a57f1a94","A3","batch1","spm_respsonse","11571.299999952316","img/question_1_3.jpeg","0","mat_03","1","1","1","11571.299999952316","","","","","","","","","","","","","","","","","","","","",""
"","","","","","html-keyboard-response","10","140987","0.0-2.0-2.0-0.3","60f64cc1d280d811a57f1a94","A3","batch1","spm_show_trial_num","null","<p class=block-text>Trial 4 out of 60</p>","null","","","","","","","","","","","","","","","","","","","","","","","","","",""
"","","","","","image-button-response","11","149295","0.0-2.0-2.0-1.3","60f64cc1d280d811a57f1a94","A3","batch1","spm_respsonse","8304.600000143051","img/question_1_4.jpeg","1","mat_04","2","1","1","8304.600000143051","","","","","","","","","","","","","","","","","","","","",""
"","","","","","html-keyboard-response","12","150366","0.0-2.0-2.0-0.4","60f64cc1d280d811a57f1a94","A3","batch1","spm_show_trial_num","null","<p class=block-text>Trial 5 out of 60</p>","null","","","","","","","","","","","","","","","","","","","","","","","","","",""
"","","","","","image-button-response","13","159281","0.0-2.0-2.0-1.4","60f64cc1d280d811a57f1a94","A3","batch1","spm_respsonse","8912","img/question_1_5.jpeg","5","mat_05","6","1","1","8912","","","","","","","","","","","","","","","","","","","","",""
"","","","","","html-keyboard-response","14","160349","0.0-2.0-2.0-0.5","60f64cc1d280d811a57f1a94","A3","batch1","spm_show_trial_num","null","<p class=block-text>Trial 6 out of 60</p>","null","","","","","","","","","","","","","","","","","","","","","","","","","",""
"","","","","","image-button-response","15","168462","0.0-2.0-2.0-1.5","60f64cc1d280d811a57f1a94","A3","batch1","spm_respsonse","8108.200000047684","img/question_1_6.jpeg","2","mat_06","3","1","1","8108.200000047684","","","","","","","","","","","","","","","","","","","","",""
"","","","","","html-keyboard-response","16","169528","0.0-2.0-2.0-0.6","60f64cc1d280d811a57f1a94","A3","batch1","spm_show_trial_num","null","<p class=block-text>Trial 7 out of 60</p>","null","","","","","","","","","","","","","","","","","","","","","","","","","",""
"","","","","","image-button-response","17","176859","0.0-2.0-2.0-1.6","60f64cc1d280d811a57f1a94","A3","batch1","spm_respsonse","7328.399999856949","img/question_1_7.jpeg","5","mat_07","6","1","1","7328.399999856949","","","","","","","","","","","","","","","","","","","","",""
"","","","","","html-keyboard-response","18","177927","0.0-2.0-2.0-0.7","60f64cc1d280d811a57f1a94","A3","batch1","spm_show_trial_num","null","<p class=block-text>Trial 8 out of 60</p>","null","","","","","","","","","","","","","","","","","","","","","","","","","",""
"","","","","","image-button-response","19","191040","0.0-2.0-2.0-1.7","60f64cc1d280d811a57f1a94","A3","batch1","spm_respsonse","13110.099999904633","img/question_1_8.jpeg","1","mat_08","2","1","1","13110.099999904633","","","","","","","","","","","","","","","","","","","","",""
"","","","","","html-keyboard-response","20","192110","0.0-2.0-2.0-0.8","60f64cc1d280d811a57f1a94","A3","batch1","spm_show_trial_num","null","<p class=block-text>Trial 9 out of 60</p>","null","","","","","","","","","","","","","","","","","","","","","","","","","",""
"","","","","","image-button-response","21","202052","0.0-2.0-2.0-1.8","60f64cc1d280d811a57f1a94","A3","batch1","spm_respsonse","9939.799999952316","img/question_1_9.jpeg","0","mat_09","1","1","1","9939.799999952316","","","","","","","","","","","","","","","","","","","","",""
"","","","","","html-keyboard-response","22","203123","0.0-2.0-2.0-0.9","60f64cc1d280d811a57f1a94","A3","batch1","spm_show_trial_num","null","<p class=block-text>Trial 10 out of 60</p>","null","","","","","","","","","","","","","","","","","","","","","","","","","",""
"","","","","","image-button-response","23","212269","0.0-2.0-2.0-1.9","60f64cc1d280d811a57f1a94","A3","batch1","spm_respsonse","9144.799999952316","img/question_1_10.jpeg","2","mat_10","3","1","1","9144.799999952316","","","","","","","","","","","","","","","","","","","","",""
"","","","","","html-keyboard-response","24","213338","0.0-2.0-2.0-0.10","60f64cc1d280d811a57f1a94","A3","batch1","spm_show_trial_num","null","<p class=block-text>Trial 11 out of 60</p>","null","","","","","","","","","","","","","","","","","","","","","","","","","",""
"","","","","","image-button-response","25","229965","0.0-2.0-2.0-1.10","60f64cc1d280d811a57f1a94","A3","batch1","spm_respsonse","16625.199999809265","img/question_1_11.jpeg","3","mat_11","4","1","1","16625.199999809265","","","","","","","","","","","","","","","","","","","","",""
"","","","","","html-keyboard-response","26","231020","0.0-2.0-2.0-0.11","60f64cc1d280d811a57f1a94","A3","batch1","spm_show_trial_num","null","<p class=block-text>Trial 12 out of 60</p>","null","","","","","","","","","","","","","","","","","","","","","","","","","",""
"","","","","","image-button-response","27","271138","0.0-2.0-2.0-1.11","60f64cc1d280d811a57f1a94","A3","batch1","spm_respsonse","40115.90000009537","img/question_1_12.jpeg","4","mat_12","5","1","1","40115.90000009537","","","","","","","","","","","","","","","","","","","","",""
"","","","","","html-keyboard-response","28","272194","0.0-2.0-2.0-0.12","60f64cc1d280d811a57f1a94","A3","batch1","spm_show_trial_num","null","<p class=block-text>Trial 13 out of 60</p>","null","","","","","","","","","","","","","","","","","","","","","","","","","",""
"","","","","","image-button-response","29","278069","0.0-2.0-2.0-1.12","60f64cc1d280d811a57f1a94","A3","batch1","spm_respsonse","5872.399999856949","img/question_2_1.jpeg","1","mat_13","2","1","1","5872.399999856949","","","","","","","","","","","","","","","","","","","","",""
"","","","","","html-keyboard-response","30","279128","0.0-2.0-2.0-0.13","60f64cc1d280d811a57f1a94","A3","batch1","spm_show_trial_num","null","<p class=block-text>Trial 14 out of 60</p>","null","","","","","","","","","","","","","","","","","","","","","","","","","",""
"","","","","","image-button-response","31","285649","0.0-2.0-2.0-1.13","60f64cc1d280d811a57f1a94","A3","batch1","spm_respsonse","6518","img/question_2_2.jpeg","5","mat_14","6","1","1","6518","","","","","","","","","","","","","","","","","","","","",""
"","","","","","html-keyboard-response","32","286716","0.0-2.0-2.0-0.14","60f64cc1d280d811a57f1a94","A3","batch1","spm_show_trial_num","null","<p class=block-text>Trial 15 out of 60</p>","null","","","","","","","","","","","","","","","","","","","","","","","","","",""
"","","","","","image-button-response","33","292407","0.0-2.0-2.0-1.14","60f64cc1d280d811a57f1a94","A3","batch1","spm_respsonse","5688.799999952316","img/question_2_3.jpeg","0","mat_15","1","1","1","5688.799999952316","","","","","","","","","","","","","","","","","","","","",""
"","","","","","html-keyboard-response","34","293470","0.0-2.0-2.0-0.15","60f64cc1d280d811a57f1a94","A3","batch1","spm_show_trial_num","null","<p class=block-text>Trial 16 out of 60</p>","null","","","","","","","","","","","","","","","","","","","","","","","","","",""
"","","","","","image-button-response","35","301562","0.0-2.0-2.0-1.15","60f64cc1d280d811a57f1a94","A3","batch1","spm_respsonse","8090.099999904633","img/question_2_4.jpeg","1","mat_16","2","1","1","8090.099999904633","","","","","","","","","","","","","","","","","","","","",""
"","","","","","html-keyboard-response","36","302634","0.0-2.0-2.0-0.16","60f64cc1d280d811a57f1a94","A3","batch1","spm_show_trial_num","null","<p class=block-text>Trial 17 out of 60</p>","null","","","","","","","","","","","","","","","","","","","","","","","","","",""
"","","","","","image-button-response","37","308394","0.0-2.0-2.0-1.16","60f64cc1d280d811a57f1a94","A3","batch1","spm_respsonse","5755.900000095367","img/question_2_5.jpeg","0","mat_17","1","1","1","5755.900000095367","","","","","","","","","","","","","","","","","","","","",""
"","","","","","html-keyboard-response","38","309454","0.0-2.0-2.0-0.17","60f64cc1d280d811a57f1a94","A3","batch1","spm_show_trial_num","null","<p class=block-text>Trial 18 out of 60</p>","null","","","","","","","","","","","","","","","","","","","","","","","","","",""
"","","","","","image-button-response","39","321366","0.0-2.0-2.0-1.17","60f64cc1d280d811a57f1a94","A3","batch1","spm_respsonse","11910","img/question_2_6.jpeg","2","mat_18","3","1","1","11910","","","","","","","","","","","","","","","","","","","","",""
"","","","","","html-keyboard-response","40","322434","0.0-2.0-2.0-0.18","60f64cc1d280d811a57f1a94","A3","batch1","spm_show_trial_num","null","<p class=block-text>Trial 19 out of 60</p>","null","","","","","","","","","","","","","","","","","","","","","","","","","",""
"","","","","","image-button-response","41","347244","0.0-2.0-2.0-1.18","60f64cc1d280d811a57f1a94","A3","batch1","spm_respsonse","24807.400000095367","img/question_2_7.jpeg","4","mat_19","5","1","1","24807.400000095367","","","","","","","","","","","","","","","","","","","","",""
"","","","","","html-keyboard-response","42","348313","0.0-2.0-2.0-0.19","60f64cc1d280d811a57f1a94","A3","batch1","spm_show_trial_num","null","<p class=block-text>Trial 20 out of 60</p>","null","","","","","","","","","","","","","","","","","","","","","","","","","",""
"","","","","","image-button-response","43","354249","0.0-2.0-2.0-1.19","60f64cc1d280d811a57f1a94","A3","batch1","spm_respsonse","5933.100000143051","img/question_2_8.jpeg","5","mat_20","6","1","1","5933.100000143051","","","","","","","","","","","","","","","","","","","","",""
"","","","","","html-keyboard-response","44","355317","0.0-2.0-2.0-0.20","60f64cc1d280d811a57f1a94","A3","batch1","spm_show_trial_num","null","<p class=block-text>Trial 21 out of 60</p>","null","","","","","","","","","","","","","","","","","","","","","","","","","",""
"","","","","","image-button-response","45","360981","0.0-2.0-2.0-1.20","60f64cc1d280d811a57f1a94","A3","batch1","spm_respsonse","5662.299999952316","img/question_2_9.jpeg","3","mat_21","4","1","1","5662.299999952316","","","","","","","","","","","","","","","","","","","","",""
"","","","","","html-keyboard-response","46","362042","0.0-2.0-2.0-0.21","60f64cc1d280d811a57f1a94","A3","batch1","spm_show_trial_num","null","<p class=block-text>Trial 22 out of 60</p>","null","","","","","","","","","","","","","","","","","","","","","","","","","",""
"","","","","","image-button-response","47","374431","0.0-2.0-2.0-1.21","60f64cc1d280d811a57f1a94","A3","batch1","spm_respsonse","12384.400000095367","img/question_2_10.jpeg","2","mat_22","3","1","1","12384.400000095367","","","","","","","","","","","","","","","","","","","","",""
"","","","","","html-keyboard-response","48","375498","0.0-2.0-2.0-0.22","60f64cc1d280d811a57f1a94","A3","batch1","spm_show_trial_num","null","<p class=block-text>Trial 23 out of 60</p>","null","","","","","","","","","","","","","","","","","","","","","","","","","",""
"","","","","","image-button-response","49","380118","0.0-2.0-2.0-1.22","60f64cc1d280d811a57f1a94","A3","batch1","spm_respsonse","4617.799999952316","img/question_2_11.jpeg","3","mat_23","4","1","1","4617.799999952316","","","","","","","","","","","","","","","","","","","","",""
"","","","","","html-keyboard-response","50","381194","0.0-2.0-2.0-0.23","60f64cc1d280d811a57f1a94","A3","batch1","spm_show_trial_num","null","<p class=block-text>Trial 24 out of 60</p>","null","","","","","","","","","","","","","","","","","","","","","","","","","",""
"","","","","","image-button-response","51","393372","0.0-2.0-2.0-1.23","60f64cc1d280d811a57f1a94","A3","batch1","spm_respsonse","12173.399999856949","img/question_2_12.jpeg","4","mat_24","5","1","1","12173.399999856949","","","","","","","","","","","","","","","","","","","","",""
"","","","","","html-button-response","52","395756","0.0-2.0-3.0","60f64cc1d280d811a57f1a94","A3","batch1","attention_check","2128.7000000476837","<p class = block-text>Attention check: Please choose 1<br></p>","0","","","true","","","","","","","","","","","","","","","","","","","","","","",""
"","","","","","html-keyboard-response","53","396557","0.0-2.0-4.0-0.0","60f64cc1d280d811a57f1a94","A3","batch1","spm_show_trial_num","null","<p class=block-text>Trial 25 out of 60</p>","null","","","","","","","","","","","","","","","","","","","","","","","","","",""
"","","","","","image-button-response","54","405656","0.0-2.0-4.0-1.0","60f64cc1d280d811a57f1a94","A3","batch1","spm_respsonse","9096.300000190735","img/question_3_1.jpeg","7","mat_25","8","1","1","9096.300000190735","","","","","","","","","","","","","","","","","","","","",""
"","","","","","html-keyboard-response","55","406715","0.0-2.0-4.0-0.1","60f64cc1d280d811a57f1a94","A3","batch1","spm_show_trial_num","null","<p class=block-text>Trial 26 out of 60</p>","null","","","","","","","","","","","","","","","","","","","","","","","","","",""
"","","","","","image-button-response","56","417933","0.0-2.0-4.0-1.1","60f64cc1d280d811a57f1a94","A3","batch1","spm_respsonse","11216","img/question_3_2.jpeg","1","mat_26","2","1","1","11216","","","","","","","","","","","","","","","","","","","","",""
"","","","","","html-keyboard-response","57","418986","0.0-2.0-4.0-0.2","60f64cc1d280d811a57f1a94","A3","batch1","spm_show_trial_num","null","<p class=block-text>Trial 27 out of 60</p>","null","","","","","","","","","","","","","","","","","","","","","","","","","",""
"","","","","","image-button-response","58","435495","0.0-2.0-4.0-1.2","60f64cc1d280d811a57f1a94","A3","batch1","spm_respsonse","16504.700000047684","img/question_3_3.jpeg","2","mat_27","3","1","1","16504.700000047684","","","","","","","","","","","","","","","","","","","","",""
"","","","","","html-keyboard-response","59","436559","0.0-2.0-4.0-0.3","60f64cc1d280d811a57f1a94","A3","batch1","spm_show_trial_num","null","<p class=block-text>Trial 28 out of 60</p>","null","","","","","","","","","","","","","","","","","","","","","","","","","",""
"","","","","","image-button-response","60","493166","0.0-2.0-4.0-1.3","60f64cc1d280d811a57f1a94","A3","batch1","spm_respsonse","56602.799999952316","img/question_3_4.jpeg","7","mat_28","8","1","1","56602.799999952316","","","","","","","","","","","","","","","","","","","","",""
"","","","","","html-keyboard-response","61","494234","0.0-2.0-4.0-0.4","60f64cc1d280d811a57f1a94","A3","batch1","spm_show_trial_num","null","<p class=block-text>Trial 29 out of 60</p>","null","","","","","","","","","","","","","","","","","","","","","","","","","",""
"","","","","","image-button-response","62","510795","0.0-2.0-4.0-1.4","60f64cc1d280d811a57f1a94","A3","batch1","spm_respsonse","16555.599999904633","img/question_3_5.jpeg","6","mat_29","7","1","1","16555.599999904633","","","","","","","","","","","","","","","","","","","","",""
"","","","","","html-keyboard-response","63","511855","0.0-2.0-4.0-0.5","60f64cc1d280d811a57f1a94","A3","batch1","spm_show_trial_num","null","<p class=block-text>Trial 30 out of 60</p>","null","","","","","","","","","","","","","","","","","","","","","","","","","",""
"","","","","","image-button-response","64","527690","0.0-2.0-4.0-1.5","60f64cc1d280d811a57f1a94","A3","batch1","spm_respsonse","15830","img/question_3_6.jpeg","3","mat_30","4","1","1","15830","","","","","","","","","","","","","","","","","","","","",""
"","","","","","html-keyboard-response","65","528754","0.0-2.0-4.0-0.6","60f64cc1d280d811a57f1a94","A3","batch1","spm_show_trial_num","null","<p class=block-text>Trial 31 out of 60</p>","null","","","","","","","","","","","","","","","","","","","","","","","","","",""
"","","","","","image-button-response","66","545421","0.0-2.0-4.0-1.6","60f64cc1d280d811a57f1a94","A3","batch1","spm_respsonse","16664.699999809265","img/question_3_7.jpeg","4","mat_31","5","1","1","16664.699999809265","","","","","","","","","","","","","","","","","","","","",""
"","","","","","html-keyboard-response","67","546489","0.0-2.0-4.0-0.7","60f64cc1d280d811a57f1a94","A3","batch1","spm_show_trial_num","null","<p class=block-text>Trial 32 out of 60</p>","null","","","","","","","","","","","","","","","","","","","","","","","","","",""
"","","","","","image-button-response","68","621526","0.0-2.0-4.0-1.7","60f64cc1d280d811a57f1a94","A3","batch1","spm_respsonse","75033.09999990463","img/question_3_8.jpeg","3","mat_32","1","0","0","75033.09999990463","","","","","","","","","","","","","","","","","","","","",""
"","","","","","html-keyboard-response","69","622594","0.0-2.0-4.0-0.8","60f64cc1d280d811a57f1a94","A3","batch1","spm_show_trial_num","null","<p class=block-text>Trial 33 out of 60</p>","null","","","","","","","","","","","","","","","","","","","","","","","","","",""
"","","","","","image-button-response","70","634267","0.0-2.0-4.0-1.8","60f64cc1d280d811a57f1a94","A3","batch1","spm_respsonse","11670.099999904633","img/question_3_9.jpeg","6","mat_33","7","1","1","11670.099999904633","","","","","","","","","","","","","","","","","","","","",""
"","","","","","html-keyboard-response","71","635332","0.0-2.0-4.0-0.9","60f64cc1d280d811a57f1a94","A3","batch1","spm_show_trial_num","null","<p class=block-text>Trial 34 out of 60</p>","null","","","","","","","","","","","","","","","","","","","","","","","","","",""
"","","","","","image-button-response","72","666390","0.0-2.0-4.0-1.9","60f64cc1d280d811a57f1a94","A3","batch1","spm_respsonse","31053","img/question_3_10.jpeg","5","mat_34","6","1","1","31053","","","","","","","","","","","","","","","","","","","","",""
"","","","","","html-keyboard-response","73","667446","0.0-2.0-4.0-0.10","60f64cc1d280d811a57f1a94","A3","batch1","spm_show_trial_num","null","<p class=block-text>Trial 35 out of 60</p>","null","","","","","","","","","","","","","","","","","","","","","","","","","",""
"","","","","","image-button-response","74","714731","0.0-2.0-4.0-1.10","60f64cc1d280d811a57f1a94","A3","batch1","spm_respsonse","47283.200000047684","img/question_3_11.jpeg","4","mat_35","1","0","0","47283.200000047684","","","","","","","","","","","","","","","","","","","","",""
"","","","","","html-keyboard-response","75","715800","0.0-2.0-4.0-0.11","60f64cc1d280d811a57f1a94","A3","batch1","spm_show_trial_num","null","<p class=block-text>Trial 36 out of 60</p>","null","","","","","","","","","","","","","","","","","","","","","","","","","",""
"","","","","","image-button-response","76","790831","0.0-2.0-4.0-1.11","60f64cc1d280d811a57f1a94","A3","batch1","spm_respsonse","75026.20000004768","img/question_3_12.jpeg","7","mat_36","2","0","0","75026.20000004768","","","","","","","","","","","","","","","","","","","","",""
"","","","","","html-keyboard-response","77","791894","0.0-2.0-4.0-0.12","60f64cc1d280d811a57f1a94","A3","batch1","spm_show_trial_num","null","<p class=block-text>Trial 37 out of 60</p>","null","","","","","","","","","","","","","","","","","","","","","","","","","",""
"","","","","","image-button-response","78","795961","0.0-2.0-4.0-1.12","60f64cc1d280d811a57f1a94","A3","batch1","spm_respsonse","4063.0999999046326","img/question_4_1.jpeg","2","mat_37","3","1","1","4063.0999999046326","","","","","","","","","","","","","","","","","","","","",""
"","","","","","html-keyboard-response","79","797018","0.0-2.0-4.0-0.13","60f64cc1d280d811a57f1a94","A3","batch1","spm_show_trial_num","null","<p class=block-text>Trial 38 out of 60</p>","null","","","","","","","","","","","","","","","","","","","","","","","","","",""
"","","","","","image-button-response","80","804240","0.0-2.0-4.0-1.13","60f64cc1d280d811a57f1a94","A3","batch1","spm_respsonse","7218.200000047684","img/question_4_2.jpeg","3","mat_38","4","1","1","7218.200000047684","","","","","","","","","","","","","","","","","","","","",""
"","","","","","html-keyboard-response","81","805303","0.0-2.0-4.0-0.14","60f64cc1d280d811a57f1a94","A3","batch1","spm_show_trial_num","null","<p class=block-text>Trial 39 out of 60</p>","null","","","","","","","","","","","","","","","","","","","","","","","","","",""
"","","","","","image-button-response","82","827554","0.0-2.0-4.0-1.14","60f64cc1d280d811a57f1a94","A3","batch1","spm_respsonse","22245.799999952316","img/question_4_3.jpeg","2","mat_39","3","1","1","22245.799999952316","","","","","","","","","","","","","","","","","","","","",""
"","","","","","html-keyboard-response","83","828632","0.0-2.0-4.0-0.15","60f64cc1d280d811a57f1a94","A3","batch1","spm_show_trial_num","null","<p class=block-text>Trial 40 out of 60</p>","null","","","","","","","","","","","","","","","","","","","","","","","","","",""
"","","","","","image-button-response","84","839897","0.0-2.0-4.0-1.15","60f64cc1d280d811a57f1a94","A3","batch1","spm_respsonse","11260","img/question_4_4.jpeg","6","mat_40","7","1","1","11260","","","","","","","","","","","","","","","","","","","","",""
"","","","","","html-keyboard-response","85","840978","0.0-2.0-4.0-0.16","60f64cc1d280d811a57f1a94","A3","batch1","spm_show_trial_num","null","<p class=block-text>Trial 41 out of 60</p>","null","","","","","","","","","","","","","","","","","","","","","","","","","",""
"","","","","","image-button-response","86","852030","0.0-2.0-4.0-1.16","60f64cc1d280d811a57f1a94","A3","batch1","spm_respsonse","11048.600000143051","img/question_4_5.jpeg","7","mat_41","8","1","1","11048.600000143051","","","","","","","","","","","","","","","","","","","","",""
"","","","","","html-keyboard-response","87","853096","0.0-2.0-4.0-0.17","60f64cc1d280d811a57f1a94","A3","batch1","spm_show_trial_num","null","<p class=block-text>Trial 42 out of 60</p>","null","","","","","","","","","","","","","","","","","","","","","","","","","",""
"","","","","","image-button-response","88","875909","0.0-2.0-4.0-1.17","60f64cc1d280d811a57f1a94","A3","batch1","spm_respsonse","22808.200000047684","img/question_4_6.jpeg","5","mat_42","6","1","1","22808.200000047684","","","","","","","","","","","","","","","","","","","","",""
"","","","","","html-keyboard-response","89","876974","0.0-2.0-4.0-0.18","60f64cc1d280d811a57f1a94","A3","batch1","spm_show_trial_num","null","<p class=block-text>Trial 43 out of 60</p>","null","","","","","","","","","","","","","","","","","","","","","","","","","",""
"","","","","","image-button-response","90","900507","0.0-2.0-4.0-1.18","60f64cc1d280d811a57f1a94","A3","batch1","spm_respsonse","23531.099999904633","img/question_4_7.jpeg","4","mat_43","5","1","1","23531.099999904633","","","","","","","","","","","","","","","","","","","","",""
"","","","","","html-keyboard-response","91","901567","0.0-2.0-4.0-0.19","60f64cc1d280d811a57f1a94","A3","batch1","spm_show_trial_num","null","<p class=block-text>Trial 44 out of 60</p>","null","","","","","","","","","","","","","","","","","","","","","","","","","",""
"","","","","","image-button-response","92","948221","0.0-2.0-4.0-1.19","60f64cc1d280d811a57f1a94","A3","batch1","spm_respsonse","46651.89999985695","img/question_4_8.jpeg","3","mat_44","4","1","1","46651.89999985695","","","","","","","","","","","","","","","","","","","","",""
"","","","","","html-keyboard-response","93","949285","0.0-2.0-4.0-0.20","60f64cc1d280d811a57f1a94","A3","batch1","spm_show_trial_num","null","<p class=block-text>Trial 45 out of 60</p>","null","","","","","","","","","","","","","","","","","","","","","","","","","",""
"","","","","","image-button-response","94","981369","0.0-2.0-4.0-1.20","60f64cc1d280d811a57f1a94","A3","batch1","spm_respsonse","32082.099999904633","img/question_4_9.jpeg","0","mat_45","1","1","1","32082.099999904633","","","","","","","","","","","","","","","","","","","","",""
"","","","","","html-keyboard-response","95","982436","0.0-2.0-4.0-0.21","60f64cc1d280d811a57f1a94","A3","batch1","spm_show_trial_num","null","<p class=block-text>Trial 46 out of 60</p>","null","","","","","","","","","","","","","","","","","","","","","","","","","",""
"","","","","","image-button-response","96","1031853","0.0-2.0-4.0-1.21","60f64cc1d280d811a57f1a94","A3","batch1","spm_respsonse","49410.200000047684","img/question_4_10.jpeg","1","mat_46","2","1","1","49410.200000047684","","","","","","","","","","","","","","","","","","","","",""
"","","","","","html-keyboard-response","97","1032923","0.0-2.0-4.0-0.22","60f64cc1d280d811a57f1a94","A3","batch1","spm_show_trial_num","null","<p class=block-text>Trial 47 out of 60</p>","null","","","","","","","","","","","","","","","","","","","","","","","","","",""
"","","","","","image-button-response","98","1225608","0.0-2.0-4.0-1.22","60f64cc1d280d811a57f1a94","A3","batch1","spm_respsonse","192682.30000019073","img/question_4_11.jpeg","5","mat_47","5","0","0","192682.30000019073","","","","","","","","","","","","","","","","","","","","",""
"","","","","","html-keyboard-response","99","1226663","0.0-2.0-4.0-0.23","60f64cc1d280d811a57f1a94","A3","batch1","spm_show_trial_num","null","<p class=block-text>Trial 48 out of 60</p>","null","","","","","","","","","","","","","","","","","","","","","","","","","",""
"","","","","","image-button-response","100","1283113","0.0-2.0-4.0-1.23","60f64cc1d280d811a57f1a94","A3","batch1","spm_respsonse","56445","img/question_4_12.jpeg","5","mat_48","6","1","1","56445","","","","","","","","","","","","","","","","","","","","",""
"","","","","","html-keyboard-response","101","1284174","0.0-2.0-4.0-0.24","60f64cc1d280d811a57f1a94","A3","batch1","spm_show_trial_num","null","<p class=block-text>Trial 49 out of 60</p>","null","","","","","","","","","","","","","","","","","","","","","","","","","",""
"","","","","","image-button-response","102","1313486","0.0-2.0-4.0-1.24","60f64cc1d280d811a57f1a94","A3","batch1","spm_respsonse","29309.799999952316","img/question_5_1.jpeg","6","mat_49","7","1","1","29309.799999952316","","","","","","","","","","","","","","","","","","","","",""
"","","","","","html-keyboard-response","103","1314549","0.0-2.0-4.0-0.25","60f64cc1d280d811a57f1a94","A3","batch1","spm_show_trial_num","null","<p class=block-text>Trial 50 out of 60</p>","null","","","","","","","","","","","","","","","","","","","","","","","","","",""
"","","","","","image-button-response","104","1341676","0.0-2.0-4.0-1.25","60f64cc1d280d811a57f1a94","A3","batch1","spm_respsonse","27121.89999985695","img/question_5_2.jpeg","5","mat_50","6","1","1","27121.89999985695","","","","","","","","","","","","","","","","","","","","",""
"","","","","","html-keyboard-response","105","1342734","0.0-2.0-4.0-0.26","60f64cc1d280d811a57f1a94","A3","batch1","spm_show_trial_num","null","<p class=block-text>Trial 51 out of 60</p>","null","","","","","","","","","","","","","","","","","","","","","","","","","",""
"","","","","","image-button-response","106","1364308","0.0-2.0-4.0-1.26","60f64cc1d280d811a57f1a94","A3","batch1","spm_respsonse","21570.900000095367","img/question_5_3.jpeg","7","mat_51","8","1","1","21570.900000095367","","","","","","","","","","","","","","","","","","","","",""
"","","","","","html-keyboard-response","107","1365369","0.0-2.0-4.0-0.27","60f64cc1d280d811a57f1a94","A3","batch1","spm_show_trial_num","null","<p class=block-text>Trial 52 out of 60</p>","null","","","","","","","","","","","","","","","","","","","","","","","","","",""
"","","","","","image-button-response","108","1393134","0.0-2.0-4.0-1.27","60f64cc1d280d811a57f1a94","A3","batch1","spm_respsonse","27759.60000014305","img/question_5_4.jpeg","1","mat_52","2","1","1","27759.60000014305","","","","","","","","","","","","","","","","","","","","",""
"","","","","","html-keyboard-response","109","1394190","0.0-2.0-4.0-0.28","60f64cc1d280d811a57f1a94","A3","batch1","spm_show_trial_num","null","<p class=block-text>Trial 53 out of 60</p>","null","","","","","","","","","","","","","","","","","","","","","","","","","",""
"","","","","","image-button-response","110","1406178","0.0-2.0-4.0-1.28","60f64cc1d280d811a57f1a94","A3","batch1","spm_respsonse","11984.399999856949","img/question_5_5.jpeg","0","mat_53","1","1","1","11984.399999856949","","","","","","","","","","","","","","","","","","","","",""
"","","","","","html-keyboard-response","111","1407242","0.0-2.0-4.0-0.29","60f64cc1d280d811a57f1a94","A3","batch1","spm_show_trial_num","null","<p class=block-text>Trial 54 out of 60</p>","null","","","","","","","","","","","","","","","","","","","","","","","","","",""
"","","","","","image-button-response","112","1437215","0.0-2.0-4.0-1.29","60f64cc1d280d811a57f1a94","A3","batch1","spm_respsonse","29970.400000095367","img/question_5_6.jpeg","4","mat_54","5","1","1","29970.400000095367","","","","","","","","","","","","","","","","","","","","",""
"","","","","","html-keyboard-response","113","1438267","0.0-2.0-4.0-0.30","60f64cc1d280d811a57f1a94","A3","batch1","spm_show_trial_num","null","<p class=block-text>Trial 55 out of 60</p>","null","","","","","","","","","","","","","","","","","","","","","","","","","",""
"","","","","","image-button-response","114","1497274","0.0-2.0-4.0-1.30","60f64cc1d280d811a57f1a94","A3","batch1","spm_respsonse","59004.799999952316","img/question_5_7.jpeg","0","mat_55","1","1","1","59004.799999952316","","","","","","","","","","","","","","","","","","","","",""
"","","","","","html-keyboard-response","115","1498333","0.0-2.0-4.0-0.31","60f64cc1d280d811a57f1a94","A3","batch1","spm_show_trial_num","null","<p class=block-text>Trial 56 out of 60</p>","null","","","","","","","","","","","","","","","","","","","","","","","","","",""
"","","","","","image-button-response","116","1516803","0.0-2.0-4.0-1.31","60f64cc1d280d811a57f1a94","A3","batch1","spm_respsonse","18465.10000014305","img/question_5_8.jpeg","5","mat_56","6","1","1","18465.10000014305","","","","","","","","","","","","","","","","","","","","",""
"","","","","","html-keyboard-response","117","1517869","0.0-2.0-4.0-0.32","60f64cc1d280d811a57f1a94","A3","batch1","spm_show_trial_num","null","<p class=block-text>Trial 57 out of 60</p>","null","","","","","","","","","","","","","","","","","","","","","","","","","",""
"","","","","","image-button-response","118","1630117","0.0-2.0-4.0-1.32","60f64cc1d280d811a57f1a94","A3","batch1","spm_respsonse","112243.59999990463","img/question_5_9.jpeg","3","mat_57","3","0","0","112243.59999990463","","","","","","","","","","","","","","","","","","","","",""
"","","","","","html-keyboard-response","119","1631187","0.0-2.0-4.0-0.33","60f64cc1d280d811a57f1a94","A3","batch1","spm_show_trial_num","null","<p class=block-text>Trial 58 out of 60</p>","null","","","","","","","","","","","","","","","","","","","","","","","","","",""
"","","","","","image-button-response","120","1712205","0.0-2.0-4.0-1.33","60f64cc1d280d811a57f1a94","A3","batch1","spm_respsonse","81012.19999980927","img/question_5_10.jpeg","1","mat_58","2","1","1","81012.19999980927","","","","","","","","","","","","","","","","","","","","",""
"","","","","","html-keyboard-response","121","1713278","0.0-2.0-4.0-0.34","60f64cc1d280d811a57f1a94","A3","batch1","spm_show_trial_num","null","<p class=block-text>Trial 59 out of 60</p>","null","","","","","","","","","","","","","","","","","","","","","","","","","",""
"","","","","","image-button-response","122","1843360","0.0-2.0-4.0-1.34","60f64cc1d280d811a57f1a94","A3","batch1","spm_respsonse","130079.70000004768","img/question_5_11.jpeg","1","mat_59","4","0","0","130079.70000004768","","","","","","","","","","","","","","","","","","","","",""
"","","","","","html-keyboard-response","123","1844424","0.0-2.0-4.0-0.35","60f64cc1d280d811a57f1a94","A3","batch1","spm_show_trial_num","null","<p class=block-text>Trial 60 out of 60</p>","null","","","","","","","","","","","","","","","","","","","","","","","","","",""
"","","","","","image-button-response","124","1881029","0.0-2.0-4.0-1.35","60f64cc1d280d811a57f1a94","A3","batch1","spm_respsonse","36599.90000009537","img/question_5_12.jpeg","1","mat_60","5","0","0","36599.90000009537","","","","","","","","","","","","","","","","","","","","",""
"","","","","","html-button-response","125","1882900","0.0-2.0-5.0","60f64cc1d280d811a57f1a94","A3","batch1","spm_goodbye","1606.5","<p class= block-text>This concludes the Standard Progressive Matrix game. Thank you for your responses!<br> When you are ready, click the button continue</p>","0","","","","","","","","","","","","","","","","","","","","","","","","","",""
"true","","","","","fullscreen","126","1917363","0.0-3.0-0.0","60f64cc1d280d811a57f1a94","A3","batch1","","","","","","","","","","","","","","","","","","","","","","","","","","","","","",""
"","","","","","instructions","127","1961163","0.0-3.0-1.0-0.0","60f64cc1d280d811a57f1a94","A3","batch1","","43797.799999952316","","","","","","","","[{""page_index"":0,""viewing_time"":41445.700000047684},{""page_index"":1,""viewing_time"":2351.5999999046326}]","","","","","","","","","","","","","","","","","","","",""
"","","","","","html-button-response","128","1962475","0.0-3.0-1.0-1.0-0.0","60f64cc1d280d811a57f1a94","A3","batch1","pattern_enter_quiz","1310.6999998092651","<p class=block-text> Let's answer a few questions <br>","0","","","","","","","","","","","","","","","","","","","","","","","","","",""
"","","","","","html-button-response","129","1964560","0.0-3.0-1.0-1.0-1.0","60f64cc1d280d811a57f1a94","A3","batch1","pattern_quiz","2082.9000000953674","<p class = block-text>True or False: You will have as much time as you want to make each choice. <br></p>","1","","","true","","","","","","","","","","","","","","","","","","","","","","",""
"","","","","","html-button-response","130","1965595","0.0-3.0-1.0-1.0-2.0","60f64cc1d280d811a57f1a94","A3","batch1","pattern_quiz_feedback","1032.5","<p class = block-text>Correct! You should make your choice <strong> as fast as you can</strong>.</p>","0","","","","","","","","","","","","","","","","","","","","","","","","","",""
"","","","","","html-button-response","131","1968112","0.0-3.0-1.0-1.0-3.0","60f64cc1d280d811a57f1a94","A3","batch1","pattern_quiz","2516.2000000476837","<p class = block-text>True or False: You will look for 4 pieces in black or white color connected in a row either horizontally, vertically or diagonally. <br></p>","0","","","true","","","","","","","","","","","","","","","","","","","","","","",""
"","","","","","html-button-response","132","1969128","0.0-3.0-1.0-1.0-4.0","60f64cc1d280d811a57f1a94","A3","batch1","pattern_quiz_feedback","1014.2999999523163","<p class = block-text>Correct! </p>","0","","","","","","","","","","","","","","","","","","","","","","","","","",""
"","","","","","html-button-response","133","1970242","0.0-3.0-2.0","60f64cc1d280d811a57f1a94","A3","batch1","pattern_enter_practice","1112.3999998569489","<p class=block-text> Now that you've understood the game, let's do a few practice trials before we start!<br> <br>","0","","","","","","","","","","","","","","","","","","","","","","","","","",""
"","","","","","image-keyboard-response","134","1973585","0.0-3.0-3.0-0.0","60f64cc1d280d811a57f1a94","A3","batch1","pattern_practice","3340.2000000476837","stim/prac_no_18_1.png","j","","j","true","","","","","","","","","","","","","","","","","","","","","","",""
"","","","","","html-keyboard-response","135","1974601","0.0-3.0-3.0-1.0","60f64cc1d280d811a57f1a94","A3","batch1","pattern_feedback","null","<p style=""font-size:30px;color:green;"">Correct!</p>","null","","","","","","","","","","","","","","","","","","","","","","","","","",""
"","","","","","image-keyboard-response","136","1976202","0.0-3.0-3.0-0.1","60f64cc1d280d811a57f1a94","A3","batch1","pattern_practice","1599.5","stim/prac_yes_20_dia_b1.png","f","","f","true","","","","","","","","","","","","","","","","","","","","","","",""
"","","","","","html-keyboard-response","137","1977219","0.0-3.0-3.0-1.1","60f64cc1d280d811a57f1a94","A3","batch1","pattern_feedback","null","<p style=""font-size:30px;color:green;"">Correct!</p>","null","","","","","","","","","","","","","","","","","","","","","","","","","",""
"","","","","","image-keyboard-response","138","1978546","0.0-3.0-3.0-0.2","60f64cc1d280d811a57f1a94","A3","batch1","pattern_practice","1325.4000000953674","stim/prac_yes_18_hor_w1.png","f","","f","true","","","","","","","","","","","","","","","","","","","","","","",""
"","","","","","html-keyboard-response","139","1979577","0.0-3.0-3.0-1.2","60f64cc1d280d811a57f1a94","A3","batch1","pattern_feedback","null","<p style=""font-size:30px;color:green;"">Correct!</p>","null","","","","","","","","","","","","","","","","","","","","","","","","","",""
"","","","","","image-keyboard-response","140","1982880","0.0-3.0-3.0-0.3","60f64cc1d280d811a57f1a94","A3","batch1","pattern_practice","3299.7999999523163","stim/prac_no_16_1.png","j","","j","true","","","","","","","","","","","","","","","","","","","","","","",""
"","","","","","html-keyboard-response","141","1983902","0.0-3.0-3.0-1.3","60f64cc1d280d811a57f1a94","A3","batch1","pattern_feedback","null","<p style=""font-size:30px;color:green;"">Correct!</p>","null","","","","","","","","","","","","","","","","","","","","","","","","","",""
"","","","","","image-keyboard-response","142","1985332","0.0-3.0-3.0-0.4","60f64cc1d280d811a57f1a94","A3","batch1","pattern_practice","1426","stim/prac_yes_16_ver_w1.png","f","","f","true","","","","","","","","","","","","","","","","","","","","","","",""
"","","","","","html-keyboard-response","143","1986358","0.0-3.0-3.0-1.4","60f64cc1d280d811a57f1a94","A3","batch1","pattern_feedback","null","<p style=""font-size:30px;color:green;"">Correct!</p>","null","","","","","","","","","","","","","","","","","","","","","","","","","",""
"","","","","","html-button-response","144","1988088","0.0-3.0-4.0","60f64cc1d280d811a57f1a94","A3","batch1","pattern_enter_official_trials","1725.6000001430511","<p class=block-text> Good job! You are done with practice trials!<br>
        You responded correctly on 100% of the trials.<br>
        Press the button below to start official trials. Now you won't see any feedback about your response</p>","0","","","","","","","","","","","","","","","","","","","","","","","","","",""
"","","","","","html-keyboard-response","145","1988893","0.0-3.0-5.0-0.0","60f64cc1d280d811a57f1a94","A3","batch1","pattern_show_trial_num","null","<p class=block-text>Trial 1 out of 78</p>","null","","","","","","","","","","","","","","","","","","","","","","","","","",""
"","","","","","image-keyboard-response","146","1993575","0.0-3.0-5.0-1.0","60f64cc1d280d811a57f1a94","A3","batch1","pattern_response","4677.900000095367","stim/no_36_1_b.png","j","pattern_17","j","true","","","","4677.900000095367","true","1","","","","","","","","","","","","","","","","",""
"","","","","","html-keyboard-response","147","1994888","0.0-3.0-5.0-0.1","60f64cc1d280d811a57f1a94","A3","batch1","pattern_show_trial_num","null","<p class=block-text>Trial 2 out of 78</p>","null","","","","","","","","","","","","","","","","","","","","","","","","","",""
"","","","","","image-keyboard-response","148","1998894","0.0-3.0-5.0-1.1","60f64cc1d280d811a57f1a94","A3","batch1","pattern_response","4003.9000000953674","stim/no_18_1_b.png","j","pattern_05","j","true","","","","4003.9000000953674","true","2","","","","","","","","","","","","","","","","",""
"","","","","","html-keyboard-response","149","2000215","0.0-3.0-5.0-0.2","60f64cc1d280d811a57f1a94","A3","batch1","pattern_show_trial_num","null","<p class=block-text>Trial 3 out of 78</p>","null","","","","","","","","","","","","","","","","","","","","","","","","","",""
"","","","","","image-keyboard-response","150","2002985","0.0-3.0-5.0-1.2","60f64cc1d280d811a57f1a94","A3","batch1","pattern_response","2768.300000190735","stim/no_15_1_w.png","j","pattern_03","j","true","","","","2768.300000190735","true","3","","","","","","","","","","","","","","","","",""
"","","","","","html-keyboard-response","151","2004302","0.0-3.0-5.0-0.3","60f64cc1d280d811a57f1a94","A3","batch1","pattern_show_trial_num","null","<p class=block-text>Trial 4 out of 78</p>","null","","","","","","","","","","","","","","","","","","","","","","","","","",""
"","","","","","image-keyboard-response","152","2005253","0.0-3.0-5.0-1.3","60f64cc1d280d811a57f1a94","A3","batch1","pattern_response","946.7999999523163","stim/yes_23_ver_b1.png","f","pattern_48","f","true","","","","946.7999999523163","true","4","","","","","","","","","","","","","","","","",""
"","","","","","html-keyboard-response","153","2006578","0.0-3.0-5.0-0.4","60f64cc1d280d811a57f1a94","A3","batch1","pattern_show_trial_num","null","<p class=block-text>Trial 5 out of 78</p>","null","","","","","","","","","","","","","","","","","","","","","","","","","",""
"","","","","","image-keyboard-response","154","2010280","0.0-3.0-5.0-1.4","60f64cc1d280d811a57f1a94","A3","batch1","pattern_response","3700.4000000953674","stim/no_33_1_b.png","j","pattern_15","j","true","","","","3700.4000000953674","true","5","","","","","","","","","","","","","","","","",""
"","","","","","html-keyboard-response","155","2011601","0.0-3.0-5.0-0.5","60f64cc1d280d811a57f1a94","A3","batch1","pattern_show_trial_num","null","<p class=block-text>Trial 6 out of 78</p>","null","","","","","","","","","","","","","","","","","","","","","","","","","",""
"","","","","","image-keyboard-response","156","2012534","0.0-3.0-5.0-1.5","60f64cc1d280d811a57f1a94","A3","batch1","pattern_response","929.3000001907349","stim/yes_39_hor_w1_w.png","f","pattern_62","f","true","","","","929.3000001907349","true","6","","","","","","","","","","","","","","","","",""
"","","","","","html-keyboard-response","157","2013841","0.0-3.0-5.0-0.6","60f64cc1d280d811a57f1a94","A3","batch1","pattern_show_trial_num","null","<p class=block-text>Trial 7 out of 78</p>","null","","","","","","","","","","","","","","","","","","","","","","","","","",""
"","","","","","image-keyboard-response","158","2016401","0.0-3.0-5.0-1.6","60f64cc1d280d811a57f1a94","A3","batch1","pattern_response","2566.7000000476837","stim/no_25_1_b.png","j","pattern_09","j","true","","","","2566.7000000476837","true","7","","","","","","","","","","","","","","","","",""
"","","","","","html-keyboard-response","159","2017711","0.0-3.0-5.0-0.7","60f64cc1d280d811a57f1a94","A3","batch1","pattern_show_trial_num","null","<p class=block-text>Trial 8 out of 78</p>","null","","","","","","","","","","","","","","","","","","","","","","","","","",""
"","","","","","image-keyboard-response","160","2018434","0.0-3.0-5.0-1.7","60f64cc1d280d811a57f1a94","A3","batch1","pattern_response","719.2999999523163","stim/yes_17_ver_b1_b.png","f","pattern_46","f","true","","","","719.2999999523163","true","8","","","","","","","","","","","","","","","","",""
"","","","","","html-keyboard-response","161","2019764","0.0-3.0-5.0-0.8","60f64cc1d280d811a57f1a94","A3","batch1","pattern_show_trial_num","null","<p class=block-text>Trial 9 out of 78</p>","null","","","","","","","","","","","","","","","","","","","","","","","","","",""
"","","","","","image-keyboard-response","162","2029500","0.0-3.0-5.0-1.8","60f64cc1d280d811a57f1a94","A3","batch1","pattern_response","9732.899999856949","stim/yes_58_dia_w1_w.png","j","pattern_76","f","false","","","","9732.899999856949","false","8","","","","","","","","","","","","","","","","",""
"","","","","","html-keyboard-response","163","2030823","0.0-3.0-5.0-0.9","60f64cc1d280d811a57f1a94","A3","batch1","pattern_show_trial_num","null","<p class=block-text>Trial 10 out of 78</p>","null","","","","","","","","","","","","","","","","","","","","","","","","","",""
"","","","","","image-keyboard-response","164","2032648","0.0-3.0-5.0-1.9","60f64cc1d280d811a57f1a94","A3","batch1","pattern_response","1821.2999999523163","stim/yes_26_dia_w2_w.png","f","pattern_50","f","true","","","","1821.2999999523163","true","9","","","","","","","","","","","","","","","","",""
"","","","","","html-keyboard-response","165","2033966","0.0-3.0-5.0-0.10","60f64cc1d280d811a57f1a94","A3","batch1","pattern_show_trial_num","null","<p class=block-text>Trial 11 out of 78</p>","null","","","","","","","","","","","","","","","","","","","","","","","","","",""
"","","","","","image-keyboard-response","166","2035044","0.0-3.0-5.0-1.10","60f64cc1d280d811a57f1a94","A3","batch1","pattern_response","1076.1999998092651","stim/yes_15_dia_b1u_b.png","f","pattern_44","f","true","","","","1076.1999998092651","true","10","","","","","","","","","","","","","","","","",""
"","","","","","html-keyboard-response","167","2036370","0.0-3.0-5.0-0.11","60f64cc1d280d811a57f1a94","A3","batch1","pattern_show_trial_num","null","<p class=block-text>Trial 12 out of 78</p>","null","","","","","","","","","","","","","","","","","","","","","","","","","",""
"","","","","","image-keyboard-response","168","2041984","0.0-3.0-5.0-1.11","60f64cc1d280d811a57f1a94","A3","batch1","pattern_response","5610.299999952316","stim/no_37_2_w.png","j","pattern_19","j","true","","","","5610.299999952316","true","11","","","","","","","","","","","","","","","","",""
"","","","","","html-keyboard-response","169","2043305","0.0-3.0-5.0-0.12","60f64cc1d280d811a57f1a94","A3","batch1","pattern_show_trial_num","null","<p class=block-text>Trial 13 out of 78</p>","null","","","","","","","","","","","","","","","","","","","","","","","","","",""
"","","","","","image-keyboard-response","170","2046428","0.0-3.0-5.0-1.12","60f64cc1d280d811a57f1a94","A3","batch1","pattern_response","3119.2999999523163","stim/no_28_2.png","j","pattern_11","j","true","","","","3119.2999999523163","true","12","","","","","","","","","","","","","","","","",""
"","","","","","html-keyboard-response","171","2047743","0.0-3.0-5.0-0.13","60f64cc1d280d811a57f1a94","A3","batch1","pattern_show_trial_num","null","<p class=block-text>Trial 14 out of 78</p>","null","","","","","","","","","","","","","","","","","","","","","","","","","",""
"","","","","","image-keyboard-response","172","2048839","0.0-3.0-5.0-1.13","60f64cc1d280d811a57f1a94","A3","batch1","pattern_response","1091.4000000953674","stim/yes_37_hor_w1_w.png","f","pattern_60","f","true","","","","1091.4000000953674","true","13","","","","","","","","","","","","","","","","",""
"","","","","","html-keyboard-response","173","2050159","0.0-3.0-5.0-0.14","60f64cc1d280d811a57f1a94","A3","batch1","pattern_show_trial_num","null","<p class=block-text>Trial 15 out of 78</p>","null","","","","","","","","","","","","","","","","","","","","","","","","","",""
"","","","","","image-keyboard-response","174","2058512","0.0-3.0-5.0-1.14","60f64cc1d280d811a57f1a94","A3","batch1","pattern_response","8350.899999856949","stim/no_53_1_b.png","j","pattern_33","j","true","","","","8350.899999856949","true","14","","","","","","","","","","","","","","","","",""
"","","","","","html-keyboard-response","175","2059837","0.0-3.0-5.0-0.15","60f64cc1d280d811a57f1a94","A3","batch1","pattern_show_trial_num","null","<p class=block-text>Trial 16 out of 78</p>","null","","","","","","","","","","","","","","","","","","","","","","","","","",""
"","","","","","image-keyboard-response","176","2060703","0.0-3.0-5.0-1.15","60f64cc1d280d811a57f1a94","A3","batch1","pattern_response","862.0999999046326","stim/yes_46_ver_b1_b.png","f","pattern_68","f","true","","","","862.0999999046326","true","15","","","","","","","","","","","","","","","","",""
"","","","","","html-keyboard-response","177","2062012","0.0-3.0-5.0-0.16","60f64cc1d280d811a57f1a94","A3","batch1","pattern_show_trial_num","null","<p class=block-text>Trial 17 out of 78</p>","null","","","","","","","","","","","","","","","","","","","","","","","","","",""
"","","","","","image-keyboard-response","178","2064249","0.0-3.0-5.0-1.16","60f64cc1d280d811a57f1a94","A3","batch1","pattern_response","2234.4000000953674","stim/no_30_1_b.png","j","pattern_13","j","true","","","","2234.4000000953674","true","16","","","","","","","","","","","","","","","","",""
"","","","","","html-keyboard-response","179","2065577","0.0-3.0-5.0-0.17","60f64cc1d280d811a57f1a94","A3","batch1","pattern_show_trial_num","null","<p class=block-text>Trial 18 out of 78</p>","null","","","","","","","","","","","","","","","","","","","","","","","","","",""
"","","","","","image-keyboard-response","180","2066717","0.0-3.0-5.0-1.17","60f64cc1d280d811a57f1a94","A3","batch1","pattern_response","1136.5","stim/yes_30_ver_b1_b.png","f","pattern_54","f","true","","","","1136.5","true","17","","","","","","","","","","","","","","","","",""
"","","","","","html-keyboard-response","181","2068038","0.0-3.0-5.0-0.18","60f64cc1d280d811a57f1a94","A3","batch1","pattern_show_trial_num","null","<p class=block-text>Trial 19 out of 78</p>","null","","","","","","","","","","","","","","","","","","","","","","","","","",""
"","","","","","image-keyboard-response","182","2070548","0.0-3.0-5.0-1.18","60f64cc1d280d811a57f1a94","A3","batch1","pattern_response","2508.0999999046326","stim/no_45_1_w.png","j","pattern_25","j","true","","","","2508.0999999046326","true","18","","","","","","","","","","","","","","","","",""
"","","","","","html-keyboard-response","183","2071853","0.0-3.0-5.0-0.19","60f64cc1d280d811a57f1a94","A3","batch1","pattern_show_trial_num","null","<p class=block-text>Trial 20 out of 78</p>","null","","","","","","","","","","","","","","","","","","","","","","","","","",""
"","","","","","image-keyboard-response","184","2072925","0.0-3.0-5.0-1.19","60f64cc1d280d811a57f1a94","A3","batch1","pattern_response","1070","stim/no_12_1.png","j","pattern_01","j","true","","","","1070","true","19","","","","","","","","","","","","","","","","",""
"","","","","","html-keyboard-response","185","2074251","0.0-3.0-5.0-0.20","60f64cc1d280d811a57f1a94","A3","batch1","pattern_show_trial_num","null","<p class=block-text>Trial 21 out of 78</p>","null","","","","","","","","","","","","","","","","","","","","","","","","","",""
"","","","","","image-keyboard-response","186","2075266","0.0-3.0-5.0-1.20","60f64cc1d280d811a57f1a94","A3","batch1","pattern_response","1012","stim/yes_36_ver_w1_w.png","f","pattern_58","f","true","","","","1012","true","20","","","","","","","","","","","","","","","","",""
"","","","","","html-keyboard-response","187","2076582","0.0-3.0-5.0-0.21","60f64cc1d280d811a57f1a94","A3","batch1","pattern_show_trial_num","null","<p class=block-text>Trial 22 out of 78</p>","null","","","","","","","","","","","","","","","","","","","","","","","","","",""
"","","","","","image-keyboard-response","188","2079508","0.0-3.0-5.0-1.21","60f64cc1d280d811a57f1a94","A3","batch1","pattern_response","2924.2999999523163","stim/no_47_1_b.png","j","pattern_27","j","true","","","","2924.2999999523163","true","21","","","","","","","","","","","","","","","","",""
"","","","","","html-keyboard-response","189","2080833","0.0-3.0-5.0-0.22","60f64cc1d280d811a57f1a94","A3","batch1","pattern_show_trial_num","null","<p class=block-text>Trial 23 out of 78</p>","null","","","","","","","","","","","","","","","","","","","","","","","","","",""
"","","","","","image-keyboard-response","190","2086455","0.0-3.0-5.0-1.22","60f64cc1d280d811a57f1a94","A3","batch1","pattern_response","5620.200000047684","stim/no_67_1.png","j","pattern_39","j","true","","","","5620.200000047684","true","22","","","","","","","","","","","","","","","","",""
"","","","","","html-keyboard-response","191","2087771","0.0-3.0-5.0-0.23","60f64cc1d280d811a57f1a94","A3","batch1","pattern_show_trial_num","null","<p class=block-text>Trial 24 out of 78</p>","null","","","","","","","","","","","","","","","","","","","","","","","","","",""
"","","","","","image-keyboard-response","192","2095955","0.0-3.0-5.0-1.23","60f64cc1d280d811a57f1a94","A3","batch1","pattern_response","8180.100000143051","stim/yes_44_ver_w1_w.png","j","pattern_66","f","false","","","","8180.100000143051","false","22","","","","","","","","","","","","","","","","",""
"","","","","","html-keyboard-response","193","2097287","0.0-3.0-5.0-0.24","60f64cc1d280d811a57f1a94","A3","batch1","pattern_show_trial_num","null","<p class=block-text>Trial 25 out of 78</p>","null","","","","","","","","","","","","","","","","","","","","","","","","","",""
"","","","","","image-keyboard-response","194","2097971","0.0-3.0-5.0-1.24","60f64cc1d280d811a57f1a94","A3","batch1","pattern_response","681.1999998092651","stim/yes_29_hor_b1_b.png","f","pattern_52","f","true","","","","681.1999998092651","true","23","","","","","","","","","","","","","","","","",""
"","","","","","html-keyboard-response","195","2099286","0.0-3.0-5.0-0.25","60f64cc1d280d811a57f1a94","A3","batch1","pattern_show_trial_num","null","<p class=block-text>Trial 26 out of 78</p>","null","","","","","","","","","","","","","","","","","","","","","","","","","",""
"","","","","","image-keyboard-response","196","2101133","0.0-3.0-5.0-1.25","60f64cc1d280d811a57f1a94","A3","batch1","pattern_response","1843.7999999523163","stim/yes_33_dia_w1_w.png","f","pattern_56","f","true","","","","1843.7999999523163","true","24","","","","","","","","","","","","","","","","",""
"","","","","","html-keyboard-response","197","2102459","0.0-3.0-5.0-0.26","60f64cc1d280d811a57f1a94","A3","batch1","pattern_show_trial_num","null","<p class=block-text>Trial 27 out of 78</p>","null","","","","","","","","","","","","","","","","","","","","","","","","","",""
"","","","","","image-keyboard-response","198","2110349","0.0-3.0-5.0-1.26","60f64cc1d280d811a57f1a94","A3","batch1","pattern_response","7886.700000047684","stim/no_51_1.png","j","pattern_31","j","true","","","","7886.700000047684","true","25","","","","","","","","","","","","","","","","",""
"","","","","","html-keyboard-response","199","2111662","0.0-3.0-5.0-0.27","60f64cc1d280d811a57f1a94","A3","batch1","pattern_show_trial_num","null","<p class=block-text>Trial 28 out of 78</p>","null","","","","","","","","","","","","","","","","","","","","","","","","","",""
"","","","","","image-keyboard-response","200","2117634","0.0-3.0-5.0-1.27","60f64cc1d280d811a57f1a94","A3","batch1","pattern_response","5967.900000095367","stim/no_58_1_w.png","j","pattern_35","j","true","","","","5967.900000095367","true","26","","","","","","","","","","","","","","","","",""
"","","","","","html-keyboard-response","201","2118965","0.0-3.0-5.0-0.28","60f64cc1d280d811a57f1a94","A3","batch1","pattern_show_trial_num","null","<p class=block-text>Trial 29 out of 78</p>","null","","","","","","","","","","","","","","","","","","","","","","","","","",""
"","","","","","image-keyboard-response","202","2119631","0.0-3.0-5.0-1.28","60f64cc1d280d811a57f1a94","A3","batch1","pattern_response","663","stim/yes_12_hor_w1_w.png","f","pattern_42","f","true","","","","663","true","27","","","","","","","","","","","","","","","","",""
"","","","","","html-keyboard-response","203","2120944","0.0-3.0-5.0-0.29","60f64cc1d280d811a57f1a94","A3","batch1","pattern_show_trial_num","null","<p class=block-text>Trial 30 out of 78</p>","null","","","","","","","","","","","","","","","","","","","","","","","","","",""
"","","","","","image-keyboard-response","204","2128092","0.0-3.0-5.0-1.29","60f64cc1d280d811a57f1a94","A3","batch1","pattern_response","7145.599999904633","stim/yes_51_dia_b1.png","j","pattern_72","f","false","","","","7145.599999904633","false","27","","","","","","","","","","","","","","","","",""
"","","","","","html-keyboard-response","205","2129412","0.0-3.0-5.0-0.30","60f64cc1d280d811a57f1a94","A3","batch1","pattern_show_trial_num","null","<p class=block-text>Trial 31 out of 78</p>","null","","","","","","","","","","","","","","","","","","","","","","","","","",""
"","","","","","image-keyboard-response","206","2130696","0.0-3.0-5.0-1.30","60f64cc1d280d811a57f1a94","A3","batch1","pattern_response","1280.4000000953674","stim/yes_70_ver_b1.png","f","pattern_80","f","true","","","","1280.4000000953674","true","28","","","","","","","","","","","","","","","","",""
"","","","","","html-keyboard-response","207","2132008","0.0-3.0-5.0-0.31","60f64cc1d280d811a57f1a94","A3","batch1","pattern_show_trial_num","null","<p class=block-text>Trial 32 out of 78</p>","null","","","","","","","","","","","","","","","","","","","","","","","","","",""
"","","","","","image-keyboard-response","208","2133014","0.0-3.0-5.0-1.31","60f64cc1d280d811a57f1a94","A3","batch1","pattern_response","1003.2000000476837","stim/yes_49_hor_w1_b.png","f","pattern_70","f","true","","","","1003.2000000476837","true","29","","","","","","","","","","","","","","","","",""
"","","","","","html-keyboard-response","209","2134325","0.0-3.0-5.0-0.32","60f64cc1d280d811a57f1a94","A3","batch1","pattern_show_trial_num","null","<p class=block-text>Trial 33 out of 78</p>","null","","","","","","","","","","","","","","","","","","","","","","","","","",""
"","","","","","image-keyboard-response","210","2137176","0.0-3.0-5.0-1.32","60f64cc1d280d811a57f1a94","A3","batch1","pattern_response","2855.9000000953674","stim/yes_42_dia_w1_w.png","j","pattern_64","f","false","","","","2855.9000000953674","false","29","","","","","","","","","","","","","","","","",""
"","","","","","html-keyboard-response","211","2138500","0.0-3.0-5.0-0.33","60f64cc1d280d811a57f1a94","A3","batch1","pattern_show_trial_num","null","<p class=block-text>Trial 34 out of 78</p>","null","","","","","","","","","","","","","","","","","","","","","","","","","",""
"","","","","","image-keyboard-response","212","2151474","0.0-3.0-5.0-1.33","60f64cc1d280d811a57f1a94","A3","batch1","pattern_response","12970.199999809265","stim/yes_63_dia_b1.png","j","pattern_78","f","false","","","","12970.199999809265","false","29","","","","","","","","","","","","","","","","",""
"","","","","","html-keyboard-response","213","2152789","0.0-3.0-5.0-0.34","60f64cc1d280d811a57f1a94","A3","batch1","pattern_show_trial_num","null","<p class=block-text>Trial 35 out of 78</p>","null","","","","","","","","","","","","","","","","","","","","","","","","","",""
"","","","","","image-keyboard-response","214","2157730","0.0-3.0-5.0-1.34","60f64cc1d280d811a57f1a94","A3","batch1","pattern_response","4936.700000047684","stim/no_49_2_b.png","j","pattern_29","j","true","","","","4936.700000047684","true","30","","","","","","","","","","","","","","","","",""
"","","","","","html-keyboard-response","215","2159038","0.0-3.0-5.0-0.35","60f64cc1d280d811a57f1a94","A3","batch1","pattern_show_trial_num","null","<p class=block-text>Trial 36 out of 78</p>","null","","","","","","","","","","","","","","","","","","","","","","","","","",""
"","","","","","image-keyboard-response","216","2162659","0.0-3.0-5.0-1.35","60f64cc1d280d811a57f1a94","A3","batch1","pattern_response","3617.2000000476837","stim/no_39_1_w.png","j","pattern_21","j","true","","","","3617.2000000476837","true","31","","","","","","","","","","","","","","","","",""
"","","","","","html-keyboard-response","217","2163968","0.0-3.0-5.0-0.36","60f64cc1d280d811a57f1a94","A3","batch1","pattern_show_trial_num","null","<p class=block-text>Trial 37 out of 78</p>","null","","","","","","","","","","","","","","","","","","","","","","","","","",""
"","","","","","image-keyboard-response","218","2165608","0.0-3.0-5.0-1.36","60f64cc1d280d811a57f1a94","A3","batch1","pattern_response","1636.7000000476837","stim/no_22_1_b.png","j","pattern_07","j","true","","","","1636.7000000476837","true","32","","","","","","","","","","","","","","","","",""
"","","","","","html-keyboard-response","219","2166919","0.0-3.0-5.0-0.37","60f64cc1d280d811a57f1a94","A3","batch1","pattern_show_trial_num","null","<p class=block-text>Trial 38 out of 78</p>","null","","","","","","","","","","","","","","","","","","","","","","","","","",""
"","","","","","image-keyboard-response","220","2171016","0.0-3.0-5.0-1.37","60f64cc1d280d811a57f1a94","A3","batch1","pattern_response","4093.4000000953674","stim/no_43_2_b.png","j","pattern_23","j","true","","","","4093.4000000953674","true","33","","","","","","","","","","","","","","","","",""
"","","","","","html-keyboard-response","221","2172344","0.0-3.0-5.0-0.38","60f64cc1d280d811a57f1a94","A3","batch1","pattern_show_trial_num","null","<p class=block-text>Trial 39 out of 78</p>","null","","","","","","","","","","","","","","","","","","","","","","","","","",""
"","","","","","image-keyboard-response","222","2174975","0.0-3.0-5.0-1.38","60f64cc1d280d811a57f1a94","A3","batch1","pattern_response","2627.5","stim/yes_53_ver_b1_b.png","f","pattern_74","f","true","","","","2627.5","true","34","","","","","","","","","","","","","","","","",""
"","","","","","image-keyboard-response","223","2177084","0.0-3.0-6.0","60f64cc1d280d811a57f1a94","A3","batch1","attention_check","1603.4000000953674","stim/empty_board.png","j","","j","true","","","","","","","500","[""f"",""j""]","","","","","","","","","","","","","","",""
"","","","","","html-keyboard-response","224","2177901","0.0-3.0-7.0-0.0","60f64cc1d280d811a57f1a94","A3","batch1","pattern_show_trial_num","null","<p class=block-text>Trial 40 out of 78</p>","null","","","","","","","","","","","","","","","","","","","","","","","","","",""
"","","","","","image-keyboard-response","225","2183291","0.0-3.0-7.0-1.0","60f64cc1d280d811a57f1a94","A3","batch1","pattern_response","5388","stim/no_34_1_b.png","j","pattern_16","j","true","","","","5388","true","35","","","","","","","","","","","","","","","","",""
"","","","","","html-keyboard-response","226","2184618","0.0-3.0-7.0-0.1","60f64cc1d280d811a57f1a94","A3","batch1","pattern_show_trial_num","null","<p class=block-text>Trial 41 out of 78</p>","null","","","","","","","","","","","","","","","","","","","","","","","","","",""
"","","","","","image-keyboard-response","227","2191378","0.0-3.0-7.0-1.1","60f64cc1d280d811a57f1a94","A3","batch1","pattern_response","6755.899999856949","stim/no_44_1.png","j","pattern_24","j","true","","","","6755.899999856949","true","36","","","","","","","","","","","","","","","","",""
"","","","","","html-keyboard-response","228","2192693","0.0-3.0-7.0-0.2","60f64cc1d280d811a57f1a94","A3","batch1","pattern_show_trial_num","null","<p class=block-text>Trial 42 out of 78</p>","null","","","","","","","","","","","","","","","","","","","","","","","","","",""
"","","","","","image-keyboard-response","229","2198110","0.0-3.0-7.0-1.2","60f64cc1d280d811a57f1a94","A3","batch1","pattern_response","5417.5","stim/no_48_1_w.png","j","pattern_28","j","true","","","","5417.5","true","37","","","","","","","","","","","","","","","","",""
"","","","","","html-keyboard-response","230","2199434","0.0-3.0-7.0-0.3","60f64cc1d280d811a57f1a94","A3","batch1","pattern_show_trial_num","null","<p class=block-text>Trial 43 out of 78</p>","null","","","","","","","","","","","","","","","","","","","","","","","","","",""
"","","","","","image-keyboard-response","231","2200653","0.0-3.0-7.0-1.3","60f64cc1d280d811a57f1a94","A3","batch1","pattern_response","1214","stim/yes_67_hor_b1.png","f","pattern_79","f","true","","","","1214","true","38","","","","","","","","","","","","","","","","",""
"","","","","","html-keyboard-response","232","2201969","0.0-3.0-7.0-0.4","60f64cc1d280d811a57f1a94","A3","batch1","pattern_show_trial_num","null","<p class=block-text>Trial 44 out of 78</p>","null","","","","","","","","","","","","","","","","","","","","","","","","","",""
"","","","","","image-keyboard-response","233","2203667","0.0-3.0-7.0-1.4","60f64cc1d280d811a57f1a94","A3","batch1","pattern_response","1694.9000000953674","stim/yes_17_dia_w1.png","f","pattern_45","f","true","","","","1694.9000000953674","true","39","","","","","","","","","","","","","","","","",""
"","","","","","html-keyboard-response","234","2204983","0.0-3.0-7.0-0.5","60f64cc1d280d811a57f1a94","A3","batch1","pattern_show_trial_num","null","<p class=block-text>Trial 45 out of 78</p>","null","","","","","","","","","","","","","","","","","","","","","","","","","",""
"","","","","","image-keyboard-response","235","2207962","0.0-3.0-7.0-1.5","60f64cc1d280d811a57f1a94","A3","batch1","pattern_response","2974.5","stim/yes_35_dia_b1.png","f","pattern_57","f","true","","","","2974.5","true","40","","","","","","","","","","","","","","","","",""
"","","","","","html-keyboard-response","236","2209271","0.0-3.0-7.0-0.6","60f64cc1d280d811a57f1a94","A3","batch1","pattern_show_trial_num","null","<p class=block-text>Trial 46 out of 78</p>","null","","","","","","","","","","","","","","","","","","","","","","","","","",""
"","","","","","image-keyboard-response","237","2213212","0.0-3.0-7.0-1.6","60f64cc1d280d811a57f1a94","A3","batch1","pattern_response","3933.2000000476837","stim/no_42_1_w.png","j","pattern_22","j","true","","","","3933.2000000476837","true","41","","","","","","","","","","","","","","","","",""
"","","","","","html-keyboard-response","238","2214537","0.0-3.0-7.0-0.7","60f64cc1d280d811a57f1a94","A3","batch1","pattern_show_trial_num","null","<p class=block-text>Trial 47 out of 78</p>","null","","","","","","","","","","","","","","","","","","","","","","","","","",""
"","","","","","image-keyboard-response","239","2216148","0.0-3.0-7.0-1.7","60f64cc1d280d811a57f1a94","A3","batch1","pattern_response","1606.2000000476837","stim/no_26_1_w.png","j","pattern_10","j","true","","","","1606.2000000476837","true","42","","","","","","","","","","","","","","","","",""
"","","","","","html-keyboard-response","240","2217464","0.0-3.0-7.0-0.8","60f64cc1d280d811a57f1a94","A3","batch1","pattern_show_trial_num","null","<p class=block-text>Trial 48 out of 78</p>","null","","","","","","","","","","","","","","","","","","","","","","","","","",""
"","","","","","image-keyboard-response","241","2220439","0.0-3.0-7.0-1.8","60f64cc1d280d811a57f1a94","A3","batch1","pattern_response","2972.100000143051","stim/no_38_1_b.png","j","pattern_20","j","true","","","","2972.100000143051","true","43","","","","","","","","","","","","","","","","",""
"","","","","","html-keyboard-response","242","2221756","0.0-3.0-7.0-0.9","60f64cc1d280d811a57f1a94","A3","batch1","pattern_show_trial_num","null","<p class=block-text>Trial 49 out of 78</p>","null","","","","","","","","","","","","","","","","","","","","","","","","","",""
"","","","","","image-keyboard-response","243","2222706","0.0-3.0-7.0-1.9","60f64cc1d280d811a57f1a94","A3","batch1","pattern_response","945.5999999046326","stim/no_13_2_b.png","j","pattern_02","j","true","","","","945.5999999046326","true","44","","","","","","","","","","","","","","","","",""
"","","","","","html-keyboard-response","244","2224028","0.0-3.0-7.0-0.10","60f64cc1d280d811a57f1a94","A3","batch1","pattern_show_trial_num","null","<p class=block-text>Trial 50 out of 78</p>","null","","","","","","","","","","","","","","","","","","","","","","","","","",""
"","","","","","image-keyboard-response","245","2228418","0.0-3.0-7.0-1.10","60f64cc1d280d811a57f1a94","A3","batch1","pattern_response","4386.700000047684","stim/no_17_1_w.png","j","pattern_04","j","true","","","","4386.700000047684","true","45","","","","","","","","","","","","","","","","",""
"","","","","","html-keyboard-response","246","2229745","0.0-3.0-7.0-0.11","60f64cc1d280d811a57f1a94","A3","batch1","pattern_show_trial_num","null","<p class=block-text>Trial 51 out of 78</p>","null","","","","","","","","","","","","","","","","","","","","","","","","","",""
"","","","","","image-keyboard-response","247","2230400","0.0-3.0-7.0-1.11","60f64cc1d280d811a57f1a94","A3","batch1","pattern_response","650.0999999046326","stim/yes_14_hor_b1_w.png","f","pattern_43","f","true","","","","650.0999999046326","true","46","","","","","","","","","","","","","","","","",""
"","","","","","html-keyboard-response","248","2231723","0.0-3.0-7.0-0.12","60f64cc1d280d811a57f1a94","A3","batch1","pattern_show_trial_num","null","<p class=block-text>Trial 52 out of 78</p>","null","","","","","","","","","","","","","","","","","","","","","","","","","",""
"","","","","","image-keyboard-response","249","2241133","0.0-3.0-7.0-1.12","60f64cc1d280d811a57f1a94","A3","batch1","pattern_response","9407.099999904633","stim/no_55_1_w.png","j","pattern_34","j","true","","","","9407.099999904633","true","47","","","","","","","","","","","","","","","","",""
"","","","","","html-keyboard-response","250","2242451","0.0-3.0-7.0-0.13","60f64cc1d280d811a57f1a94","A3","batch1","pattern_show_trial_num","null","<p class=block-text>Trial 53 out of 78</p>","null","","","","","","","","","","","","","","","","","","","","","","","","","",""
"","","","","","image-keyboard-response","251","2244319","0.0-3.0-7.0-1.13","60f64cc1d280d811a57f1a94","A3","batch1","pattern_response","1864.0999999046326","stim/no_20_1_w.png","j","pattern_06","j","true","","","","1864.0999999046326","true","48","","","","","","","","","","","","","","","","",""
"","","","","","html-keyboard-response","252","2245637","0.0-3.0-7.0-0.14","60f64cc1d280d811a57f1a94","A3","batch1","pattern_show_trial_num","null","<p class=block-text>Trial 54 out of 78</p>","null","","","","","","","","","","","","","","","","","","","","","","","","","",""
"","","","","","image-keyboard-response","253","2250535","0.0-3.0-7.0-1.14","60f64cc1d280d811a57f1a94","A3","batch1","pattern_response","4895.200000047684","stim/yes_48_dia_w1_w.png","f","pattern_69","f","true","","","","4895.200000047684","true","49","","","","","","","","","","","","","","","","",""
"","","","","","html-keyboard-response","254","2251849","0.0-3.0-7.0-0.15","60f64cc1d280d811a57f1a94","A3","batch1","pattern_show_trial_num","null","<p class=block-text>Trial 55 out of 78</p>","null","","","","","","","","","","","","","","","","","","","","","","","","","",""
"","","","","","image-keyboard-response","255","2252657","0.0-3.0-7.0-1.15","60f64cc1d280d811a57f1a94","A3","batch1","pattern_response","805.3999998569489","stim/yes_55_hor_w1_w.png","f","pattern_75","f","true","","","","805.3999998569489","true","50","","","","","","","","","","","","","","","","",""
"","","","","","html-keyboard-response","256","2253976","0.0-3.0-7.0-0.16","60f64cc1d280d811a57f1a94","A3","batch1","pattern_show_trial_num","null","<p class=block-text>Trial 56 out of 78</p>","null","","","","","","","","","","","","","","","","","","","","","","","","","",""
"","","","","","image-keyboard-response","257","2263852","0.0-3.0-7.0-1.16","60f64cc1d280d811a57f1a94","A3","batch1","pattern_response","9875.099999904633","stim/no_46_1_b.png","j","pattern_26","j","true","","","","9875.099999904633","true","51","","","","","","","","","","","","","","","","",""
"","","","","","html-keyboard-response","258","2265163","0.0-3.0-7.0-0.17","60f64cc1d280d811a57f1a94","A3","batch1","pattern_show_trial_num","null","<p class=block-text>Trial 57 out of 78</p>","null","","","","","","","","","","","","","","","","","","","","","","","","","",""
"","","","","","image-keyboard-response","259","2269542","0.0-3.0-7.0-1.17","60f64cc1d280d811a57f1a94","A3","batch1","pattern_response","4373.799999952316","stim/yes_50_dia_w1.png","f","pattern_71","f","true","","","","4373.799999952316","true","52","","","","","","","","","","","","","","","","",""
"","","","","","html-keyboard-response","260","2270864","0.0-3.0-7.0-0.18","60f64cc1d280d811a57f1a94","A3","batch1","pattern_show_trial_num","null","<p class=block-text>Trial 58 out of 78</p>","null","","","","","","","","","","","","","","","","","","","","","","","","","",""
"","","","","","image-keyboard-response","261","2273113","0.0-3.0-7.0-1.18","60f64cc1d280d811a57f1a94","A3","batch1","pattern_response","2245.0999999046326","stim/yes_37_dia_w1.png","f","pattern_59","f","true","","","","2245.0999999046326","true","53","","","","","","","","","","","","","","","","",""
"","","","","","html-keyboard-response","262","2274433","0.0-3.0-7.0-0.19","60f64cc1d280d811a57f1a94","A3","batch1","pattern_show_trial_num","null","<p class=block-text>Trial 59 out of 78</p>","null","","","","","","","","","","","","","","","","","","","","","","","","","",""
"","","","","","image-keyboard-response","263","2278241","0.0-3.0-7.0-1.19","60f64cc1d280d811a57f1a94","A3","batch1","pattern_response","3804","stim/yes_40_dia_b1_b.png","j","pattern_63","f","false","","","","3804","false","53","","","","","","","","","","","","","","","","",""
"","","","","","html-keyboard-response","264","2279553","0.0-3.0-7.0-0.20","60f64cc1d280d811a57f1a94","A3","batch1","pattern_show_trial_num","null","<p class=block-text>Trial 60 out of 78</p>","null","","","","","","","","","","","","","","","","","","","","","","","","","",""
"","","","","","image-keyboard-response","265","2281336","0.0-3.0-7.0-1.20","60f64cc1d280d811a57f1a94","A3","batch1","pattern_response","1779","stim/yes_29_ver_w1.png","f","pattern_53","f","true","","","","1779","true","54","","","","","","","","","","","","","","","","",""
"","","","","","html-keyboard-response","266","2282654","0.0-3.0-7.0-0.21","60f64cc1d280d811a57f1a94","A3","batch1","pattern_show_trial_num","null","<p class=block-text>Trial 61 out of 78</p>","null","","","","","","","","","","","","","","","","","","","","","","","","","",""
"","","","","","image-keyboard-response","267","2288654","0.0-3.0-7.0-1.21","60f64cc1d280d811a57f1a94","A3","batch1","pattern_response","5995.900000095367","stim/no_23_1.png","j","pattern_08","j","true","","","","5995.900000095367","true","55","","","","","","","","","","","","","","","","",""
"","","","","","html-keyboard-response","268","2289972","0.0-3.0-7.0-0.22","60f64cc1d280d811a57f1a94","A3","batch1","pattern_show_trial_num","null","<p class=block-text>Trial 62 out of 78</p>","null","","","","","","","","","","","","","","","","","","","","","","","","","",""
"","","","","","image-keyboard-response","269","2296518","0.0-3.0-7.0-1.22","60f64cc1d280d811a57f1a94","A3","batch1","pattern_response","6541.5","stim/no_52_1.png","j","pattern_32","j","true","","","","6541.5","true","56","","","","","","","","","","","","","","","","",""
"","","","","","html-keyboard-response","270","2297825","0.0-3.0-7.0-0.23","60f64cc1d280d811a57f1a94","A3","batch1","pattern_show_trial_num","null","<p class=block-text>Trial 63 out of 78</p>","null","","","","","","","","","","","","","","","","","","","","","","","","","",""
"","","","","","image-keyboard-response","271","2301873","0.0-3.0-7.0-1.23","60f64cc1d280d811a57f1a94","A3","batch1","pattern_response","4043.2999999523163","stim/yes_60_ver_b1_b.png","f","pattern_77","f","true","","","","4043.2999999523163","true","57","","","","","","","","","","","","","","","","",""
"","","","","","html-keyboard-response","272","2303197","0.0-3.0-7.0-0.24","60f64cc1d280d811a57f1a94","A3","batch1","pattern_show_trial_num","null","<p class=block-text>Trial 64 out of 78</p>","null","","","","","","","","","","","","","","","","","","","","","","","","","",""
"","","","","","image-keyboard-response","273","2307901","0.0-3.0-7.0-1.24","60f64cc1d280d811a57f1a94","A3","batch1","pattern_response","4699.599999904633","stim/no_32_1_w.png","j","pattern_14","j","true","","","","4699.599999904633","true","58","","","","","","","","","","","","","","","","",""
"","","","","","html-keyboard-response","274","2309222","0.0-3.0-7.0-0.25","60f64cc1d280d811a57f1a94","A3","batch1","pattern_show_trial_num","null","<p class=block-text>Trial 65 out of 78</p>","null","","","","","","","","","","","","","","","","","","","","","","","","","",""
"","","","","","image-keyboard-response","275","2311385","0.0-3.0-7.0-1.25","60f64cc1d280d811a57f1a94","A3","batch1","pattern_response","2158","stim/yes_45_hor_b2_b.png","f","pattern_67","f","true","","","","2158","true","59","","","","","","","","","","","","","","","","",""
"","","","","","html-keyboard-response","276","2312696","0.0-3.0-7.0-0.26","60f64cc1d280d811a57f1a94","A3","batch1","pattern_show_trial_num","null","<p class=block-text>Trial 66 out of 78</p>","null","","","","","","","","","","","","","","","","","","","","","","","","","",""
"","","","","","image-keyboard-response","277","2326481","0.0-3.0-7.0-1.26","60f64cc1d280d811a57f1a94","A3","batch1","pattern_response","13772.200000047684","stim/no_70_2.png","j","pattern_40","j","true","","","","13772.200000047684","true","60","","","","","","","","","","","","","","","","",""
"","","","","","html-keyboard-response","278","2327798","0.0-3.0-7.0-0.27","60f64cc1d280d811a57f1a94","A3","batch1","pattern_show_trial_num","null","<p class=block-text>Trial 67 out of 78</p>","null","","","","","","","","","","","","","","","","","","","","","","","","","",""
"","","","","","image-keyboard-response","279","2328475","0.0-3.0-7.0-1.27","60f64cc1d280d811a57f1a94","A3","batch1","pattern_response","672.9000000953674","stim/yes_22_ver_w1.png","f","pattern_47","f","true","","","","672.9000000953674","true","61","","","","","","","","","","","","","","","","",""
"","","","","","html-keyboard-response","280","2329795","0.0-3.0-7.0-0.28","60f64cc1d280d811a57f1a94","A3","batch1","pattern_show_trial_num","null","<p class=block-text>Trial 68 out of 78</p>","null","","","","","","","","","","","","","","","","","","","","","","","","","",""
"","","","","","image-keyboard-response","281","2332068","0.0-3.0-7.0-1.28","60f64cc1d280d811a57f1a94","A3","batch1","pattern_response","2265.2000000476837","stim/yes_52_ver_w1.png","f","pattern_73","f","true","","","","2265.2000000476837","true","62","","","","","","","","","","","","","","","","",""
"","","","","","html-keyboard-response","282","2333377","0.0-3.0-7.0-0.29","60f64cc1d280d811a57f1a94","A3","batch1","pattern_show_trial_num","null","<p class=block-text>Trial 69 out of 78</p>","null","","","","","","","","","","","","","","","","","","","","","","","","","",""
"","","","","","image-keyboard-response","283","2335168","0.0-3.0-7.0-1.29","60f64cc1d280d811a57f1a94","A3","batch1","pattern_response","1787.2999999523163","stim/yes_43_ver_w1_w.png","f","pattern_65","f","true","","","","1787.2999999523163","true","63","","","","","","","","","","","","","","","","",""
"","","","","","html-keyboard-response","284","2336488","0.0-3.0-7.0-0.30","60f64cc1d280d811a57f1a94","A3","batch1","pattern_show_trial_num","null","<p class=block-text>Trial 70 out of 78</p>","null","","","","","","","","","","","","","","","","","","","","","","","","","",""
"","","","","","image-keyboard-response","285","2351933","0.0-3.0-7.0-1.30","60f64cc1d280d811a57f1a94","A3","batch1","pattern_response","15441.299999952316","stim/no_65_1_b.png","j","pattern_38","j","true","","","","15441.299999952316","true","64","","","","","","","","","","","","","","","","",""
"","","","","","html-keyboard-response","286","2353243","0.0-3.0-7.0-0.31","60f64cc1d280d811a57f1a94","A3","batch1","pattern_show_trial_num","null","<p class=block-text>Trial 71 out of 78</p>","null","","","","","","","","","","","","","","","","","","","","","","","","","",""
"","","","","","image-keyboard-response","287","2362885","0.0-3.0-7.0-1.31","60f64cc1d280d811a57f1a94","A3","batch1","pattern_response","9637.299999952316","stim/no_62_1_w.png","j","pattern_36","j","true","","","","9637.299999952316","true","65","","","","","","","","","","","","","","","","",""
"","","","","","html-keyboard-response","288","2364199","0.0-3.0-7.0-0.32","60f64cc1d280d811a57f1a94","A3","batch1","pattern_show_trial_num","null","<p class=block-text>Trial 72 out of 78</p>","null","","","","","","","","","","","","","","","","","","","","","","","","","",""
"","","","","","image-keyboard-response","289","2365093","0.0-3.0-7.0-1.32","60f64cc1d280d811a57f1a94","A3","batch1","pattern_response","891.0999999046326","stim/yes_28_ver_b1.png","f","pattern_51","f","true","","","","891.0999999046326","true","66","","","","","","","","","","","","","","","","",""
"","","","","","html-keyboard-response","290","2366407","0.0-3.0-7.0-0.33","60f64cc1d280d811a57f1a94","A3","batch1","pattern_show_trial_num","null","<p class=block-text>Trial 73 out of 78</p>","null","","","","","","","","","","","","","","","","","","","","","","","","","",""
"","","","","","image-keyboard-response","291","2371545","0.0-3.0-7.0-1.33","60f64cc1d280d811a57f1a94","A3","batch1","pattern_response","5134.799999952316","stim/no_50_1.png","j","pattern_30","j","true","","","","5134.799999952316","true","67","","","","","","","","","","","","","","","","",""
"","","","","","html-keyboard-response","292","2372866","0.0-3.0-7.0-0.34","60f64cc1d280d811a57f1a94","A3","batch1","pattern_show_trial_num","null","<p class=block-text>Trial 74 out of 78</p>","null","","","","","","","","","","","","","","","","","","","","","","","","","",""
"","","","","","image-keyboard-response","293","2373613","0.0-3.0-7.0-1.34","60f64cc1d280d811a57f1a94","A3","batch1","pattern_response","742.2000000476837","stim/yes_25_hor_b1_b.png","f","pattern_49","f","true","","","","742.2000000476837","true","68","","","","","","","","","","","","","","","","",""
"","","","","","html-keyboard-response","294","2374926","0.0-3.0-7.0-0.35","60f64cc1d280d811a57f1a94","A3","batch1","pattern_show_trial_num","null","<p class=block-text>Trial 75 out of 78</p>","null","","","","","","","","","","","","","","","","","","","","","","","","","",""
"","","","","","image-keyboard-response","295","2378617","0.0-3.0-7.0-1.35","60f64cc1d280d811a57f1a94","A3","batch1","pattern_response","3689.2000000476837","stim/yes_38_hor_b1_b.png","f","pattern_61","f","true","","","","3689.2000000476837","true","69","","","","","","","","","","","","","","","","",""
"","","","","","html-keyboard-response","296","2379939","0.0-3.0-7.0-0.36","60f64cc1d280d811a57f1a94","A3","batch1","pattern_show_trial_num","null","<p class=block-text>Trial 76 out of 78</p>","null","","","","","","","","","","","","","","","","","","","","","","","","","",""
"","","","","","image-keyboard-response","297","2385995","0.0-3.0-7.0-1.36","60f64cc1d280d811a57f1a94","A3","batch1","pattern_response","6052","stim/no_29_1_b.png","j","pattern_12","j","true","","","","6052","true","70","","","","","","","","","","","","","","","","",""
"","","","","","html-keyboard-response","298","2387300","0.0-3.0-7.0-0.37","60f64cc1d280d811a57f1a94","A3","batch1","pattern_show_trial_num","null","<p class=block-text>Trial 77 out of 78</p>","null","","","","","","","","","","","","","","","","","","","","","","","","","",""
"","","","","","image-keyboard-response","299","2396028","0.0-3.0-7.0-1.37","60f64cc1d280d811a57f1a94","A3","batch1","pattern_response","8724.299999952316","stim/no_36_2_w.png","j","pattern_18","j","true","","","","8724.299999952316","true","71","","","","","","","","","","","","","","","","",""
"","","","","","html-keyboard-response","300","2397357","0.0-3.0-7.0-0.38","60f64cc1d280d811a57f1a94","A3","batch1","pattern_show_trial_num","null","<p class=block-text>Trial 78 out of 78</p>","null","","","","","","","","","","","","","","","","","","","","","","","","","",""
"","","","","","image-keyboard-response","301","2398248","0.0-3.0-7.0-1.38","60f64cc1d280d811a57f1a94","A3","batch1","pattern_response","886.6000001430511","stim/yes_31_hor_b1.png","f","pattern_55","f","true","","","","886.6000001430511","true","72","","","","","","","","","","","","","","","","",""
"","","","","","html-button-response","302","2416814","0.0-3.0-8.0","60f64cc1d280d811a57f1a94","A3","batch1","","18053.799999952316","<p class = block-text>This concludes the 4-in-a-row detection game.Thank you for your responses!<br>
            You responded correctly on 92% of the trials.<br>
            When you are ready, press ""Continue"" button to continue </p>","0","","","","","","","","","","","","","","","","","","","","","","","","","",""
"true","","","","","fullscreen","303","2435128","0.0-4.0-0.0","60f64cc1d280d811a57f1a94","A3","batch1","","","","","","","","","","","","","","","","","","","","","","","","","","","","","",""
"","","","","","instructions","304","2497363","0.0-4.0-1.0-0.0-0.0","60f64cc1d280d811a57f1a94","A3","batch1","tol-instructions","62232.90000009537","","","","","","","","[{""page_index"":0,""viewing_time"":11278},{""page_index"":1,""viewing_time"":4487.900000095367},{""page_index"":2,""viewing_time"":2413.899999856949},{""page_index"":3,""viewing_time"":11410.700000047684},{""page_index"":4,""viewing_time"":9789.299999952316},{""page_index"":5,""viewing_time"":20160.200000047684},{""page_index"":6,""viewing_time"":2692.5}]","","","","","","","","","","","","","","","","","","","",""
"","","","","","html-button-response","305","2498553","0.0-4.0-1.0-1.0-0.0","60f64cc1d280d811a57f1a94","A3","batch1","tol_enter_quiz","1188.7000000476837","<p class=block-text> Let's answer a few questions <br>","0","","","","","","","","","","","","","","","","","","","","","","","","","",""
"","","","","","html-button-response","306","2504010","0.0-4.0-1.0-1.0-1.0","60f64cc1d280d811a57f1a94","A3","batch1","tol_quiz","5455.599999904633","<p class = block-text>True or False: You can only move the ball on top of a peg. <br></p>","0","","","true","","","","","","","","","","","","","","","","","","","","","","",""
"","","","","","html-button-response","307","2505186","0.0-4.0-1.0-1.0-2.0","60f64cc1d280d811a57f1a94","A3","batch1","tol_quiz_feedback","1174.2000000476837","<p class = block-text>Correct! You can only move the ball on top of a peg.</p>","0","","","","","","","","","","","","","","","","","","","","","","","","","",""
"","","","","","html-button-response","308","2507176","0.0-4.0-1.0-1.0-3.0","60f64cc1d280d811a57f1a94","A3","batch1","tol_quiz","1988.4000000953674","<p class = block-text>True or False: You should try to match your board with the target board with fewest moves possible. <br></p>","0","","","true","","","","","","","","","","","","","","","","","","","","","","",""
"","","","","","html-button-response","309","2508178","0.0-4.0-1.0-1.0-4.0","60f64cc1d280d811a57f1a94","A3","batch1","tol_quiz_feedback","1001","<p class = block-text>Correct! </p>","0","","","","","","","","","","","","","","","","","","","","","","","","","",""
"","","","","","html-button-response","310","2509235","0.0-4.0-2.0","60f64cc1d280d811a57f1a94","A3","batch1","","1054.9000000953674","<p class=block-text> Now that you've understood the game, let's practice a few easier examples before we start!<br> <br>","0","","","","","","","","","","","","","","","","","","","","","","","","","",""
"","","","","","single-stim-button","311","2512850","0.0-4.0-3.0-0.0","60f64cc1d280d811a57f1a94","A3","batch1","tol_practice","3612","","","","","","","","","","","","","","tol_peg_2","3612","3612","0","[[1,2,0],[0,0],[0]]","1","[[1,2,0],[0,0],[3]]","practice","3612","","","","","",""
"","","","","","single-stim-button","312","2514403","0.0-4.0-3.0-1.0","60f64cc1d280d811a57f1a94","A3","batch1","tol_practice","1553","","","","","","","","","","","","","","tol_peg_3","1553","1553","0","[[1,2,0],[0,0],[3]]","1","[[1,2,0],[0,0],[3]]","practice","1553","","","","","",""
"","","","","","poldrack-single-stim","313","2515420","0.0-4.0-4.0","60f64cc1d280d811a57f1a94","A3","batch1","tol_feedback","-1","","","","","true","","","","","","","","","","1000","1000","500","","","","","","-1","none","true","","0",""
"","","","","","single-stim-button","314","2520545","0.0-4.0-5.0-0.0","60f64cc1d280d811a57f1a94","A3","batch1","tol_practice","5122","","","","","","","","","","","","","","tol_peg_1","5122","5122","0","[[1,0,0],[3,0],[0]]","2","[[0,0,0],[3,1],[2]]","practice","5122","","","","","",""
"","","","","","single-stim-button","315","2522154","0.0-4.0-5.0-1.0","60f64cc1d280d811a57f1a94","A3","batch1","tol_practice","1609","","","","","","","","","","","","","","tol_peg_3","1609","1609","0","[[1,0,0],[3,0],[2]]","2","[[0,0,0],[3,1],[2]]","practice","1609","","","","","",""
"","","","","","single-stim-button","316","2523336","0.0-4.0-5.1-0.1","60f64cc1d280d811a57f1a94","A3","batch1","tol_practice","1180","","","","","","","","","","","","","","tol_peg_1","1180","1180","0","[[0,0,0],[3,0],[2]]","3","[[0,0,0],[3,1],[2]]","practice","1180","","","","","",""
"","","","","","single-stim-button","317","2524591","0.0-4.0-5.1-1.1","60f64cc1d280d811a57f1a94","A3","batch1","tol_practice","1254","","","","","","","","","","","","","","tol_peg_2","1254","1254","0","[[0,0,0],[3,1],[2]]","3","[[0,0,0],[3,1],[2]]","practice","1254","","","","","",""
"","","","","","poldrack-single-stim","318","2525608","0.0-4.0-6.0","60f64cc1d280d811a57f1a94","A3","batch1","tol_feedback","-1","","","","","true","","","","","","","","","","1000","1000","500","","","","","","-1","none","true","","0",""
"","","","","","single-stim-button","319","2528421","0.0-4.0-7.0-0.0","60f64cc1d280d811a57f1a94","A3","batch1","tol_practice","2811","","","","","","","","","","","","","","tol_peg_2","2811","2811","0","[[1,2,0],[0,0],[0]]","4","[[1,0,0],[2,0],[3]]","practice","2811","","","","","",""
"","","","","","single-stim-button","320","2529574","0.0-4.0-7.0-1.0","60f64cc1d280d811a57f1a94","A3","batch1","tol_practice","1151","","","","","","","","","","","","","","tol_peg_3","1151","1151","0","[[1,2,0],[0,0],[3]]","4","[[1,0,0],[2,0],[3]]","practice","1151","","","","","",""
"","","","","","single-stim-button","321","2530707","0.0-4.0-7.1-0.1","60f64cc1d280d811a57f1a94","A3","batch1","tol_practice","1133","","","","","","","","","","","","","","tol_peg_1","1133","1133","0","[[1,0,0],[0,0],[3]]","5","[[1,0,0],[2,0],[3]]","practice","1133","","","","","",""
"","","","","","single-stim-button","322","2531707","0.0-4.0-7.1-1.1","60f64cc1d280d811a57f1a94","A3","batch1","tol_practice","998","","","","","","","","","","","","","","tol_peg_2","998","998","0","[[1,0,0],[2,0],[3]]","5","[[1,0,0],[2,0],[3]]","practice","998","","","","","",""
"","","","","","poldrack-single-stim","323","2532725","0.0-4.0-8.0","60f64cc1d280d811a57f1a94","A3","batch1","tol_feedback","-1","","","","","true","","","","","","","","","","1000","1000","500","","","","","","-1","none","true","","0",""
"","","","","","html-button-response","324","2535339","0.0-4.0-9.0","60f64cc1d280d811a57f1a94","A3","batch1","tol_instruction","2611.9000000953674","<div class = centerbox><p class = center-block-text>Great job! You are done with practice trials<br>You are about to start official trials.<br> <br> Problem <strong>1</strong> out of 25 problems</p></div>","0","","","","","","","","","","","","","","","","","","","","","","","","","",""
"","","","","","single-stim-button","325","2538456","0.0-4.0-10.0-0.0","60f64cc1d280d811a57f1a94","A3","batch1","tol_tohand","2112","","","","","","","","","","","","","","tol_peg_1","2112","2112","0","[[1,0,0],[3,0],[0]]","1","[[1,3,0],[2,0],[0]]","0","0","","","","","","3"
"","","","","","single-stim-button","326","2547287","0.0-4.0-10.0-1.0","60f64cc1d280d811a57f1a94","A3","batch1","tol_toboard","8830","","","","","","","","","","","","","","tol_peg_2","8830","8830","0","[[1,0,0],[3,2],[0]]","1","[[1,3,0],[2,0],[0]]","0","0","","","","","","3"
"","","","","","single-stim-button","327","2548734","0.0-4.0-10.1-0.1","60f64cc1d280d811a57f1a94","A3","batch1","tol_tohand","1445","","","","","","","","","","","","","","tol_peg_2","1445","1445","0","[[1,0,0],[3,0],[0]]","2","[[1,3,0],[2,0],[0]]","0","0","","","","","","3"
"","","","","","single-stim-button","328","2549888","0.0-4.0-10.1-1.1","60f64cc1d280d811a57f1a94","A3","batch1","tol_toboard","1152","","","","","","","","","","","","","","tol_peg_3","1152","1152","0","[[1,0,0],[3,0],[2]]","2","[[1,3,0],[2,0],[0]]","0","0","","","","","","3"
"","","","","","single-stim-button","329","2550878","0.0-4.0-10.2-0.2","60f64cc1d280d811a57f1a94","A3","batch1","tol_tohand","988","","","","","","","","","","","","","","tol_peg_2","988","988","0","[[1,0,0],[0,0],[2]]","3","[[1,3,0],[2,0],[0]]","0","0","","","","","","3"
"","","","","","single-stim-button","330","2552180","0.0-4.0-10.2-1.2","60f64cc1d280d811a57f1a94","A3","batch1","tol_toboard","1302","","","","","","","","","","","","","","tol_peg_1","1302","1302","0","[[1,3,0],[0,0],[2]]","3","[[1,3,0],[2,0],[0]]","0","0","","","","","","3"
"","","","","","single-stim-button","331","2553184","0.0-4.0-10.3-0.3","60f64cc1d280d811a57f1a94","A3","batch1","tol_tohand","1003","","","","","","","","","","","","","","tol_peg_3","1003","1003","0","[[1,3,0],[0,0],[0]]","4","[[1,3,0],[2,0],[0]]","0","0","","","","","","3"
"","","","","","single-stim-button","332","2553895","0.0-4.0-10.3-1.3","60f64cc1d280d811a57f1a94","A3","batch1","tol_toboard","709","","","","","","","","","","","","","","tol_peg_2","709","709","0","[[1,3,0],[2,0],[0]]","4","[[1,3,0],[2,0],[0]]","0","0","","","","","","3"
"","","","","","poldrack-single-stim","333","2554897","0.0-4.0-11.0","60f64cc1d280d811a57f1a94","A3","batch1","tol_feedback","-1","","","","","true","","","","","","","","","","1000","1000","500","","","","","","-1","none","true","2112","5548",""
"","","","","","html-button-response","334","2556031","0.0-4.0-12.0","60f64cc1d280d811a57f1a94","A3","batch1","tol_trial_num","1132.7000000476837","<div class = centerbox><p class = center-block-text>problem <strong>2</strong> out of 25 problems</p></div>","0","","","","","","","","","","","","","","","","","","","","","","","","","",""
"","","","","","single-stim-button","335","2566297","0.0-4.0-13.0-0.0","60f64cc1d280d811a57f1a94","A3","batch1","tol_tohand","10265","","","","","","","","","","","","","","tol_peg_1","10265","10265","0","[[1,0,0],[3,0],[0]]","1","[[2,1,3],[0,0],[0]]","1","0","","","","","","5"
"","","","","","single-stim-button","336","2567466","0.0-4.0-13.0-1.0","60f64cc1d280d811a57f1a94","A3","batch1","tol_toboard","1168","","","","","","","","","","","","","","tol_peg_3","1168","1168","0","[[1,0,0],[3,0],[2]]","1","[[2,1,3],[0,0],[0]]","1","0","","","","","","5"
"","","","","","single-stim-button","337","2568671","0.0-4.0-13.1-0.1","60f64cc1d280d811a57f1a94","A3","batch1","tol_tohand","1204","","","","","","","","","","","","","","tol_peg_1","1204","1204","0","[[0,0,0],[3,0],[2]]","2","[[2,1,3],[0,0],[0]]","1","0","","","","","","5"
"","","","","","single-stim-button","338","2573097","0.0-4.0-13.1-1.1","60f64cc1d280d811a57f1a94","A3","batch1","tol_toboard","4425","","","","","","","","","","","","","","tol_peg_2","4425","4425","0","[[0,0,0],[3,1],[2]]","2","[[2,1,3],[0,0],[0]]","1","0","","","","","","5"
"","","","","","single-stim-button","339","2573985","0.0-4.0-13.2-0.2","60f64cc1d280d811a57f1a94","A3","batch1","tol_tohand","886","","","","","","","","","","","","","","tol_peg_3","886","886","0","[[0,0,0],[3,1],[0]]","3","[[2,1,3],[0,0],[0]]","1","0","","","","","","5"
"","","","","","single-stim-button","340","2574946","0.0-4.0-13.2-1.2","60f64cc1d280d811a57f1a94","A3","batch1","tol_toboard","960","","","","","","","","","","","","","","tol_peg_1","960","960","0","[[2,0,0],[3,1],[0]]","3","[[2,1,3],[0,0],[0]]","1","0","","","","","","5"
"","","","","","single-stim-button","341","2575827","0.0-4.0-13.3-0.3","60f64cc1d280d811a57f1a94","A3","batch1","tol_tohand","881","","","","","","","","","","","","","","tol_peg_2","881","881","0","[[2,0,0],[3,0],[0]]","4","[[2,1,3],[0,0],[0]]","1","0","","","","","","5"
"","","","","","single-stim-button","342","2576487","0.0-4.0-13.3-1.3","60f64cc1d280d811a57f1a94","A3","batch1","tol_toboard","660","","","","","","","","","","","","","","tol_peg_1","660","660","0","[[2,1,0],[3,0],[0]]","4","[[2,1,3],[0,0],[0]]","1","0","","","","","","5"
"","","","","","single-stim-button","343","2577278","0.0-4.0-13.4-0.4","60f64cc1d280d811a57f1a94","A3","batch1","tol_tohand","790","","","","","","","","","","","","","","tol_peg_2","790","790","0","[[2,1,0],[0,0],[0]]","5","[[2,1,3],[0,0],[0]]","1","0","","","","","","5"
"","","","","","single-stim-button","344","2578275","0.0-4.0-13.4-1.4","60f64cc1d280d811a57f1a94","A3","batch1","tol_toboard","996","","","","","","","","","","","","","","tol_peg_1","996","996","0","[[2,1,3],[0,0],[0]]","5","[[2,1,3],[0,0],[0]]","1","0","","","","","","5"
"","","","","","poldrack-single-stim","345","2579287","0.0-4.0-14.0","60f64cc1d280d811a57f1a94","A3","batch1","tol_feedback","-1","","","","","true","","","","","","","","","","1000","1000","500","","","","","","-1","none","true","10265","14026",""
"","","","","","html-button-response","346","2580908","0.0-4.0-15.0","60f64cc1d280d811a57f1a94","A3","batch1","tol_trial_num","1619.2999999523163","<div class = centerbox><p class = center-block-text>problem <strong>3</strong> out of 25 problems</p></div>","0","","","","","","","","","","","","","","","","","","","","","","","","","",""
