"success","timeout","failed_images","failed_audio","failed_video","trial_type","trial_index","time_elapsed","internal_node_id","subject_id","study_id","session_id","task","rt","stimulus","response","item","answer","correct","spm_correct","spm_rt","view_history","fiar_detect_rt","fiar_detect_correct","total_correct_fiar_detect","post_trial_gap","choices","mouse_click","stim_duration","block_duration","timing_post_trial","current_position","tol_num_moves_made","tol_target","tol_problem_id","tol_rt","key_press","possible_responses","tol_correct","preplanning","tol_rt_per_trial","tol_min_moves"
"true","false","[]","[]","[]","preload","0","1635","0.0-0.0","60fcd2ccc588ee8cca5168c0","F1","batch6","","","","","","","","","","","","","","","","","","","","","","","","","","","","","",""
"true","","","","","fullscreen","1","16796","0.0-1.0-0.0","60fcd2ccc588ee8cca5168c0","F1","batch6","","","","","","","","","","","","","","","","","","","","","","","","","","","","","",""
"true","","","","","fullscreen","2","20568","0.0-2.0-0.0","60fcd2ccc588ee8cca5168c0","F1","batch6","spm_fullscreen","","","","","","","","","","","","","","","","","","","","","","","","","","","","",""
"","","","","","html-button-response","3","32971","0.0-2.0-1.0","60fcd2ccc588ee8cca5168c0","F1","batch6","","12400","<p class = block-text><b>Instructions</b> <br>This is a widely used intelligence test in research. <br>In this test, a figure with a missing piece will be presented.<br>Below the figure are alternative pieces to complete the figure, only one of which is correct.<br> Different figures might involve different principles for obtaining the missing piece<br>Your job is to select the most logical piece to complete the figure.</p>","0","","","","","","","","","","","","","","","","","","","","","","","","","",""
"","","","","","html-keyboard-response","4","33772","0.0-2.0-2.0-0.0","60fcd2ccc588ee8cca5168c0","F1","batch6","spm_show_trial_num","null","<p class=block-text>Trial 1 out of 60</p>","null","","","","","","","","","","","","","","","","","","","","","","","","","",""
"","","","","","image-button-response","5","46443","0.0-2.0-2.0-1.0","60fcd2ccc588ee8cca5168c0","F1","batch6","spm_respsonse","12665","img/question_1_1.jpeg","3","mat_01","4","1","1","12665","","","","","","","","","","","","","","","","","","","","",""
"","","","","","html-keyboard-response","6","47495","0.0-2.0-2.0-0.1","60fcd2ccc588ee8cca5168c0","F1","batch6","spm_show_trial_num","null","<p class=block-text>Trial 2 out of 60</p>","null","","","","","","","","","","","","","","","","","","","","","","","","","",""
"","","","","","image-button-response","7","51331","0.0-2.0-2.0-1.1","60fcd2ccc588ee8cca5168c0","F1","batch6","spm_respsonse","3831.9999999999927","img/question_1_2.jpeg","4","mat_02","5","1","1","3831.9999999999927","","","","","","","","","","","","","","","","","","","","",""
"","","","","","html-keyboard-response","8","52384","0.0-2.0-2.0-0.2","60fcd2ccc588ee8cca5168c0","F1","batch6","spm_show_trial_num","null","<p class=block-text>Trial 3 out of 60</p>","null","","","","","","","","","","","","","","","","","","","","","","","","","",""
"","","","","","image-button-response","9","54699","0.0-2.0-2.0-1.2","60fcd2ccc588ee8cca5168c0","F1","batch6","spm_respsonse","2312","img/question_1_3.jpeg","0","mat_03","1","1","1","2312","","","","","","","","","","","","","","","","","","","","",""
"","","","","","html-keyboard-response","10","55753","0.0-2.0-2.0-0.3","60fcd2ccc588ee8cca5168c0","F1","batch6","spm_show_trial_num","null","<p class=block-text>Trial 4 out of 60</p>","null","","","","","","","","","","","","","","","","","","","","","","","","","",""
"","","","","","image-button-response","11","58076","0.0-2.0-2.0-1.3","60fcd2ccc588ee8cca5168c0","F1","batch6","spm_respsonse","2320","img/question_1_4.jpeg","1","mat_04","2","1","1","2320","","","","","","","","","","","","","","","","","","","","",""
"","","","","","html-keyboard-response","12","59129","0.0-2.0-2.0-0.4","60fcd2ccc588ee8cca5168c0","F1","batch6","spm_show_trial_num","null","<p class=block-text>Trial 5 out of 60</p>","null","","","","","","","","","","","","","","","","","","","","","","","","","",""
"","","","","","image-button-response","13","63012","0.0-2.0-2.0-1.4","60fcd2ccc588ee8cca5168c0","F1","batch6","spm_respsonse","3881.9999999999854","img/question_1_5.jpeg","5","mat_05","6","1","1","3881.9999999999854","","","","","","","","","","","","","","","","","","","","",""
"","","","","","html-keyboard-response","14","64066","0.0-2.0-2.0-0.5","60fcd2ccc588ee8cca5168c0","F1","batch6","spm_show_trial_num","null","<p class=block-text>Trial 6 out of 60</p>","null","","","","","","","","","","","","","","","","","","","","","","","","","",""
"","","","","","image-button-response","15","69792","0.0-2.0-2.0-1.5","60fcd2ccc588ee8cca5168c0","F1","batch6","spm_respsonse","5723","img/question_1_6.jpeg","2","mat_06","3","1","1","5723","","","","","","","","","","","","","","","","","","","","",""
"","","","","","html-keyboard-response","16","70845","0.0-2.0-2.0-0.6","60fcd2ccc588ee8cca5168c0","F1","batch6","spm_show_trial_num","null","<p class=block-text>Trial 7 out of 60</p>","null","","","","","","","","","","","","","","","","","","","","","","","","","",""
"","","","","","image-button-response","17","73412","0.0-2.0-2.0-1.6","60fcd2ccc588ee8cca5168c0","F1","batch6","spm_respsonse","2563.9999999999854","img/question_1_7.jpeg","5","mat_07","6","1","1","2563.9999999999854","","","","","","","","","","","","","","","","","","","","",""
"","","","","","html-keyboard-response","18","74466","0.0-2.0-2.0-0.7","60fcd2ccc588ee8cca5168c0","F1","batch6","spm_show_trial_num","null","<p class=block-text>Trial 8 out of 60</p>","null","","","","","","","","","","","","","","","","","","","","","","","","","",""
"","","","","","image-button-response","19","76668","0.0-2.0-2.0-1.7","60fcd2ccc588ee8cca5168c0","F1","batch6","spm_respsonse","2199","img/question_1_8.jpeg","1","mat_08","2","1","1","2199","","","","","","","","","","","","","","","","","","","","",""
"","","","","","html-keyboard-response","20","77720","0.0-2.0-2.0-0.8","60fcd2ccc588ee8cca5168c0","F1","batch6","spm_show_trial_num","null","<p class=block-text>Trial 9 out of 60</p>","null","","","","","","","","","","","","","","","","","","","","","","","","","",""
"","","","","","image-button-response","21","80613","0.0-2.0-2.0-1.8","60fcd2ccc588ee8cca5168c0","F1","batch6","spm_respsonse","2890","img/question_1_9.jpeg","0","mat_09","1","1","1","2890","","","","","","","","","","","","","","","","","","","","",""
"","","","","","html-keyboard-response","22","81666","0.0-2.0-2.0-0.9","60fcd2ccc588ee8cca5168c0","F1","batch6","spm_show_trial_num","null","<p class=block-text>Trial 10 out of 60</p>","null","","","","","","","","","","","","","","","","","","","","","","","","","",""
"","","","","","image-button-response","23","84651","0.0-2.0-2.0-1.9","60fcd2ccc588ee8cca5168c0","F1","batch6","spm_respsonse","2983","img/question_1_10.jpeg","2","mat_10","3","1","1","2983","","","","","","","","","","","","","","","","","","","","",""
"","","","","","html-keyboard-response","24","85704","0.0-2.0-2.0-0.10","60fcd2ccc588ee8cca5168c0","F1","batch6","spm_show_trial_num","null","<p class=block-text>Trial 11 out of 60</p>","null","","","","","","","","","","","","","","","","","","","","","","","","","",""
"","","","","","image-button-response","25","91781","0.0-2.0-2.0-1.10","60fcd2ccc588ee8cca5168c0","F1","batch6","spm_respsonse","6074","img/question_1_11.jpeg","3","mat_11","4","1","1","6074","","","","","","","","","","","","","","","","","","","","",""
"","","","","","html-keyboard-response","26","92835","0.0-2.0-2.0-0.11","60fcd2ccc588ee8cca5168c0","F1","batch6","spm_show_trial_num","null","<p class=block-text>Trial 12 out of 60</p>","null","","","","","","","","","","","","","","","","","","","","","","","","","",""
"","","","","","image-button-response","27","100022","0.0-2.0-2.0-1.11","60fcd2ccc588ee8cca5168c0","F1","batch6","spm_respsonse","7183","img/question_1_12.jpeg","4","mat_12","5","1","1","7183","","","","","","","","","","","","","","","","","","","","",""
"","","","","","html-keyboard-response","28","101075","0.0-2.0-2.0-0.12","60fcd2ccc588ee8cca5168c0","F1","batch6","spm_show_trial_num","null","<p class=block-text>Trial 13 out of 60</p>","null","","","","","","","","","","","","","","","","","","","","","","","","","",""
"","","","","","image-button-response","29","103339","0.0-2.0-2.0-1.12","60fcd2ccc588ee8cca5168c0","F1","batch6","spm_respsonse","2261","img/question_2_1.jpeg","1","mat_13","2","1","1","2261","","","","","","","","","","","","","","","","","","","","",""
"","","","","","html-keyboard-response","30","104392","0.0-2.0-2.0-0.13","60fcd2ccc588ee8cca5168c0","F1","batch6","spm_show_trial_num","null","<p class=block-text>Trial 14 out of 60</p>","null","","","","","","","","","","","","","","","","","","","","","","","","","",""
"","","","","","image-button-response","31","107608","0.0-2.0-2.0-1.13","60fcd2ccc588ee8cca5168c0","F1","batch6","spm_respsonse","3213.0000000000146","img/question_2_2.jpeg","5","mat_14","6","1","1","3213.0000000000146","","","","","","","","","","","","","","","","","","","","",""
"","","","","","html-keyboard-response","32","108661","0.0-2.0-2.0-0.14","60fcd2ccc588ee8cca5168c0","F1","batch6","spm_show_trial_num","null","<p class=block-text>Trial 15 out of 60</p>","null","","","","","","","","","","","","","","","","","","","","","","","","","",""
"","","","","","image-button-response","33","111517","0.0-2.0-2.0-1.14","60fcd2ccc588ee8cca5168c0","F1","batch6","spm_respsonse","2852.0000000000146","img/question_2_3.jpeg","0","mat_15","1","1","1","2852.0000000000146","","","","","","","","","","","","","","","","","","","","",""
"","","","","","html-keyboard-response","34","112569","0.0-2.0-2.0-0.15","60fcd2ccc588ee8cca5168c0","F1","batch6","spm_show_trial_num","null","<p class=block-text>Trial 16 out of 60</p>","null","","","","","","","","","","","","","","","","","","","","","","","","","",""
"","","","","","image-button-response","35","114844","0.0-2.0-2.0-1.15","60fcd2ccc588ee8cca5168c0","F1","batch6","spm_respsonse","2272","img/question_2_4.jpeg","1","mat_16","2","1","1","2272","","","","","","","","","","","","","","","","","","","","",""
"","","","","","html-keyboard-response","36","115897","0.0-2.0-2.0-0.16","60fcd2ccc588ee8cca5168c0","F1","batch6","spm_show_trial_num","null","<p class=block-text>Trial 17 out of 60</p>","null","","","","","","","","","","","","","","","","","","","","","","","","","",""
"","","","","","image-button-response","37","118269","0.0-2.0-2.0-1.16","60fcd2ccc588ee8cca5168c0","F1","batch6","spm_respsonse","2368","img/question_2_5.jpeg","0","mat_17","1","1","1","2368","","","","","","","","","","","","","","","","","","","","",""
"","","","","","html-keyboard-response","38","119321","0.0-2.0-2.0-0.17","60fcd2ccc588ee8cca5168c0","F1","batch6","spm_show_trial_num","null","<p class=block-text>Trial 18 out of 60</p>","null","","","","","","","","","","","","","","","","","","","","","","","","","",""
"","","","","","image-button-response","39","122628","0.0-2.0-2.0-1.17","60fcd2ccc588ee8cca5168c0","F1","batch6","spm_respsonse","3304","img/question_2_6.jpeg","2","mat_18","3","1","1","3304","","","","","","","","","","","","","","","","","","","","",""
"","","","","","html-keyboard-response","40","123679","0.0-2.0-2.0-0.18","60fcd2ccc588ee8cca5168c0","F1","batch6","spm_show_trial_num","null","<p class=block-text>Trial 19 out of 60</p>","null","","","","","","","","","","","","","","","","","","","","","","","","","",""
"","","","","","image-button-response","41","128569","0.0-2.0-2.0-1.18","60fcd2ccc588ee8cca5168c0","F1","batch6","spm_respsonse","4887","img/question_2_7.jpeg","4","mat_19","5","1","1","4887","","","","","","","","","","","","","","","","","","","","",""
"","","","","","html-keyboard-response","42","129621","0.0-2.0-2.0-0.19","60fcd2ccc588ee8cca5168c0","F1","batch6","spm_show_trial_num","null","<p class=block-text>Trial 20 out of 60</p>","null","","","","","","","","","","","","","","","","","","","","","","","","","",""
"","","","","","image-button-response","43","133151","0.0-2.0-2.0-1.19","60fcd2ccc588ee8cca5168c0","F1","batch6","spm_respsonse","3527","img/question_2_8.jpeg","5","mat_20","6","1","1","3527","","","","","","","","","","","","","","","","","","","","",""
"","","","","","html-keyboard-response","44","134203","0.0-2.0-2.0-0.20","60fcd2ccc588ee8cca5168c0","F1","batch6","spm_show_trial_num","null","<p class=block-text>Trial 21 out of 60</p>","null","","","","","","","","","","","","","","","","","","","","","","","","","",""
"","","","","","image-button-response","45","138702","0.0-2.0-2.0-1.20","60fcd2ccc588ee8cca5168c0","F1","batch6","spm_respsonse","4496","img/question_2_9.jpeg","3","mat_21","4","1","1","4496","","","","","","","","","","","","","","","","","","","","",""
"","","","","","html-keyboard-response","46","139754","0.0-2.0-2.0-0.21","60fcd2ccc588ee8cca5168c0","F1","batch6","spm_show_trial_num","null","<p class=block-text>Trial 22 out of 60</p>","null","","","","","","","","","","","","","","","","","","","","","","","","","",""
"","","","","","image-button-response","47","144188","0.0-2.0-2.0-1.21","60fcd2ccc588ee8cca5168c0","F1","batch6","spm_respsonse","4431","img/question_2_10.jpeg","2","mat_22","3","1","1","4431","","","","","","","","","","","","","","","","","","","","",""
"","","","","","html-keyboard-response","48","145238","0.0-2.0-2.0-0.22","60fcd2ccc588ee8cca5168c0","F1","batch6","spm_show_trial_num","null","<p class=block-text>Trial 23 out of 60</p>","null","","","","","","","","","","","","","","","","","","","","","","","","","",""
"","","","","","image-button-response","49","149829","0.0-2.0-2.0-1.22","60fcd2ccc588ee8cca5168c0","F1","batch6","spm_respsonse","4589","img/question_2_11.jpeg","3","mat_23","4","1","1","4589","","","","","","","","","","","","","","","","","","","","",""
"","","","","","html-keyboard-response","50","150882","0.0-2.0-2.0-0.23","60fcd2ccc588ee8cca5168c0","F1","batch6","spm_show_trial_num","null","<p class=block-text>Trial 24 out of 60</p>","null","","","","","","","","","","","","","","","","","","","","","","","","","",""
"","","","","","image-button-response","51","160414","0.0-2.0-2.0-1.23","60fcd2ccc588ee8cca5168c0","F1","batch6","spm_respsonse","9528","img/question_2_12.jpeg","3","mat_24","5","0","0","9528","","","","","","","","","","","","","","","","","","","","",""
"","","","","","html-button-response","52","162713","0.0-2.0-3.0","60fcd2ccc588ee8cca5168c0","F1","batch6","attention_check","2048","<p class = block-text>Attention check: Please choose 1<br></p>","0","","","true","","","","","","","","","","","","","","","","","","","","","","",""
"","","","","","html-keyboard-response","53","163514","0.0-2.0-4.0-0.0","60fcd2ccc588ee8cca5168c0","F1","batch6","spm_show_trial_num","null","<p class=block-text>Trial 25 out of 60</p>","null","","","","","","","","","","","","","","","","","","","","","","","","","",""
"","","","","","image-button-response","54","172258","0.0-2.0-4.0-1.0","60fcd2ccc588ee8cca5168c0","F1","batch6","spm_respsonse","8742","img/question_3_1.jpeg","7","mat_25","8","1","1","8742","","","","","","","","","","","","","","","","","","","","",""
"","","","","","html-keyboard-response","55","173310","0.0-2.0-4.0-0.1","60fcd2ccc588ee8cca5168c0","F1","batch6","spm_show_trial_num","null","<p class=block-text>Trial 26 out of 60</p>","null","","","","","","","","","","","","","","","","","","","","","","","","","",""
"","","","","","image-button-response","56","178578","0.0-2.0-4.0-1.1","60fcd2ccc588ee8cca5168c0","F1","batch6","spm_respsonse","5265","img/question_3_2.jpeg","1","mat_26","2","1","1","5265","","","","","","","","","","","","","","","","","","","","",""
"","","","","","html-keyboard-response","57","179631","0.0-2.0-4.0-0.2","60fcd2ccc588ee8cca5168c0","F1","batch6","spm_show_trial_num","null","<p class=block-text>Trial 27 out of 60</p>","null","","","","","","","","","","","","","","","","","","","","","","","","","",""
"","","","","","image-button-response","58","183697","0.0-2.0-4.0-1.2","60fcd2ccc588ee8cca5168c0","F1","batch6","spm_respsonse","4063","img/question_3_3.jpeg","2","mat_27","3","1","1","4063","","","","","","","","","","","","","","","","","","","","",""
"","","","","","html-keyboard-response","59","184750","0.0-2.0-4.0-0.3","60fcd2ccc588ee8cca5168c0","F1","batch6","spm_show_trial_num","null","<p class=block-text>Trial 28 out of 60</p>","null","","","","","","","","","","","","","","","","","","","","","","","","","",""
"","","","","","image-button-response","60","195507","0.0-2.0-4.0-1.3","60fcd2ccc588ee8cca5168c0","F1","batch6","spm_respsonse","10753","img/question_3_4.jpeg","7","mat_28","8","1","1","10753","","","","","","","","","","","","","","","","","","","","",""
"","","","","","html-keyboard-response","61","196560","0.0-2.0-4.0-0.4","60fcd2ccc588ee8cca5168c0","F1","batch6","spm_show_trial_num","null","<p class=block-text>Trial 29 out of 60</p>","null","","","","","","","","","","","","","","","","","","","","","","","","","",""
"","","","","","image-button-response","62","201212","0.0-2.0-4.0-1.4","60fcd2ccc588ee8cca5168c0","F1","batch6","spm_respsonse","4647","img/question_3_5.jpeg","6","mat_29","7","1","1","4647","","","","","","","","","","","","","","","","","","","","",""
"","","","","","html-keyboard-response","63","202265","0.0-2.0-4.0-0.5","60fcd2ccc588ee8cca5168c0","F1","batch6","spm_show_trial_num","null","<p class=block-text>Trial 30 out of 60</p>","null","","","","","","","","","","","","","","","","","","","","","","","","","",""
"","","","","","image-button-response","64","218125","0.0-2.0-4.0-1.5","60fcd2ccc588ee8cca5168c0","F1","batch6","spm_respsonse","15857","img/question_3_6.jpeg","3","mat_30","4","1","1","15857","","","","","","","","","","","","","","","","","","","","",""
"","","","","","html-keyboard-response","65","219178","0.0-2.0-4.0-0.6","60fcd2ccc588ee8cca5168c0","F1","batch6","spm_show_trial_num","null","<p class=block-text>Trial 31 out of 60</p>","null","","","","","","","","","","","","","","","","","","","","","","","","","",""
"","","","","","image-button-response","66","223577","0.0-2.0-4.0-1.6","60fcd2ccc588ee8cca5168c0","F1","batch6","spm_respsonse","4395.999999999971","img/question_3_7.jpeg","4","mat_31","5","1","1","4395.999999999971","","","","","","","","","","","","","","","","","","","","",""
"","","","","","html-keyboard-response","67","224630","0.0-2.0-4.0-0.7","60fcd2ccc588ee8cca5168c0","F1","batch6","spm_show_trial_num","null","<p class=block-text>Trial 32 out of 60</p>","null","","","","","","","","","","","","","","","","","","","","","","","","","",""
"","","","","","image-button-response","68","237252","0.0-2.0-4.0-1.7","60fcd2ccc588ee8cca5168c0","F1","batch6","spm_respsonse","12618","img/question_3_8.jpeg","0","mat_32","1","1","1","12618","","","","","","","","","","","","","","","","","","","","",""
"","","","","","html-keyboard-response","69","238304","0.0-2.0-4.0-0.8","60fcd2ccc588ee8cca5168c0","F1","batch6","spm_show_trial_num","null","<p class=block-text>Trial 33 out of 60</p>","null","","","","","","","","","","","","","","","","","","","","","","","","","",""
"","","","","","image-button-response","70","244286","0.0-2.0-4.0-1.8","60fcd2ccc588ee8cca5168c0","F1","batch6","spm_respsonse","5977","img/question_3_9.jpeg","6","mat_33","7","1","1","5977","","","","","","","","","","","","","","","","","","","","",""
"","","","","","html-keyboard-response","71","245339","0.0-2.0-4.0-0.9","60fcd2ccc588ee8cca5168c0","F1","batch6","spm_show_trial_num","null","<p class=block-text>Trial 34 out of 60</p>","null","","","","","","","","","","","","","","","","","","","","","","","","","",""
"","","","","","image-button-response","72","268015","0.0-2.0-4.0-1.9","60fcd2ccc588ee8cca5168c0","F1","batch6","spm_respsonse","22672","img/question_3_10.jpeg","5","mat_34","6","1","1","22672","","","","","","","","","","","","","","","","","","","","",""
"","","","","","html-keyboard-response","73","269068","0.0-2.0-4.0-0.10","60fcd2ccc588ee8cca5168c0","F1","batch6","spm_show_trial_num","null","<p class=block-text>Trial 35 out of 60</p>","null","","","","","","","","","","","","","","","","","","","","","","","","","",""
"","","","","","image-button-response","74","308040","0.0-2.0-4.0-1.10","60fcd2ccc588ee8cca5168c0","F1","batch6","spm_respsonse","38967","img/question_3_11.jpeg","0","mat_35","1","1","1","38967","","","","","","","","","","","","","","","","","","","","",""
"","","","","","html-keyboard-response","75","309093","0.0-2.0-4.0-0.11","60fcd2ccc588ee8cca5168c0","F1","batch6","spm_show_trial_num","null","<p class=block-text>Trial 36 out of 60</p>","null","","","","","","","","","","","","","","","","","","","","","","","","","",""
"","","","","","image-button-response","76","342820","0.0-2.0-4.0-1.11","60fcd2ccc588ee8cca5168c0","F1","batch6","spm_respsonse","33723","img/question_3_12.jpeg","1","mat_36","2","1","1","33723","","","","","","","","","","","","","","","","","","","","",""
"","","","","","html-keyboard-response","77","343871","0.0-2.0-4.0-0.12","60fcd2ccc588ee8cca5168c0","F1","batch6","spm_show_trial_num","null","<p class=block-text>Trial 37 out of 60</p>","null","","","","","","","","","","","","","","","","","","","","","","","","","",""
"","","","","","image-button-response","78","346048","0.0-2.0-4.0-1.12","60fcd2ccc588ee8cca5168c0","F1","batch6","spm_respsonse","2174","img/question_4_1.jpeg","2","mat_37","3","1","1","2174","","","","","","","","","","","","","","","","","","","","",""
"","","","","","html-keyboard-response","79","347100","0.0-2.0-4.0-0.13","60fcd2ccc588ee8cca5168c0","F1","batch6","spm_show_trial_num","null","<p class=block-text>Trial 38 out of 60</p>","null","","","","","","","","","","","","","","","","","","","","","","","","","",""
"","","","","","image-button-response","80","352000","0.0-2.0-4.0-1.13","60fcd2ccc588ee8cca5168c0","F1","batch6","spm_respsonse","4897","img/question_4_2.jpeg","3","mat_38","4","1","1","4897","","","","","","","","","","","","","","","","","","","","",""
"","","","","","html-keyboard-response","81","353051","0.0-2.0-4.0-0.14","60fcd2ccc588ee8cca5168c0","F1","batch6","spm_show_trial_num","null","<p class=block-text>Trial 39 out of 60</p>","null","","","","","","","","","","","","","","","","","","","","","","","","","",""
"","","","","","image-button-response","82","358282","0.0-2.0-4.0-1.14","60fcd2ccc588ee8cca5168c0","F1","batch6","spm_respsonse","5229","img/question_4_3.jpeg","2","mat_39","3","1","1","5229","","","","","","","","","","","","","","","","","","","","",""
"","","","","","html-keyboard-response","83","359334","0.0-2.0-4.0-0.15","60fcd2ccc588ee8cca5168c0","F1","batch6","spm_show_trial_num","null","<p class=block-text>Trial 40 out of 60</p>","null","","","","","","","","","","","","","","","","","","","","","","","","","",""
"","","","","","image-button-response","84","364346","0.0-2.0-4.0-1.15","60fcd2ccc588ee8cca5168c0","F1","batch6","spm_respsonse","5007.999999999942","img/question_4_4.jpeg","6","mat_40","7","1","1","5007.999999999942","","","","","","","","","","","","","","","","","","","","",""
"","","","","","html-keyboard-response","85","365397","0.0-2.0-4.0-0.16","60fcd2ccc588ee8cca5168c0","F1","batch6","spm_show_trial_num","null","<p class=block-text>Trial 41 out of 60</p>","null","","","","","","","","","","","","","","","","","","","","","","","","","",""
"","","","","","image-button-response","86","378653","0.0-2.0-4.0-1.16","60fcd2ccc588ee8cca5168c0","F1","batch6","spm_respsonse","13251","img/question_4_5.jpeg","7","mat_41","8","1","1","13251","","","","","","","","","","","","","","","","","","","","",""
"","","","","","html-keyboard-response","87","379706","0.0-2.0-4.0-0.17","60fcd2ccc588ee8cca5168c0","F1","batch6","spm_show_trial_num","null","<p class=block-text>Trial 42 out of 60</p>","null","","","","","","","","","","","","","","","","","","","","","","","","","",""
"","","","","","image-button-response","88","386715","0.0-2.0-4.0-1.17","60fcd2ccc588ee8cca5168c0","F1","batch6","spm_respsonse","7006","img/question_4_6.jpeg","5","mat_42","6","1","1","7006","","","","","","","","","","","","","","","","","","","","",""
"","","","","","html-keyboard-response","89","387768","0.0-2.0-4.0-0.18","60fcd2ccc588ee8cca5168c0","F1","batch6","spm_show_trial_num","null","<p class=block-text>Trial 43 out of 60</p>","null","","","","","","","","","","","","","","","","","","","","","","","","","",""
"","","","","","image-button-response","90","394858","0.0-2.0-4.0-1.18","60fcd2ccc588ee8cca5168c0","F1","batch6","spm_respsonse","7087","img/question_4_7.jpeg","4","mat_43","5","1","1","7087","","","","","","","","","","","","","","","","","","","","",""
"","","","","","html-keyboard-response","91","395911","0.0-2.0-4.0-0.19","60fcd2ccc588ee8cca5168c0","F1","batch6","spm_show_trial_num","null","<p class=block-text>Trial 44 out of 60</p>","null","","","","","","","","","","","","","","","","","","","","","","","","","",""
"","","","","","image-button-response","92","402186","0.0-2.0-4.0-1.19","60fcd2ccc588ee8cca5168c0","F1","batch6","spm_respsonse","6271","img/question_4_8.jpeg","3","mat_44","4","1","1","6271","","","","","","","","","","","","","","","","","","","","",""
"","","","","","html-keyboard-response","93","403239","0.0-2.0-4.0-0.20","60fcd2ccc588ee8cca5168c0","F1","batch6","spm_show_trial_num","null","<p class=block-text>Trial 45 out of 60</p>","null","","","","","","","","","","","","","","","","","","","","","","","","","",""
"","","","","","image-button-response","94","413690","0.0-2.0-4.0-1.20","60fcd2ccc588ee8cca5168c0","F1","batch6","spm_respsonse","10448.000000000058","img/question_4_9.jpeg","0","mat_45","1","1","1","10448.000000000058","","","","","","","","","","","","","","","","","","","","",""
"","","","","","html-keyboard-response","95","414743","0.0-2.0-4.0-0.21","60fcd2ccc588ee8cca5168c0","F1","batch6","spm_show_trial_num","null","<p class=block-text>Trial 46 out of 60</p>","null","","","","","","","","","","","","","","","","","","","","","","","","","",""
"","","","","","image-button-response","96","428473","0.0-2.0-4.0-1.21","60fcd2ccc588ee8cca5168c0","F1","batch6","spm_respsonse","13724","img/question_4_10.jpeg","1","mat_46","2","1","1","13724","","","","","","","","","","","","","","","","","","","","",""
"","","","","","html-keyboard-response","97","429526","0.0-2.0-4.0-0.22","60fcd2ccc588ee8cca5168c0","F1","batch6","spm_show_trial_num","null","<p class=block-text>Trial 47 out of 60</p>","null","","","","","","","","","","","","","","","","","","","","","","","","","",""
"","","","","","image-button-response","98","483382","0.0-2.0-4.0-1.22","60fcd2ccc588ee8cca5168c0","F1","batch6","spm_respsonse","53844.99999999994","img/question_4_11.jpeg","4","mat_47","5","1","1","53844.99999999994","","","","","","","","","","","","","","","","","","","","",""
"","","","","","html-keyboard-response","99","484435","0.0-2.0-4.0-0.23","60fcd2ccc588ee8cca5168c0","F1","batch6","spm_show_trial_num","null","<p class=block-text>Trial 48 out of 60</p>","null","","","","","","","","","","","","","","","","","","","","","","","","","",""
"","","","","","image-button-response","100","504826","0.0-2.0-4.0-1.23","60fcd2ccc588ee8cca5168c0","F1","batch6","spm_respsonse","20385","img/question_4_12.jpeg","7","mat_48","6","0","0","20385","","","","","","","","","","","","","","","","","","","","",""
"","","","","","html-keyboard-response","101","505879","0.0-2.0-4.0-0.24","60fcd2ccc588ee8cca5168c0","F1","batch6","spm_show_trial_num","null","<p class=block-text>Trial 49 out of 60</p>","null","","","","","","","","","","","","","","","","","","","","","","","","","",""
"","","","","","image-button-response","102","510783","0.0-2.0-4.0-1.24","60fcd2ccc588ee8cca5168c0","F1","batch6","spm_respsonse","4899","img/question_5_1.jpeg","6","mat_49","7","1","1","4899","","","","","","","","","","","","","","","","","","","","",""
"","","","","","html-keyboard-response","103","511836","0.0-2.0-4.0-0.25","60fcd2ccc588ee8cca5168c0","F1","batch6","spm_show_trial_num","null","<p class=block-text>Trial 50 out of 60</p>","null","","","","","","","","","","","","","","","","","","","","","","","","","",""
"","","","","","image-button-response","104","526803","0.0-2.0-4.0-1.25","60fcd2ccc588ee8cca5168c0","F1","batch6","spm_respsonse","14962.999999999942","img/question_5_2.jpeg","5","mat_50","6","1","1","14962.999999999942","","","","","","","","","","","","","","","","","","","","",""
"","","","","","html-keyboard-response","105","527855","0.0-2.0-4.0-0.26","60fcd2ccc588ee8cca5168c0","F1","batch6","spm_show_trial_num","null","<p class=block-text>Trial 51 out of 60</p>","null","","","","","","","","","","","","","","","","","","","","","","","","","",""
"","","","","","image-button-response","106","538490","0.0-2.0-4.0-1.26","60fcd2ccc588ee8cca5168c0","F1","batch6","spm_respsonse","10631","img/question_5_3.jpeg","7","mat_51","8","1","1","10631","","","","","","","","","","","","","","","","","","","","",""
"","","","","","html-keyboard-response","107","539542","0.0-2.0-4.0-0.27","60fcd2ccc588ee8cca5168c0","F1","batch6","spm_show_trial_num","null","<p class=block-text>Trial 52 out of 60</p>","null","","","","","","","","","","","","","","","","","","","","","","","","","",""
"","","","","","image-button-response","108","548825","0.0-2.0-4.0-1.27","60fcd2ccc588ee8cca5168c0","F1","batch6","spm_respsonse","9280","img/question_5_4.jpeg","1","mat_52","2","1","1","9280","","","","","","","","","","","","","","","","","","","","",""
"","","","","","html-keyboard-response","109","549878","0.0-2.0-4.0-0.28","60fcd2ccc588ee8cca5168c0","F1","batch6","spm_show_trial_num","null","<p class=block-text>Trial 53 out of 60</p>","null","","","","","","","","","","","","","","","","","","","","","","","","","",""
"","","","","","image-button-response","110","559834","0.0-2.0-4.0-1.28","60fcd2ccc588ee8cca5168c0","F1","batch6","spm_respsonse","9953","img/question_5_5.jpeg","0","mat_53","1","1","1","9953","","","","","","","","","","","","","","","","","","","","",""
"","","","","","html-keyboard-response","111","560887","0.0-2.0-4.0-0.29","60fcd2ccc588ee8cca5168c0","F1","batch6","spm_show_trial_num","null","<p class=block-text>Trial 54 out of 60</p>","null","","","","","","","","","","","","","","","","","","","","","","","","","",""
"","","","","","image-button-response","112","577962","0.0-2.0-4.0-1.29","60fcd2ccc588ee8cca5168c0","F1","batch6","spm_respsonse","17071","img/question_5_6.jpeg","4","mat_54","5","1","1","17071","","","","","","","","","","","","","","","","","","","","",""
"","","","","","html-keyboard-response","113","579015","0.0-2.0-4.0-0.30","60fcd2ccc588ee8cca5168c0","F1","batch6","spm_show_trial_num","null","<p class=block-text>Trial 55 out of 60</p>","null","","","","","","","","","","","","","","","","","","","","","","","","","",""
"","","","","","image-button-response","114","615415","0.0-2.0-4.0-1.30","60fcd2ccc588ee8cca5168c0","F1","batch6","spm_respsonse","36395.99999999988","img/question_5_7.jpeg","0","mat_55","1","1","1","36395.99999999988","","","","","","","","","","","","","","","","","","","","",""
"","","","","","html-keyboard-response","115","616468","0.0-2.0-4.0-0.31","60fcd2ccc588ee8cca5168c0","F1","batch6","spm_show_trial_num","null","<p class=block-text>Trial 56 out of 60</p>","null","","","","","","","","","","","","","","","","","","","","","","","","","",""
"","","","","","image-button-response","116","639921","0.0-2.0-4.0-1.31","60fcd2ccc588ee8cca5168c0","F1","batch6","spm_respsonse","23449.999999999884","img/question_5_8.jpeg","1","mat_56","6","0","0","23449.999999999884","","","","","","","","","","","","","","","","","","","","",""
"","","","","","html-keyboard-response","117","640974","0.0-2.0-4.0-0.32","60fcd2ccc588ee8cca5168c0","F1","batch6","spm_show_trial_num","null","<p class=block-text>Trial 57 out of 60</p>","null","","","","","","","","","","","","","","","","","","","","","","","","","",""
"","","","","","image-button-response","118","657076","0.0-2.0-4.0-1.32","60fcd2ccc588ee8cca5168c0","F1","batch6","spm_respsonse","16098.999999999884","img/question_5_9.jpeg","1","mat_57","3","0","0","16098.999999999884","","","","","","","","","","","","","","","","","","","","",""
"","","","","","html-keyboard-response","119","658127","0.0-2.0-4.0-0.33","60fcd2ccc588ee8cca5168c0","F1","batch6","spm_show_trial_num","null","<p class=block-text>Trial 58 out of 60</p>","null","","","","","","","","","","","","","","","","","","","","","","","","","",""
"","","","","","image-button-response","120","681700","0.0-2.0-4.0-1.33","60fcd2ccc588ee8cca5168c0","F1","batch6","spm_respsonse","23569","img/question_5_10.jpeg","1","mat_58","2","1","1","23569","","","","","","","","","","","","","","","","","","","","",""
"","","","","","html-keyboard-response","121","682752","0.0-2.0-4.0-0.34","60fcd2ccc588ee8cca5168c0","F1","batch6","spm_show_trial_num","null","<p class=block-text>Trial 59 out of 60</p>","null","","","","","","","","","","","","","","","","","","","","","","","","","",""
"","","","","","image-button-response","122","700356","0.0-2.0-4.0-1.34","60fcd2ccc588ee8cca5168c0","F1","batch6","spm_respsonse","17601","img/question_5_11.jpeg","3","mat_59","4","1","1","17601","","","","","","","","","","","","","","","","","","","","",""
"","","","","","html-keyboard-response","123","701409","0.0-2.0-4.0-0.35","60fcd2ccc588ee8cca5168c0","F1","batch6","spm_show_trial_num","null","<p class=block-text>Trial 60 out of 60</p>","null","","","","","","","","","","","","","","","","","","","","","","","","","",""
"","","","","","image-button-response","124","749742","0.0-2.0-4.0-1.35","60fcd2ccc588ee8cca5168c0","F1","batch6","spm_respsonse","48328","img/question_5_12.jpeg","4","mat_60","5","1","1","48328","","","","","","","","","","","","","","","","","","","","",""
"","","","","","html-button-response","125","754622","0.0-2.0-5.0","60fcd2ccc588ee8cca5168c0","F1","batch6","spm_goodbye","4627.999999999884","<p class= block-text>This concludes the Standard Progressive Matrix game. Thank you for your responses!<br> When you are ready, click the button continue</p>","0","","","","","","","","","","","","","","","","","","","","","","","","","",""
"true","","","","","fullscreen","126","758960","0.0-3.0-0.0","60fcd2ccc588ee8cca5168c0","F1","batch6","","","","","","","","","","","","","","","","","","","","","","","","","","","","","",""
"","","","","","instructions","127","780610","0.0-3.0-1.0-0.0","60fcd2ccc588ee8cca5168c0","F1","batch6","","21649","","","","","","","","[{""page_index"":0,""viewing_time"":15647},{""page_index"":1,""viewing_time"":6001}]","","","","","","","","","","","","","","","","","","","",""
"","","","","","html-button-response","128","782840","0.0-3.0-1.0-1.0-0.0","60fcd2ccc588ee8cca5168c0","F1","batch6","pattern_enter_quiz","2229","<p class=block-text> Let's answer a few questions <br>","0","","","","","","","","","","","","","","","","","","","","","","","","","",""
"","","","","","html-button-response","129","789514","0.0-3.0-1.0-1.0-1.0","60fcd2ccc588ee8cca5168c0","F1","batch6","pattern_quiz","6672","<p class = block-text>True or False: You will have as much time as you want to make each choice. <br></p>","0","","","false","","","","","","","","","","","","","","","","","","","","","","",""
"","","","","","html-button-response","130","791551","0.0-3.0-1.0-1.0-2.0","60fcd2ccc588ee8cca5168c0","F1","batch6","pattern_quiz_feedback","2035","<p class = block-text>Incorrect. Remember, You should make your choice as fast as you can.</p>","0","","","","","","","","","","","","","","","","","","","","","","","","","",""
"","","","","","html-button-response","131","795703","0.0-3.0-1.0-1.0-3.0","60fcd2ccc588ee8cca5168c0","F1","batch6","pattern_quiz","4149","<p class = block-text>True or False: You will look for 4 pieces in black or white color connected in a row either horizontally, vertically or diagonally. <br></p>","0","","","true","","","","","","","","","","","","","","","","","","","","","","",""
"","","","","","html-button-response","132","796440","0.0-3.0-1.0-1.0-4.0","60fcd2ccc588ee8cca5168c0","F1","batch6","pattern_quiz_feedback","736","<p class = block-text>Correct! </p>","0","","","","","","","","","","","","","","","","","","","","","","","","","",""
"","","","","","html-button-response","133","799407","0.0-3.0-1.0-2.0-0.0","60fcd2ccc588ee8cca5168c0","F1","batch6","","2964.9999999998836","<p class = block-text>You made too many incorrect choices.</p><p class = block-text>You will now repeat the instruction and quiz</p>","0","","","","","","","","","","","","","","","","","","","","","","","","","",""
"","","","","","instructions","134","801426","0.0-3.0-1.1-0.1","60fcd2ccc588ee8cca5168c0","F1","batch6","","2015","","","","","","","","[{""page_index"":0,""viewing_time"":1133},{""page_index"":1,""viewing_time"":882}]","","","","","","","","","","","","","","","","","","","",""
"","","","","","html-button-response","135","802285","0.0-3.0-1.1-1.1-0.1","60fcd2ccc588ee8cca5168c0","F1","batch6","pattern_enter_quiz","856.9999999998836","<p class=block-text> Let's answer a few questions <br>","0","","","","","","","","","","","","","","","","","","","","","","","","","",""
"","","","","","html-button-response","136","803225","0.0-3.0-1.1-1.1-1.1","60fcd2ccc588ee8cca5168c0","F1","batch6","pattern_quiz","936","<p class = block-text>True or False: You will have as much time as you want to make each choice. <br></p>","1","","","true","","","","","","","","","","","","","","","","","","","","","","",""
"","","","","","html-button-response","137","804026","0.0-3.0-1.1-1.1-2.1","60fcd2ccc588ee8cca5168c0","F1","batch6","pattern_quiz_feedback","799.9999999998836","<p class = block-text>Correct! You should make your choice <strong> as fast as you can</strong>.</p>","0","","","","","","","","","","","","","","","","","","","","","","","","","",""
"","","","","","html-button-response","138","805136","0.0-3.0-1.1-1.1-3.1","60fcd2ccc588ee8cca5168c0","F1","batch6","pattern_quiz","1108","<p class = block-text>True or False: You will look for 4 pieces in black or white color connected in a row either horizontally, vertically or diagonally. <br></p>","0","","","true","","","","","","","","","","","","","","","","","","","","","","",""
"","","","","","html-button-response","139","805996","0.0-3.0-1.1-1.1-4.1","60fcd2ccc588ee8cca5168c0","F1","batch6","pattern_quiz_feedback","859","<p class = block-text>Correct! </p>","0","","","","","","","","","","","","","","","","","","","","","","","","","",""
"","","","","","html-button-response","140","807885","0.0-3.0-2.0","60fcd2ccc588ee8cca5168c0","F1","batch6","pattern_enter_practice","1885","<p class=block-text> Now that you've understood the game, let's do a few practice trials before we start!<br> <br>","0","","","","","","","","","","","","","","","","","","","","","","","","","",""
"","","","","","image-keyboard-response","141","810321","0.0-3.0-3.0-0.0","60fcd2ccc588ee8cca5168c0","F1","batch6","pattern_practice","2431","stim/prac_no_18_1.png","j","","j","true","","","","","","","","","","","","","","","","","","","","","","",""
"","","","","","html-keyboard-response","142","811323","0.0-3.0-3.0-1.0","60fcd2ccc588ee8cca5168c0","F1","batch6","pattern_feedback","null","<p style=""font-size:30px;color:green;"">Correct!</p>","null","","","","","","","","","","","","","","","","","","","","","","","","","",""
"","","","","","image-keyboard-response","143","814034","0.0-3.0-3.0-0.1","60fcd2ccc588ee8cca5168c0","F1","batch6","pattern_practice","2708","stim/prac_yes_16_ver_w1.png","f","","f","true","","","","","","","","","","","","","","","","","","","","","","",""
"","","","","","html-keyboard-response","144","815036","0.0-3.0-3.0-1.1","60fcd2ccc588ee8cca5168c0","F1","batch6","pattern_feedback","null","<p style=""font-size:30px;color:green;"">Correct!</p>","null","","","","","","","","","","","","","","","","","","","","","","","","","",""
"","","","","","image-keyboard-response","145","816223","0.0-3.0-3.0-0.2","60fcd2ccc588ee8cca5168c0","F1","batch6","pattern_practice","1184","stim/prac_yes_20_dia_b1.png","f","","f","true","","","","","","","","","","","","","","","","","","","","","","",""
"","","","","","html-keyboard-response","146","817225","0.0-3.0-3.0-1.2","60fcd2ccc588ee8cca5168c0","F1","batch6","pattern_feedback","null","<p style=""font-size:30px;color:green;"">Correct!</p>","null","","","","","","","","","","","","","","","","","","","","","","","","","",""
"","","","","","image-keyboard-response","147","818517","0.0-3.0-3.0-0.3","60fcd2ccc588ee8cca5168c0","F1","batch6","pattern_practice","1289","stim/prac_no_16_1.png","j","","j","true","","","","","","","","","","","","","","","","","","","","","","",""
"","","","","","html-keyboard-response","148","819520","0.0-3.0-3.0-1.3","60fcd2ccc588ee8cca5168c0","F1","batch6","pattern_feedback","null","<p style=""font-size:30px;color:green;"">Correct!</p>","null","","","","","","","","","","","","","","","","","","","","","","","","","",""
"","","","","","image-keyboard-response","149","820322","0.0-3.0-3.0-0.4","60fcd2ccc588ee8cca5168c0","F1","batch6","pattern_practice","800.0000000001164","stim/prac_yes_18_hor_w1.png","f","","f","true","","","","","","","","","","","","","","","","","","","","","","",""
"","","","","","html-keyboard-response","150","821325","0.0-3.0-3.0-1.4","60fcd2ccc588ee8cca5168c0","F1","batch6","pattern_feedback","null","<p style=""font-size:30px;color:green;"">Correct!</p>","null","","","","","","","","","","","","","","","","","","","","","","","","","",""
"","","","","","html-button-response","151","824395","0.0-3.0-4.0","60fcd2ccc588ee8cca5168c0","F1","batch6","pattern_enter_official_trials","3067","<p class=block-text> Good job! You are done with practice trials!<br>
        You responded correctly on 100% of the trials.<br>
        Press the button below to start official trials. Now you won't see any feedback about your response</p>","0","","","","","","","","","","","","","","","","","","","","","","","","","",""
"","","","","","html-keyboard-response","152","825196","0.0-3.0-5.0-0.0","60fcd2ccc588ee8cca5168c0","F1","batch6","pattern_show_trial_num","null","<p class=block-text>Trial 1 out of 78</p>","null","","","","","","","","","","","","","","","","","","","","","","","","","",""
"","","","","","image-keyboard-response","153","835303","0.0-3.0-5.0-1.0","60fcd2ccc588ee8cca5168c0","F1","batch6","pattern_response","10103","stim/no_67_1.png","j","pattern_39","j","true","","","","10103","true","1","","","","","","","","","","","","","","","","",""
"","","","","","html-keyboard-response","154","836606","0.0-3.0-5.0-0.1","60fcd2ccc588ee8cca5168c0","F1","batch6","pattern_show_trial_num","null","<p class=block-text>Trial 2 out of 78</p>","null","","","","","","","","","","","","","","","","","","","","","","","","","",""
"","","","","","image-keyboard-response","155","839973","0.0-3.0-5.0-1.1","60fcd2ccc588ee8cca5168c0","F1","batch6","pattern_response","3363.0000000001164","stim/yes_42_dia_w1_w.png","j","pattern_64","f","false","","","","3363.0000000001164","false","1","","","","","","","","","","","","","","","","",""
"","","","","","html-keyboard-response","156","841276","0.0-3.0-5.0-0.2","60fcd2ccc588ee8cca5168c0","F1","batch6","pattern_show_trial_num","null","<p class=block-text>Trial 3 out of 78</p>","null","","","","","","","","","","","","","","","","","","","","","","","","","",""
"","","","","","image-keyboard-response","157","843905","0.0-3.0-5.0-1.2","60fcd2ccc588ee8cca5168c0","F1","batch6","pattern_response","2627.0000000001164","stim/no_47_1_b.png","j","pattern_27","j","true","","","","2627.0000000001164","true","2","","","","","","","","","","","","","","","","",""
"","","","","","html-keyboard-response","158","845208","0.0-3.0-5.0-0.3","60fcd2ccc588ee8cca5168c0","F1","batch6","pattern_show_trial_num","null","<p class=block-text>Trial 4 out of 78</p>","null","","","","","","","","","","","","","","","","","","","","","","","","","",""
"","","","","","image-keyboard-response","159","850747","0.0-3.0-5.0-1.3","60fcd2ccc588ee8cca5168c0","F1","batch6","pattern_response","5537","stim/no_53_1_b.png","j","pattern_33","j","true","","","","5537","true","3","","","","","","","","","","","","","","","","",""
"","","","","","html-keyboard-response","160","852050","0.0-3.0-5.0-0.4","60fcd2ccc588ee8cca5168c0","F1","batch6","pattern_show_trial_num","null","<p class=block-text>Trial 5 out of 78</p>","null","","","","","","","","","","","","","","","","","","","","","","","","","",""
"","","","","","image-keyboard-response","161","853449","0.0-3.0-5.0-1.4","60fcd2ccc588ee8cca5168c0","F1","batch6","pattern_response","1395.0000000001164","stim/yes_63_dia_b1.png","f","pattern_78","f","true","","","","1395.0000000001164","true","4","","","","","","","","","","","","","","","","",""
"","","","","","html-keyboard-response","162","854752","0.0-3.0-5.0-0.5","60fcd2ccc588ee8cca5168c0","F1","batch6","pattern_show_trial_num","null","<p class=block-text>Trial 6 out of 78</p>","null","","","","","","","","","","","","","","","","","","","","","","","","","",""
"","","","","","image-keyboard-response","163","855648","0.0-3.0-5.0-1.5","60fcd2ccc588ee8cca5168c0","F1","batch6","pattern_response","893","stim/yes_36_ver_w1_w.png","f","pattern_58","f","true","","","","893","true","5","","","","","","","","","","","","","","","","",""
"","","","","","html-keyboard-response","164","856951","0.0-3.0-5.0-0.6","60fcd2ccc588ee8cca5168c0","F1","batch6","pattern_show_trial_num","null","<p class=block-text>Trial 7 out of 78</p>","null","","","","","","","","","","","","","","","","","","","","","","","","","",""
"","","","","","image-keyboard-response","165","857886","0.0-3.0-5.0-1.6","60fcd2ccc588ee8cca5168c0","F1","batch6","pattern_response","931.9999999998836","stim/no_12_1.png","j","pattern_01","j","true","","","","931.9999999998836","true","6","","","","","","","","","","","","","","","","",""
"","","","","","html-keyboard-response","166","859188","0.0-3.0-5.0-0.7","60fcd2ccc588ee8cca5168c0","F1","batch6","pattern_show_trial_num","null","<p class=block-text>Trial 8 out of 78</p>","null","","","","","","","","","","","","","","","","","","","","","","","","","",""
"","","","","","image-keyboard-response","167","860268","0.0-3.0-5.0-1.7","60fcd2ccc588ee8cca5168c0","F1","batch6","pattern_response","1077","stim/yes_26_dia_w2_w.png","f","pattern_50","f","true","","","","1077","true","7","","","","","","","","","","","","","","","","",""
"","","","","","html-keyboard-response","168","861571","0.0-3.0-5.0-0.8","60fcd2ccc588ee8cca5168c0","F1","batch6","pattern_show_trial_num","null","<p class=block-text>Trial 9 out of 78</p>","null","","","","","","","","","","","","","","","","","","","","","","","","","",""
"","","","","","image-keyboard-response","169","862297","0.0-3.0-5.0-1.8","60fcd2ccc588ee8cca5168c0","F1","batch6","pattern_response","713","stim/yes_70_ver_b1.png","f","pattern_80","f","true","","","","713","true","8","","","","","","","","","","","","","","","","",""
"","","","","","html-keyboard-response","170","863601","0.0-3.0-5.0-0.9","60fcd2ccc588ee8cca5168c0","F1","batch6","pattern_show_trial_num","null","<p class=block-text>Trial 10 out of 78</p>","null","","","","","","","","","","","","","","","","","","","","","","","","","",""
"","","","","","image-keyboard-response","171","867859","0.0-3.0-5.0-1.9","60fcd2ccc588ee8cca5168c0","F1","batch6","pattern_response","4254","stim/no_58_1_w.png","j","pattern_35","j","true","","","","4254","true","9","","","","","","","","","","","","","","","","",""
"","","","","","html-keyboard-response","172","869162","0.0-3.0-5.0-0.10","60fcd2ccc588ee8cca5168c0","F1","batch6","pattern_show_trial_num","null","<p class=block-text>Trial 11 out of 78</p>","null","","","","","","","","","","","","","","","","","","","","","","","","","",""
"","","","","","image-keyboard-response","173","871809","0.0-3.0-5.0-1.10","60fcd2ccc588ee8cca5168c0","F1","batch6","pattern_response","2644","stim/no_37_2_w.png","j","pattern_19","j","true","","","","2644","true","10","","","","","","","","","","","","","","","","",""
"","","","","","html-keyboard-response","174","873113","0.0-3.0-5.0-0.11","60fcd2ccc588ee8cca5168c0","F1","batch6","pattern_show_trial_num","null","<p class=block-text>Trial 12 out of 78</p>","null","","","","","","","","","","","","","","","","","","","","","","","","","",""
"","","","","","image-keyboard-response","175","874949","0.0-3.0-5.0-1.11","60fcd2ccc588ee8cca5168c0","F1","batch6","pattern_response","1832","stim/no_28_2.png","j","pattern_11","j","true","","","","1832","true","11","","","","","","","","","","","","","","","","",""
"","","","","","html-keyboard-response","176","876251","0.0-3.0-5.0-0.12","60fcd2ccc588ee8cca5168c0","F1","batch6","pattern_show_trial_num","null","<p class=block-text>Trial 13 out of 78</p>","null","","","","","","","","","","","","","","","","","","","","","","","","","",""
"","","","","","image-keyboard-response","177","877146","0.0-3.0-5.0-1.12","60fcd2ccc588ee8cca5168c0","F1","batch6","pattern_response","893.0000000001164","stim/yes_17_ver_b1_b.png","f","pattern_46","f","true","","","","893.0000000001164","true","12","","","","","","","","","","","","","","","","",""
"","","","","","html-keyboard-response","178","878448","0.0-3.0-5.0-0.13","60fcd2ccc588ee8cca5168c0","F1","batch6","pattern_show_trial_num","null","<p class=block-text>Trial 14 out of 78</p>","null","","","","","","","","","","","","","","","","","","","","","","","","","",""
"","","","","","image-keyboard-response","179","879097","0.0-3.0-5.0-1.13","60fcd2ccc588ee8cca5168c0","F1","batch6","pattern_response","646","stim/yes_15_dia_b1u_b.png","f","pattern_44","f","true","","","","646","true","13","","","","","","","","","","","","","","","","",""
"","","","","","html-keyboard-response","180","880400","0.0-3.0-5.0-0.14","60fcd2ccc588ee8cca5168c0","F1","batch6","pattern_show_trial_num","null","<p class=block-text>Trial 15 out of 78</p>","null","","","","","","","","","","","","","","","","","","","","","","","","","",""
"","","","","","image-keyboard-response","181","881486","0.0-3.0-5.0-1.14","60fcd2ccc588ee8cca5168c0","F1","batch6","pattern_response","1080","stim/yes_39_hor_w1_w.png","f","pattern_62","f","true","","","","1080","true","14","","","","","","","","","","","","","","","","",""
"","","","","","html-keyboard-response","182","882789","0.0-3.0-5.0-0.15","60fcd2ccc588ee8cca5168c0","F1","batch6","pattern_show_trial_num","null","<p class=block-text>Trial 16 out of 78</p>","null","","","","","","","","","","","","","","","","","","","","","","","","","",""
"","","","","","image-keyboard-response","183","884505","0.0-3.0-5.0-1.15","60fcd2ccc588ee8cca5168c0","F1","batch6","pattern_response","1713","stim/no_33_1_b.png","j","pattern_15","j","true","","","","1713","true","15","","","","","","","","","","","","","","","","",""
"","","","","","html-keyboard-response","184","885807","0.0-3.0-5.0-0.16","60fcd2ccc588ee8cca5168c0","F1","batch6","pattern_show_trial_num","null","<p class=block-text>Trial 17 out of 78</p>","null","","","","","","","","","","","","","","","","","","","","","","","","","",""
"","","","","","image-keyboard-response","185","887504","0.0-3.0-5.0-1.16","60fcd2ccc588ee8cca5168c0","F1","batch6","pattern_response","1693","stim/yes_29_hor_b1_b.png","f","pattern_52","f","true","","","","1693","true","16","","","","","","","","","","","","","","","","",""
"","","","","","html-keyboard-response","186","888807","0.0-3.0-5.0-0.17","60fcd2ccc588ee8cca5168c0","F1","batch6","pattern_show_trial_num","null","<p class=block-text>Trial 18 out of 78</p>","null","","","","","","","","","","","","","","","","","","","","","","","","","",""
"","","","","","image-keyboard-response","187","890404","0.0-3.0-5.0-1.17","60fcd2ccc588ee8cca5168c0","F1","batch6","pattern_response","1594","stim/no_36_1_b.png","j","pattern_17","j","true","","","","1594","true","17","","","","","","","","","","","","","","","","",""
"","","","","","html-keyboard-response","188","891707","0.0-3.0-5.0-0.18","60fcd2ccc588ee8cca5168c0","F1","batch6","pattern_show_trial_num","null","<p class=block-text>Trial 19 out of 78</p>","null","","","","","","","","","","","","","","","","","","","","","","","","","",""
"","","","","","image-keyboard-response","189","894302","0.0-3.0-5.0-1.18","60fcd2ccc588ee8cca5168c0","F1","batch6","pattern_response","2592","stim/yes_44_ver_w1_w.png","j","pattern_66","f","false","","","","2592","false","17","","","","","","","","","","","","","","","","",""
"","","","","","html-keyboard-response","190","895606","0.0-3.0-5.0-0.19","60fcd2ccc588ee8cca5168c0","F1","batch6","pattern_show_trial_num","null","<p class=block-text>Trial 20 out of 78</p>","null","","","","","","","","","","","","","","","","","","","","","","","","","",""
"","","","","","image-keyboard-response","191","897077","0.0-3.0-5.0-1.19","60fcd2ccc588ee8cca5168c0","F1","batch6","pattern_response","1467.9999999998836","stim/no_15_1_w.png","j","pattern_03","j","true","","","","1467.9999999998836","true","18","","","","","","","","","","","","","","","","",""
"","","","","","html-keyboard-response","192","898380","0.0-3.0-5.0-0.20","60fcd2ccc588ee8cca5168c0","F1","batch6","pattern_show_trial_num","null","<p class=block-text>Trial 21 out of 78</p>","null","","","","","","","","","","","","","","","","","","","","","","","","","",""
"","","","","","image-keyboard-response","193","900053","0.0-3.0-5.0-1.20","60fcd2ccc588ee8cca5168c0","F1","batch6","pattern_response","1669.9999999998836","stim/no_30_1_b.png","j","pattern_13","j","true","","","","1669.9999999998836","true","19","","","","","","","","","","","","","","","","",""
"","","","","","html-keyboard-response","194","901355","0.0-3.0-5.0-0.21","60fcd2ccc588ee8cca5168c0","F1","batch6","pattern_show_trial_num","null","<p class=block-text>Trial 22 out of 78</p>","null","","","","","","","","","","","","","","","","","","","","","","","","","",""
"","","","","","image-keyboard-response","195","903343","0.0-3.0-5.0-1.21","60fcd2ccc588ee8cca5168c0","F1","batch6","pattern_response","1985","stim/no_49_2_b.png","j","pattern_29","j","true","","","","1985","true","20","","","","","","","","","","","","","","","","",""
"","","","","","html-keyboard-response","196","904646","0.0-3.0-5.0-0.22","60fcd2ccc588ee8cca5168c0","F1","batch6","pattern_show_trial_num","null","<p class=block-text>Trial 23 out of 78</p>","null","","","","","","","","","","","","","","","","","","","","","","","","","",""
"","","","","","image-keyboard-response","197","905793","0.0-3.0-5.0-1.22","60fcd2ccc588ee8cca5168c0","F1","batch6","pattern_response","1145","stim/yes_53_ver_b1_b.png","f","pattern_74","f","true","","","","1145","true","21","","","","","","","","","","","","","","","","",""
"","","","","","html-keyboard-response","198","907096","0.0-3.0-5.0-0.23","60fcd2ccc588ee8cca5168c0","F1","batch6","pattern_show_trial_num","null","<p class=block-text>Trial 24 out of 78</p>","null","","","","","","","","","","","","","","","","","","","","","","","","","",""
"","","","","","image-keyboard-response","199","910194","0.0-3.0-5.0-1.23","60fcd2ccc588ee8cca5168c0","F1","batch6","pattern_response","3093.9999999998836","stim/yes_58_dia_w1_w.png","j","pattern_76","f","false","","","","3093.9999999998836","false","21","","","","","","","","","","","","","","","","",""
"","","","","","html-keyboard-response","200","911497","0.0-3.0-5.0-0.24","60fcd2ccc588ee8cca5168c0","F1","batch6","pattern_show_trial_num","null","<p class=block-text>Trial 25 out of 78</p>","null","","","","","","","","","","","","","","","","","","","","","","","","","",""
"","","","","","image-keyboard-response","201","912521","0.0-3.0-5.0-1.24","60fcd2ccc588ee8cca5168c0","F1","batch6","pattern_response","1021","stim/yes_12_hor_w1_w.png","f","pattern_42","f","true","","","","1021","true","22","","","","","","","","","","","","","","","","",""
"","","","","","html-keyboard-response","202","913824","0.0-3.0-5.0-0.25","60fcd2ccc588ee8cca5168c0","F1","batch6","pattern_show_trial_num","null","<p class=block-text>Trial 26 out of 78</p>","null","","","","","","","","","","","","","","","","","","","","","","","","","",""
"","","","","","image-keyboard-response","203","915558","0.0-3.0-5.0-1.25","60fcd2ccc588ee8cca5168c0","F1","batch6","pattern_response","1732","stim/yes_46_ver_b1_b.png","f","pattern_68","f","true","","","","1732","true","23","","","","","","","","","","","","","","","","",""
"","","","","","html-keyboard-response","204","916861","0.0-3.0-5.0-0.26","60fcd2ccc588ee8cca5168c0","F1","batch6","pattern_show_trial_num","null","<p class=block-text>Trial 27 out of 78</p>","null","","","","","","","","","","","","","","","","","","","","","","","","","",""
"","","","","","image-keyboard-response","205","917640","0.0-3.0-5.0-1.26","60fcd2ccc588ee8cca5168c0","F1","batch6","pattern_response","776","stim/yes_37_hor_w1_w.png","f","pattern_60","f","true","","","","776","true","24","","","","","","","","","","","","","","","","",""
"","","","","","html-keyboard-response","206","918943","0.0-3.0-5.0-0.27","60fcd2ccc588ee8cca5168c0","F1","batch6","pattern_show_trial_num","null","<p class=block-text>Trial 28 out of 78</p>","null","","","","","","","","","","","","","","","","","","","","","","","","","",""
"","","","","","image-keyboard-response","207","919800","0.0-3.0-5.0-1.27","60fcd2ccc588ee8cca5168c0","F1","batch6","pattern_response","853.9999999998836","stim/yes_33_dia_w1_w.png","f","pattern_56","f","true","","","","853.9999999998836","true","25","","","","","","","","","","","","","","","","",""
"","","","","","html-keyboard-response","208","921102","0.0-3.0-5.0-0.28","60fcd2ccc588ee8cca5168c0","F1","batch6","pattern_show_trial_num","null","<p class=block-text>Trial 29 out of 78</p>","null","","","","","","","","","","","","","","","","","","","","","","","","","",""
"","","","","","image-keyboard-response","209","922624","0.0-3.0-5.0-1.28","60fcd2ccc588ee8cca5168c0","F1","batch6","pattern_response","1518.0000000001164","stim/no_22_1_b.png","j","pattern_07","j","true","","","","1518.0000000001164","true","26","","","","","","","","","","","","","","","","",""
"","","","","","html-keyboard-response","210","923926","0.0-3.0-5.0-0.29","60fcd2ccc588ee8cca5168c0","F1","batch6","pattern_show_trial_num","null","<p class=block-text>Trial 30 out of 78</p>","null","","","","","","","","","","","","","","","","","","","","","","","","","",""
"","","","","","image-keyboard-response","211","924910","0.0-3.0-5.0-1.29","60fcd2ccc588ee8cca5168c0","F1","batch6","pattern_response","979","stim/yes_30_ver_b1_b.png","f","pattern_54","f","true","","","","979","true","27","","","","","","","","","","","","","","","","",""
"","","","","","html-keyboard-response","212","926214","0.0-3.0-5.0-0.30","60fcd2ccc588ee8cca5168c0","F1","batch6","pattern_show_trial_num","null","<p class=block-text>Trial 31 out of 78</p>","null","","","","","","","","","","","","","","","","","","","","","","","","","",""
"","","","","","image-keyboard-response","213","929216","0.0-3.0-5.0-1.30","60fcd2ccc588ee8cca5168c0","F1","batch6","pattern_response","2999","stim/no_39_1_w.png","j","pattern_21","j","true","","","","2999","true","28","","","","","","","","","","","","","","","","",""
"","","","","","html-keyboard-response","214","930517","0.0-3.0-5.0-0.31","60fcd2ccc588ee8cca5168c0","F1","batch6","pattern_show_trial_num","null","<p class=block-text>Trial 32 out of 78</p>","null","","","","","","","","","","","","","","","","","","","","","","","","","",""
"","","","","","image-keyboard-response","215","931691","0.0-3.0-5.0-1.31","60fcd2ccc588ee8cca5168c0","F1","batch6","pattern_response","1171","stim/yes_51_dia_b1.png","f","pattern_72","f","true","","","","1171","true","29","","","","","","","","","","","","","","","","",""
"","","","","","html-keyboard-response","216","932993","0.0-3.0-5.0-0.32","60fcd2ccc588ee8cca5168c0","F1","batch6","pattern_show_trial_num","null","<p class=block-text>Trial 33 out of 78</p>","null","","","","","","","","","","","","","","","","","","","","","","","","","",""
"","","","","","image-keyboard-response","217","936295","0.0-3.0-5.0-1.32","60fcd2ccc588ee8cca5168c0","F1","batch6","pattern_response","3298","stim/no_45_1_w.png","j","pattern_25","j","true","","","","3298","true","30","","","","","","","","","","","","","","","","",""
"","","","","","html-keyboard-response","218","937597","0.0-3.0-5.0-0.33","60fcd2ccc588ee8cca5168c0","F1","batch6","pattern_show_trial_num","null","<p class=block-text>Trial 34 out of 78</p>","null","","","","","","","","","","","","","","","","","","","","","","","","","",""
"","","","","","image-keyboard-response","219","938665","0.0-3.0-5.0-1.33","60fcd2ccc588ee8cca5168c0","F1","batch6","pattern_response","1063.9999999998836","stim/no_18_1_b.png","j","pattern_05","j","true","","","","1063.9999999998836","true","31","","","","","","","","","","","","","","","","",""
"","","","","","html-keyboard-response","220","939967","0.0-3.0-5.0-0.34","60fcd2ccc588ee8cca5168c0","F1","batch6","pattern_show_trial_num","null","<p class=block-text>Trial 35 out of 78</p>","null","","","","","","","","","","","","","","","","","","","","","","","","","",""
"","","","","","image-keyboard-response","221","943300","0.0-3.0-5.0-1.34","60fcd2ccc588ee8cca5168c0","F1","batch6","pattern_response","3331","stim/no_51_1.png","j","pattern_31","j","true","","","","3331","true","32","","","","","","","","","","","","","","","","",""
"","","","","","html-keyboard-response","222","944603","0.0-3.0-5.0-0.35","60fcd2ccc588ee8cca5168c0","F1","batch6","pattern_show_trial_num","null","<p class=block-text>Trial 36 out of 78</p>","null","","","","","","","","","","","","","","","","","","","","","","","","","",""
"","","","","","image-keyboard-response","223","945587","0.0-3.0-5.0-1.35","60fcd2ccc588ee8cca5168c0","F1","batch6","pattern_response","981","stim/yes_23_ver_b1.png","f","pattern_48","f","true","","","","981","true","33","","","","","","","","","","","","","","","","",""
"","","","","","html-keyboard-response","224","946890","0.0-3.0-5.0-0.36","60fcd2ccc588ee8cca5168c0","F1","batch6","pattern_show_trial_num","null","<p class=block-text>Trial 37 out of 78</p>","null","","","","","","","","","","","","","","","","","","","","","","","","","",""
"","","","","","image-keyboard-response","225","948271","0.0-3.0-5.0-1.36","60fcd2ccc588ee8cca5168c0","F1","batch6","pattern_response","1376.9999999998836","stim/yes_49_hor_w1_b.png","f","pattern_70","f","true","","","","1376.9999999998836","true","34","","","","","","","","","","","","","","","","",""
"","","","","","html-keyboard-response","226","949574","0.0-3.0-5.0-0.37","60fcd2ccc588ee8cca5168c0","F1","batch6","pattern_show_trial_num","null","<p class=block-text>Trial 38 out of 78</p>","null","","","","","","","","","","","","","","","","","","","","","","","","","",""
"","","","","","image-keyboard-response","227","951363","0.0-3.0-5.0-1.37","60fcd2ccc588ee8cca5168c0","F1","batch6","pattern_response","1786","stim/no_25_1_b.png","j","pattern_09","j","true","","","","1786","true","35","","","","","","","","","","","","","","","","",""
"","","","","","html-keyboard-response","228","952666","0.0-3.0-5.0-0.38","60fcd2ccc588ee8cca5168c0","F1","batch6","pattern_show_trial_num","null","<p class=block-text>Trial 39 out of 78</p>","null","","","","","","","","","","","","","","","","","","","","","","","","","",""
"","","","","","image-keyboard-response","229","954226","0.0-3.0-5.0-1.38","60fcd2ccc588ee8cca5168c0","F1","batch6","pattern_response","1556.0000000001164","stim/no_43_2_b.png","j","pattern_23","j","true","","","","1556.0000000001164","true","36","","","","","","","","","","","","","","","","",""
"","","","","","image-keyboard-response","230","956956","0.0-3.0-6.0","60fcd2ccc588ee8cca5168c0","F1","batch6","attention_check","2226","stim/empty_board.png","j","","j","true","","","","","","","500","[""f"",""j""]","","","","","","","","","","","","","","",""
"","","","","","html-keyboard-response","231","957758","0.0-3.0-7.0-0.0","60fcd2ccc588ee8cca5168c0","F1","batch6","pattern_show_trial_num","null","<p class=block-text>Trial 40 out of 78</p>","null","","","","","","","","","","","","","","","","","","","","","","","","","",""
"","","","","","image-keyboard-response","232","959898","0.0-3.0-7.0-1.0","60fcd2ccc588ee8cca5168c0","F1","batch6","pattern_response","2137","stim/no_29_1_b.png","j","pattern_12","j","true","","","","2137","true","37","","","","","","","","","","","","","","","","",""
"","","","","","html-keyboard-response","233","961201","0.0-3.0-7.0-0.1","60fcd2ccc588ee8cca5168c0","F1","batch6","pattern_show_trial_num","null","<p class=block-text>Trial 41 out of 78</p>","null","","","","","","","","","","","","","","","","","","","","","","","","","",""
"","","","","","image-keyboard-response","234","962721","0.0-3.0-7.0-1.1","60fcd2ccc588ee8cca5168c0","F1","batch6","pattern_response","1517.0000000001164","stim/no_23_1.png","j","pattern_08","j","true","","","","1517.0000000001164","true","38","","","","","","","","","","","","","","","","",""
"","","","","","html-keyboard-response","235","964024","0.0-3.0-7.0-0.2","60fcd2ccc588ee8cca5168c0","F1","batch6","pattern_show_trial_num","null","<p class=block-text>Trial 42 out of 78</p>","null","","","","","","","","","","","","","","","","","","","","","","","","","",""
"","","","","","image-keyboard-response","236","965008","0.0-3.0-7.0-1.2","60fcd2ccc588ee8cca5168c0","F1","batch6","pattern_response","980","stim/yes_67_hor_b1.png","f","pattern_79","f","true","","","","980","true","39","","","","","","","","","","","","","","","","",""
"","","","","","html-keyboard-response","237","966311","0.0-3.0-7.0-0.3","60fcd2ccc588ee8cca5168c0","F1","batch6","pattern_show_trial_num","null","<p class=block-text>Trial 43 out of 78</p>","null","","","","","","","","","","","","","","","","","","","","","","","","","",""
"","","","","","image-keyboard-response","238","969291","0.0-3.0-7.0-1.3","60fcd2ccc588ee8cca5168c0","F1","batch6","pattern_response","2978","stim/no_62_1_w.png","j","pattern_36","j","true","","","","2978","true","40","","","","","","","","","","","","","","","","",""
"","","","","","html-keyboard-response","239","970594","0.0-3.0-7.0-0.4","60fcd2ccc588ee8cca5168c0","F1","batch6","pattern_show_trial_num","null","<p class=block-text>Trial 44 out of 78</p>","null","","","","","","","","","","","","","","","","","","","","","","","","","",""
"","","","","","image-keyboard-response","240","971628","0.0-3.0-7.0-1.4","60fcd2ccc588ee8cca5168c0","F1","batch6","pattern_response","1030","stim/no_26_1_w.png","j","pattern_10","j","true","","","","1030","true","41","","","","","","","","","","","","","","","","",""
"","","","","","html-keyboard-response","241","972931","0.0-3.0-7.0-0.5","60fcd2ccc588ee8cca5168c0","F1","batch6","pattern_show_trial_num","null","<p class=block-text>Trial 45 out of 78</p>","null","","","","","","","","","","","","","","","","","","","","","","","","","",""
"","","","","","image-keyboard-response","242","974953","0.0-3.0-7.0-1.5","60fcd2ccc588ee8cca5168c0","F1","batch6","pattern_response","2019.9999999998836","stim/no_48_1_w.png","j","pattern_28","j","true","","","","2019.9999999998836","true","42","","","","","","","","","","","","","","","","",""
"","","","","","html-keyboard-response","243","976256","0.0-3.0-7.0-0.6","60fcd2ccc588ee8cca5168c0","F1","batch6","pattern_show_trial_num","null","<p class=block-text>Trial 46 out of 78</p>","null","","","","","","","","","","","","","","","","","","","","","","","","","",""
"","","","","","image-keyboard-response","244","978889","0.0-3.0-7.0-1.6","60fcd2ccc588ee8cca5168c0","F1","batch6","pattern_response","2630","stim/no_70_2.png","j","pattern_40","j","true","","","","2630","true","43","","","","","","","","","","","","","","","","",""
"","","","","","html-keyboard-response","245","980191","0.0-3.0-7.0-0.7","60fcd2ccc588ee8cca5168c0","F1","batch6","pattern_show_trial_num","null","<p class=block-text>Trial 47 out of 78</p>","null","","","","","","","","","","","","","","","","","","","","","","","","","",""
"","","","","","image-keyboard-response","246","981728","0.0-3.0-7.0-1.7","60fcd2ccc588ee8cca5168c0","F1","batch6","pattern_response","1535","stim/no_34_1_b.png","j","pattern_16","j","true","","","","1535","true","44","","","","","","","","","","","","","","","","",""
"","","","","","html-keyboard-response","247","983032","0.0-3.0-7.0-0.8","60fcd2ccc588ee8cca5168c0","F1","batch6","pattern_show_trial_num","null","<p class=block-text>Trial 48 out of 78</p>","null","","","","","","","","","","","","","","","","","","","","","","","","","",""
"","","","","","image-keyboard-response","248","983754","0.0-3.0-7.0-1.8","60fcd2ccc588ee8cca5168c0","F1","batch6","pattern_response","719.9999999998836","stim/yes_25_hor_b1_b.png","f","pattern_49","f","true","","","","719.9999999998836","true","45","","","","","","","","","","","","","","","","",""
"","","","","","html-keyboard-response","249","985058","0.0-3.0-7.0-0.9","60fcd2ccc588ee8cca5168c0","F1","batch6","pattern_show_trial_num","null","<p class=block-text>Trial 49 out of 78</p>","null","","","","","","","","","","","","","","","","","","","","","","","","","",""
"","","","","","image-keyboard-response","250","986007","0.0-3.0-7.0-1.9","60fcd2ccc588ee8cca5168c0","F1","batch6","pattern_response","946","stim/yes_55_hor_w1_w.png","f","pattern_75","f","true","","","","946","true","46","","","","","","","","","","","","","","","","",""
"","","","","","html-keyboard-response","251","987310","0.0-3.0-7.0-0.10","60fcd2ccc588ee8cca5168c0","F1","batch6","pattern_show_trial_num","null","<p class=block-text>Trial 50 out of 78</p>","null","","","","","","","","","","","","","","","","","","","","","","","","","",""
"","","","","","image-keyboard-response","252","989474","0.0-3.0-7.0-1.10","60fcd2ccc588ee8cca5168c0","F1","batch6","pattern_response","2162","stim/no_46_1_b.png","j","pattern_26","j","true","","","","2162","true","47","","","","","","","","","","","","","","","","",""
"","","","","","html-keyboard-response","253","990776","0.0-3.0-7.0-0.11","60fcd2ccc588ee8cca5168c0","F1","batch6","pattern_show_trial_num","null","<p class=block-text>Trial 51 out of 78</p>","null","","","","","","","","","","","","","","","","","","","","","","","","","",""
"","","","","","image-keyboard-response","254","992485","0.0-3.0-7.0-1.11","60fcd2ccc588ee8cca5168c0","F1","batch6","pattern_response","1704.9999999998836","stim/no_52_1.png","j","pattern_32","j","true","","","","1704.9999999998836","true","48","","","","","","","","","","","","","","","","",""
"","","","","","html-keyboard-response","255","993795","0.0-3.0-7.0-0.12","60fcd2ccc588ee8cca5168c0","F1","batch6","pattern_show_trial_num","null","<p class=block-text>Trial 52 out of 78</p>","null","","","","","","","","","","","","","","","","","","","","","","","","","",""
"","","","","","image-keyboard-response","256","994646","0.0-3.0-7.0-1.12","60fcd2ccc588ee8cca5168c0","F1","batch6","pattern_response","846.9999999998836","stim/yes_17_dia_w1.png","f","pattern_45","f","true","","","","846.9999999998836","true","49","","","","","","","","","","","","","","","","",""
"","","","","","html-keyboard-response","257","995948","0.0-3.0-7.0-0.13","60fcd2ccc588ee8cca5168c0","F1","batch6","pattern_show_trial_num","null","<p class=block-text>Trial 53 out of 78</p>","null","","","","","","","","","","","","","","","","","","","","","","","","","",""
"","","","","","image-keyboard-response","258","996847","0.0-3.0-7.0-1.13","60fcd2ccc588ee8cca5168c0","F1","batch6","pattern_response","896.0000000001164","stim/yes_22_ver_w1.png","f","pattern_47","f","true","","","","896.0000000001164","true","50","","","","","","","","","","","","","","","","",""
"","","","","","html-keyboard-response","259","998150","0.0-3.0-7.0-0.14","60fcd2ccc588ee8cca5168c0","F1","batch6","pattern_show_trial_num","null","<p class=block-text>Trial 54 out of 78</p>","null","","","","","","","","","","","","","","","","","","","","","","","","","",""
"","","","","","image-keyboard-response","260","999600","0.0-3.0-7.0-1.14","60fcd2ccc588ee8cca5168c0","F1","batch6","pattern_response","1444.9999999998836","stim/yes_37_dia_w1.png","j","pattern_59","f","false","","","","1444.9999999998836","false","50","","","","","","","","","","","","","","","","",""
"","","","","","html-keyboard-response","261","1000903","0.0-3.0-7.0-0.15","60fcd2ccc588ee8cca5168c0","F1","batch6","pattern_show_trial_num","null","<p class=block-text>Trial 55 out of 78</p>","null","","","","","","","","","","","","","","","","","","","","","","","","","",""
"","","","","","image-keyboard-response","262","1001837","0.0-3.0-7.0-1.15","60fcd2ccc588ee8cca5168c0","F1","batch6","pattern_response","930","stim/no_13_2_b.png","j","pattern_02","j","true","","","","930","true","51","","","","","","","","","","","","","","","","",""
"","","","","","html-keyboard-response","263","1003144","0.0-3.0-7.0-0.16","60fcd2ccc588ee8cca5168c0","F1","batch6","pattern_show_trial_num","null","<p class=block-text>Trial 56 out of 78</p>","null","","","","","","","","","","","","","","","","","","","","","","","","","",""
"","","","","","image-keyboard-response","264","1004047","0.0-3.0-7.0-1.16","60fcd2ccc588ee8cca5168c0","F1","batch6","pattern_response","899","stim/no_32_1_w.png","j","pattern_14","j","true","","","","899","true","52","","","","","","","","","","","","","","","","",""
"","","","","","html-keyboard-response","265","1005349","0.0-3.0-7.0-0.17","60fcd2ccc588ee8cca5168c0","F1","batch6","pattern_show_trial_num","null","<p class=block-text>Trial 57 out of 78</p>","null","","","","","","","","","","","","","","","","","","","","","","","","","",""
"","","","","","image-keyboard-response","266","1006588","0.0-3.0-7.0-1.17","60fcd2ccc588ee8cca5168c0","F1","batch6","pattern_response","1235.9999999998836","stim/yes_45_hor_b2_b.png","f","pattern_67","f","true","","","","1235.9999999998836","true","53","","","","","","","","","","","","","","","","",""
"","","","","","html-keyboard-response","267","1007892","0.0-3.0-7.0-0.18","60fcd2ccc588ee8cca5168c0","F1","batch6","pattern_show_trial_num","null","<p class=block-text>Trial 58 out of 78</p>","null","","","","","","","","","","","","","","","","","","","","","","","","","",""
"","","","","","image-keyboard-response","268","1009160","0.0-3.0-7.0-1.18","60fcd2ccc588ee8cca5168c0","F1","batch6","pattern_response","1265","stim/yes_50_dia_w1.png","j","pattern_71","f","false","","","","1265","false","53","","","","","","","","","","","","","","","","",""
"","","","","","html-keyboard-response","269","1010462","0.0-3.0-7.0-0.19","60fcd2ccc588ee8cca5168c0","F1","batch6","pattern_show_trial_num","null","<p class=block-text>Trial 59 out of 78</p>","null","","","","","","","","","","","","","","","","","","","","","","","","","",""
"","","","","","image-keyboard-response","270","1011478","0.0-3.0-7.0-1.19","60fcd2ccc588ee8cca5168c0","F1","batch6","pattern_response","1011.0000000001164","stim/no_38_1_b.png","j","pattern_20","j","true","","","","1011.0000000001164","true","54","","","","","","","","","","","","","","","","",""
"","","","","","html-keyboard-response","271","1012781","0.0-3.0-7.0-0.20","60fcd2ccc588ee8cca5168c0","F1","batch6","pattern_show_trial_num","null","<p class=block-text>Trial 60 out of 78</p>","null","","","","","","","","","","","","","","","","","","","","","","","","","",""
"","","","","","image-keyboard-response","272","1015051","0.0-3.0-7.0-1.20","60fcd2ccc588ee8cca5168c0","F1","batch6","pattern_response","2266","stim/no_65_1_b.png","j","pattern_38","j","true","","","","2266","true","55","","","","","","","","","","","","","","","","",""
"","","","","","html-keyboard-response","273","1016354","0.0-3.0-7.0-0.21","60fcd2ccc588ee8cca5168c0","F1","batch6","pattern_show_trial_num","null","<p class=block-text>Trial 61 out of 78</p>","null","","","","","","","","","","","","","","","","","","","","","","","","","",""
"","","","","","image-keyboard-response","274","1017046","0.0-3.0-7.0-1.21","60fcd2ccc588ee8cca5168c0","F1","batch6","pattern_response","687.9999999998836","stim/no_17_1_w.png","j","pattern_04","j","true","","","","687.9999999998836","true","56","","","","","","","","","","","","","","","","",""
"","","","","","html-keyboard-response","275","1018349","0.0-3.0-7.0-0.22","60fcd2ccc588ee8cca5168c0","F1","batch6","pattern_show_trial_num","null","<p class=block-text>Trial 62 out of 78</p>","null","","","","","","","","","","","","","","","","","","","","","","","","","",""
"","","","","","image-keyboard-response","276","1019037","0.0-3.0-7.0-1.22","60fcd2ccc588ee8cca5168c0","F1","batch6","pattern_response","686","stim/no_20_1_w.png","j","pattern_06","j","true","","","","686","true","57","","","","","","","","","","","","","","","","",""
"","","","","","html-keyboard-response","277","1020340","0.0-3.0-7.0-0.23","60fcd2ccc588ee8cca5168c0","F1","batch6","pattern_show_trial_num","null","<p class=block-text>Trial 63 out of 78</p>","null","","","","","","","","","","","","","","","","","","","","","","","","","",""
"","","","","","image-keyboard-response","278","1021630","0.0-3.0-7.0-1.23","60fcd2ccc588ee8cca5168c0","F1","batch6","pattern_response","1283","stim/no_55_1_w.png","j","pattern_34","j","true","","","","1283","true","58","","","","","","","","","","","","","","","","",""
"","","","","","html-keyboard-response","279","1022934","0.0-3.0-7.0-0.24","60fcd2ccc588ee8cca5168c0","F1","batch6","pattern_show_trial_num","null","<p class=block-text>Trial 64 out of 78</p>","null","","","","","","","","","","","","","","","","","","","","","","","","","",""
"","","","","","image-keyboard-response","280","1024945","0.0-3.0-7.0-1.24","60fcd2ccc588ee8cca5168c0","F1","batch6","pattern_response","2007","stim/no_36_2_w.png","j","pattern_18","j","true","","","","2007","true","59","","","","","","","","","","","","","","","","",""
"","","","","","html-keyboard-response","281","1026248","0.0-3.0-7.0-0.25","60fcd2ccc588ee8cca5168c0","F1","batch6","pattern_show_trial_num","null","<p class=block-text>Trial 65 out of 78</p>","null","","","","","","","","","","","","","","","","","","","","","","","","","",""
"","","","","","image-keyboard-response","282","1027376","0.0-3.0-7.0-1.25","60fcd2ccc588ee8cca5168c0","F1","batch6","pattern_response","1125","stim/no_42_1_w.png","j","pattern_22","j","true","","","","1125","true","60","","","","","","","","","","","","","","","","",""
"","","","","","html-keyboard-response","283","1028679","0.0-3.0-7.0-0.26","60fcd2ccc588ee8cca5168c0","F1","batch6","pattern_show_trial_num","null","<p class=block-text>Trial 66 out of 78</p>","null","","","","","","","","","","","","","","","","","","","","","","","","","",""
"","","","","","image-keyboard-response","284","1031291","0.0-3.0-7.0-1.26","60fcd2ccc588ee8cca5168c0","F1","batch6","pattern_response","2608.9999999998836","stim/no_44_1.png","j","pattern_24","j","true","","","","2608.9999999998836","true","61","","","","","","","","","","","","","","","","",""
"","","","","","html-keyboard-response","285","1032594","0.0-3.0-7.0-0.27","60fcd2ccc588ee8cca5168c0","F1","batch6","pattern_show_trial_num","null","<p class=block-text>Trial 67 out of 78</p>","null","","","","","","","","","","","","","","","","","","","","","","","","","",""
"","","","","","image-keyboard-response","286","1033495","0.0-3.0-7.0-1.27","60fcd2ccc588ee8cca5168c0","F1","batch6","pattern_response","896.9999999998836","stim/yes_28_ver_b1.png","f","pattern_51","f","true","","","","896.9999999998836","true","62","","","","","","","","","","","","","","","","",""
"","","","","","html-keyboard-response","287","1034798","0.0-3.0-7.0-0.28","60fcd2ccc588ee8cca5168c0","F1","batch6","pattern_show_trial_num","null","<p class=block-text>Trial 68 out of 78</p>","null","","","","","","","","","","","","","","","","","","","","","","","","","",""
"","","","","","image-keyboard-response","288","1038392","0.0-3.0-7.0-1.28","60fcd2ccc588ee8cca5168c0","F1","batch6","pattern_response","3591","stim/no_50_1.png","j","pattern_30","j","true","","","","3591","true","63","","","","","","","","","","","","","","","","",""
"","","","","","html-keyboard-response","289","1039695","0.0-3.0-7.0-0.29","60fcd2ccc588ee8cca5168c0","F1","batch6","pattern_show_trial_num","null","<p class=block-text>Trial 69 out of 78</p>","null","","","","","","","","","","","","","","","","","","","","","","","","","",""
"","","","","","image-keyboard-response","290","1040693","0.0-3.0-7.0-1.29","60fcd2ccc588ee8cca5168c0","F1","batch6","pattern_response","995.0000000001164","stim/yes_48_dia_w1_w.png","j","pattern_69","f","false","","","","995.0000000001164","false","63","","","","","","","","","","","","","","","","",""
"","","","","","html-keyboard-response","291","1041996","0.0-3.0-7.0-0.30","60fcd2ccc588ee8cca5168c0","F1","batch6","pattern_show_trial_num","null","<p class=block-text>Trial 70 out of 78</p>","null","","","","","","","","","","","","","","","","","","","","","","","","","",""
"","","","","","image-keyboard-response","292","1042961","0.0-3.0-7.0-1.30","60fcd2ccc588ee8cca5168c0","F1","batch6","pattern_response","962","stim/yes_52_ver_w1.png","f","pattern_73","f","true","","","","962","true","64","","","","","","","","","","","","","","","","",""
"","","","","","html-keyboard-response","293","1044263","0.0-3.0-7.0-0.31","60fcd2ccc588ee8cca5168c0","F1","batch6","pattern_show_trial_num","null","<p class=block-text>Trial 71 out of 78</p>","null","","","","","","","","","","","","","","","","","","","","","","","","","",""
"","","","","","image-keyboard-response","294","1045061","0.0-3.0-7.0-1.31","60fcd2ccc588ee8cca5168c0","F1","batch6","pattern_response","796","stim/yes_43_ver_w1_w.png","f","pattern_65","f","true","","","","796","true","65","","","","","","","","","","","","","","","","",""
"","","","","","html-keyboard-response","295","1046363","0.0-3.0-7.0-0.32","60fcd2ccc588ee8cca5168c0","F1","batch6","pattern_show_trial_num","null","<p class=block-text>Trial 72 out of 78</p>","null","","","","","","","","","","","","","","","","","","","","","","","","","",""
"","","","","","image-keyboard-response","296","1047326","0.0-3.0-7.0-1.32","60fcd2ccc588ee8cca5168c0","F1","batch6","pattern_response","960","stim/yes_40_dia_b1_b.png","j","pattern_63","f","false","","","","960","false","65","","","","","","","","","","","","","","","","",""
"","","","","","html-keyboard-response","297","1048630","0.0-3.0-7.0-0.33","60fcd2ccc588ee8cca5168c0","F1","batch6","pattern_show_trial_num","null","<p class=block-text>Trial 73 out of 78</p>","null","","","","","","","","","","","","","","","","","","","","","","","","","",""
"","","","","","image-keyboard-response","298","1049373","0.0-3.0-7.0-1.33","60fcd2ccc588ee8cca5168c0","F1","batch6","pattern_response","740","stim/yes_14_hor_b1_w.png","f","pattern_43","f","true","","","","740","true","66","","","","","","","","","","","","","","","","",""
"","","","","","html-keyboard-response","299","1050675","0.0-3.0-7.0-0.34","60fcd2ccc588ee8cca5168c0","F1","batch6","pattern_show_trial_num","null","<p class=block-text>Trial 74 out of 78</p>","null","","","","","","","","","","","","","","","","","","","","","","","","","",""
"","","","","","image-keyboard-response","300","1052719","0.0-3.0-7.0-1.34","60fcd2ccc588ee8cca5168c0","F1","batch6","pattern_response","2040","stim/yes_31_hor_b1.png","j","pattern_55","f","false","","","","2040","false","66","","","","","","","","","","","","","","","","",""
"","","","","","html-keyboard-response","301","1054021","0.0-3.0-7.0-0.35","60fcd2ccc588ee8cca5168c0","F1","batch6","pattern_show_trial_num","null","<p class=block-text>Trial 75 out of 78</p>","null","","","","","","","","","","","","","","","","","","","","","","","","","",""
"","","","","","image-keyboard-response","302","1054812","0.0-3.0-7.0-1.35","60fcd2ccc588ee8cca5168c0","F1","batch6","pattern_response","788","stim/yes_29_ver_w1.png","f","pattern_53","f","true","","","","788","true","67","","","","","","","","","","","","","","","","",""
"","","","","","html-keyboard-response","303","1056116","0.0-3.0-7.0-0.36","60fcd2ccc588ee8cca5168c0","F1","batch6","pattern_show_trial_num","null","<p class=block-text>Trial 76 out of 78</p>","null","","","","","","","","","","","","","","","","","","","","","","","","","",""
"","","","","","image-keyboard-response","304","1057745","0.0-3.0-7.0-1.36","60fcd2ccc588ee8cca5168c0","F1","batch6","pattern_response","1626","stim/yes_60_ver_b1_b.png","f","pattern_77","f","true","","","","1626","true","68","","","","","","","","","","","","","","","","",""
"","","","","","html-keyboard-response","305","1059048","0.0-3.0-7.0-0.37","60fcd2ccc588ee8cca5168c0","F1","batch6","pattern_show_trial_num","null","<p class=block-text>Trial 77 out of 78</p>","null","","","","","","","","","","","","","","","","","","","","","","","","","",""
"","","","","","image-keyboard-response","306","1060126","0.0-3.0-7.0-1.37","60fcd2ccc588ee8cca5168c0","F1","batch6","pattern_response","1075","stim/yes_35_dia_b1.png","j","pattern_57","f","false","","","","1075","false","68","","","","","","","","","","","","","","","","",""
"","","","","","html-keyboard-response","307","1061429","0.0-3.0-7.0-0.38","60fcd2ccc588ee8cca5168c0","F1","batch6","pattern_show_trial_num","null","<p class=block-text>Trial 78 out of 78</p>","null","","","","","","","","","","","","","","","","","","","","","","","","","",""
"","","","","","image-keyboard-response","308","1062802","0.0-3.0-7.0-1.38","60fcd2ccc588ee8cca5168c0","F1","batch6","pattern_response","1370","stim/yes_38_hor_b1_b.png","f","pattern_61","f","true","","","","1370","true","69","","","","","","","","","","","","","","","","",""
"","","","","","html-button-response","309","1070012","0.0-3.0-8.0","60fcd2ccc588ee8cca5168c0","F1","batch6","","6706","<p class = block-text>This concludes the 4-in-a-row detection game.Thank you for your responses!<br>
            You responded correctly on 88% of the trials.<br>
            When you are ready, press ""Continue"" button to continue </p>","0","","","","","","","","","","","","","","","","","","","","","","","","","",""
"true","","","","","fullscreen","310","1073739","0.0-4.0-0.0","60fcd2ccc588ee8cca5168c0","F1","batch6","","","","","","","","","","","","","","","","","","","","","","","","","","","","","",""
"","","","","","instructions","311","1115636","0.0-4.0-1.0-0.0-0.0","60fcd2ccc588ee8cca5168c0","F1","batch6","tol-instructions","41895.00000000023","","","","","","","","[{""page_index"":0,""viewing_time"":5268},{""page_index"":1,""viewing_time"":7029},{""page_index"":2,""viewing_time"":2342},{""page_index"":3,""viewing_time"":11359},{""page_index"":4,""viewing_time"":3051.000000000233},{""page_index"":5,""viewing_time"":10728.999999999767},{""page_index"":6,""viewing_time"":2116}]","","","","","","","","","","","","","","","","","","","",""
"","","","","","html-button-response","312","1116559","0.0-4.0-1.0-1.0-0.0","60fcd2ccc588ee8cca5168c0","F1","batch6","tol_enter_quiz","922.0000000002328","<p class=block-text> Let's answer a few questions <br>","0","","","","","","","","","","","","","","","","","","","","","","","","","",""
"","","","","","html-button-response","313","1120251","0.0-4.0-1.0-1.0-1.0","60fcd2ccc588ee8cca5168c0","F1","batch6","tol_quiz","3690","<p class = block-text>True or False: You can only move the ball on top of a peg. <br></p>","0","","","true","","","","","","","","","","","","","","","","","","","","","","",""
"","","","","","html-button-response","314","1121240","0.0-4.0-1.0-1.0-2.0","60fcd2ccc588ee8cca5168c0","F1","batch6","tol_quiz_feedback","988","<p class = block-text>Correct! You can only move the ball on top of a peg.</p>","0","","","","","","","","","","","","","","","","","","","","","","","","","",""
"","","","","","html-button-response","315","1123847","0.0-4.0-1.0-1.0-3.0","60fcd2ccc588ee8cca5168c0","F1","batch6","tol_quiz","2604","<p class = block-text>True or False: You should try to match your board with the target board with fewest moves possible. <br></p>","0","","","true","","","","","","","","","","","","","","","","","","","","","","",""
"","","","","","html-button-response","316","1124494","0.0-4.0-1.0-1.0-4.0","60fcd2ccc588ee8cca5168c0","F1","batch6","tol_quiz_feedback","644.9999999997672","<p class = block-text>Correct! </p>","0","","","","","","","","","","","","","","","","","","","","","","","","","",""
"","","","","","html-button-response","317","1125859","0.0-4.0-2.0","60fcd2ccc588ee8cca5168c0","F1","batch6","","1361","<p class=block-text> Now that you've understood the game, let's practice a few easier examples before we start!<br> <br>","0","","","","","","","","","","","","","","","","","","","","","","","","","",""
"","","","","","single-stim-button","318","1129187","0.0-4.0-3.0-0.0","60fcd2ccc588ee8cca5168c0","F1","batch6","tol_practice","3323","","","","","","","","","","","","","","tol_peg_2","3323","3323","0","[[1,2,0],[0,0],[0]]","1","[[1,2,0],[0,0],[3]]","practice","3323","","","","","",""
"","","","","","single-stim-button","319","1130354","0.0-4.0-3.0-1.0","60fcd2ccc588ee8cca5168c0","F1","batch6","tol_practice","1166","","","","","","","","","","","","","","tol_peg_3","1166","1166","0","[[1,2,0],[0,0],[3]]","1","[[1,2,0],[0,0],[3]]","practice","1166","","","","","",""
"","","","","","poldrack-single-stim","320","1131360","0.0-4.0-4.0","60fcd2ccc588ee8cca5168c0","F1","batch6","tol_feedback","-1","","","","","true","","","","","","","","","","1000","1000","500","","","","","","-1","none","true","","0",""
"","","","","","single-stim-button","321","1134448","0.0-4.0-5.0-0.0","60fcd2ccc588ee8cca5168c0","F1","batch6","tol_practice","3087","","","","","","","","","","","","","","tol_peg_1","3087","3087","0","[[1,0,0],[3,0],[0]]","2","[[0,0,0],[3,1],[2]]","practice","3087","","","","","",""
"","","","","","single-stim-button","322","1135496","0.0-4.0-5.0-1.0","60fcd2ccc588ee8cca5168c0","F1","batch6","tol_practice","1046","","","","","","","","","","","","","","tol_peg_3","1046","1046","0","[[1,0,0],[3,0],[2]]","2","[[0,0,0],[3,1],[2]]","practice","1046","","","","","",""
"","","","","","single-stim-button","323","1137122","0.0-4.0-5.1-0.1","60fcd2ccc588ee8cca5168c0","F1","batch6","tol_practice","1624","","","","","","","","","","","","","","tol_peg_1","1624","1624","0","[[0,0,0],[3,0],[2]]","3","[[0,0,0],[3,1],[2]]","practice","1624","","","","","",""
"","","","","","single-stim-button","324","1137678","0.0-4.0-5.1-1.1","60fcd2ccc588ee8cca5168c0","F1","batch6","tol_practice","553","","","","","","","","","","","","","","tol_peg_2","553","553","0","[[0,0,0],[3,1],[2]]","3","[[0,0,0],[3,1],[2]]","practice","553","","","","","",""
"","","","","","poldrack-single-stim","325","1138682","0.0-4.0-6.0","60fcd2ccc588ee8cca5168c0","F1","batch6","tol_feedback","-1","","","","","true","","","","","","","","","","1000","1000","500","","","","","","-1","none","true","","0",""
"","","","","","single-stim-button","326","1140286","0.0-4.0-7.0-0.0","60fcd2ccc588ee8cca5168c0","F1","batch6","tol_practice","1602","","","","","","","","","","","","","","tol_peg_2","1602","1602","0","[[1,2,0],[0,0],[0]]","4","[[1,0,0],[2,0],[3]]","practice","1602","","","","","",""
"","","","","","single-stim-button","327","1140997","0.0-4.0-7.0-1.0","60fcd2ccc588ee8cca5168c0","F1","batch6","tol_practice","710","","","","","","","","","","","","","","tol_peg_3","710","710","0","[[1,2,0],[0,0],[3]]","4","[[1,0,0],[2,0],[3]]","practice","710","","","","","",""
"","","","","","single-stim-button","328","1142428","0.0-4.0-7.1-0.1","60fcd2ccc588ee8cca5168c0","F1","batch6","tol_practice","1428","","","","","","","","","","","","","","tol_peg_1","1428","1428","0","[[1,0,0],[0,0],[3]]","5","[[1,0,0],[2,0],[3]]","practice","1428","","","","","",""
"","","","","","single-stim-button","329","1143107","0.0-4.0-7.1-1.1","60fcd2ccc588ee8cca5168c0","F1","batch6","tol_practice","677","","","","","","","","","","","","","","tol_peg_2","677","677","0","[[1,0,0],[2,0],[3]]","5","[[1,0,0],[2,0],[3]]","practice","677","","","","","",""
"","","","","","poldrack-single-stim","330","1144109","0.0-4.0-8.0","60fcd2ccc588ee8cca5168c0","F1","batch6","tol_feedback","-1","","","","","true","","","","","","","","","","1000","1000","500","","","","","","-1","none","true","","0",""
"","","","","","html-button-response","331","1146238","0.0-4.0-9.0","60fcd2ccc588ee8cca5168c0","F1","batch6","tol_instruction","2128","<div class = centerbox><p class = center-block-text>Great job! You are done with practice trials<br>You are about to start official trials.<br> <br> Problem <strong>1</strong> out of 25 problems</p></div>","0","","","","","","","","","","","","","","","","","","","","","","","","","",""
"","","","","","single-stim-button","332","1151052","0.0-4.0-10.0-0.0","60fcd2ccc588ee8cca5168c0","F1","batch6","tol_tohand","3812","","","","","","","","","","","","","","tol_peg_2","3812","3812","0","[[1,2,0],[0,0],[0]]","1","[[1,3,0],[2,0],[0]]","0","0","","","","","","3"
"","","","","","single-stim-button","333","1152262","0.0-4.0-10.0-1.0","60fcd2ccc588ee8cca5168c0","F1","batch6","tol_toboard","1208","","","","","","","","","","","","","","tol_peg_3","1208","1208","0","[[1,2,0],[0,0],[3]]","1","[[1,3,0],[2,0],[0]]","0","0","","","","","","3"
"","","","","","single-stim-button","334","1153129","0.0-4.0-10.1-0.1","60fcd2ccc588ee8cca5168c0","F1","batch6","tol_tohand","863","","","","","","","","","","","","","","tol_peg_1","863","863","0","[[1,0,0],[0,0],[3]]","2","[[1,3,0],[2,0],[0]]","0","0","","","","","","3"
"","","","","","single-stim-button","335","1153799","0.0-4.0-10.1-1.1","60fcd2ccc588ee8cca5168c0","F1","batch6","tol_toboard","668","","","","","","","","","","","","","","tol_peg_2","668","668","0","[[1,0,0],[2,0],[3]]","2","[[1,3,0],[2,0],[0]]","0","0","","","","","","3"
"","","","","","single-stim-button","336","1154789","0.0-4.0-10.2-0.2","60fcd2ccc588ee8cca5168c0","F1","batch6","tol_tohand","987","","","","","","","","","","","","","","tol_peg_3","987","987","0","[[1,0,0],[2,0],[0]]","3","[[1,3,0],[2,0],[0]]","0","0","","","","","","3"
"","","","","","single-stim-button","337","1155352","0.0-4.0-10.2-1.2","60fcd2ccc588ee8cca5168c0","F1","batch6","tol_toboard","561","","","","","","","","","","","","","","tol_peg_1","561","561","0","[[1,3,0],[2,0],[0]]","3","[[1,3,0],[2,0],[0]]","0","0","","","","","","3"
"","","","","","poldrack-single-stim","338","1156355","0.0-4.0-11.0","60fcd2ccc588ee8cca5168c0","F1","batch6","tol_feedback","-1","","","","","true","","","","","","","","","","1000","1000","500","","","","","","-1","none","true","3812","5662",""
"","","","","","html-button-response","339","1157462","0.0-4.0-12.0","60fcd2ccc588ee8cca5168c0","F1","batch6","tol_trial_num","1105","<div class = centerbox><p class = center-block-text>problem <strong>2</strong> out of 25 problems</p></div>","0","","","","","","","","","","","","","","","","","","","","","","","","","",""
"","","","","","single-stim-button","340","1168685","0.0-4.0-13.0-0.0","60fcd2ccc588ee8cca5168c0","F1","batch6","tol_tohand","11221","","","","","","","","","","","","","","tol_peg_1","11221","11221","0","[[1,0,0],[3,0],[0]]","1","[[2,1,3],[0,0],[0]]","1","0","","","","","","5"
"","","","","","single-stim-button","341","1169585","0.0-4.0-13.0-1.0","60fcd2ccc588ee8cca5168c0","F1","batch6","tol_toboard","897","","","","","","","","","","","","","","tol_peg_3","897","897","0","[[1,0,0],[3,0],[2]]","1","[[2,1,3],[0,0],[0]]","1","0","","","","","","5"
"","","","","","single-stim-button","342","1177901","0.0-4.0-13.1-0.1","60fcd2ccc588ee8cca5168c0","F1","batch6","tol_tohand","8314","","","","","","","","","","","","","","tol_peg_2","8314","8314","0","[[1,0,0],[0,0],[2]]","2","[[2,1,3],[0,0],[0]]","1","0","","","","","","5"
"","","","","","single-stim-button","343","1181711","0.0-4.0-13.1-1.1","60fcd2ccc588ee8cca5168c0","F1","batch6","tol_toboard","3807","","","","","","","","","","","","","","tol_peg_1","3807","3807","0","[[1,3,0],[0,0],[2]]","2","[[2,1,3],[0,0],[0]]","1","0","","","","","","5"
"","","","","","single-stim-button","344","1185349","0.0-4.0-13.2-0.2","60fcd2ccc588ee8cca5168c0","F1","batch6","tol_tohand","3635","","","","","","","","","","","","","","tol_peg_3","3635","3635","0","[[1,3,0],[0,0],[0]]","3","[[2,1,3],[0,0],[0]]","1","0","","","","","","5"
"","","","","","single-stim-button","345","1186165","0.0-4.0-13.2-1.2","60fcd2ccc588ee8cca5168c0","F1","batch6","tol_toboard","814","","","","","","","","","","","","","","tol_peg_2","814","814","0","[[1,3,0],[2,0],[0]]","3","[[2,1,3],[0,0],[0]]","1","0","","","","","","5"
"","","","","","single-stim-button","346","1187155","0.0-4.0-13.3-0.3","60fcd2ccc588ee8cca5168c0","F1","batch6","tol_tohand","988","","","","","","","","","","","","","","tol_peg_1","988","988","0","[[1,0,0],[2,0],[0]]","4","[[2,1,3],[0,0],[0]]","1","0","","","","","","5"
"","","","","","single-stim-button","347","1190384","0.0-4.0-13.3-1.3","60fcd2ccc588ee8cca5168c0","F1","batch6","tol_toboard","3226","","","","","","","","","","","","","","tol_peg_3","3226","3226","0","[[1,0,0],[2,0],[3]]","4","[[2,1,3],[0,0],[0]]","1","0","","","","","","5"
"","","","","","single-stim-button","348","1199025","0.0-4.0-13.4-0.4","60fcd2ccc588ee8cca5168c0","F1","batch6","tol_tohand","8637","","","","","","","","","","","","","","tol_peg_1","8637","8637","0","[[0,0,0],[2,0],[3]]","5","[[2,1,3],[0,0],[0]]","1","0","","","","","","5"
"","","","","","single-stim-button","349","1199702","0.0-4.0-13.4-1.4","60fcd2ccc588ee8cca5168c0","F1","batch6","tol_toboard","674","","","","","","","","","","","","","","tol_peg_2","674","674","0","[[0,0,0],[2,1],[3]]","5","[[2,1,3],[0,0],[0]]","1","0","","","","","","5"
"","","","","","single-stim-button","350","1200485","0.0-4.0-13.5-0.5","60fcd2ccc588ee8cca5168c0","F1","batch6","tol_tohand","782","","","","","","","","","","","","","","tol_peg_3","782","782","0","[[0,0,0],[2,1],[0]]","6","[[2,1,3],[0,0],[0]]","1","0","","","","","","5"
"","","","","","single-stim-button","351","1201647","0.0-4.0-13.5-1.5","60fcd2ccc588ee8cca5168c0","F1","batch6","tol_toboard","1159","","","","","","","","","","","","","","tol_peg_1","1159","1159","0","[[3,0,0],[2,1],[0]]","6","[[2,1,3],[0,0],[0]]","1","0","","","","","","5"
"","","","","","single-stim-button","352","1202407","0.0-4.0-13.6-0.6","60fcd2ccc588ee8cca5168c0","F1","batch6","tol_tohand","757","","","","","","","","","","","","","","tol_peg_2","757","757","0","[[3,0,0],[2,0],[0]]","7","[[2,1,3],[0,0],[0]]","1","0","","","","","","5"
"","","","","","single-stim-button","353","1217447","0.0-4.0-13.6-1.6","60fcd2ccc588ee8cca5168c0","F1","batch6","tol_toboard","15038","","","","","","","","","","","","","","tol_peg_3","15038","15038","0","[[3,0,0],[2,0],[1]]","7","[[2,1,3],[0,0],[0]]","1","0","","","","","","5"
"","","","","","single-stim-button","354","1227861","0.0-4.0-13.7-0.7","60fcd2ccc588ee8cca5168c0","F1","batch6","tol_tohand","10411","","","","","","","","","","","","","","tol_peg_2","10411","10411","0","[[3,0,0],[0,0],[1]]","8","[[2,1,3],[0,0],[0]]","1","0","","","","","","5"
