"success","timeout","failed_images","failed_audio","failed_video","trial_type","trial_index","time_elapsed","internal_node_id","subject_id","study_id","session_id","view_history","rt","task","stimulus","response","correct","mouse_click","stim_duration","block_duration","timing_post_trial","current_position","tol_num_moves_made","tol_target","tol_problem_id","tol_rt","key_press","possible_responses","tol_correct","preplanning","tol_rt_per_trial","tol_min_moves","item","answer","spm_correct","spm_rt","fiar_detect_rt","fiar_detect_correct","total_correct_fiar_detect","post_trial_gap","choices"
"true","false","[]","[]","[]","preload","0","1260","0.0-0.0","60fdf6b3117c2aeb33f2dd99","B2","batch2","","","","","","","","","","","","","","","","","","","","","","","","","","","","","",""
"true","","","","","fullscreen","1","12343","0.0-1.0-0.0","60fdf6b3117c2aeb33f2dd99","B2","batch2","","","","","","","","","","","","","","","","","","","","","","","","","","","","","",""
"true","","","","","fullscreen","2","17077","0.0-2.0-0.0","60fdf6b3117c2aeb33f2dd99","B2","batch2","","","","","","","","","","","","","","","","","","","","","","","","","","","","","",""
"","","","","","instructions","3","89071","0.0-2.0-1.0-0.0-0.0","60fdf6b3117c2aeb33f2dd99","B2","batch2","[{""page_index"":0,""viewing_time"":16677.300000190735},{""page_index"":1,""viewing_time"":6396.900000095367},{""page_index"":2,""viewing_time"":6920.699999809265},{""page_index"":3,""viewing_time"":7430.400000095367},{""page_index"":4,""viewing_time"":10656.900000095367},{""page_index"":5,""viewing_time"":19671.89999961853},{""page_index"":6,""viewing_time"":4238.700000286102}]","71993","tol-instructions","","","","","","","","","","","","","","","","","","","","","","","","","","",""
"","","","","","html-button-response","4","90415","0.0-2.0-1.0-1.0-0.0","60fdf6b3117c2aeb33f2dd99","B2","batch2","","1343.6000003814697","tol_enter_quiz","<p class=block-text> Let's answer a few questions <br>","0","","","","","","","","","","","","","","","","","","","","","","","","",""
"","","","","","html-button-response","5","96466","0.0-2.0-1.0-1.0-1.0","60fdf6b3117c2aeb33f2dd99","B2","batch2","","6050","tol_quiz","<p class = block-text>True or False: You can only move the ball on top of a peg. <br></p>","0","true","","","","","","","","","","","","","","","","","","","","","","","",""
"","","","","","html-button-response","6","98549","0.0-2.0-1.0-1.0-2.0","60fdf6b3117c2aeb33f2dd99","B2","batch2","","2081.5999999046326","tol_quiz_feedback","<p class = block-text>Correct! You can only move the ball on top of a peg.</p>","0","","","","","","","","","","","","","","","","","","","","","","","","",""
"","","","","","html-button-response","7","102546","0.0-2.0-1.0-1.0-3.0","60fdf6b3117c2aeb33f2dd99","B2","batch2","","3996.6000003814697","tol_quiz","<p class = block-text>True or False: You should try to match your board with the target board with fewest moves possible. <br></p>","0","true","","","","","","","","","","","","","","","","","","","","","","","",""
"","","","","","html-button-response","8","103435","0.0-2.0-1.0-1.0-4.0","60fdf6b3117c2aeb33f2dd99","B2","batch2","","888.1999998092651","tol_quiz_feedback","<p class = block-text>Correct! </p>","0","","","","","","","","","","","","","","","","","","","","","","","","",""
"","","","","","html-button-response","9","106110","0.0-2.0-2.0","60fdf6b3117c2aeb33f2dd99","B2","batch2","","2674","","<p class=block-text> Now that you've understood the game, let's practice a few easier examples before we start!<br> <br>","0","","","","","","","","","","","","","","","","","","","","","","","","",""
"","","","","","single-stim-button","10","110318","0.0-2.0-3.0-0.0","60fdf6b3117c2aeb33f2dd99","B2","batch2","","4208","tol_practice","","","","tol_peg_2","4208","4208","0","[[1,2,0],[0,0],[0]]","1","[[1,2,0],[0,0],[3]]","practice","4208","","","","","","","","","","","","","","",""
"","","","","","single-stim-button","11","111782","0.0-2.0-3.0-1.0","60fdf6b3117c2aeb33f2dd99","B2","batch2","","1463","tol_practice","","","","tol_peg_3","1463","1463","0","[[1,2,0],[0,0],[3]]","1","[[1,2,0],[0,0],[3]]","practice","1463","","","","","","","","","","","","","","",""
"","","","","","poldrack-single-stim","12","112784","0.0-2.0-4.0","60fdf6b3117c2aeb33f2dd99","B2","batch2","","-1","tol_feedback","","","true","","1000","1000","500","","","","","","-1","none","true","","0","","","","","","","","","",""
"","","","","","single-stim-button","13","117114","0.0-2.0-5.0-0.0","60fdf6b3117c2aeb33f2dd99","B2","batch2","","4330","tol_practice","","","","tol_peg_1","4330","4330","0","[[1,0,0],[3,0],[0]]","2","[[0,0,0],[3,1],[2]]","practice","4330","","","","","","","","","","","","","","",""
"","","","","","single-stim-button","14","118416","0.0-2.0-5.0-1.0","60fdf6b3117c2aeb33f2dd99","B2","batch2","","1302","tol_practice","","","","tol_peg_1","1302","1302","0","[[1,2,0],[3,0],[0]]","2","[[0,0,0],[3,1],[2]]","practice","1302","","","","","","","","","","","","","","",""
"","","","","","single-stim-button","15","120257","0.0-2.0-5.1-0.1","60fdf6b3117c2aeb33f2dd99","B2","batch2","","1840","tol_practice","","","","tol_peg_1","1840","1840","0","[[1,0,0],[3,0],[0]]","3","[[0,0,0],[3,1],[2]]","practice","1840","","","","","","","","","","","","","","",""
"","","","","","single-stim-button","16","123308","0.0-2.0-5.1-1.1","60fdf6b3117c2aeb33f2dd99","B2","batch2","","3051","tol_practice","","","","tol_peg_3","3051","3051","0","[[1,0,0],[3,0],[2]]","3","[[0,0,0],[3,1],[2]]","practice","3051","","","","","","","","","","","","","","",""
"","","","","","single-stim-button","17","124129","0.0-2.0-5.2-0.2","60fdf6b3117c2aeb33f2dd99","B2","batch2","","821","tol_practice","","","","tol_peg_1","821","821","0","[[0,0,0],[3,0],[2]]","4","[[0,0,0],[3,1],[2]]","practice","821","","","","","","","","","","","","","","",""
"","","","","","single-stim-button","18","124773","0.0-2.0-5.2-1.2","60fdf6b3117c2aeb33f2dd99","B2","batch2","","642","tol_practice","","","","tol_peg_2","642","642","0","[[0,0,0],[3,1],[2]]","4","[[0,0,0],[3,1],[2]]","practice","642","","","","","","","","","","","","","","",""
"","","","","","poldrack-single-stim","19","125781","0.0-2.0-6.0","60fdf6b3117c2aeb33f2dd99","B2","batch2","","-1","tol_feedback","","","true","","1000","1000","500","","","","","","-1","none","true","","0","","","","","","","","","",""
"","","","","","single-stim-button","20","128855","0.0-2.0-7.0-0.0","60fdf6b3117c2aeb33f2dd99","B2","batch2","","3074","tol_practice","","","","tol_peg_1","3074","3074","0","[[1,0,0],[3,0],[0]]","5","[[1,0,0],[2,0],[3]]","practice","3074","","","","","","","","","","","","","","",""
"","","","","","single-stim-button","21","132029","0.0-2.0-7.0-1.0","60fdf6b3117c2aeb33f2dd99","B2","batch2","","3174","tol_practice","","","","tol_peg_1","3174","3174","0","[[1,2,0],[3,0],[0]]","5","[[1,0,0],[2,0],[3]]","practice","3174","","","","","","","","","","","","","","",""
"","","","","","single-stim-button","22","132990","0.0-2.0-7.1-0.1","60fdf6b3117c2aeb33f2dd99","B2","batch2","","961","tol_practice","","","","tol_peg_2","961","961","0","[[1,2,0],[0,0],[0]]","6","[[1,0,0],[2,0],[3]]","practice","961","","","","","","","","","","","","","","",""
"","","","","","single-stim-button","23","133492","0.0-2.0-7.1-1.1","60fdf6b3117c2aeb33f2dd99","B2","batch2","","502","tol_practice","","","","tol_peg_3","502","502","0","[[1,2,0],[0,0],[3]]","6","[[1,0,0],[2,0],[3]]","practice","502","","","","","","","","","","","","","","",""
"","","","","","single-stim-button","24","134274","0.0-2.0-7.2-0.2","60fdf6b3117c2aeb33f2dd99","B2","batch2","","782","tol_practice","","","","tol_peg_1","782","782","0","[[1,0,0],[0,0],[3]]","7","[[1,0,0],[2,0],[3]]","practice","782","","","","","","","","","","","","","","",""
"","","","","","single-stim-button","25","135036","0.0-2.0-7.2-1.2","60fdf6b3117c2aeb33f2dd99","B2","batch2","","760","tol_practice","","","","tol_peg_2","760","760","0","[[1,0,0],[2,0],[3]]","7","[[1,0,0],[2,0],[3]]","practice","760","","","","","","","","","","","","","","",""
"","","","","","poldrack-single-stim","26","136036","0.0-2.0-8.0","60fdf6b3117c2aeb33f2dd99","B2","batch2","","-1","tol_feedback","","","true","","1000","1000","500","","","","","","-1","none","true","","0","","","","","","","","","",""
"","","","","","html-button-response","27","137718","0.0-2.0-9.0","60fdf6b3117c2aeb33f2dd99","B2","batch2","","1680.7999997138977","tol_instruction","<div class = centerbox><p class = center-block-text>Great job! You are done with practice trials<br>You are about to start official trials.<br> <br> Problem <strong>1</strong> out of 25 problems</p></div>","0","","","","","","","","","","","","","","","","","","","","","","","","",""
"","","","","","single-stim-button","28","145853","0.0-2.0-10.0-0.0","60fdf6b3117c2aeb33f2dd99","B2","batch2","","7134","tol_tohand","","","","tol_peg_1","7134","7134","0","[[1,0,0],[3,0],[0]]","1","[[1,3,0],[2,0],[0]]","0","0","","","","","","3","","","","","","","","",""
"","","","","","single-stim-button","29","146452","0.0-2.0-10.0-1.0","60fdf6b3117c2aeb33f2dd99","B2","batch2","","599","tol_toboard","","","","tol_peg_3","599","599","0","[[1,0,0],[3,0],[2]]","1","[[1,3,0],[2,0],[0]]","0","0","","","","","","3","","","","","","","","",""
"","","","","","single-stim-button","30","146958","0.0-2.0-10.1-0.1","60fdf6b3117c2aeb33f2dd99","B2","batch2","","505","tol_tohand","","","","tol_peg_2","505","505","0","[[1,0,0],[0,0],[2]]","2","[[1,3,0],[2,0],[0]]","0","0","","","","","","3","","","","","","","","",""
"","","","","","single-stim-button","31","147573","0.0-2.0-10.1-1.1","60fdf6b3117c2aeb33f2dd99","B2","batch2","","614","tol_toboard","","","","tol_peg_1","614","614","0","[[1,3,0],[0,0],[2]]","2","[[1,3,0],[2,0],[0]]","0","0","","","","","","3","","","","","","","","",""
"","","","","","single-stim-button","32","148106","0.0-2.0-10.2-0.2","60fdf6b3117c2aeb33f2dd99","B2","batch2","","533","tol_tohand","","","","tol_peg_3","533","533","0","[[1,3,0],[0,0],[0]]","3","[[1,3,0],[2,0],[0]]","0","0","","","","","","3","","","","","","","","",""
"","","","","","single-stim-button","33","148635","0.0-2.0-10.2-1.2","60fdf6b3117c2aeb33f2dd99","B2","batch2","","529","tol_toboard","","","","tol_peg_2","529","529","0","[[1,3,0],[2,0],[0]]","3","[[1,3,0],[2,0],[0]]","0","0","","","","","","3","","","","","","","","",""
"","","","","","poldrack-single-stim","34","149636","0.0-2.0-11.0","60fdf6b3117c2aeb33f2dd99","B2","batch2","","-1","tol_feedback","","","true","","1000","1000","500","","","","","","-1","none","true","7134","8172","","","","","","","","","",""
"","","","","","html-button-response","35","150585","0.0-2.0-12.0","60fdf6b3117c2aeb33f2dd99","B2","batch2","","948.0999999046326","tol_trial_num","<div class = centerbox><p class = center-block-text>problem <strong>2</strong> out of 25 problems</p></div>","0","","","","","","","","","","","","","","","","","","","","","","","","",""
"","","","","","single-stim-button","36","152991","0.0-2.0-13.0-0.0","60fdf6b3117c2aeb33f2dd99","B2","batch2","","2406","tol_tohand","","","","tol_peg_1","2406","2406","0","[[1,0,0],[3,0],[0]]","1","[[2,1,3],[0,0],[0]]","1","0","","","","","","5","","","","","","","","",""
"","","","","","single-stim-button","37","153718","0.0-2.0-13.0-1.0","60fdf6b3117c2aeb33f2dd99","B2","batch2","","727","tol_toboard","","","","tol_peg_3","727","727","0","[[1,0,0],[3,0],[2]]","1","[[2,1,3],[0,0],[0]]","1","0","","","","","","5","","","","","","","","",""
"","","","","","single-stim-button","38","154695","0.0-2.0-13.1-0.1","60fdf6b3117c2aeb33f2dd99","B2","batch2","","977","tol_tohand","","","","tol_peg_2","977","977","0","[[1,0,0],[0,0],[2]]","2","[[2,1,3],[0,0],[0]]","1","0","","","","","","5","","","","","","","","",""
"","","","","","single-stim-button","39","157538","0.0-2.0-13.1-1.1","60fdf6b3117c2aeb33f2dd99","B2","batch2","","2843","tol_toboard","","","","tol_peg_2","2843","2843","0","[[1,0,0],[3,0],[2]]","2","[[2,1,3],[0,0],[0]]","1","0","","","","","","5","","","","","","","","",""
"","","","","","single-stim-button","40","158019","0.0-2.0-13.2-0.2","60fdf6b3117c2aeb33f2dd99","B2","batch2","","481","tol_tohand","","","","tol_peg_3","481","481","0","[[1,0,0],[3,0],[0]]","3","[[2,1,3],[0,0],[0]]","1","0","","","","","","5","","","","","","","","",""
"","","","","","single-stim-button","41","159588","0.0-2.0-13.2-1.2","60fdf6b3117c2aeb33f2dd99","B2","batch2","","1569","tol_toboard","","","","tol_peg_3","1569","1569","0","[[1,0,0],[3,0],[2]]","3","[[2,1,3],[0,0],[0]]","1","0","","","","","","5","","","","","","","","",""
"","","","","","single-stim-button","42","160010","0.0-2.0-13.3-0.3","60fdf6b3117c2aeb33f2dd99","B2","batch2","","422","tol_tohand","","","","tol_peg_1","422","422","0","[[0,0,0],[3,0],[2]]","4","[[2,1,3],[0,0],[0]]","1","0","","","","","","5","","","","","","","","",""
"","","","","","single-stim-button","43","160943","0.0-2.0-13.3-1.3","60fdf6b3117c2aeb33f2dd99","B2","batch2","","931","tol_toboard","","","","tol_peg_2","931","931","0","[[0,0,0],[3,1],[2]]","4","[[2,1,3],[0,0],[0]]","1","0","","","","","","5","","","","","","","","",""
"","","","","","single-stim-button","44","161452","0.0-2.0-13.4-0.4","60fdf6b3117c2aeb33f2dd99","B2","batch2","","509","tol_tohand","","","","tol_peg_3","509","509","0","[[0,0,0],[3,1],[0]]","5","[[2,1,3],[0,0],[0]]","1","0","","","","","","5","","","","","","","","",""
"","","","","","single-stim-button","45","162135","0.0-2.0-13.4-1.4","60fdf6b3117c2aeb33f2dd99","B2","batch2","","683","tol_toboard","","","","tol_peg_1","683","683","0","[[2,0,0],[3,1],[0]]","5","[[2,1,3],[0,0],[0]]","1","0","","","","","","5","","","","","","","","",""
"","","","","","single-stim-button","46","162510","0.0-2.0-13.5-0.5","60fdf6b3117c2aeb33f2dd99","B2","batch2","","375","tol_tohand","","","","tol_peg_2","375","375","0","[[2,0,0],[3,0],[0]]","6","[[2,1,3],[0,0],[0]]","1","0","","","","","","5","","","","","","","","",""
"","","","","","single-stim-button","47","162835","0.0-2.0-13.5-1.5","60fdf6b3117c2aeb33f2dd99","B2","batch2","","324","tol_toboard","","","","tol_peg_1","324","324","0","[[2,1,0],[3,0],[0]]","6","[[2,1,3],[0,0],[0]]","1","0","","","","","","5","","","","","","","","",""
"","","","","","single-stim-button","48","163190","0.0-2.0-13.6-0.6","60fdf6b3117c2aeb33f2dd99","B2","batch2","","354","tol_tohand","","","","tol_peg_2","354","354","0","[[2,1,0],[0,0],[0]]","7","[[2,1,3],[0,0],[0]]","1","0","","","","","","5","","","","","","","","",""
"","","","","","single-stim-button","49","163518","0.0-2.0-13.6-1.6","60fdf6b3117c2aeb33f2dd99","B2","batch2","","327","tol_toboard","","","","tol_peg_1","327","327","0","[[2,1,3],[0,0],[0]]","7","[[2,1,3],[0,0],[0]]","1","0","","","","","","5","","","","","","","","",""
"","","","","","poldrack-single-stim","50","164519","0.0-2.0-14.0","60fdf6b3117c2aeb33f2dd99","B2","batch2","","-1","tol_feedback","","","true","","1000","1000","500","","","","","","-1","none","true","2406","5524","","","","","","","","","",""
"","","","","","html-button-response","51","165312","0.0-2.0-15.0","60fdf6b3117c2aeb33f2dd99","B2","batch2","","792.5999999046326","tol_trial_num","<div class = centerbox><p class = center-block-text>problem <strong>3</strong> out of 25 problems</p></div>","0","","","","","","","","","","","","","","","","","","","","","","","","",""
"","","","","","single-stim-button","52","169607","0.0-2.0-16.0-0.0","60fdf6b3117c2aeb33f2dd99","B2","batch2","","4294","tol_tohand","","","","tol_peg_1","4294","4294","0","[[2,0,0],[0,0],[1]]","1","[[1,2,0],[3,0],[0]]","2","0","","","","","","4","","","","","","","","",""
"","","","","","single-stim-button","53","170943","0.0-2.0-16.0-1.0","60fdf6b3117c2aeb33f2dd99","B2","batch2","","1335","tol_toboard","","","","tol_peg_2","1335","1335","0","[[2,0,0],[3,0],[1]]","1","[[1,2,0],[3,0],[0]]","2","0","","","","","","4","","","","","","","","",""
"","","","","","single-stim-button","54","171516","0.0-2.0-16.1-0.1","60fdf6b3117c2aeb33f2dd99","B2","batch2","","573","tol_tohand","","","","tol_peg_1","573","573","0","[[0,0,0],[3,0],[1]]","2","[[1,2,0],[3,0],[0]]","2","0","","","","","","4","","","","","","","","",""
"","","","","","single-stim-button","55","172035","0.0-2.0-16.1-1.1","60fdf6b3117c2aeb33f2dd99","B2","batch2","","519","tol_toboard","","","","tol_peg_2","519","519","0","[[0,0,0],[3,2],[1]]","2","[[1,2,0],[3,0],[0]]","2","0","","","","","","4","","","","","","","","",""
"","","","","","single-stim-button","56","172362","0.0-2.0-16.2-0.2","60fdf6b3117c2aeb33f2dd99","B2","batch2","","327","tol_tohand","","","","tol_peg_3","327","327","0","[[0,0,0],[3,2],[0]]","3","[[1,2,0],[3,0],[0]]","2","0","","","","","","4","","","","","","","","",""
"","","","","","single-stim-button","57","172932","0.0-2.0-16.2-1.2","60fdf6b3117c2aeb33f2dd99","B2","batch2","","570","tol_toboard","","","","tol_peg_1","570","570","0","[[1,0,0],[3,2],[0]]","3","[[1,2,0],[3,0],[0]]","2","0","","","","","","4","","","","","","","","",""
"","","","","","single-stim-button","58","173327","0.0-2.0-16.3-0.3","60fdf6b3117c2aeb33f2dd99","B2","batch2","","395","tol_tohand","","","","tol_peg_2","395","395","0","[[1,0,0],[3,0],[0]]","4","[[1,2,0],[3,0],[0]]","2","0","","","","","","4","","","","","","","","",""
"","","","","","single-stim-button","59","173849","0.0-2.0-16.3-1.3","60fdf6b3117c2aeb33f2dd99","B2","batch2","","522","tol_toboard","","","","tol_peg_1","522","522","0","[[1,2,0],[3,0],[0]]","4","[[1,2,0],[3,0],[0]]","2","0","","","","","","4","","","","","","","","",""
"","","","","","poldrack-single-stim","60","174850","0.0-2.0-17.0","60fdf6b3117c2aeb33f2dd99","B2","batch2","","-1","tol_feedback","","","true","","1000","1000","500","","","","","","-1","none","true","4294","5589","","","","","","","","","",""
"","","","","","html-button-response","61","175694","0.0-2.0-18.0","60fdf6b3117c2aeb33f2dd99","B2","batch2","","842.7999997138977","tol_trial_num","<div class = centerbox><p class = center-block-text>problem <strong>4</strong> out of 25 problems</p></div>","0","","","","","","","","","","","","","","","","","","","","","","","","",""
"","","","","","single-stim-button","62","177950","0.0-2.0-19.0-0.0","60fdf6b3117c2aeb33f2dd99","B2","batch2","","2256","tol_tohand","","","","tol_peg_2","2256","2256","0","[[3,0,0],[2,0],[0]]","1","[[3,0,0],[1,0],[2]]","3","0","","","","","","3","","","","","","","","",""
"","","","","","single-stim-button","63","178977","0.0-2.0-19.0-1.0","60fdf6b3117c2aeb33f2dd99","B2","batch2","","1027","tol_toboard","","","","tol_peg_1","1027","1027","0","[[3,1,0],[2,0],[0]]","1","[[3,0,0],[1,0],[2]]","3","0","","","","","","3","","","","","","","","",""
"","","","","","single-stim-button","64","180216","0.0-2.0-19.1-0.1","60fdf6b3117c2aeb33f2dd99","B2","batch2","","1239","tol_tohand","","","","tol_peg_2","1239","1239","0","[[3,1,0],[0,0],[0]]","2","[[3,0,0],[1,0],[2]]","3","0","","","","","","3","","","","","","","","",""
"","","","","","single-stim-button","65","180843","0.0-2.0-19.1-1.1","60fdf6b3117c2aeb33f2dd99","B2","batch2","","627","tol_toboard","","","","tol_peg_3","627","627","0","[[3,1,0],[0,0],[2]]","2","[[3,0,0],[1,0],[2]]","3","0","","","","","","3","","","","","","","","",""
"","","","","","single-stim-button","66","181410","0.0-2.0-19.2-0.2","60fdf6b3117c2aeb33f2dd99","B2","batch2","","567","tol_tohand","","","","tol_peg_1","567","567","0","[[3,0,0],[0,0],[2]]","3","[[3,0,0],[1,0],[2]]","3","0","","","","","","3","","","","","","","","",""
"","","","","","single-stim-button","67","181958","0.0-2.0-19.2-1.2","60fdf6b3117c2aeb33f2dd99","B2","batch2","","548","tol_toboard","","","","tol_peg_2","548","548","0","[[3,0,0],[1,0],[2]]","3","[[3,0,0],[1,0],[2]]","3","0","","","","","","3","","","","","","","","",""
"","","","","","poldrack-single-stim","68","182959","0.0-2.0-20.0","60fdf6b3117c2aeb33f2dd99","B2","batch2","","-1","tol_feedback","","","true","","1000","1000","500","","","","","","-1","none","true","2256","4062","","","","","","","","","",""
"","","","","","html-button-response","69","183713","0.0-2.0-21.0","60fdf6b3117c2aeb33f2dd99","B2","batch2","","753.4000000953674","tol_trial_num","<div class = centerbox><p class = center-block-text>problem <strong>5</strong> out of 25 problems</p></div>","0","","","","","","","","","","","","","","","","","","","","","","","","",""
"","","","","","single-stim-button","70","186963","0.0-2.0-22.0-0.0","60fdf6b3117c2aeb33f2dd99","B2","batch2","","3249","tol_tohand","","","","tol_peg_2","3249","3249","0","[[1,0,0],[0,0],[3]]","1","[[0,0,0],[1,2],[3]]","4","0","","","","","","7","","","","","","","","",""
"","","","","","single-stim-button","71","192018","0.0-2.0-22.0-1.0","60fdf6b3117c2aeb33f2dd99","B2","batch2","","5055","tol_toboard","","","","tol_peg_2","5055","5055","0","[[1,0,0],[2,0],[3]]","1","[[0,0,0],[1,2],[3]]","4","0","","","","","","7","","","","","","","","",""
"","","","","","single-stim-button","72","192560","0.0-2.0-22.1-0.1","60fdf6b3117c2aeb33f2dd99","B2","batch2","","541","tol_tohand","","","","tol_peg_1","541","541","0","[[0,0,0],[2,0],[3]]","2","[[0,0,0],[1,2],[3]]","4","0","","","","","","7","","","","","","","","",""
"","","","","","single-stim-button","73","197334","0.0-2.0-22.1-1.1","60fdf6b3117c2aeb33f2dd99","B2","batch2","","4773","tol_toboard","","","","tol_peg_2","4773","4773","0","[[0,0,0],[2,1],[3]]","2","[[0,0,0],[1,2],[3]]","4","0","","","","","","7","","","","","","","","",""
"","","","","","single-stim-button","74","197733","0.0-2.0-22.2-0.2","60fdf6b3117c2aeb33f2dd99","B2","batch2","","399","tol_tohand","","","","tol_peg_3","399","399","0","[[0,0,0],[2,1],[0]]","3","[[0,0,0],[1,2],[3]]","4","0","","","","","","7","","","","","","","","",""
"","","","","","single-stim-button","75","198304","0.0-2.0-22.2-1.2","60fdf6b3117c2aeb33f2dd99","B2","batch2","","571","tol_toboard","","","","tol_peg_1","571","571","0","[[3,0,0],[2,1],[0]]","3","[[0,0,0],[1,2],[3]]","4","0","","","","","","7","","","","","","","","",""
"","","","","","single-stim-button","76","198699","0.0-2.0-22.3-0.3","60fdf6b3117c2aeb33f2dd99","B2","batch2","","395","tol_tohand","","","","tol_peg_2","395","395","0","[[3,0,0],[2,0],[0]]","4","[[0,0,0],[1,2],[3]]","4","0","","","","","","7","","","","","","","","",""
"","","","","","single-stim-button","77","199018","0.0-2.0-22.3-1.3","60fdf6b3117c2aeb33f2dd99","B2","batch2","","319","tol_toboard","","","","tol_peg_3","319","319","0","[[3,0,0],[2,0],[1]]","4","[[0,0,0],[1,2],[3]]","4","0","","","","","","7","","","","","","","","",""
"","","","","","single-stim-button","78","199378","0.0-2.0-22.4-0.4","60fdf6b3117c2aeb33f2dd99","B2","batch2","","359","tol_tohand","","","","tol_peg_2","359","359","0","[[3,0,0],[0,0],[1]]","5","[[0,0,0],[1,2],[3]]","4","0","","","","","","7","","","","","","","","",""
"","","","","","single-stim-button","79","199799","0.0-2.0-22.4-1.4","60fdf6b3117c2aeb33f2dd99","B2","batch2","","420","tol_toboard","","","","tol_peg_1","420","420","0","[[3,2,0],[0,0],[1]]","5","[[0,0,0],[1,2],[3]]","4","0","","","","","","7","","","","","","","","",""
"","","","","","single-stim-button","80","200401","0.0-2.0-22.5-0.5","60fdf6b3117c2aeb33f2dd99","B2","batch2","","602","tol_tohand","","","","tol_peg_3","602","602","0","[[3,2,0],[0,0],[0]]","6","[[0,0,0],[1,2],[3]]","4","0","","","","","","7","","","","","","","","",""
"","","","","","single-stim-button","81","200815","0.0-2.0-22.5-1.5","60fdf6b3117c2aeb33f2dd99","B2","batch2","","413","tol_toboard","","","","tol_peg_2","413","413","0","[[3,2,0],[1,0],[0]]","6","[[0,0,0],[1,2],[3]]","4","0","","","","","","7","","","","","","","","",""
"","","","","","single-stim-button","82","201135","0.0-2.0-22.6-0.6","60fdf6b3117c2aeb33f2dd99","B2","batch2","","319","tol_tohand","","","","tol_peg_1","319","319","0","[[3,0,0],[1,0],[0]]","7","[[0,0,0],[1,2],[3]]","4","0","","","","","","7","","","","","","","","",""
"","","","","","single-stim-button","83","201700","0.0-2.0-22.6-1.6","60fdf6b3117c2aeb33f2dd99","B2","batch2","","564","tol_toboard","","","","tol_peg_2","564","564","0","[[3,0,0],[1,2],[0]]","7","[[0,0,0],[1,2],[3]]","4","0","","","","","","7","","","","","","","","",""
"","","","","","single-stim-button","84","201999","0.0-2.0-22.7-0.7","60fdf6b3117c2aeb33f2dd99","B2","batch2","","299","tol_tohand","","","","tol_peg_1","299","299","0","[[0,0,0],[1,2],[0]]","8","[[0,0,0],[1,2],[3]]","4","0","","","","","","7","","","","","","","","",""
"","","","","","single-stim-button","85","202353","0.0-2.0-22.7-1.7","60fdf6b3117c2aeb33f2dd99","B2","batch2","","353","tol_toboard","","","","tol_peg_3","353","353","0","[[0,0,0],[1,2],[3]]","8","[[0,0,0],[1,2],[3]]","4","0","","","","","","7","","","","","","","","",""
"","","","","","poldrack-single-stim","86","203355","0.0-2.0-23.0","60fdf6b3117c2aeb33f2dd99","B2","batch2","","-1","tol_feedback","","","true","","1000","1000","500","","","","","","-1","none","true","3249","6163","","","","","","","","","",""
"","","","","","html-button-response","87","204372","0.0-2.0-24.0","60fdf6b3117c2aeb33f2dd99","B2","batch2","","1016.5","tol_trial_num","<div class = centerbox><p class = center-block-text>problem <strong>6</strong> out of 25 problems</p></div>","0","","","","","","","","","","","","","","","","","","","","","","","","",""
"","","","","","single-stim-button","88","209310","0.0-2.0-25.0-0.0","60fdf6b3117c2aeb33f2dd99","B2","batch2","","4937","tol_tohand","","","","tol_peg_3","4937","4937","0","[[0,0,0],[1,2],[0]]","1","[[1,0,0],[2,3],[0]]","5","0","","","","","","6","","","","","","","","",""
"","","","","","single-stim-button","89","209866","0.0-2.0-25.0-1.0","60fdf6b3117c2aeb33f2dd99","B2","batch2","","555","tol_toboard","","","","tol_peg_1","555","555","0","[[3,0,0],[1,2],[0]]","1","[[1,0,0],[2,3],[0]]","5","0","","","","","","6","","","","","","","","",""
"","","","","","single-stim-button","90","210312","0.0-2.0-25.1-0.1","60fdf6b3117c2aeb33f2dd99","B2","batch2","","445","tol_tohand","","","","tol_peg_2","445","445","0","[[3,0,0],[1,0],[0]]","2","[[1,0,0],[2,3],[0]]","5","0","","","","","","6","","","","","","","","",""
"","","","","","single-stim-button","91","211832","0.0-2.0-25.1-1.1","60fdf6b3117c2aeb33f2dd99","B2","batch2","","1518","tol_toboard","","","","tol_peg_3","1518","1518","0","[[3,0,0],[1,0],[2]]","2","[[1,0,0],[2,3],[0]]","5","0","","","","","","6","","","","","","","","",""
"","","","","","single-stim-button","92","213293","0.0-2.0-25.2-0.2","60fdf6b3117c2aeb33f2dd99","B2","batch2","","1461","tol_tohand","","","","tol_peg_1","1461","1461","0","[[0,0,0],[1,0],[2]]","3","[[1,0,0],[2,3],[0]]","5","0","","","","","","6","","","","","","","","",""
"","","","","","single-stim-button","93","214599","0.0-2.0-25.2-1.2","60fdf6b3117c2aeb33f2dd99","B2","batch2","","1306","tol_toboard","","","","tol_peg_1","1306","1306","0","[[3,0,0],[1,0],[2]]","3","[[1,0,0],[2,3],[0]]","5","0","","","","","","6","","","","","","","","",""
"","","","","","single-stim-button","94","216148","0.0-2.0-25.3-0.3","60fdf6b3117c2aeb33f2dd99","B2","batch2","","1548","tol_tohand","","","","tol_peg_2","1548","1548","0","[[3,0,0],[0,0],[2]]","4","[[1,0,0],[2,3],[0]]","5","0","","","","","","6","","","","","","","","",""
"","","","","","single-stim-button","95","217567","0.0-2.0-25.3-1.3","60fdf6b3117c2aeb33f2dd99","B2","batch2","","1418","tol_toboard","","","","tol_peg_1","1418","1418","0","[[3,1,0],[0,0],[2]]","4","[[1,0,0],[2,3],[0]]","5","0","","","","","","6","","","","","","","","",""
"","","","","","single-stim-button","96","218075","0.0-2.0-25.4-0.4","60fdf6b3117c2aeb33f2dd99","B2","batch2","","507","tol_tohand","","","","tol_peg_3","507","507","0","[[3,1,0],[0,0],[0]]","5","[[1,0,0],[2,3],[0]]","5","0","","","","","","6","","","","","","","","",""
"","","","","","single-stim-button","97","218484","0.0-2.0-25.4-1.4","60fdf6b3117c2aeb33f2dd99","B2","batch2","","408","tol_toboard","","","","tol_peg_2","408","408","0","[[3,1,0],[2,0],[0]]","5","[[1,0,0],[2,3],[0]]","5","0","","","","","","6","","","","","","","","",""
"","","","","","single-stim-button","98","218984","0.0-2.0-25.5-0.5","60fdf6b3117c2aeb33f2dd99","B2","batch2","","499","tol_tohand","","","","tol_peg_1","499","499","0","[[3,0,0],[2,0],[0]]","6","[[1,0,0],[2,3],[0]]","5","0","","","","","","6","","","","","","","","",""
"","","","","","single-stim-button","99","220144","0.0-2.0-25.5-1.5","60fdf6b3117c2aeb33f2dd99","B2","batch2","","1159","tol_toboard","","","","tol_peg_3","1159","1159","0","[[3,0,0],[2,0],[1]]","6","[[1,0,0],[2,3],[0]]","5","0","","","","","","6","","","","","","","","",""
"","","","","","single-stim-button","100","220586","0.0-2.0-25.6-0.6","60fdf6b3117c2aeb33f2dd99","B2","batch2","","441","tol_tohand","","","","tol_peg_1","441","441","0","[[0,0,0],[2,0],[1]]","7","[[1,0,0],[2,3],[0]]","5","0","","","","","","6","","","","","","","","",""
"","","","","","single-stim-button","101","221042","0.0-2.0-25.6-1.6","60fdf6b3117c2aeb33f2dd99","B2","batch2","","454","tol_toboard","","","","tol_peg_2","454","454","0","[[0,0,0],[2,3],[1]]","7","[[1,0,0],[2,3],[0]]","5","0","","","","","","6","","","","","","","","",""
"","","","","","single-stim-button","102","221386","0.0-2.0-25.7-0.7","60fdf6b3117c2aeb33f2dd99","B2","batch2","","344","tol_tohand","","","","tol_peg_3","344","344","0","[[0,0,0],[2,3],[0]]","8","[[1,0,0],[2,3],[0]]","5","0","","","","","","6","","","","","","","","",""
"","","","","","single-stim-button","103","221832","0.0-2.0-25.7-1.7","60fdf6b3117c2aeb33f2dd99","B2","batch2","","446","tol_toboard","","","","tol_peg_1","446","446","0","[[1,0,0],[2,3],[0]]","8","[[1,0,0],[2,3],[0]]","5","0","","","","","","6","","","","","","","","",""
"","","","","","poldrack-single-stim","104","222845","0.0-2.0-26.0","60fdf6b3117c2aeb33f2dd99","B2","batch2","","-1","tol_feedback","","","true","","1000","1000","500","","","","","","-1","none","true","4937","10182","","","","","","","","","",""
"","","","","","html-button-response","105","223695","0.0-2.0-27.0","60fdf6b3117c2aeb33f2dd99","B2","batch2","","849.3000001907349","tol_trial_num","<div class = centerbox><p class = center-block-text>problem <strong>7</strong> out of 25 problems</p></div>","0","","","","","","","","","","","","","","","","","","","","","","","","",""
"","","","","","single-stim-button","106","227409","0.0-2.0-28.0-0.0","60fdf6b3117c2aeb33f2dd99","B2","batch2","","3713","tol_tohand","","","","tol_peg_3","3713","3713","0","[[2,1,0],[0,0],[0]]","1","[[1,2,0],[3,0],[0]]","6","0","","","","","","5","","","","","","","","",""
"","","","","","single-stim-button","107","227862","0.0-2.0-28.0-1.0","60fdf6b3117c2aeb33f2dd99","B2","batch2","","451","tol_toboard","","","","tol_peg_2","451","451","0","[[2,1,0],[3,0],[0]]","1","[[1,2,0],[3,0],[0]]","6","0","","","","","","5","","","","","","","","",""
"","","","","","single-stim-button","108","228658","0.0-2.0-28.1-0.1","60fdf6b3117c2aeb33f2dd99","B2","batch2","","796","tol_tohand","","","","tol_peg_1","796","796","0","[[2,0,0],[3,0],[0]]","2","[[1,2,0],[3,0],[0]]","6","0","","","","","","5","","","","","","","","",""
"","","","","","single-stim-button","109","229772","0.0-2.0-28.1-1.1","60fdf6b3117c2aeb33f2dd99","B2","batch2","","1113","tol_toboard","","","","tol_peg_2","1113","1113","0","[[2,0,0],[3,1],[0]]","2","[[1,2,0],[3,0],[0]]","6","0","","","","","","5","","","","","","","","",""
"","","","","","single-stim-button","110","230700","0.0-2.0-28.2-0.2","60fdf6b3117c2aeb33f2dd99","B2","batch2","","927","tol_tohand","","","","tol_peg_1","927","927","0","[[0,0,0],[3,1],[0]]","3","[[1,2,0],[3,0],[0]]","6","0","","","","","","5","","","","","","","","",""
"","","","","","single-stim-button","111","231452","0.0-2.0-28.2-1.2","60fdf6b3117c2aeb33f2dd99","B2","batch2","","752","tol_toboard","","","","tol_peg_3","752","752","0","[[0,0,0],[3,1],[2]]","3","[[1,2,0],[3,0],[0]]","6","0","","","","","","5","","","","","","","","",""
"","","","","","single-stim-button","112","231826","0.0-2.0-28.3-0.3","60fdf6b3117c2aeb33f2dd99","B2","batch2","","374","tol_tohand","","","","tol_peg_2","374","374","0","[[0,0,0],[3,0],[2]]","4","[[1,2,0],[3,0],[0]]","6","0","","","","","","5","","","","","","","","",""
"","","","","","single-stim-button","113","232259","0.0-2.0-28.3-1.3","60fdf6b3117c2aeb33f2dd99","B2","batch2","","432","tol_toboard","","","","tol_peg_1","432","432","0","[[1,0,0],[3,0],[2]]","4","[[1,2,0],[3,0],[0]]","6","0","","","","","","5","","","","","","","","",""
"","","","","","single-stim-button","114","232665","0.0-2.0-28.4-0.4","60fdf6b3117c2aeb33f2dd99","B2","batch2","","406","tol_tohand","","","","tol_peg_3","406","406","0","[[1,0,0],[3,0],[0]]","5","[[1,2,0],[3,0],[0]]","6","0","","","","","","5","","","","","","","","",""
"","","","","","single-stim-button","115","233124","0.0-2.0-28.4-1.4","60fdf6b3117c2aeb33f2dd99","B2","batch2","","458","tol_toboard","","","","tol_peg_1","458","458","0","[[1,2,0],[3,0],[0]]","5","[[1,2,0],[3,0],[0]]","6","0","","","","","","5","","","","","","","","",""
"","","","","","poldrack-single-stim","116","234134","0.0-2.0-29.0","60fdf6b3117c2aeb33f2dd99","B2","batch2","","-1","tol_feedback","","","true","","1000","1000","500","","","","","","-1","none","true","3713","6216","","","","","","","","","",""
"","","","","","html-button-response","117","234726","0.0-2.0-30.0","60fdf6b3117c2aeb33f2dd99","B2","batch2","","592","tol_trial_num","<div class = centerbox><p class = center-block-text>problem <strong>8</strong> out of 25 problems</p></div>","0","","","","","","","","","","","","","","","","","","","","","","","","",""
"","","","","","single-stim-button","118","236425","0.0-2.0-31.0-0.0","60fdf6b3117c2aeb33f2dd99","B2","batch2","","1698","tol_tohand","","","","tol_peg_3","1698","1698","0","[[0,0,0],[2,3],[0]]","1","[[1,2,0],[3,0],[0]]","7","0","","","","","","4","","","","","","","","",""
"","","","","","single-stim-button","119","237083","0.0-2.0-31.0-1.0","60fdf6b3117c2aeb33f2dd99","B2","batch2","","657","tol_toboard","","","","tol_peg_1","657","657","0","[[1,0,0],[2,3],[0]]","1","[[1,2,0],[3,0],[0]]","7","0","","","","","","4","","","","","","","","",""
"","","","","","single-stim-button","120","238079","0.0-2.0-31.1-0.1","60fdf6b3117c2aeb33f2dd99","B2","batch2","","996","tol_tohand","","","","tol_peg_2","996","996","0","[[1,0,0],[2,0],[0]]","2","[[1,2,0],[3,0],[0]]","7","0","","","","","","4","","","","","","","","",""
"","","","","","single-stim-button","121","238960","0.0-2.0-31.1-1.1","60fdf6b3117c2aeb33f2dd99","B2","batch2","","881","tol_toboard","","","","tol_peg_3","881","881","0","[[1,0,0],[2,0],[3]]","2","[[1,2,0],[3,0],[0]]","7","0","","","","","","4","","","","","","","","",""
"","","","","","single-stim-button","122","239239","0.0-2.0-31.2-0.2","60fdf6b3117c2aeb33f2dd99","B2","batch2","","278","tol_tohand","","","","tol_peg_2","278","278","0","[[1,0,0],[0,0],[3]]","3","[[1,2,0],[3,0],[0]]","7","0","","","","","","4","","","","","","","","",""
"","","","","","single-stim-button","123","239556","0.0-2.0-31.2-1.2","60fdf6b3117c2aeb33f2dd99","B2","batch2","","316","tol_toboard","","","","tol_peg_1","316","316","0","[[1,2,0],[0,0],[3]]","3","[[1,2,0],[3,0],[0]]","7","0","","","","","","4","","","","","","","","",""
"","","","","","single-stim-button","124","239923","0.0-2.0-31.3-0.3","60fdf6b3117c2aeb33f2dd99","B2","batch2","","366","tol_tohand","","","","tol_peg_3","366","366","0","[[1,2,0],[0,0],[0]]","4","[[1,2,0],[3,0],[0]]","7","0","","","","","","4","","","","","","","","",""
"","","","","","single-stim-button","125","240269","0.0-2.0-31.3-1.3","60fdf6b3117c2aeb33f2dd99","B2","batch2","","345","tol_toboard","","","","tol_peg_2","345","345","0","[[1,2,0],[3,0],[0]]","4","[[1,2,0],[3,0],[0]]","7","0","","","","","","4","","","","","","","","",""
"","","","","","poldrack-single-stim","126","241283","0.0-2.0-32.0","60fdf6b3117c2aeb33f2dd99","B2","batch2","","-1","tol_feedback","","","true","","1000","1000","500","","","","","","-1","none","true","1698","3338","","","","","","","","","",""
"","","","","","html-button-response","127","242555","0.0-2.0-33.0","60fdf6b3117c2aeb33f2dd99","B2","batch2","","1270.9000000953674","tol_trial_num","<div class = centerbox><p class = center-block-text>problem <strong>9</strong> out of 25 problems</p></div>","0","","","","","","","","","","","","","","","","","","","","","","","","",""
"","","","","","single-stim-button","128","250715","0.0-2.0-34.0-0.0","60fdf6b3117c2aeb33f2dd99","B2","batch2","","8160","tol_tohand","","","","tol_peg_3","8160","8160","0","[[3,2,0],[0,0],[0]]","1","[[2,1,0],[3,0],[0]]","8","0","","","","","","6","","","","","","","","",""
"","","","","","single-stim-button","129","253533","0.0-2.0-34.0-1.0","60fdf6b3117c2aeb33f2dd99","B2","batch2","","2818","tol_toboard","","","","tol_peg_2","2818","2818","0","[[3,2,0],[1,0],[0]]","1","[[2,1,0],[3,0],[0]]","8","0","","","","","","6","","","","","","","","",""
"","","","","","single-stim-button","130","253958","0.0-2.0-34.1-0.1","60fdf6b3117c2aeb33f2dd99","B2","batch2","","424","tol_tohand","","","","tol_peg_1","424","424","0","[[3,0,0],[1,0],[0]]","2","[[2,1,0],[3,0],[0]]","8","0","","","","","","6","","","","","","","","",""
"","","","","","single-stim-button","131","254691","0.0-2.0-34.1-1.1","60fdf6b3117c2aeb33f2dd99","B2","batch2","","732","tol_toboard","","","","tol_peg_3","732","732","0","[[3,0,0],[1,0],[2]]","2","[[2,1,0],[3,0],[0]]","8","0","","","","","","6","","","","","","","","",""
"","","","","","single-stim-button","132","258563","0.0-2.0-34.2-0.2","60fdf6b3117c2aeb33f2dd99","B2","batch2","","3872","tol_tohand","","","","tol_peg_2","3872","3872","0","[[3,0,0],[0,0],[2]]","3","[[2,1,0],[3,0],[0]]","8","0","","","","","","6","","","","","","","","",""
"","","","","","single-stim-button","133","258978","0.0-2.0-34.2-1.2","60fdf6b3117c2aeb33f2dd99","B2","batch2","","414","tol_toboard","","","","tol_peg_1","414","414","0","[[3,1,0],[0,0],[2]]","3","[[2,1,0],[3,0],[0]]","8","0","","","","","","6","","","","","","","","",""
"","","","","","single-stim-button","134","266690","0.0-2.0-34.3-0.3","60fdf6b3117c2aeb33f2dd99","B2","batch2","","7712","tol_tohand","","","","tol_peg_3","7712","7712","0","[[3,1,0],[0,0],[0]]","4","[[2,1,0],[3,0],[0]]","8","0","","","","","","6","","","","","","","","",""
"","","","","","single-stim-button","135","268253","0.0-2.0-34.3-1.3","60fdf6b3117c2aeb33f2dd99","B2","batch2","","1563","tol_toboard","","","","tol_peg_2","1563","1563","0","[[3,1,0],[2,0],[0]]","4","[[2,1,0],[3,0],[0]]","8","0","","","","","","6","","","","","","","","",""
"","","","","","single-stim-button","136","268653","0.0-2.0-34.4-0.4","60fdf6b3117c2aeb33f2dd99","B2","batch2","","399","tol_tohand","","","","tol_peg_1","399","399","0","[[3,0,0],[2,0],[0]]","5","[[2,1,0],[3,0],[0]]","8","0","","","","","","6","","","","","","","","",""
"","","","","","single-stim-button","137","269094","0.0-2.0-34.4-1.4","60fdf6b3117c2aeb33f2dd99","B2","batch2","","441","tol_toboard","","","","tol_peg_2","441","441","0","[[3,0,0],[2,1],[0]]","5","[[2,1,0],[3,0],[0]]","8","0","","","","","","6","","","","","","","","",""
"","","","","","single-stim-button","138","269433","0.0-2.0-34.5-0.5","60fdf6b3117c2aeb33f2dd99","B2","batch2","","339","tol_tohand","","","","tol_peg_1","339","339","0","[[0,0,0],[2,1],[0]]","6","[[2,1,0],[3,0],[0]]","8","0","","","","","","6","","","","","","","","",""
"","","","","","single-stim-button","139","270010","0.0-2.0-34.5-1.5","60fdf6b3117c2aeb33f2dd99","B2","batch2","","577","tol_toboard","","","","tol_peg_3","577","577","0","[[0,0,0],[2,1],[3]]","6","[[2,1,0],[3,0],[0]]","8","0","","","","","","6","","","","","","","","",""
"","","","","","single-stim-button","140","270484","0.0-2.0-34.6-0.6","60fdf6b3117c2aeb33f2dd99","B2","batch2","","473","tol_tohand","","","","tol_peg_2","473","473","0","[[0,0,0],[2,0],[3]]","7","[[2,1,0],[3,0],[0]]","8","0","","","","","","6","","","","","","","","",""
"","","","","","single-stim-button","141","271813","0.0-2.0-34.6-1.6","60fdf6b3117c2aeb33f2dd99","B2","batch2","","1328","tol_toboard","","","","tol_peg_2","1328","1328","0","[[0,0,0],[2,1],[3]]","7","[[2,1,0],[3,0],[0]]","8","0","","","","","","6","","","","","","","","",""
"","","","","","single-stim-button","142","272158","0.0-2.0-34.7-0.7","60fdf6b3117c2aeb33f2dd99","B2","batch2","","344","tol_tohand","","","","tol_peg_2","344","344","0","[[0,0,0],[2,0],[3]]","8","[[2,1,0],[3,0],[0]]","8","0","","","","","","6","","","","","","","","",""
"","","","","","single-stim-button","143","273332","0.0-2.0-34.7-1.7","60fdf6b3117c2aeb33f2dd99","B2","batch2","","1173","tol_toboard","","","","tol_peg_1","1173","1173","0","[[1,0,0],[2,0],[3]]","8","[[2,1,0],[3,0],[0]]","8","0","","","","","","6","","","","","","","","",""
"","","","","","single-stim-button","144","273903","0.0-2.0-34.8-0.8","60fdf6b3117c2aeb33f2dd99","B2","batch2","","570","tol_tohand","","","","tol_peg_2","570","570","0","[[1,0,0],[0,0],[3]]","9","[[2,1,0],[3,0],[0]]","8","0","","","","","","6","","","","","","","","",""
"","","","","","single-stim-button","145","275293","0.0-2.0-34.8-1.8","60fdf6b3117c2aeb33f2dd99","B2","batch2","","1390","tol_toboard","","","","tol_peg_2","1390","1390","0","[[1,0,0],[2,0],[3]]","9","[[2,1,0],[3,0],[0]]","8","0","","","","","","6","","","","","","","","",""
"","","","","","single-stim-button","146","275766","0.0-2.0-34.9-0.9","60fdf6b3117c2aeb33f2dd99","B2","batch2","","472","tol_tohand","","","","tol_peg_3","472","472","0","[[1,0,0],[2,0],[0]]","10","[[2,1,0],[3,0],[0]]","8","0","","","","","","6","","","","","","","","",""
"","","","","","single-stim-button","147","276297","0.0-2.0-34.9-1.9","60fdf6b3117c2aeb33f2dd99","B2","batch2","","531","tol_toboard","","","","tol_peg_1","531","531","0","[[1,3,0],[2,0],[0]]","10","[[2,1,0],[3,0],[0]]","8","0","","","","","","6","","","","","","","","",""
"","","","","","single-stim-button","148","276601","0.0-2.0-34.10-0.10","60fdf6b3117c2aeb33f2dd99","B2","batch2","","304","tol_tohand","","","","tol_peg_2","304","304","0","[[1,3,0],[0,0],[0]]","11","[[2,1,0],[3,0],[0]]","8","0","","","","","","6","","","","","","","","",""
"","","","","","single-stim-button","149","276932","0.0-2.0-34.10-1.10","60fdf6b3117c2aeb33f2dd99","B2","batch2","","331","tol_toboard","","","","tol_peg_3","331","331","0","[[1,3,0],[0,0],[2]]","11","[[2,1,0],[3,0],[0]]","8","0","","","","","","6","","","","","","","","",""
"","","","","","single-stim-button","150","277514","0.0-2.0-34.11-0.11","60fdf6b3117c2aeb33f2dd99","B2","batch2","","582","tol_tohand","","","","tol_peg_1","582","582","0","[[1,0,0],[0,0],[2]]","12","[[2,1,0],[3,0],[0]]","8","0","","","","","","6","","","","","","","","",""
"","","","","","single-stim-button","151","277859","0.0-2.0-34.11-1.11","60fdf6b3117c2aeb33f2dd99","B2","batch2","","343","tol_toboard","","","","tol_peg_2","343","343","0","[[1,0,0],[3,0],[2]]","12","[[2,1,0],[3,0],[0]]","8","0","","","","","","6","","","","","","","","",""
"","","","","","single-stim-button","152","278461","0.0-2.0-34.12-0.12","60fdf6b3117c2aeb33f2dd99","B2","batch2","","602","tol_tohand","","","","tol_peg_1","602","602","0","[[0,0,0],[3,0],[2]]","13","[[2,1,0],[3,0],[0]]","8","0","","","","","","6","","","","","","","","",""
"","","","","","single-stim-button","153","279439","0.0-2.0-34.12-1.12","60fdf6b3117c2aeb33f2dd99","B2","batch2","","977","tol_toboard","","","","tol_peg_2","977","977","0","[[0,0,0],[3,1],[2]]","13","[[2,1,0],[3,0],[0]]","8","0","","","","","","6","","","","","","","","",""
"","","","","","single-stim-button","154","279764","0.0-2.0-34.13-0.13","60fdf6b3117c2aeb33f2dd99","B2","batch2","","324","tol_tohand","","","","tol_peg_3","324","324","0","[[0,0,0],[3,1],[0]]","14","[[2,1,0],[3,0],[0]]","8","0","","","","","","6","","","","","","","","",""
"","","","","","single-stim-button","155","280682","0.0-2.0-34.13-1.13","60fdf6b3117c2aeb33f2dd99","B2","batch2","","918","tol_toboard","","","","tol_peg_1","918","918","0","[[2,0,0],[3,1],[0]]","14","[[2,1,0],[3,0],[0]]","8","0","","","","","","6","","","","","","","","",""
"","","","","","single-stim-button","156","281041","0.0-2.0-34.14-0.14","60fdf6b3117c2aeb33f2dd99","B2","batch2","","359","tol_tohand","","","","tol_peg_2","359","359","0","[[2,0,0],[3,0],[0]]","15","[[2,1,0],[3,0],[0]]","8","0","","","","","","6","","","","","","","","",""
"","","","","","single-stim-button","157","281429","0.0-2.0-34.14-1.14","60fdf6b3117c2aeb33f2dd99","B2","batch2","","388","tol_toboard","","","","tol_peg_1","388","388","0","[[2,1,0],[3,0],[0]]","15","[[2,1,0],[3,0],[0]]","8","0","","","","","","6","","","","","","","","",""
"","","","","","poldrack-single-stim","158","282431","0.0-2.0-35.0","60fdf6b3117c2aeb33f2dd99","B2","batch2","","-1","tol_feedback","","","true","","1000","1000","500","","","","","","-1","none","true","8160","24936","","","","","","","","","",""
"","","","","","html-button-response","159","283242","0.0-2.0-36.0","60fdf6b3117c2aeb33f2dd99","B2","batch2","","810.4000000953674","tol_trial_num","<div class = centerbox><p class = center-block-text>problem <strong>10</strong> out of 25 problems</p></div>","0","","","","","","","","","","","","","","","","","","","","","","","","",""
"","","","","","single-stim-button","160","285641","0.0-2.0-37.0-0.0","60fdf6b3117c2aeb33f2dd99","B2","batch2","","2398","tol_tohand","","","","tol_peg_2","2398","2398","0","[[3,0,0],[0,0],[2]]","1","[[3,0,0],[2,1],[0]]","9","0","","","","","","3","","","","","","","","",""
"","","","","","single-stim-button","161","286105","0.0-2.0-37.0-1.0","60fdf6b3117c2aeb33f2dd99","B2","batch2","","463","tol_toboard","","","","tol_peg_1","463","463","0","[[3,1,0],[0,0],[2]]","1","[[3,0,0],[2,1],[0]]","9","0","","","","","","3","","","","","","","","",""
"","","","","","single-stim-button","162","286524","0.0-2.0-37.1-0.1","60fdf6b3117c2aeb33f2dd99","B2","batch2","","419","tol_tohand","","","","tol_peg_3","419","419","0","[[3,1,0],[0,0],[0]]","2","[[3,0,0],[2,1],[0]]","9","0","","","","","","3","","","","","","","","",""
"","","","","","single-stim-button","163","286817","0.0-2.0-37.1-1.1","60fdf6b3117c2aeb33f2dd99","B2","batch2","","293","tol_toboard","","","","tol_peg_2","293","293","0","[[3,1,0],[2,0],[0]]","2","[[3,0,0],[2,1],[0]]","9","0","","","","","","3","","","","","","","","",""
"","","","","","single-stim-button","164","287127","0.0-2.0-37.2-0.2","60fdf6b3117c2aeb33f2dd99","B2","batch2","","309","tol_tohand","","","","tol_peg_1","309","309","0","[[3,0,0],[2,0],[0]]","3","[[3,0,0],[2,1],[0]]","9","0","","","","","","3","","","","","","","","",""
"","","","","","single-stim-button","165","287406","0.0-2.0-37.2-1.2","60fdf6b3117c2aeb33f2dd99","B2","batch2","","277","tol_toboard","","","","tol_peg_2","277","277","0","[[3,0,0],[2,1],[0]]","3","[[3,0,0],[2,1],[0]]","9","0","","","","","","3","","","","","","","","",""
"","","","","","poldrack-single-stim","166","288407","0.0-2.0-38.0","60fdf6b3117c2aeb33f2dd99","B2","batch2","","-1","tol_feedback","","","true","","1000","1000","500","","","","","","-1","none","true","2398","3126","","","","","","","","","",""
"","","","","","html-button-response","167","289206","0.0-2.0-39.0","60fdf6b3117c2aeb33f2dd99","B2","batch2","","797.9000000953674","tol_trial_num","<div class = centerbox><p class = center-block-text>problem <strong>11</strong> out of 25 problems</p></div>","0","","","","","","","","","","","","","","","","","","","","","","","","",""
"","","","","","single-stim-button","168","292542","0.0-2.0-40.0-0.0","60fdf6b3117c2aeb33f2dd99","B2","batch2","","3336","tol_tohand","","","","tol_peg_2","3336","3336","0","[[1,2,0],[0,0],[0]]","1","[[2,0,0],[1,3],[0]]","10","0","","","","","","6","","","","","","","","",""
"","","","","","single-stim-button","169","295273","0.0-2.0-40.0-1.0","60fdf6b3117c2aeb33f2dd99","B2","batch2","","2731","tol_toboard","","","","tol_peg_3","2731","2731","0","[[1,2,0],[0,0],[3]]","1","[[2,0,0],[1,3],[0]]","10","0","","","","","","6","","","","","","","","",""
"","","","","","single-stim-button","170","295658","0.0-2.0-40.1-0.1","60fdf6b3117c2aeb33f2dd99","B2","batch2","","385","tol_tohand","","","","tol_peg_1","385","385","0","[[1,0,0],[0,0],[3]]","2","[[2,0,0],[1,3],[0]]","10","0","","","","","","6","","","","","","","","",""
"","","","","","single-stim-button","171","297739","0.0-2.0-40.1-1.1","60fdf6b3117c2aeb33f2dd99","B2","batch2","","2080","tol_toboard","","","","tol_peg_2","2080","2080","0","[[1,0,0],[2,0],[3]]","2","[[2,0,0],[1,3],[0]]","10","0","","","","","","6","","","","","","","","",""
"","","","","","single-stim-button","172","299070","0.0-2.0-40.2-0.2","60fdf6b3117c2aeb33f2dd99","B2","batch2","","1330","tol_tohand","","","","tol_peg_1","1330","1330","0","[[0,0,0],[2,0],[3]]","3","[[2,0,0],[1,3],[0]]","10","0","","","","","","6","","","","","","","","",""
"","","","","","single-stim-button","173","299743","0.0-2.0-40.2-1.2","60fdf6b3117c2aeb33f2dd99","B2","batch2","","672","tol_toboard","","","","tol_peg_2","672","672","0","[[0,0,0],[2,1],[3]]","3","[[2,0,0],[1,3],[0]]","10","0","","","","","","6","","","","","","","","",""
"","","","","","single-stim-button","174","300863","0.0-2.0-40.3-0.3","60fdf6b3117c2aeb33f2dd99","B2","batch2","","1120","tol_tohand","","","","tol_peg_3","1120","1120","0","[[0,0,0],[2,1],[0]]","4","[[2,0,0],[1,3],[0]]","10","0","","","","","","6","","","","","","","","",""
"","","","","","single-stim-button","175","301377","0.0-2.0-40.3-1.3","60fdf6b3117c2aeb33f2dd99","B2","batch2","","514","tol_toboard","","","","tol_peg_1","514","514","0","[[3,0,0],[2,1],[0]]","4","[[2,0,0],[1,3],[0]]","10","0","","","","","","6","","","","","","","","",""
"","","","","","single-stim-button","176","301819","0.0-2.0-40.4-0.4","60fdf6b3117c2aeb33f2dd99","B2","batch2","","441","tol_tohand","","","","tol_peg_2","441","441","0","[[3,0,0],[2,0],[0]]","5","[[2,0,0],[1,3],[0]]","10","0","","","","","","6","","","","","","","","",""
"","","","","","single-stim-button","177","302520","0.0-2.0-40.4-1.4","60fdf6b3117c2aeb33f2dd99","B2","batch2","","701","tol_toboard","","","","tol_peg_3","701","701","0","[[3,0,0],[2,0],[1]]","5","[[2,0,0],[1,3],[0]]","10","0","","","","","","6","","","","","","","","",""
"","","","","","single-stim-button","178","304047","0.0-2.0-40.5-0.5","60fdf6b3117c2aeb33f2dd99","B2","batch2","","1525","tol_tohand","","","","tol_peg_1","1525","1525","0","[[0,0,0],[2,0],[1]]","6","[[2,0,0],[1,3],[0]]","10","0","","","","","","6","","","","","","","","",""
"","","","","","single-stim-button","179","305972","0.0-2.0-40.5-1.5","60fdf6b3117c2aeb33f2dd99","B2","batch2","","1925","tol_toboard","","","","tol_peg_1","1925","1925","0","[[3,0,0],[2,0],[1]]","6","[[2,0,0],[1,3],[0]]","10","0","","","","","","6","","","","","","","","",""
"","","","","","single-stim-button","180","306536","0.0-2.0-40.6-0.6","60fdf6b3117c2aeb33f2dd99","B2","batch2","","564","tol_tohand","","","","tol_peg_2","564","564","0","[[3,0,0],[0,0],[1]]","7","[[2,0,0],[1,3],[0]]","10","0","","","","","","6","","","","","","","","",""
"","","","","","single-stim-button","181","306792","0.0-2.0-40.6-1.6","60fdf6b3117c2aeb33f2dd99","B2","batch2","","255","tol_toboard","","","","tol_peg_1","255","255","0","[[3,2,0],[0,0],[1]]","7","[[2,0,0],[1,3],[0]]","10","0","","","","","","6","","","","","","","","",""
"","","","","","single-stim-button","182","307475","0.0-2.0-40.7-0.7","60fdf6b3117c2aeb33f2dd99","B2","batch2","","682","tol_tohand","","","","tol_peg_3","682","682","0","[[3,2,0],[0,0],[0]]","8","[[2,0,0],[1,3],[0]]","10","0","","","","","","6","","","","","","","","",""
"","","","","","single-stim-button","183","308010","0.0-2.0-40.7-1.7","60fdf6b3117c2aeb33f2dd99","B2","batch2","","535","tol_toboard","","","","tol_peg_2","535","535","0","[[3,2,0],[1,0],[0]]","8","[[2,0,0],[1,3],[0]]","10","0","","","","","","6","","","","","","","","",""
"","","","","","single-stim-button","184","308384","0.0-2.0-40.8-0.8","60fdf6b3117c2aeb33f2dd99","B2","batch2","","373","tol_tohand","","","","tol_peg_1","373","373","0","[[3,0,0],[1,0],[0]]","9","[[2,0,0],[1,3],[0]]","10","0","","","","","","6","","","","","","","","",""
"","","","","","single-stim-button","185","308874","0.0-2.0-40.8-1.8","60fdf6b3117c2aeb33f2dd99","B2","batch2","","488","tol_toboard","","","","tol_peg_3","488","488","0","[[3,0,0],[1,0],[2]]","9","[[2,0,0],[1,3],[0]]","10","0","","","","","","6","","","","","","","","",""
"","","","","","single-stim-button","186","309221","0.0-2.0-40.9-0.9","60fdf6b3117c2aeb33f2dd99","B2","batch2","","347","tol_tohand","","","","tol_peg_1","347","347","0","[[0,0,0],[1,0],[2]]","10","[[2,0,0],[1,3],[0]]","10","0","","","","","","6","","","","","","","","",""
"","","","","","single-stim-button","187","309515","0.0-2.0-40.9-1.9","60fdf6b3117c2aeb33f2dd99","B2","batch2","","294","tol_toboard","","","","tol_peg_2","294","294","0","[[0,0,0],[1,3],[2]]","10","[[2,0,0],[1,3],[0]]","10","0","","","","","","6","","","","","","","","",""
"","","","","","single-stim-button","188","309797","0.0-2.0-40.10-0.10","60fdf6b3117c2aeb33f2dd99","B2","batch2","","282","tol_tohand","","","","tol_peg_3","282","282","0","[[0,0,0],[1,3],[0]]","11","[[2,0,0],[1,3],[0]]","10","0","","","","","","6","","","","","","","","",""
"","","","","","single-stim-button","189","310129","0.0-2.0-40.10-1.10","60fdf6b3117c2aeb33f2dd99","B2","batch2","","332","tol_toboard","","","","tol_peg_1","332","332","0","[[2,0,0],[1,3],[0]]","11","[[2,0,0],[1,3],[0]]","10","0","","","","","","6","","","","","","","","",""
"","","","","","poldrack-single-stim","190","311130","0.0-2.0-41.0","60fdf6b3117c2aeb33f2dd99","B2","batch2","","-1","tol_feedback","","","true","","1000","1000","500","","","","","","-1","none","true","3336","10385","","","","","","","","","",""
"","","","","","html-button-response","191","312616","0.0-2.0-42.0","60fdf6b3117c2aeb33f2dd99","B2","batch2","","1484.8000001907349","tol_trial_num","<div class = centerbox><p class = center-block-text>problem <strong>12</strong> out of 25 problems</p></div>","0","","","","","","","","","","","","","","","","","","","","","","","","",""
"","","","","","single-stim-button","192","314830","0.0-2.0-43.0-0.0","60fdf6b3117c2aeb33f2dd99","B2","batch2","","2214","tol_tohand","","","","tol_peg_1","2214","2214","0","[[1,0,0],[3,0],[0]]","1","[[2,3,0],[0,0],[1]]","11","0","","","","","","4","","","","","","","","",""
"","","","","","single-stim-button","193","315282","0.0-2.0-43.0-1.0","60fdf6b3117c2aeb33f2dd99","B2","batch2","","451","tol_toboard","","","","tol_peg_2","451","451","0","[[1,0,0],[3,2],[0]]","1","[[2,3,0],[0,0],[1]]","11","0","","","","","","4","","","","","","","","",""
"","","","","","single-stim-button","194","315629","0.0-2.0-43.1-0.1","60fdf6b3117c2aeb33f2dd99","B2","batch2","","345","tol_tohand","","","","tol_peg_1","345","345","0","[[0,0,0],[3,2],[0]]","2","[[2,3,0],[0,0],[1]]","11","0","","","","","","4","","","","","","","","",""
"","","","","","single-stim-button","195","316460","0.0-2.0-43.1-1.1","60fdf6b3117c2aeb33f2dd99","B2","batch2","","831","tol_toboard","","","","tol_peg_3","831","831","0","[[0,0,0],[3,2],[1]]","2","[[2,3,0],[0,0],[1]]","11","0","","","","","","4","","","","","","","","",""
"","","","","","single-stim-button","196","317820","0.0-2.0-43.2-0.2","60fdf6b3117c2aeb33f2dd99","B2","batch2","","1359","tol_tohand","","","","tol_peg_2","1359","1359","0","[[0,0,0],[3,0],[1]]","3","[[2,3,0],[0,0],[1]]","11","0","","","","","","4","","","","","","","","",""
"","","","","","single-stim-button","197","318343","0.0-2.0-43.2-1.2","60fdf6b3117c2aeb33f2dd99","B2","batch2","","523","tol_toboard","","","","tol_peg_1","523","523","0","[[2,0,0],[3,0],[1]]","3","[[2,3,0],[0,0],[1]]","11","0","","","","","","4","","","","","","","","",""
"","","","","","single-stim-button","198","318994","0.0-2.0-43.3-0.3","60fdf6b3117c2aeb33f2dd99","B2","batch2","","650","tol_tohand","","","","tol_peg_2","650","650","0","[[2,0,0],[0,0],[1]]","4","[[2,3,0],[0,0],[1]]","11","0","","","","","","4","","","","","","","","",""
"","","","","","single-stim-button","199","319847","0.0-2.0-43.3-1.3","60fdf6b3117c2aeb33f2dd99","B2","batch2","","852","tol_toboard","","","","tol_peg_1","852","852","0","[[2,3,0],[0,0],[1]]","4","[[2,3,0],[0,0],[1]]","11","0","","","","","","4","","","","","","","","",""
"","","","","","poldrack-single-stim","200","320848","0.0-2.0-44.0","60fdf6b3117c2aeb33f2dd99","B2","batch2","","-1","tol_feedback","","","true","","1000","1000","500","","","","","","-1","none","true","2214","4568","","","","","","","","","",""
"","","","","","html-button-response","201","321718","0.0-2.0-45.0","60fdf6b3117c2aeb33f2dd99","B2","batch2","","869.5999999046326","tol_trial_num","<div class = centerbox><p class = center-block-text>problem <strong>13</strong> out of 25 problems</p></div>","0","","","","","","","","","","","","","","","","","","","","","","","","",""
"","","","","","single-stim-button","202","323899","0.0-2.0-46.0-0.0","60fdf6b3117c2aeb33f2dd99","B2","batch2","","2180","tol_tohand","","","","tol_peg_1","2180","2180","0","[[1,0,0],[3,0],[0]]","1","[[0,0,0],[2,3],[1]]","12","0","","","","","","4","","","","","","","","",""
"","","","","","single-stim-button","203","324250","0.0-2.0-46.0-1.0","60fdf6b3117c2aeb33f2dd99","B2","batch2","","349","tol_toboard","","","","tol_peg_2","349","349","0","[[1,0,0],[3,2],[0]]","1","[[0,0,0],[2,3],[1]]","12","0","","","","","","4","","","","","","","","",""
"","","","","","single-stim-button","204","324556","0.0-2.0-46.1-0.1","60fdf6b3117c2aeb33f2dd99","B2","batch2","","306","tol_tohand","","","","tol_peg_1","306","306","0","[[0,0,0],[3,2],[0]]","2","[[0,0,0],[2,3],[1]]","12","0","","","","","","4","","","","","","","","",""
"","","","","","single-stim-button","205","324926","0.0-2.0-46.1-1.1","60fdf6b3117c2aeb33f2dd99","B2","batch2","","369","tol_toboard","","","","tol_peg_3","369","369","0","[[0,0,0],[3,2],[1]]","2","[[0,0,0],[2,3],[1]]","12","0","","","","","","4","","","","","","","","",""
"","","","","","single-stim-button","206","325610","0.0-2.0-46.2-0.2","60fdf6b3117c2aeb33f2dd99","B2","batch2","","683","tol_tohand","","","","tol_peg_2","683","683","0","[[0,0,0],[3,0],[1]]","3","[[0,0,0],[2,3],[1]]","12","0","","","","","","4","","","","","","","","",""
"","","","","","single-stim-button","207","327230","0.0-2.0-46.2-1.2","60fdf6b3117c2aeb33f2dd99","B2","batch2","","1619","tol_toboard","","","","tol_peg_1","1619","1619","0","[[2,0,0],[3,0],[1]]","3","[[0,0,0],[2,3],[1]]","12","0","","","","","","4","","","","","","","","",""
"","","","","","single-stim-button","208","328612","0.0-2.0-46.3-0.3","60fdf6b3117c2aeb33f2dd99","B2","batch2","","1382","tol_tohand","","","","tol_peg_2","1382","1382","0","[[2,0,0],[0,0],[1]]","4","[[0,0,0],[2,3],[1]]","12","0","","","","","","4","","","","","","","","",""
"","","","","","single-stim-button","209","329277","0.0-2.0-46.3-1.3","60fdf6b3117c2aeb33f2dd99","B2","batch2","","665","tol_toboard","","","","tol_peg_1","665","665","0","[[2,3,0],[0,0],[1]]","4","[[0,0,0],[2,3],[1]]","12","0","","","","","","4","","","","","","","","",""
"","","","","","single-stim-button","210","331113","0.0-2.0-46.4-0.4","60fdf6b3117c2aeb33f2dd99","B2","batch2","","1836","tol_tohand","","","","tol_peg_1","1836","1836","0","[[2,0,0],[0,0],[1]]","5","[[0,0,0],[2,3],[1]]","12","0","","","","","","4","","","","","","","","",""
"","","","","","single-stim-button","211","333016","0.0-2.0-46.4-1.4","60fdf6b3117c2aeb33f2dd99","B2","batch2","","1903","tol_toboard","","","","tol_peg_2","1903","1903","0","[[2,0,0],[3,0],[1]]","5","[[0,0,0],[2,3],[1]]","12","0","","","","","","4","","","","","","","","",""
"","","","","","single-stim-button","212","334577","0.0-2.0-46.5-0.5","60fdf6b3117c2aeb33f2dd99","B2","batch2","","1559","tol_tohand","","","","tol_peg_2","1559","1559","0","[[2,0,0],[0,0],[1]]","6","[[0,0,0],[2,3],[1]]","12","0","","","","","","4","","","","","","","","",""
"","","","","","single-stim-button","213","335413","0.0-2.0-46.5-1.5","60fdf6b3117c2aeb33f2dd99","B2","batch2","","836","tol_toboard","","","","tol_peg_2","836","836","0","[[2,0,0],[3,0],[1]]","6","[[0,0,0],[2,3],[1]]","12","0","","","","","","4","","","","","","","","",""
"","","","","","single-stim-button","214","336007","0.0-2.0-46.6-0.6","60fdf6b3117c2aeb33f2dd99","B2","batch2","","593","tol_tohand","","","","tol_peg_3","593","593","0","[[2,0,0],[3,0],[0]]","7","[[0,0,0],[2,3],[1]]","12","0","","","","","","4","","","","","","","","",""
"","","","","","single-stim-button","215","336359","0.0-2.0-46.6-1.6","60fdf6b3117c2aeb33f2dd99","B2","batch2","","352","tol_toboard","","","","tol_peg_1","352","352","0","[[2,1,0],[3,0],[0]]","7","[[0,0,0],[2,3],[1]]","12","0","","","","","","4","","","","","","","","",""
"","","","","","single-stim-button","216","336750","0.0-2.0-46.7-0.7","60fdf6b3117c2aeb33f2dd99","B2","batch2","","390","tol_tohand","","","","tol_peg_2","390","390","0","[[2,1,0],[0,0],[0]]","8","[[0,0,0],[2,3],[1]]","12","0","","","","","","4","","","","","","","","",""
"","","","","","single-stim-button","217","337025","0.0-2.0-46.7-1.7","60fdf6b3117c2aeb33f2dd99","B2","batch2","","274","tol_toboard","","","","tol_peg_3","274","274","0","[[2,1,0],[0,0],[3]]","8","[[0,0,0],[2,3],[1]]","12","0","","","","","","4","","","","","","","","",""
"","","","","","single-stim-button","218","337346","0.0-2.0-46.8-0.8","60fdf6b3117c2aeb33f2dd99","B2","batch2","","320","tol_tohand","","","","tol_peg_1","320","320","0","[[2,0,0],[0,0],[3]]","9","[[0,0,0],[2,3],[1]]","12","0","","","","","","4","","","","","","","","",""
"","","","","","single-stim-button","219","337637","0.0-2.0-46.8-1.8","60fdf6b3117c2aeb33f2dd99","B2","batch2","","291","tol_toboard","","","","tol_peg_2","291","291","0","[[2,0,0],[1,0],[3]]","9","[[0,0,0],[2,3],[1]]","12","0","","","","","","4","","","","","","","","",""
"","","","","","single-stim-button","220","337974","0.0-2.0-46.9-0.9","60fdf6b3117c2aeb33f2dd99","B2","batch2","","336","tol_tohand","","","","tol_peg_1","336","336","0","[[0,0,0],[1,0],[3]]","10","[[0,0,0],[2,3],[1]]","12","0","","","","","","4","","","","","","","","",""
"","","","","","single-stim-button","221","338219","0.0-2.0-46.9-1.9","60fdf6b3117c2aeb33f2dd99","B2","batch2","","244","tol_toboard","","","","tol_peg_2","244","244","0","[[0,0,0],[1,2],[3]]","10","[[0,0,0],[2,3],[1]]","12","0","","","","","","4","","","","","","","","",""
"","","","","","single-stim-button","222","339223","0.0-2.0-46.10-0.10","60fdf6b3117c2aeb33f2dd99","B2","batch2","","1004","tol_tohand","","","","tol_peg_3","1004","1004","0","[[0,0,0],[1,2],[0]]","11","[[0,0,0],[2,3],[1]]","12","0","","","","","","4","","","","","","","","",""
"","","","","","single-stim-button","223","339670","0.0-2.0-46.10-1.10","60fdf6b3117c2aeb33f2dd99","B2","batch2","","446","tol_toboard","","","","tol_peg_1","446","446","0","[[3,0,0],[1,2],[0]]","11","[[0,0,0],[2,3],[1]]","12","0","","","","","","4","","","","","","","","",""
"","","","","","single-stim-button","224","340420","0.0-2.0-46.11-0.11","60fdf6b3117c2aeb33f2dd99","B2","batch2","","750","tol_tohand","","","","tol_peg_2","750","750","0","[[3,0,0],[1,0],[0]]","12","[[0,0,0],[2,3],[1]]","12","0","","","","","","4","","","","","","","","",""
"","","","","","single-stim-button","225","340878","0.0-2.0-46.11-1.11","60fdf6b3117c2aeb33f2dd99","B2","batch2","","458","tol_toboard","","","","tol_peg_1","458","458","0","[[3,2,0],[1,0],[0]]","12","[[0,0,0],[2,3],[1]]","12","0","","","","","","4","","","","","","","","",""
"","","","","","single-stim-button","226","341428","0.0-2.0-46.12-0.12","60fdf6b3117c2aeb33f2dd99","B2","batch2","","549","tol_tohand","","","","tol_peg_2","549","549","0","[[3,2,0],[0,0],[0]]","13","[[0,0,0],[2,3],[1]]","12","0","","","","","","4","","","","","","","","",""
"","","","","","single-stim-button","227","341846","0.0-2.0-46.12-1.12","60fdf6b3117c2aeb33f2dd99","B2","batch2","","417","tol_toboard","","","","tol_peg_3","417","417","0","[[3,2,0],[0,0],[1]]","13","[[0,0,0],[2,3],[1]]","12","0","","","","","","4","","","","","","","","",""
"","","","","","single-stim-button","228","343162","0.0-2.0-46.13-0.13","60fdf6b3117c2aeb33f2dd99","B2","batch2","","1315","tol_tohand","","","","tol_peg_1","1315","1315","0","[[3,0,0],[0,0],[1]]","14","[[0,0,0],[2,3],[1]]","12","0","","","","","","4","","","","","","","","",""
"","","","","","single-stim-button","229","343571","0.0-2.0-46.13-1.13","60fdf6b3117c2aeb33f2dd99","B2","batch2","","409","tol_toboard","","","","tol_peg_2","409","409","0","[[3,0,0],[2,0],[1]]","14","[[0,0,0],[2,3],[1]]","12","0","","","","","","4","","","","","","","","",""
"","","","","","single-stim-button","230","343941","0.0-2.0-46.14-0.14","60fdf6b3117c2aeb33f2dd99","B2","batch2","","369","tol_tohand","","","","tol_peg_1","369","369","0","[[0,0,0],[2,0],[1]]","15","[[0,0,0],[2,3],[1]]","12","0","","","","","","4","","","","","","","","",""
"","","","","","single-stim-button","231","344176","0.0-2.0-46.14-1.14","60fdf6b3117c2aeb33f2dd99","B2","batch2","","235","tol_toboard","","","","tol_peg_2","235","235","0","[[0,0,0],[2,3],[1]]","15","[[0,0,0],[2,3],[1]]","12","0","","","","","","4","","","","","","","","",""
"","","","","","poldrack-single-stim","232","345185","0.0-2.0-47.0","60fdf6b3117c2aeb33f2dd99","B2","batch2","","-1","tol_feedback","","","true","","1000","1000","500","","","","","","-1","none","true","2180","13572","","","","","","","","","",""
"","","","","","html-button-response","233","348034","0.0-2.0-48.0","60fdf6b3117c2aeb33f2dd99","B2","batch2","","2848.199999809265","attention_check","<p class = block-text>How many balls are in your board<br></p>","1","true","","","","","","","","","","","","","","","","","","","","","","","",""
"","","","","","html-button-response","234","349264","0.0-2.0-49.0","60fdf6b3117c2aeb33f2dd99","B2","batch2","","1229.8000001907349","tol_trial_num","<div class = centerbox><p class = center-block-text>problem <strong>14</strong> out of 25 problems</p></div>","0","","","","","","","","","","","","","","","","","","","","","","","","",""
"","","","","","single-stim-button","235","351863","0.0-2.0-50.0-0.0","60fdf6b3117c2aeb33f2dd99","B2","batch2","","2599","tol_tohand","","","","tol_peg_1","2599","2599","0","[[2,0,0],[3,0],[0]]","1","[[1,2,0],[3,0],[0]]","13","0","","","","","","4","","","","","","","","",""
"","","","","","single-stim-button","236","353244","0.0-2.0-50.0-1.0","60fdf6b3117c2aeb33f2dd99","B2","batch2","","1381","tol_toboard","","","","tol_peg_3","1381","1381","0","[[2,0,0],[3,0],[1]]","1","[[1,2,0],[3,0],[0]]","13","0","","","","","","4","","","","","","","","",""
"","","","","","single-stim-button","237","353672","0.0-2.0-50.1-0.1","60fdf6b3117c2aeb33f2dd99","B2","batch2","","427","tol_tohand","","","","tol_peg_1","427","427","0","[[0,0,0],[3,0],[1]]","2","[[1,2,0],[3,0],[0]]","13","0","","","","","","4","","","","","","","","",""
"","","","","","single-stim-button","238","353992","0.0-2.0-50.1-1.1","60fdf6b3117c2aeb33f2dd99","B2","batch2","","319","tol_toboard","","","","tol_peg_2","319","319","0","[[0,0,0],[3,2],[1]]","2","[[1,2,0],[3,0],[0]]","13","0","","","","","","4","","","","","","","","",""
"","","","","","single-stim-button","239","354346","0.0-2.0-50.2-0.2","60fdf6b3117c2aeb33f2dd99","B2","batch2","","353","tol_tohand","","","","tol_peg_3","353","353","0","[[0,0,0],[3,2],[0]]","3","[[1,2,0],[3,0],[0]]","13","0","","","","","","4","","","","","","","","",""
"","","","","","single-stim-button","240","354854","0.0-2.0-50.2-1.2","60fdf6b3117c2aeb33f2dd99","B2","batch2","","507","tol_toboard","","","","tol_peg_1","507","507","0","[[1,0,0],[3,2],[0]]","3","[[1,2,0],[3,0],[0]]","13","0","","","","","","4","","","","","","","","",""
"","","","","","single-stim-button","241","355210","0.0-2.0-50.3-0.3","60fdf6b3117c2aeb33f2dd99","B2","batch2","","355","tol_tohand","","","","tol_peg_2","355","355","0","[[1,0,0],[3,0],[0]]","4","[[1,2,0],[3,0],[0]]","13","0","","","","","","4","","","","","","","","",""
"","","","","","single-stim-button","242","355467","0.0-2.0-50.3-1.3","60fdf6b3117c2aeb33f2dd99","B2","batch2","","257","tol_toboard","","","","tol_peg_1","257","257","0","[[1,2,0],[3,0],[0]]","4","[[1,2,0],[3,0],[0]]","13","0","","","","","","4","","","","","","","","",""
"","","","","","poldrack-single-stim","243","356468","0.0-2.0-51.0","60fdf6b3117c2aeb33f2dd99","B2","batch2","","-1","tol_feedback","","","true","","1000","1000","500","","","","","","-1","none","true","2599","3734","","","","","","","","","",""
"","","","","","html-button-response","244","357072","0.0-2.0-52.0","60fdf6b3117c2aeb33f2dd99","B2","batch2","","603.6999998092651","tol_trial_num","<div class = centerbox><p class = center-block-text>problem <strong>15</strong> out of 25 problems</p></div>","0","","","","","","","","","","","","","","","","","","","","","","","","",""
"","","","","","single-stim-button","245","359298","0.0-2.0-53.0-0.0","60fdf6b3117c2aeb33f2dd99","B2","batch2","","2225","tol_tohand","","","","tol_peg_1","2225","2225","0","[[1,0,0],[3,0],[0]]","1","[[2,0,0],[3,0],[1]]","14","0","","","","","","3","","","","","","","","",""
"","","","","","single-stim-button","246","359625","0.0-2.0-53.0-1.0","60fdf6b3117c2aeb33f2dd99","B2","batch2","","327","tol_toboard","","","","tol_peg_2","327","327","0","[[1,0,0],[3,2],[0]]","1","[[2,0,0],[3,0],[1]]","14","0","","","","","","3","","","","","","","","",""
"","","","","","single-stim-button","247","360009","0.0-2.0-53.1-0.1","60fdf6b3117c2aeb33f2dd99","B2","batch2","","383","tol_tohand","","","","tol_peg_1","383","383","0","[[0,0,0],[3,2],[0]]","2","[[2,0,0],[3,0],[1]]","14","0","","","","","","3","","","","","","","","",""
"","","","","","single-stim-button","248","360479","0.0-2.0-53.1-1.1","60fdf6b3117c2aeb33f2dd99","B2","batch2","","469","tol_toboard","","","","tol_peg_3","469","469","0","[[0,0,0],[3,2],[1]]","2","[[2,0,0],[3,0],[1]]","14","0","","","","","","3","","","","","","","","",""
"","","","","","single-stim-button","249","360805","0.0-2.0-53.2-0.2","60fdf6b3117c2aeb33f2dd99","B2","batch2","","326","tol_tohand","","","","tol_peg_2","326","326","0","[[0,0,0],[3,0],[1]]","3","[[2,0,0],[3,0],[1]]","14","0","","","","","","3","","","","","","","","",""
"","","","","","single-stim-button","250","361232","0.0-2.0-53.2-1.2","60fdf6b3117c2aeb33f2dd99","B2","batch2","","427","tol_toboard","","","","tol_peg_1","427","427","0","[[2,0,0],[3,0],[1]]","3","[[2,0,0],[3,0],[1]]","14","0","","","","","","3","","","","","","","","",""
"","","","","","poldrack-single-stim","251","362235","0.0-2.0-54.0","60fdf6b3117c2aeb33f2dd99","B2","batch2","","-1","tol_feedback","","","true","","1000","1000","500","","","","","","-1","none","true","2225","2934","","","","","","","","","",""
"","","","","","html-button-response","252","363384","0.0-2.0-55.0","60fdf6b3117c2aeb33f2dd99","B2","batch2","","1148.9000000953674","tol_trial_num","<div class = centerbox><p class = center-block-text>problem <strong>16</strong> out of 25 problems</p></div>","0","","","","","","","","","","","","","","","","","","","","","","","","",""
"","","","","","single-stim-button","253","367660","0.0-2.0-56.0-0.0","60fdf6b3117c2aeb33f2dd99","B2","batch2","","4275","tol_tohand","","","","tol_peg_3","4275","4275","0","[[0,0,0],[2,3],[0]]","1","[[2,3,0],[1,0],[0]]","15","0","","","","","","7","","","","","","","","",""
"","","","","","single-stim-button","254","368408","0.0-2.0-56.0-1.0","60fdf6b3117c2aeb33f2dd99","B2","batch2","","747","tol_toboard","","","","tol_peg_1","747","747","0","[[1,0,0],[2,3],[0]]","1","[[2,3,0],[1,0],[0]]","15","0","","","","","","7","","","","","","","","",""
"","","","","","single-stim-button","255","368739","0.0-2.0-56.1-0.1","60fdf6b3117c2aeb33f2dd99","B2","batch2","","330","tol_tohand","","","","tol_peg_2","330","330","0","[[1,0,0],[2,0],[0]]","2","[[2,3,0],[1,0],[0]]","15","0","","","","","","7","","","","","","","","",""
"","","","","","single-stim-button","256","369875","0.0-2.0-56.1-1.1","60fdf6b3117c2aeb33f2dd99","B2","batch2","","1135","tol_toboard","","","","tol_peg_3","1135","1135","0","[[1,0,0],[2,0],[3]]","2","[[2,3,0],[1,0],[0]]","15","0","","","","","","7","","","","","","","","",""
"","","","","","single-stim-button","257","370495","0.0-2.0-56.2-0.2","60fdf6b3117c2aeb33f2dd99","B2","batch2","","619","tol_tohand","","","","tol_peg_2","619","619","0","[[1,0,0],[0,0],[3]]","3","[[2,3,0],[1,0],[0]]","15","0","","","","","","7","","","","","","","","",""
"","","","","","single-stim-button","258","372587","0.0-2.0-56.2-1.2","60fdf6b3117c2aeb33f2dd99","B2","batch2","","2092","tol_toboard","","","","tol_peg_2","2092","2092","0","[[1,0,0],[2,0],[3]]","3","[[2,3,0],[1,0],[0]]","15","0","","","","","","7","","","","","","","","",""
"","","","","","single-stim-button","259","372885","0.0-2.0-56.3-0.3","60fdf6b3117c2aeb33f2dd99","B2","batch2","","298","tol_tohand","","","","tol_peg_1","298","298","0","[[0,0,0],[2,0],[3]]","4","[[2,3,0],[1,0],[0]]","15","0","","","","","","7","","","","","","","","",""
"","","","","","single-stim-button","260","373235","0.0-2.0-56.3-1.3","60fdf6b3117c2aeb33f2dd99","B2","batch2","","349","tol_toboard","","","","tol_peg_2","349","349","0","[[0,0,0],[2,1],[3]]","4","[[2,3,0],[1,0],[0]]","15","0","","","","","","7","","","","","","","","",""
"","","","","","single-stim-button","261","375019","0.0-2.0-56.4-0.4","60fdf6b3117c2aeb33f2dd99","B2","batch2","","1784","tol_tohand","","","","tol_peg_2","1784","1784","0","[[0,0,0],[2,0],[3]]","5","[[2,3,0],[1,0],[0]]","15","0","","","","","","7","","","","","","","","",""
"","","","","","single-stim-button","262","376931","0.0-2.0-56.4-1.4","60fdf6b3117c2aeb33f2dd99","B2","batch2","","1912","tol_toboard","","","","tol_peg_1","1912","1912","0","[[1,0,0],[2,0],[3]]","5","[[2,3,0],[1,0],[0]]","15","0","","","","","","7","","","","","","","","",""
"","","","","","single-stim-button","263","377287","0.0-2.0-56.5-0.5","60fdf6b3117c2aeb33f2dd99","B2","batch2","","356","tol_tohand","","","","tol_peg_3","356","356","0","[[1,0,0],[2,0],[0]]","6","[[2,3,0],[1,0],[0]]","15","0","","","","","","7","","","","","","","","",""
"","","","","","single-stim-button","264","377927","0.0-2.0-56.5-1.5","60fdf6b3117c2aeb33f2dd99","B2","batch2","","639","tol_toboard","","","","tol_peg_2","639","639","0","[[1,0,0],[2,3],[0]]","6","[[2,3,0],[1,0],[0]]","15","0","","","","","","7","","","","","","","","",""
"","","","","","single-stim-button","265","378883","0.0-2.0-56.6-0.6","60fdf6b3117c2aeb33f2dd99","B2","batch2","","955","tol_tohand","","","","tol_peg_1","955","955","0","[[0,0,0],[2,3],[0]]","7","[[2,3,0],[1,0],[0]]","15","0","","","","","","7","","","","","","","","",""
"","","","","","single-stim-button","266","379425","0.0-2.0-56.6-1.6","60fdf6b3117c2aeb33f2dd99","B2","batch2","","542","tol_toboard","","","","tol_peg_3","542","542","0","[[0,0,0],[2,3],[1]]","7","[[2,3,0],[1,0],[0]]","15","0","","","","","","7","","","","","","","","",""
"","","","","","single-stim-button","267","379786","0.0-2.0-56.7-0.7","60fdf6b3117c2aeb33f2dd99","B2","batch2","","360","tol_tohand","","","","tol_peg_2","360","360","0","[[0,0,0],[2,0],[1]]","8","[[2,3,0],[1,0],[0]]","15","0","","","","","","7","","","","","","","","",""
"","","","","","single-stim-button","268","382097","0.0-2.0-56.7-1.7","60fdf6b3117c2aeb33f2dd99","B2","batch2","","2311","tol_toboard","","","","tol_peg_1","2311","2311","0","[[3,0,0],[2,0],[1]]","8","[[2,3,0],[1,0],[0]]","15","0","","","","","","7","","","","","","","","",""
"","","","","","single-stim-button","269","382373","0.0-2.0-56.8-0.8","60fdf6b3117c2aeb33f2dd99","B2","batch2","","276","tol_tohand","","","","tol_peg_2","276","276","0","[[3,0,0],[0,0],[1]]","9","[[2,3,0],[1,0],[0]]","15","0","","","","","","7","","","","","","","","",""
"","","","","","single-stim-button","270","382668","0.0-2.0-56.8-1.8","60fdf6b3117c2aeb33f2dd99","B2","batch2","","294","tol_toboard","","","","tol_peg_1","294","294","0","[[3,2,0],[0,0],[1]]","9","[[2,3,0],[1,0],[0]]","15","0","","","","","","7","","","","","","","","",""
"","","","","","single-stim-button","271","383854","0.0-2.0-56.9-0.9","60fdf6b3117c2aeb33f2dd99","B2","batch2","","1186","tol_tohand","","","","tol_peg_3","1186","1186","0","[[3,2,0],[0,0],[0]]","10","[[2,3,0],[1,0],[0]]","15","0","","","","","","7","","","","","","","","",""
"","","","","","single-stim-button","272","384130","0.0-2.0-56.9-1.9","60fdf6b3117c2aeb33f2dd99","B2","batch2","","275","tol_toboard","","","","tol_peg_2","275","275","0","[[3,2,0],[1,0],[0]]","10","[[2,3,0],[1,0],[0]]","15","0","","","","","","7","","","","","","","","",""
"","","","","","single-stim-button","273","384668","0.0-2.0-56.10-0.10","60fdf6b3117c2aeb33f2dd99","B2","batch2","","538","tol_tohand","","","","tol_peg_1","538","538","0","[[3,0,0],[1,0],[0]]","11","[[2,3,0],[1,0],[0]]","15","0","","","","","","7","","","","","","","","",""
"","","","","","single-stim-button","274","385122","0.0-2.0-56.10-1.10","60fdf6b3117c2aeb33f2dd99","B2","batch2","","453","tol_toboard","","","","tol_peg_3","453","453","0","[[3,0,0],[1,0],[2]]","11","[[2,3,0],[1,0],[0]]","15","0","","","","","","7","","","","","","","","",""
"","","","","","single-stim-button","275","385539","0.0-2.0-56.11-0.11","60fdf6b3117c2aeb33f2dd99","B2","batch2","","417","tol_tohand","","","","tol_peg_1","417","417","0","[[0,0,0],[1,0],[2]]","12","[[2,3,0],[1,0],[0]]","15","0","","","","","","7","","","","","","","","",""
"","","","","","single-stim-button","276","385911","0.0-2.0-56.11-1.11","60fdf6b3117c2aeb33f2dd99","B2","batch2","","371","tol_toboard","","","","tol_peg_2","371","371","0","[[0,0,0],[1,3],[2]]","12","[[2,3,0],[1,0],[0]]","15","0","","","","","","7","","","","","","","","",""
"","","","","","single-stim-button","277","386495","0.0-2.0-56.12-0.12","60fdf6b3117c2aeb33f2dd99","B2","batch2","","582","tol_tohand","","","","tol_peg_3","582","582","0","[[0,0,0],[1,3],[0]]","13","[[2,3,0],[1,0],[0]]","15","0","","","","","","7","","","","","","","","",""
"","","","","","single-stim-button","278","386853","0.0-2.0-56.12-1.12","60fdf6b3117c2aeb33f2dd99","B2","batch2","","358","tol_toboard","","","","tol_peg_1","358","358","0","[[2,0,0],[1,3],[0]]","13","[[2,3,0],[1,0],[0]]","15","0","","","","","","7","","","","","","","","",""
"","","","","","single-stim-button","279","387331","0.0-2.0-56.13-0.13","60fdf6b3117c2aeb33f2dd99","B2","batch2","","478","tol_tohand","","","","tol_peg_2","478","478","0","[[2,0,0],[1,0],[0]]","14","[[2,3,0],[1,0],[0]]","15","0","","","","","","7","","","","","","","","",""
"","","","","","single-stim-button","280","387632","0.0-2.0-56.13-1.13","60fdf6b3117c2aeb33f2dd99","B2","batch2","","300","tol_toboard","","","","tol_peg_1","300","300","0","[[2,3,0],[1,0],[0]]","14","[[2,3,0],[1,0],[0]]","15","0","","","","","","7","","","","","","","","",""
"","","","","","poldrack-single-stim","281","388633","0.0-2.0-57.0","60fdf6b3117c2aeb33f2dd99","B2","batch2","","-1","tol_feedback","","","true","","1000","1000","500","","","","","","-1","none","true","4275","12454","","","","","","","","","",""
"","","","","","html-button-response","282","389234","0.0-2.0-58.0","60fdf6b3117c2aeb33f2dd99","B2","batch2","","601","tol_trial_num","<div class = centerbox><p class = center-block-text>problem <strong>17</strong> out of 25 problems</p></div>","0","","","","","","","","","","","","","","","","","","","","","","","","",""
"","","","","","single-stim-button","283","391078","0.0-2.0-59.0-0.0","60fdf6b3117c2aeb33f2dd99","B2","batch2","","1844","tol_tohand","","","","tol_peg_2","1844","1844","0","[[1,2,0],[0,0],[0]]","1","[[3,1,0],[2,0],[0]]","16","0","","","","","","5","","","","","","","","",""
"","","","","","single-stim-button","284","391398","0.0-2.0-59.0-1.0","60fdf6b3117c2aeb33f2dd99","B2","batch2","","320","tol_toboard","","","","tol_peg_3","320","320","0","[[1,2,0],[0,0],[3]]","1","[[3,1,0],[2,0],[0]]","16","0","","","","","","5","","","","","","","","",""
"","","","","","single-stim-button","285","391946","0.0-2.0-59.1-0.1","60fdf6b3117c2aeb33f2dd99","B2","batch2","","548","tol_tohand","","","","tol_peg_1","548","548","0","[[1,0,0],[0,0],[3]]","2","[[3,1,0],[2,0],[0]]","16","0","","","","","","5","","","","","","","","",""
"","","","","","single-stim-button","286","392935","0.0-2.0-59.1-1.1","60fdf6b3117c2aeb33f2dd99","B2","batch2","","988","tol_toboard","","","","tol_peg_2","988","988","0","[[1,0,0],[2,0],[3]]","2","[[3,1,0],[2,0],[0]]","16","0","","","","","","5","","","","","","","","",""
"","","","","","single-stim-button","287","394236","0.0-2.0-59.2-0.2","60fdf6b3117c2aeb33f2dd99","B2","batch2","","1301","tol_tohand","","","","tol_peg_1","1301","1301","0","[[0,0,0],[2,0],[3]]","3","[[3,1,0],[2,0],[0]]","16","0","","","","","","5","","","","","","","","",""
"","","","","","single-stim-button","288","394548","0.0-2.0-59.2-1.2","60fdf6b3117c2aeb33f2dd99","B2","batch2","","311","tol_toboard","","","","tol_peg_2","311","311","0","[[0,0,0],[2,1],[3]]","3","[[3,1,0],[2,0],[0]]","16","0","","","","","","5","","","","","","","","",""
"","","","","","single-stim-button","289","394858","0.0-2.0-59.3-0.3","60fdf6b3117c2aeb33f2dd99","B2","batch2","","309","tol_tohand","","","","tol_peg_3","309","309","0","[[0,0,0],[2,1],[0]]","4","[[3,1,0],[2,0],[0]]","16","0","","","","","","5","","","","","","","","",""
"","","","","","single-stim-button","290","395193","0.0-2.0-59.3-1.3","60fdf6b3117c2aeb33f2dd99","B2","batch2","","335","tol_toboard","","","","tol_peg_1","335","335","0","[[3,0,0],[2,1],[0]]","4","[[3,1,0],[2,0],[0]]","16","0","","","","","","5","","","","","","","","",""
"","","","","","single-stim-button","291","395514","0.0-2.0-59.4-0.4","60fdf6b3117c2aeb33f2dd99","B2","batch2","","321","tol_tohand","","","","tol_peg_2","321","321","0","[[3,0,0],[2,0],[0]]","5","[[3,1,0],[2,0],[0]]","16","0","","","","","","5","","","","","","","","",""
"","","","","","single-stim-button","292","395778","0.0-2.0-59.4-1.4","60fdf6b3117c2aeb33f2dd99","B2","batch2","","264","tol_toboard","","","","tol_peg_1","264","264","0","[[3,1,0],[2,0],[0]]","5","[[3,1,0],[2,0],[0]]","16","0","","","","","","5","","","","","","","","",""
"","","","","","poldrack-single-stim","293","396779","0.0-2.0-60.0","60fdf6b3117c2aeb33f2dd99","B2","batch2","","-1","tol_feedback","","","true","","1000","1000","500","","","","","","-1","none","true","1844","4323","","","","","","","","","",""
"","","","","","html-button-response","294","397186","0.0-2.0-61.0","60fdf6b3117c2aeb33f2dd99","B2","batch2","","406.40000009536743","tol_trial_num","<div class = centerbox><p class = center-block-text>problem <strong>18</strong> out of 25 problems</p></div>","0","","","","","","","","","","","","","","","","","","","","","","","","",""
"","","","","","single-stim-button","295","400740","0.0-2.0-62.0-0.0","60fdf6b3117c2aeb33f2dd99","B2","batch2","","3552","tol_tohand","","","","tol_peg_1","3552","3552","0","[[1,0,0],[3,0],[0]]","1","[[3,0,0],[2,0],[1]]","17","0","","","","","","5","","","","","","","","",""
"","","","","","single-stim-button","296","401107","0.0-2.0-62.0-1.0","60fdf6b3117c2aeb33f2dd99","B2","batch2","","367","tol_toboard","","","","tol_peg_2","367","367","0","[[1,0,0],[3,2],[0]]","1","[[3,0,0],[2,0],[1]]","17","0","","","","","","5","","","","","","","","",""
"","","","","","single-stim-button","297","401513","0.0-2.0-62.1-0.1","60fdf6b3117c2aeb33f2dd99","B2","batch2","","405","tol_tohand","","","","tol_peg_1","405","405","0","[[0,0,0],[3,2],[0]]","2","[[3,0,0],[2,0],[1]]","17","0","","","","","","5","","","","","","","","",""
"","","","","","single-stim-button","298","402040","0.0-2.0-62.1-1.1","60fdf6b3117c2aeb33f2dd99","B2","batch2","","527","tol_toboard","","","","tol_peg_3","527","527","0","[[0,0,0],[3,2],[1]]","2","[[3,0,0],[2,0],[1]]","17","0","","","","","","5","","","","","","","","",""
"","","","","","single-stim-button","299","403834","0.0-2.0-62.2-0.2","60fdf6b3117c2aeb33f2dd99","B2","batch2","","1794","tol_tohand","","","","tol_peg_2","1794","1794","0","[[0,0,0],[3,0],[1]]","3","[[3,0,0],[2,0],[1]]","17","0","","","","","","5","","","","","","","","",""
"","","","","","single-stim-button","300","404248","0.0-2.0-62.2-1.2","60fdf6b3117c2aeb33f2dd99","B2","batch2","","413","tol_toboard","","","","tol_peg_1","413","413","0","[[2,0,0],[3,0],[1]]","3","[[3,0,0],[2,0],[1]]","17","0","","","","","","5","","","","","","","","",""
"","","","","","single-stim-button","301","404513","0.0-2.0-62.3-0.3","60fdf6b3117c2aeb33f2dd99","B2","batch2","","264","tol_tohand","","","","tol_peg_2","264","264","0","[[2,0,0],[0,0],[1]]","4","[[3,0,0],[2,0],[1]]","17","0","","","","","","5","","","","","","","","",""
"","","","","","single-stim-button","302","404825","0.0-2.0-62.3-1.3","60fdf6b3117c2aeb33f2dd99","B2","batch2","","312","tol_toboard","","","","tol_peg_1","312","312","0","[[2,3,0],[0,0],[1]]","4","[[3,0,0],[2,0],[1]]","17","0","","","","","","5","","","","","","","","",""
"","","","","","single-stim-button","303","405872","0.0-2.0-62.4-0.4","60fdf6b3117c2aeb33f2dd99","B2","batch2","","1046","tol_tohand","","","","tol_peg_3","1046","1046","0","[[2,3,0],[0,0],[0]]","5","[[3,0,0],[2,0],[1]]","17","0","","","","","","5","","","","","","","","",""
"","","","","","single-stim-button","304","406101","0.0-2.0-62.4-1.4","60fdf6b3117c2aeb33f2dd99","B2","batch2","","229","tol_toboard","","","","tol_peg_2","229","229","0","[[2,3,0],[1,0],[0]]","5","[[3,0,0],[2,0],[1]]","17","0","","","","","","5","","","","","","","","",""
"","","","","","single-stim-button","305","406492","0.0-2.0-62.5-0.5","60fdf6b3117c2aeb33f2dd99","B2","batch2","","391","tol_tohand","","","","tol_peg_1","391","391","0","[[2,0,0],[1,0],[0]]","6","[[3,0,0],[2,0],[1]]","17","0","","","","","","5","","","","","","","","",""
"","","","","","single-stim-button","306","406804","0.0-2.0-62.5-1.5","60fdf6b3117c2aeb33f2dd99","B2","batch2","","311","tol_toboard","","","","tol_peg_3","311","311","0","[[2,0,0],[1,0],[3]]","6","[[3,0,0],[2,0],[1]]","17","0","","","","","","5","","","","","","","","",""
"","","","","","single-stim-button","307","407260","0.0-2.0-62.6-0.6","60fdf6b3117c2aeb33f2dd99","B2","batch2","","456","tol_tohand","","","","tol_peg_1","456","456","0","[[0,0,0],[1,0],[3]]","7","[[3,0,0],[2,0],[1]]","17","0","","","","","","5","","","","","","","","",""
"","","","","","single-stim-button","308","407503","0.0-2.0-62.6-1.6","60fdf6b3117c2aeb33f2dd99","B2","batch2","","243","tol_toboard","","","","tol_peg_2","243","243","0","[[0,0,0],[1,2],[3]]","7","[[3,0,0],[2,0],[1]]","17","0","","","","","","5","","","","","","","","",""
"","","","","","single-stim-button","309","410211","0.0-2.0-62.7-0.7","60fdf6b3117c2aeb33f2dd99","B2","batch2","","2707","tol_tohand","","","","tol_peg_3","2707","2707","0","[[0,0,0],[1,2],[0]]","8","[[3,0,0],[2,0],[1]]","17","0","","","","","","5","","","","","","","","",""
"","","","","","single-stim-button","310","410831","0.0-2.0-62.7-1.7","60fdf6b3117c2aeb33f2dd99","B2","batch2","","620","tol_toboard","","","","tol_peg_1","620","620","0","[[3,0,0],[1,2],[0]]","8","[[3,0,0],[2,0],[1]]","17","0","","","","","","5","","","","","","","","",""
"","","","","","single-stim-button","311","411211","0.0-2.0-62.8-0.8","60fdf6b3117c2aeb33f2dd99","B2","batch2","","380","tol_tohand","","","","tol_peg_2","380","380","0","[[3,0,0],[1,0],[0]]","9","[[3,0,0],[2,0],[1]]","17","0","","","","","","5","","","","","","","","",""
"","","","","","single-stim-button","312","411518","0.0-2.0-62.8-1.8","60fdf6b3117c2aeb33f2dd99","B2","batch2","","307","tol_toboard","","","","tol_peg_3","307","307","0","[[3,0,0],[1,0],[2]]","9","[[3,0,0],[2,0],[1]]","17","0","","","","","","5","","","","","","","","",""
"","","","","","single-stim-button","313","413716","0.0-2.0-62.9-0.9","60fdf6b3117c2aeb33f2dd99","B2","batch2","","2197","tol_tohand","","","","tol_peg_2","2197","2197","0","[[3,0,0],[0,0],[2]]","10","[[3,0,0],[2,0],[1]]","17","0","","","","","","5","","","","","","","","",""
"","","","","","single-stim-button","314","414589","0.0-2.0-62.9-1.9","60fdf6b3117c2aeb33f2dd99","B2","batch2","","873","tol_toboard","","","","tol_peg_1","873","873","0","[[3,1,0],[0,0],[2]]","10","[[3,0,0],[2,0],[1]]","17","0","","","","","","5","","","","","","","","",""
"","","","","","single-stim-button","315","415221","0.0-2.0-62.10-0.10","60fdf6b3117c2aeb33f2dd99","B2","batch2","","631","tol_tohand","","","","tol_peg_3","631","631","0","[[3,1,0],[0,0],[0]]","11","[[3,0,0],[2,0],[1]]","17","0","","","","","","5","","","","","","","","",""
"","","","","","single-stim-button","316","415680","0.0-2.0-62.10-1.10","60fdf6b3117c2aeb33f2dd99","B2","batch2","","458","tol_toboard","","","","tol_peg_2","458","458","0","[[3,1,0],[2,0],[0]]","11","[[3,0,0],[2,0],[1]]","17","0","","","","","","5","","","","","","","","",""
"","","","","","single-stim-button","317","416015","0.0-2.0-62.11-0.11","60fdf6b3117c2aeb33f2dd99","B2","batch2","","334","tol_tohand","","","","tol_peg_1","334","334","0","[[3,0,0],[2,0],[0]]","12","[[3,0,0],[2,0],[1]]","17","0","","","","","","5","","","","","","","","",""
"","","","","","single-stim-button","318","416381","0.0-2.0-62.11-1.11","60fdf6b3117c2aeb33f2dd99","B2","batch2","","365","tol_toboard","","","","tol_peg_3","365","365","0","[[3,0,0],[2,0],[1]]","12","[[3,0,0],[2,0],[1]]","17","0","","","","","","5","","","","","","","","",""
"","","","","","poldrack-single-stim","319","417383","0.0-2.0-63.0","60fdf6b3117c2aeb33f2dd99","B2","batch2","","-1","tol_feedback","","","true","","1000","1000","500","","","","","","-1","none","true","3552","14157","","","","","","","","","",""
"","","","","","html-button-response","320","417821","0.0-2.0-64.0","60fdf6b3117c2aeb33f2dd99","B2","batch2","","437.5","tol_trial_num","<div class = centerbox><p class = center-block-text>problem <strong>19</strong> out of 25 problems</p></div>","0","","","","","","","","","","","","","","","","","","","","","","","","",""
"","","","","","single-stim-button","321","419432","0.0-2.0-65.0-0.0","60fdf6b3117c2aeb33f2dd99","B2","batch2","","1611","tol_tohand","","","","tol_peg_2","1611","1611","0","[[1,2,0],[0,0],[0]]","1","[[0,0,0],[1,2],[3]]","18","0","","","","","","7","","","","","","","","",""
"","","","","","single-stim-button","322","419901","0.0-2.0-65.0-1.0","60fdf6b3117c2aeb33f2dd99","B2","batch2","","469","tol_toboard","","","","tol_peg_3","469","469","0","[[1,2,0],[0,0],[3]]","1","[[0,0,0],[1,2],[3]]","18","0","","","","","","7","","","","","","","","",""
"","","","","","single-stim-button","323","421587","0.0-2.0-65.1-0.1","60fdf6b3117c2aeb33f2dd99","B2","batch2","","1685","tol_tohand","","","","tol_peg_3","1685","1685","0","[[1,2,0],[0,0],[0]]","2","[[0,0,0],[1,2],[3]]","18","0","","","","","","7","","","","","","","","",""
"","","","","","single-stim-button","324","421837","0.0-2.0-65.1-1.1","60fdf6b3117c2aeb33f2dd99","B2","batch2","","250","tol_toboard","","","","tol_peg_2","250","250","0","[[1,2,0],[3,0],[0]]","2","[[0,0,0],[1,2],[3]]","18","0","","","","","","7","","","","","","","","",""
"","","","","","single-stim-button","325","422188","0.0-2.0-65.2-0.2","60fdf6b3117c2aeb33f2dd99","B2","batch2","","351","tol_tohand","","","","tol_peg_1","351","351","0","[[1,0,0],[3,0],[0]]","3","[[0,0,0],[1,2],[3]]","18","0","","","","","","7","","","","","","","","",""
"","","","","","single-stim-button","326","422584","0.0-2.0-65.2-1.2","60fdf6b3117c2aeb33f2dd99","B2","batch2","","396","tol_toboard","","","","tol_peg_3","396","396","0","[[1,0,0],[3,0],[2]]","3","[[0,0,0],[1,2],[3]]","18","0","","","","","","7","","","","","","","","",""
"","","","","","single-stim-button","327","423006","0.0-2.0-65.3-0.3","60fdf6b3117c2aeb33f2dd99","B2","batch2","","421","tol_tohand","","","","tol_peg_1","421","421","0","[[0,0,0],[3,0],[2]]","4","[[0,0,0],[1,2],[3]]","18","0","","","","","","7","","","","","","","","",""
"","","","","","single-stim-button","328","423340","0.0-2.0-65.3-1.3","60fdf6b3117c2aeb33f2dd99","B2","batch2","","334","tol_toboard","","","","tol_peg_2","334","334","0","[[0,0,0],[3,1],[2]]","4","[[0,0,0],[1,2],[3]]","18","0","","","","","","7","","","","","","","","",""
"","","","","","single-stim-button","329","423692","0.0-2.0-65.4-0.4","60fdf6b3117c2aeb33f2dd99","B2","batch2","","352","tol_tohand","","","","tol_peg_3","352","352","0","[[0,0,0],[3,1],[0]]","5","[[0,0,0],[1,2],[3]]","18","0","","","","","","7","","","","","","","","",""
"","","","","","single-stim-button","330","426184","0.0-2.0-65.4-1.4","60fdf6b3117c2aeb33f2dd99","B2","batch2","","2491","tol_toboard","","","","tol_peg_1","2491","2491","0","[[2,0,0],[3,1],[0]]","5","[[0,0,0],[1,2],[3]]","18","0","","","","","","7","","","","","","","","",""
"","","","","","single-stim-button","331","426457","0.0-2.0-65.5-0.5","60fdf6b3117c2aeb33f2dd99","B2","batch2","","272","tol_tohand","","","","tol_peg_2","272","272","0","[[2,0,0],[3,0],[0]]","6","[[0,0,0],[1,2],[3]]","18","0","","","","","","7","","","","","","","","",""
"","","","","","single-stim-button","332","426693","0.0-2.0-65.5-1.5","60fdf6b3117c2aeb33f2dd99","B2","batch2","","235","tol_toboard","","","","tol_peg_1","235","235","0","[[2,1,0],[3,0],[0]]","6","[[0,0,0],[1,2],[3]]","18","0","","","","","","7","","","","","","","","",""
"","","","","","single-stim-button","333","426974","0.0-2.0-65.6-0.6","60fdf6b3117c2aeb33f2dd99","B2","batch2","","281","tol_tohand","","","","tol_peg_2","281","281","0","[[2,1,0],[0,0],[0]]","7","[[0,0,0],[1,2],[3]]","18","0","","","","","","7","","","","","","","","",""
"","","","","","single-stim-button","334","427256","0.0-2.0-65.6-1.6","60fdf6b3117c2aeb33f2dd99","B2","batch2","","282","tol_toboard","","","","tol_peg_3","282","282","0","[[2,1,0],[0,0],[3]]","7","[[0,0,0],[1,2],[3]]","18","0","","","","","","7","","","","","","","","",""
"","","","","","single-stim-button","335","427625","0.0-2.0-65.7-0.7","60fdf6b3117c2aeb33f2dd99","B2","batch2","","369","tol_tohand","","","","tol_peg_1","369","369","0","[[2,0,0],[0,0],[3]]","8","[[0,0,0],[1,2],[3]]","18","0","","","","","","7","","","","","","","","",""
"","","","","","single-stim-button","336","428165","0.0-2.0-65.7-1.7","60fdf6b3117c2aeb33f2dd99","B2","batch2","","540","tol_toboard","","","","tol_peg_2","540","540","0","[[2,0,0],[1,0],[3]]","8","[[0,0,0],[1,2],[3]]","18","0","","","","","","7","","","","","","","","",""
"","","","","","single-stim-button","337","428522","0.0-2.0-65.8-0.8","60fdf6b3117c2aeb33f2dd99","B2","batch2","","356","tol_tohand","","","","tol_peg_1","356","356","0","[[0,0,0],[1,0],[3]]","9","[[0,0,0],[1,2],[3]]","18","0","","","","","","7","","","","","","","","",""
"","","","","","single-stim-button","338","428811","0.0-2.0-65.8-1.8","60fdf6b3117c2aeb33f2dd99","B2","batch2","","288","tol_toboard","","","","tol_peg_2","288","288","0","[[0,0,0],[1,2],[3]]","9","[[0,0,0],[1,2],[3]]","18","0","","","","","","7","","","","","","","","",""
"","","","","","poldrack-single-stim","339","429812","0.0-2.0-66.0","60fdf6b3117c2aeb33f2dd99","B2","batch2","","-1","tol_feedback","","","true","","1000","1000","500","","","","","","-1","none","true","1611","5698","","","","","","","","","",""
"","","","","","html-button-response","340","430341","0.0-2.0-67.0","60fdf6b3117c2aeb33f2dd99","B2","batch2","","528.6999998092651","tol_trial_num","<div class = centerbox><p class = center-block-text>problem <strong>20</strong> out of 25 problems</p></div>","0","","","","","","","","","","","","","","","","","","","","","","","","",""
"","","","","","single-stim-button","341","431738","0.0-2.0-68.0-0.0","60fdf6b3117c2aeb33f2dd99","B2","batch2","","1396","tol_tohand","","","","tol_peg_2","1396","1396","0","[[1,2,0],[0,0],[0]]","1","[[2,1,0],[0,0],[3]]","19","0","","","","","","5","","","","","","","","",""
"","","","","","single-stim-button","342","432077","0.0-2.0-68.0-1.0","60fdf6b3117c2aeb33f2dd99","B2","batch2","","339","tol_toboard","","","","tol_peg_3","339","339","0","[[1,2,0],[0,0],[3]]","1","[[2,1,0],[0,0],[3]]","19","0","","","","","","5","","","","","","","","",""
"","","","","","single-stim-button","343","432743","0.0-2.0-68.1-0.1","60fdf6b3117c2aeb33f2dd99","B2","batch2","","666","tol_tohand","","","","tol_peg_1","666","666","0","[[1,0,0],[0,0],[3]]","2","[[2,1,0],[0,0],[3]]","19","0","","","","","","5","","","","","","","","",""
"","","","","","single-stim-button","344","433191","0.0-2.0-68.1-1.1","60fdf6b3117c2aeb33f2dd99","B2","batch2","","448","tol_toboard","","","","tol_peg_2","448","448","0","[[1,0,0],[2,0],[3]]","2","[[2,1,0],[0,0],[3]]","19","0","","","","","","5","","","","","","","","",""
"","","","","","single-stim-button","345","434393","0.0-2.0-68.2-0.2","60fdf6b3117c2aeb33f2dd99","B2","batch2","","1201","tol_tohand","","","","tol_peg_2","1201","1201","0","[[1,0,0],[0,0],[3]]","3","[[2,1,0],[0,0],[3]]","19","0","","","","","","5","","","","","","","","",""
"","","","","","single-stim-button","346","435573","0.0-2.0-68.2-1.2","60fdf6b3117c2aeb33f2dd99","B2","batch2","","1179","tol_toboard","","","","tol_peg_2","1179","1179","0","[[1,0,0],[2,0],[3]]","3","[[2,1,0],[0,0],[3]]","19","0","","","","","","5","","","","","","","","",""
"","","","","","single-stim-button","347","436007","0.0-2.0-68.3-0.3","60fdf6b3117c2aeb33f2dd99","B2","batch2","","433","tol_tohand","","","","tol_peg_1","433","433","0","[[0,0,0],[2,0],[3]]","4","[[2,1,0],[0,0],[3]]","19","0","","","","","","5","","","","","","","","",""
"","","","","","single-stim-button","348","436257","0.0-2.0-68.3-1.3","60fdf6b3117c2aeb33f2dd99","B2","batch2","","249","tol_toboard","","","","tol_peg_2","249","249","0","[[0,0,0],[2,1],[3]]","4","[[2,1,0],[0,0],[3]]","19","0","","","","","","5","","","","","","","","",""
"","","","","","single-stim-button","349","438451","0.0-2.0-68.4-0.4","60fdf6b3117c2aeb33f2dd99","B2","batch2","","2194","tol_tohand","","","","tol_peg_2","2194","2194","0","[[0,0,0],[2,0],[3]]","5","[[2,1,0],[0,0],[3]]","19","0","","","","","","5","","","","","","","","",""
"","","","","","single-stim-button","350","440480","0.0-2.0-68.4-1.4","60fdf6b3117c2aeb33f2dd99","B2","batch2","","2028","tol_toboard","","","","tol_peg_1","2028","2028","0","[[1,0,0],[2,0],[3]]","5","[[2,1,0],[0,0],[3]]","19","0","","","","","","5","","","","","","","","",""
"","","","","","single-stim-button","351","441434","0.0-2.0-68.5-0.5","60fdf6b3117c2aeb33f2dd99","B2","batch2","","954","tol_tohand","","","","tol_peg_1","954","954","0","[[0,0,0],[2,0],[3]]","6","[[2,1,0],[0,0],[3]]","19","0","","","","","","5","","","","","","","","",""
"","","","","","single-stim-button","352","442018","0.0-2.0-68.5-1.5","60fdf6b3117c2aeb33f2dd99","B2","batch2","","584","tol_toboard","","","","tol_peg_2","584","584","0","[[0,0,0],[2,1],[3]]","6","[[2,1,0],[0,0],[3]]","19","0","","","","","","5","","","","","","","","",""
"","","","","","single-stim-button","353","442557","0.0-2.0-68.6-0.6","60fdf6b3117c2aeb33f2dd99","B2","batch2","","538","tol_tohand","","","","tol_peg_2","538","538","0","[[0,0,0],[2,0],[3]]","7","[[2,1,0],[0,0],[3]]","19","0","","","","","","5","","","","","","","","",""
"","","","","","single-stim-button","354","445071","0.0-2.0-68.6-1.6","60fdf6b3117c2aeb33f2dd99","B2","batch2","","2514","tol_toboard","","","","tol_peg_2","2514","2514","0","[[0,0,0],[2,1],[3]]","7","[[2,1,0],[0,0],[3]]","19","0","","","","","","5","","","","","","","","",""
"","","","","","single-stim-button","355","445396","0.0-2.0-68.7-0.7","60fdf6b3117c2aeb33f2dd99","B2","batch2","","324","tol_tohand","","","","tol_peg_3","324","324","0","[[0,0,0],[2,1],[0]]","8","[[2,1,0],[0,0],[3]]","19","0","","","","","","5","","","","","","","","",""
"","","","","","single-stim-button","356","445715","0.0-2.0-68.7-1.7","60fdf6b3117c2aeb33f2dd99","B2","batch2","","319","tol_toboard","","","","tol_peg_1","319","319","0","[[3,0,0],[2,1],[0]]","8","[[2,1,0],[0,0],[3]]","19","0","","","","","","5","","","","","","","","",""
