"success","timeout","failed_images","failed_audio","failed_video","trial_type","trial_index","time_elapsed","internal_node_id","subject_id","study_id","session_id","view_history","rt","task","stimulus","response","correct","mouse_click","stim_duration","block_duration","timing_post_trial","current_position","tol_num_moves_made","tol_target","tol_problem_id","tol_rt","key_press","possible_responses","tol_correct","preplanning","tol_rt_per_trial","tol_min_moves","item","answer","spm_correct","spm_rt","fiar_detect_rt","fiar_detect_correct","total_correct_fiar_detect","post_trial_gap","choices"
"true","false","[]","[]","[]","preload","0","3570","0.0-0.0","60fdb65690ed7b149bebd1ad","A3","batch1","","","","","","","","","","","","","","","","","","","","","","","","","","","","","",""
"true","","","","","fullscreen","1","10577","0.0-1.0-0.0","60fdb65690ed7b149bebd1ad","A3","batch1","","","","","","","","","","","","","","","","","","","","","","","","","","","","","",""
"true","","","","","fullscreen","2","13233","0.0-2.0-0.0","60fdb65690ed7b149bebd1ad","A3","batch1","","","","","","","","","","","","","","","","","","","","","","","","","","","","","",""
"","","","","","instructions","3","42987","0.0-2.0-1.0-0.0-0.0","60fdb65690ed7b149bebd1ad","A3","batch1","[{""page_index"":0,""viewing_time"":6343.5},{""page_index"":1,""viewing_time"":4437.299999952316},{""page_index"":2,""viewing_time"":2968},{""page_index"":3,""viewing_time"":5210.200000047684},{""page_index"":4,""viewing_time"":5215.599999904633},{""page_index"":5,""viewing_time"":3077.600000023842},{""page_index"":6,""viewing_time"":2494.399999976158}]","29747.299999952316","tol-instructions","","","","","","","","","","","","","","","","","","","","","","","","","","",""
"","","","","","html-button-response","4","43916","0.0-2.0-1.0-1.0-0.0","60fdb65690ed7b149bebd1ad","A3","batch1","","924.2999999523163","tol_enter_quiz","<p class=block-text> Let's answer a few questions <br>","0","","","","","","","","","","","","","","","","","","","","","","","","",""
"","","","","","html-button-response","5","47811","0.0-2.0-1.0-1.0-1.0","60fdb65690ed7b149bebd1ad","A3","batch1","","3889.8000000715256","tol_quiz","<p class = block-text>True or False: You can only move the ball on top of a peg. <br></p>","1","false","","","","","","","","","","","","","","","","","","","","","","","",""
"","","","","","html-button-response","6","49671","0.0-2.0-1.0-1.0-2.0","60fdb65690ed7b149bebd1ad","A3","batch1","","1855.4000000953674","tol_quiz_feedback","<p class = block-text>Incorrect. Remember, you can only move the ball on top of a peg.</p>","0","","","","","","","","","","","","","","","","","","","","","","","","",""
"","","","","","html-button-response","7","51572","0.0-2.0-1.0-1.0-3.0","60fdb65690ed7b149bebd1ad","A3","batch1","","1897.8999999761581","tol_quiz","<p class = block-text>True or False: You should try to match your board with the target board with fewest moves possible. <br></p>","0","true","","","","","","","","","","","","","","","","","","","","","","","",""
"","","","","","html-button-response","8","52331","0.0-2.0-1.0-1.0-4.0","60fdb65690ed7b149bebd1ad","A3","batch1","","754.6999999284744","tol_quiz_feedback","<p class = block-text>Correct! </p>","0","","","","","","","","","","","","","","","","","","","","","","","","",""
"","","","","","html-button-response","9","54590","0.0-2.0-1.0-2.0-0.0","60fdb65690ed7b149bebd1ad","A3","batch1","","2253.5","","<p class = block-text>You made too many incorrect choices.</p><p class = block-text>You will now repeat the instructions and quiz</p>","0","","","","","","","","","","","","","","","","","","","","","","","","",""
"","","","","","instructions","10","72631","0.0-2.0-1.1-0.1-0.1","60fdb65690ed7b149bebd1ad","A3","batch1","[{""page_index"":0,""viewing_time"":3780.100000023842},{""page_index"":1,""viewing_time"":2300},{""page_index"":2,""viewing_time"":1582.6000000238419},{""page_index"":3,""viewing_time"":2430.7999999523163},{""page_index"":4,""viewing_time"":1379.1000000238419},{""page_index"":5,""viewing_time"":4273.200000047684},{""page_index"":6,""viewing_time"":2291.600000023842}]","18037.800000071526","tol-instructions","","","","","","","","","","","","","","","","","","","","","","","","","","",""
"","","","","","html-button-response","11","73649","0.0-2.0-1.1-1.1-0.1","60fdb65690ed7b149bebd1ad","A3","batch1","","1015.3999999761581","tol_enter_quiz","<p class=block-text> Let's answer a few questions <br>","0","","","","","","","","","","","","","","","","","","","","","","","","",""
"","","","","","html-button-response","12","75382","0.0-2.0-1.1-1.1-1.1","60fdb65690ed7b149bebd1ad","A3","batch1","","1729.1000000238419","tol_quiz","<p class = block-text>True or False: You can only move the ball on top of a peg. <br></p>","0","true","","","","","","","","","","","","","","","","","","","","","","","",""
"","","","","","html-button-response","13","76596","0.0-2.0-1.1-1.1-2.1","60fdb65690ed7b149bebd1ad","A3","batch1","","1211.1000000238419","tol_quiz_feedback","<p class = block-text>Correct! You can only move the ball on top of a peg.</p>","0","","","","","","","","","","","","","","","","","","","","","","","","",""
"","","","","","html-button-response","14","78345","0.0-2.0-1.1-1.1-3.1","60fdb65690ed7b149bebd1ad","A3","batch1","","1746.2999999523163","tol_quiz","<p class = block-text>True or False: You should try to match your board with the target board with fewest moves possible. <br></p>","0","true","","","","","","","","","","","","","","","","","","","","","","","",""
"","","","","","html-button-response","15","79104","0.0-2.0-1.1-1.1-4.1","60fdb65690ed7b149bebd1ad","A3","batch1","","756.1000000238419","tol_quiz_feedback","<p class = block-text>Correct! </p>","0","","","","","","","","","","","","","","","","","","","","","","","","",""
"","","","","","html-button-response","16","81650","0.0-2.0-2.0","60fdb65690ed7b149bebd1ad","A3","batch1","","2540.2999999523163","","<p class=block-text> Now that you've understood the game, let's practice a few easier examples before we start!<br> <br>","0","","","","","","","","","","","","","","","","","","","","","","","","",""
"","","","","","single-stim-button","17","87129","0.0-2.0-3.0-0.0","60fdb65690ed7b149bebd1ad","A3","batch1","","5470","tol_practice","","","","tol_peg_2","5470","5470","0","[[1,2,0],[0,0],[0]]","1","[[1,2,0],[0,0],[3]]","practice","5470","","","","","","","","","","","","","","",""
"","","","","","single-stim-button","18","88698","0.0-2.0-3.0-1.0","60fdb65690ed7b149bebd1ad","A3","batch1","","1564","tol_practice","","","","tol_peg_3","1564","1564","0","[[1,2,0],[0,0],[3]]","1","[[1,2,0],[0,0],[3]]","practice","1564","","","","","","","","","","","","","","",""
"","","","","","poldrack-single-stim","19","89710","0.0-2.0-4.0","60fdb65690ed7b149bebd1ad","A3","batch1","","-1","tol_feedback","","","true","","1000","1000","500","","","","","","-1","none","true","","0","","","","","","","","","",""
"","","","","","single-stim-button","20","92425","0.0-2.0-5.0-0.0","60fdb65690ed7b149bebd1ad","A3","batch1","","2712","tol_practice","","","","tol_peg_1","2712","2712","0","[[1,0,0],[3,0],[0]]","2","[[0,0,0],[3,1],[2]]","practice","2712","","","","","","","","","","","","","","",""
"","","","","","single-stim-button","21","94423","0.0-2.0-5.0-1.0","60fdb65690ed7b149bebd1ad","A3","batch1","","1996","tol_practice","","","","tol_peg_3","1996","1996","0","[[1,0,0],[3,0],[2]]","2","[[0,0,0],[3,1],[2]]","practice","1996","","","","","","","","","","","","","","",""
"","","","","","single-stim-button","22","96522","0.0-2.0-5.1-0.1","60fdb65690ed7b149bebd1ad","A3","batch1","","2096","tol_practice","","","","tol_peg_2","2096","2096","0","[[1,0,0],[0,0],[2]]","3","[[0,0,0],[3,1],[2]]","practice","2096","","","","","","","","","","","","","","",""
"","","","","","single-stim-button","23","97907","0.0-2.0-5.1-1.1","60fdb65690ed7b149bebd1ad","A3","batch1","","1382","tol_practice","","","","tol_peg_2","1382","1382","0","[[1,0,0],[3,0],[2]]","3","[[0,0,0],[3,1],[2]]","practice","1382","","","","","","","","","","","","","","",""
"","","","","","single-stim-button","24","99058","0.0-2.0-5.2-0.2","60fdb65690ed7b149bebd1ad","A3","batch1","","1148","tol_practice","","","","tol_peg_1","1148","1148","0","[[0,0,0],[3,0],[2]]","4","[[0,0,0],[3,1],[2]]","practice","1148","","","","","","","","","","","","","","",""
"","","","","","single-stim-button","25","100074","0.0-2.0-5.2-1.2","60fdb65690ed7b149bebd1ad","A3","batch1","","1013","tol_practice","","","","tol_peg_2","1013","1013","0","[[0,0,0],[3,1],[2]]","4","[[0,0,0],[3,1],[2]]","practice","1013","","","","","","","","","","","","","","",""
"","","","","","poldrack-single-stim","26","101082","0.0-2.0-6.0","60fdb65690ed7b149bebd1ad","A3","batch1","","-1","tol_feedback","","","true","","1000","1000","500","","","","","","-1","none","true","","0","","","","","","","","","",""
"","","","","","single-stim-button","27","104801","0.0-2.0-7.0-0.0","60fdb65690ed7b149bebd1ad","A3","batch1","","3716","tol_practice","","","","tol_peg_2","3716","3716","0","[[1,2,0],[0,0],[0]]","5","[[1,0,0],[2,0],[3]]","practice","3716","","","","","","","","","","","","","","",""
"","","","","","single-stim-button","28","105699","0.0-2.0-7.0-1.0","60fdb65690ed7b149bebd1ad","A3","batch1","","895","tol_practice","","","","tol_peg_3","895","895","0","[[1,2,0],[0,0],[3]]","5","[[1,0,0],[2,0],[3]]","practice","895","","","","","","","","","","","","","","",""
"","","","","","single-stim-button","29","107931","0.0-2.0-7.1-0.1","60fdb65690ed7b149bebd1ad","A3","batch1","","2229","tol_practice","","","","tol_peg_1","2229","2229","0","[[1,0,0],[0,0],[3]]","6","[[1,0,0],[2,0],[3]]","practice","2229","","","","","","","","","","","","","","",""
"","","","","","single-stim-button","30","108892","0.0-2.0-7.1-1.1","60fdb65690ed7b149bebd1ad","A3","batch1","","957","tol_practice","","","","tol_peg_2","957","957","0","[[1,0,0],[2,0],[3]]","6","[[1,0,0],[2,0],[3]]","practice","957","","","","","","","","","","","","","","",""
"","","","","","poldrack-single-stim","31","109896","0.0-2.0-8.0","60fdb65690ed7b149bebd1ad","A3","batch1","","-1","tol_feedback","","","true","","1000","1000","500","","","","","","-1","none","true","","0","","","","","","","","","",""
"","","","","","html-button-response","32","112431","0.0-2.0-9.0","60fdb65690ed7b149bebd1ad","A3","batch1","","2533.7000000476837","tol_instruction","<div class = centerbox><p class = center-block-text>Great job! You are done with practice trials<br>You are about to start official trials.<br> <br> Problem <strong>1</strong> out of 25 problems</p></div>","0","","","","","","","","","","","","","","","","","","","","","","","","",""
"","","","","","single-stim-button","33","119089","0.0-2.0-10.0-0.0","60fdb65690ed7b149bebd1ad","A3","batch1","","5642","tol_tohand","","","","tol_peg_2","5642","5642","0","[[1,2,0],[0,0],[0]]","1","[[1,3,0],[2,0],[0]]","0","0","","","","","","3","","","","","","","","",""
"","","","","","single-stim-button","34","120035","0.0-2.0-10.0-1.0","60fdb65690ed7b149bebd1ad","A3","batch1","","943","tol_toboard","","","","tol_peg_3","943","943","0","[[1,2,0],[0,0],[3]]","1","[[1,3,0],[2,0],[0]]","0","0","","","","","","3","","","","","","","","",""
"","","","","","single-stim-button","35","122042","0.0-2.0-10.1-0.1","60fdb65690ed7b149bebd1ad","A3","batch1","","2004","tol_tohand","","","","tol_peg_1","2004","2004","0","[[1,0,0],[0,0],[3]]","2","[[1,3,0],[2,0],[0]]","0","0","","","","","","3","","","","","","","","",""
"","","","","","single-stim-button","36","123030","0.0-2.0-10.1-1.1","60fdb65690ed7b149bebd1ad","A3","batch1","","985","tol_toboard","","","","tol_peg_2","985","985","0","[[1,0,0],[2,0],[3]]","2","[[1,3,0],[2,0],[0]]","0","0","","","","","","3","","","","","","","","",""
"","","","","","single-stim-button","37","124576","0.0-2.0-10.2-0.2","60fdb65690ed7b149bebd1ad","A3","batch1","","1545","tol_tohand","","","","tol_peg_3","1545","1545","0","[[1,0,0],[2,0],[0]]","3","[[1,3,0],[2,0],[0]]","0","0","","","","","","3","","","","","","","","",""
"","","","","","single-stim-button","38","126041","0.0-2.0-10.2-1.2","60fdb65690ed7b149bebd1ad","A3","batch1","","1463","tol_toboard","","","","tol_peg_1","1463","1463","0","[[1,3,0],[2,0],[0]]","3","[[1,3,0],[2,0],[0]]","0","0","","","","","","3","","","","","","","","",""
"","","","","","poldrack-single-stim","39","127047","0.0-2.0-11.0","60fdb65690ed7b149bebd1ad","A3","batch1","","-1","tol_feedback","","","true","","1000","1000","500","","","","","","-1","none","true","5642","9191","","","","","","","","","",""
"","","","","","html-button-response","40","128160","0.0-2.0-12.0","60fdb65690ed7b149bebd1ad","A3","batch1","","1111.6999999284744","tol_trial_num","<div class = centerbox><p class = center-block-text>problem <strong>2</strong> out of 25 problems</p></div>","0","","","","","","","","","","","","","","","","","","","","","","","","",""
"","","","","","single-stim-button","41","132697","0.0-2.0-13.0-0.0","60fdb65690ed7b149bebd1ad","A3","batch1","","4534","tol_tohand","","","","tol_peg_1","4534","4534","0","[[1,0,0],[3,0],[0]]","1","[[2,1,3],[0,0],[0]]","1","0","","","","","","5","","","","","","","","",""
"","","","","","single-stim-button","42","134189","0.0-2.0-13.0-1.0","60fdb65690ed7b149bebd1ad","A3","batch1","","1490","tol_toboard","","","","tol_peg_3","1490","1490","0","[[1,0,0],[3,0],[2]]","1","[[2,1,3],[0,0],[0]]","1","0","","","","","","5","","","","","","","","",""
"","","","","","single-stim-button","43","136261","0.0-2.0-13.1-0.1","60fdb65690ed7b149bebd1ad","A3","batch1","","2069","tol_tohand","","","","tol_peg_1","2069","2069","0","[[0,0,0],[3,0],[2]]","2","[[2,1,3],[0,0],[0]]","1","0","","","","","","5","","","","","","","","",""
"","","","","","single-stim-button","44","137136","0.0-2.0-13.1-1.1","60fdb65690ed7b149bebd1ad","A3","batch1","","872","tol_toboard","","","","tol_peg_2","872","872","0","[[0,0,0],[3,1],[2]]","2","[[2,1,3],[0,0],[0]]","1","0","","","","","","5","","","","","","","","",""
"","","","","","single-stim-button","45","138774","0.0-2.0-13.2-0.2","60fdb65690ed7b149bebd1ad","A3","batch1","","1636","tol_tohand","","","","tol_peg_3","1636","1636","0","[[0,0,0],[3,1],[0]]","3","[[2,1,3],[0,0],[0]]","1","0","","","","","","5","","","","","","","","",""
"","","","","","single-stim-button","46","139757","0.0-2.0-13.2-1.2","60fdb65690ed7b149bebd1ad","A3","batch1","","981","tol_toboard","","","","tol_peg_1","981","981","0","[[2,0,0],[3,1],[0]]","3","[[2,1,3],[0,0],[0]]","1","0","","","","","","5","","","","","","","","",""
"","","","","","single-stim-button","47","140642","0.0-2.0-13.3-0.3","60fdb65690ed7b149bebd1ad","A3","batch1","","883","tol_tohand","","","","tol_peg_2","883","883","0","[[2,0,0],[3,0],[0]]","4","[[2,1,3],[0,0],[0]]","1","0","","","","","","5","","","","","","","","",""
"","","","","","single-stim-button","48","141374","0.0-2.0-13.3-1.3","60fdb65690ed7b149bebd1ad","A3","batch1","","730","tol_toboard","","","","tol_peg_1","730","730","0","[[2,1,0],[3,0],[0]]","4","[[2,1,3],[0,0],[0]]","1","0","","","","","","5","","","","","","","","",""
"","","","","","single-stim-button","49","142308","0.0-2.0-13.4-0.4","60fdb65690ed7b149bebd1ad","A3","batch1","","933","tol_tohand","","","","tol_peg_2","933","933","0","[[2,1,0],[0,0],[0]]","5","[[2,1,3],[0,0],[0]]","1","0","","","","","","5","","","","","","","","",""
"","","","","","single-stim-button","50","143172","0.0-2.0-13.4-1.4","60fdb65690ed7b149bebd1ad","A3","batch1","","862","tol_toboard","","","","tol_peg_1","862","862","0","[[2,1,3],[0,0],[0]]","5","[[2,1,3],[0,0],[0]]","1","0","","","","","","5","","","","","","","","",""
"","","","","","poldrack-single-stim","51","144183","0.0-2.0-14.0","60fdb65690ed7b149bebd1ad","A3","batch1","","-1","tol_feedback","","","true","","1000","1000","500","","","","","","-1","none","true","4534","10055","","","","","","","","","",""
"","","","","","html-button-response","52","145437","0.0-2.0-15.0","60fdb65690ed7b149bebd1ad","A3","batch1","","1252.8000000715256","tol_trial_num","<div class = centerbox><p class = center-block-text>problem <strong>3</strong> out of 25 problems</p></div>","0","","","","","","","","","","","","","","","","","","","","","","","","",""
"","","","","","single-stim-button","53","149503","0.0-2.0-16.0-0.0","60fdb65690ed7b149bebd1ad","A3","batch1","","4063","tol_tohand","","","","tol_peg_1","4063","4063","0","[[2,0,0],[0,0],[1]]","1","[[1,2,0],[3,0],[0]]","2","0","","","","","","4","","","","","","","","",""
"","","","","","single-stim-button","54","150785","0.0-2.0-16.0-1.0","60fdb65690ed7b149bebd1ad","A3","batch1","","1280","tol_toboard","","","","tol_peg_2","1280","1280","0","[[2,0,0],[3,0],[1]]","1","[[1,2,0],[3,0],[0]]","2","0","","","","","","4","","","","","","","","",""
"","","","","","single-stim-button","55","152331","0.0-2.0-16.1-0.1","60fdb65690ed7b149bebd1ad","A3","batch1","","1545","tol_tohand","","","","tol_peg_1","1545","1545","0","[[0,0,0],[3,0],[1]]","2","[[1,2,0],[3,0],[0]]","2","0","","","","","","4","","","","","","","","",""
"","","","","","single-stim-button","56","153363","0.0-2.0-16.1-1.1","60fdb65690ed7b149bebd1ad","A3","batch1","","1030","tol_toboard","","","","tol_peg_2","1030","1030","0","[[0,0,0],[3,2],[1]]","2","[[1,2,0],[3,0],[0]]","2","0","","","","","","4","","","","","","","","",""
"","","","","","single-stim-button","57","154527","0.0-2.0-16.2-0.2","60fdb65690ed7b149bebd1ad","A3","batch1","","1162","tol_tohand","","","","tol_peg_3","1162","1162","0","[[0,0,0],[3,2],[0]]","3","[[1,2,0],[3,0],[0]]","2","0","","","","","","4","","","","","","","","",""
"","","","","","single-stim-button","58","155803","0.0-2.0-16.2-1.2","60fdb65690ed7b149bebd1ad","A3","batch1","","1274","tol_toboard","","","","tol_peg_1","1274","1274","0","[[1,0,0],[3,2],[0]]","3","[[1,2,0],[3,0],[0]]","2","0","","","","","","4","","","","","","","","",""
"","","","","","single-stim-button","59","156563","0.0-2.0-16.3-0.3","60fdb65690ed7b149bebd1ad","A3","batch1","","758","tol_tohand","","","","tol_peg_2","758","758","0","[[1,0,0],[3,0],[0]]","4","[[1,2,0],[3,0],[0]]","2","0","","","","","","4","","","","","","","","",""
"","","","","","single-stim-button","60","157457","0.0-2.0-16.3-1.3","60fdb65690ed7b149bebd1ad","A3","batch1","","892","tol_toboard","","","","tol_peg_1","892","892","0","[[1,2,0],[3,0],[0]]","4","[[1,2,0],[3,0],[0]]","2","0","","","","","","4","","","","","","","","",""
"","","","","","poldrack-single-stim","61","158461","0.0-2.0-17.0","60fdb65690ed7b149bebd1ad","A3","batch1","","-1","tol_feedback","","","true","","1000","1000","500","","","","","","-1","none","true","4063","7528","","","","","","","","","",""
"","","","","","html-button-response","62","159343","0.0-2.0-18.0","60fdb65690ed7b149bebd1ad","A3","batch1","","881.2999999523163","tol_trial_num","<div class = centerbox><p class = center-block-text>problem <strong>4</strong> out of 25 problems</p></div>","0","","","","","","","","","","","","","","","","","","","","","","","","",""
"","","","","","single-stim-button","63","163246","0.0-2.0-19.0-0.0","60fdb65690ed7b149bebd1ad","A3","batch1","","3900","tol_tohand","","","","tol_peg_2","3900","3900","0","[[3,0,0],[2,0],[0]]","1","[[3,0,0],[1,0],[2]]","3","0","","","","","","3","","","","","","","","",""
"","","","","","single-stim-button","64","164088","0.0-2.0-19.0-1.0","60fdb65690ed7b149bebd1ad","A3","batch1","","839","tol_toboard","","","","tol_peg_1","839","839","0","[[3,1,0],[2,0],[0]]","1","[[3,0,0],[1,0],[2]]","3","0","","","","","","3","","","","","","","","",""
"","","","","","single-stim-button","65","164949","0.0-2.0-19.1-0.1","60fdb65690ed7b149bebd1ad","A3","batch1","","858","tol_tohand","","","","tol_peg_2","858","858","0","[[3,1,0],[0,0],[0]]","2","[[3,0,0],[1,0],[2]]","3","0","","","","","","3","","","","","","","","",""
"","","","","","single-stim-button","66","165855","0.0-2.0-19.1-1.1","60fdb65690ed7b149bebd1ad","A3","batch1","","905","tol_toboard","","","","tol_peg_3","905","905","0","[[3,1,0],[0,0],[2]]","2","[[3,0,0],[1,0],[2]]","3","0","","","","","","3","","","","","","","","",""
"","","","","","single-stim-button","67","166831","0.0-2.0-19.2-0.2","60fdb65690ed7b149bebd1ad","A3","batch1","","974","tol_tohand","","","","tol_peg_1","974","974","0","[[3,0,0],[0,0],[2]]","3","[[3,0,0],[1,0],[2]]","3","0","","","","","","3","","","","","","","","",""
"","","","","","single-stim-button","68","167682","0.0-2.0-19.2-1.2","60fdb65690ed7b149bebd1ad","A3","batch1","","849","tol_toboard","","","","tol_peg_2","849","849","0","[[3,0,0],[1,0],[2]]","3","[[3,0,0],[1,0],[2]]","3","0","","","","","","3","","","","","","","","",""
"","","","","","poldrack-single-stim","69","168684","0.0-2.0-20.0","60fdb65690ed7b149bebd1ad","A3","batch1","","-1","tol_feedback","","","true","","1000","1000","500","","","","","","-1","none","true","3900","5732","","","","","","","","","",""
"","","","","","html-button-response","70","169755","0.0-2.0-21.0","60fdb65690ed7b149bebd1ad","A3","batch1","","1068.5","tol_trial_num","<div class = centerbox><p class = center-block-text>problem <strong>5</strong> out of 25 problems</p></div>","0","","","","","","","","","","","","","","","","","","","","","","","","",""
"","","","","","single-stim-button","71","178568","0.0-2.0-22.0-0.0","60fdb65690ed7b149bebd1ad","A3","batch1","","8807","tol_tohand","","","","tol_peg_3","8807","8807","0","[[1,0,0],[2,0],[0]]","1","[[0,0,0],[1,2],[3]]","4","0","","","","","","7","","","","","","","","",""
"","","","","","single-stim-button","72","181925","0.0-2.0-22.0-1.0","60fdb65690ed7b149bebd1ad","A3","batch1","","3355","tol_toboard","","","","tol_peg_1","3355","3355","0","[[1,3,0],[2,0],[0]]","1","[[0,0,0],[1,2],[3]]","4","0","","","","","","7","","","","","","","","",""
"","","","","","single-stim-button","73","182823","0.0-2.0-22.1-0.1","60fdb65690ed7b149bebd1ad","A3","batch1","","895","tol_tohand","","","","tol_peg_2","895","895","0","[[1,3,0],[0,0],[0]]","2","[[0,0,0],[1,2],[3]]","4","0","","","","","","7","","","","","","","","",""
"","","","","","single-stim-button","74","183974","0.0-2.0-22.1-1.1","60fdb65690ed7b149bebd1ad","A3","batch1","","1148","tol_toboard","","","","tol_peg_3","1148","1148","0","[[1,3,0],[0,0],[2]]","2","[[0,0,0],[1,2],[3]]","4","0","","","","","","7","","","","","","","","",""
"","","","","","single-stim-button","75","185779","0.0-2.0-22.2-0.2","60fdb65690ed7b149bebd1ad","A3","batch1","","1803","tol_tohand","","","","tol_peg_1","1803","1803","0","[[1,0,0],[0,0],[2]]","3","[[0,0,0],[1,2],[3]]","4","0","","","","","","7","","","","","","","","",""
"","","","","","single-stim-button","76","187843","0.0-2.0-22.2-1.2","60fdb65690ed7b149bebd1ad","A3","batch1","","2061","tol_toboard","","","","tol_peg_2","2061","2061","0","[[1,0,0],[3,0],[2]]","3","[[0,0,0],[1,2],[3]]","4","0","","","","","","7","","","","","","","","",""
"","","","","","single-stim-button","77","188604","0.0-2.0-22.3-0.3","60fdb65690ed7b149bebd1ad","A3","batch1","","758","tol_tohand","","","","tol_peg_1","758","758","0","[[0,0,0],[3,0],[2]]","4","[[0,0,0],[1,2],[3]]","4","0","","","","","","7","","","","","","","","",""
"","","","","","single-stim-button","78","191735","0.0-2.0-22.3-1.3","60fdb65690ed7b149bebd1ad","A3","batch1","","3127","tol_toboard","","","","tol_peg_2","3127","3127","0","[[0,0,0],[3,1],[2]]","4","[[0,0,0],[1,2],[3]]","4","0","","","","","","7","","","","","","","","",""
"","","","","","single-stim-button","79","194495","0.0-2.0-22.4-0.4","60fdb65690ed7b149bebd1ad","A3","batch1","","2757","tol_tohand","","","","tol_peg_3","2757","2757","0","[[0,0,0],[3,1],[0]]","5","[[0,0,0],[1,2],[3]]","4","0","","","","","","7","","","","","","","","",""
"","","","","","single-stim-button","80","195587","0.0-2.0-22.4-1.4","60fdb65690ed7b149bebd1ad","A3","batch1","","1089","tol_toboard","","","","tol_peg_1","1089","1089","0","[[2,0,0],[3,1],[0]]","5","[[0,0,0],[1,2],[3]]","4","0","","","","","","7","","","","","","","","",""
"","","","","","single-stim-button","81","196712","0.0-2.0-22.5-0.5","60fdb65690ed7b149bebd1ad","A3","batch1","","1123","tol_tohand","","","","tol_peg_2","1123","1123","0","[[2,0,0],[3,0],[0]]","6","[[0,0,0],[1,2],[3]]","4","0","","","","","","7","","","","","","","","",""
"","","","","","single-stim-button","82","197787","0.0-2.0-22.5-1.5","60fdb65690ed7b149bebd1ad","A3","batch1","","1072","tol_toboard","","","","tol_peg_1","1072","1072","0","[[2,1,0],[3,0],[0]]","6","[[0,0,0],[1,2],[3]]","4","0","","","","","","7","","","","","","","","",""
"","","","","","single-stim-button","83","198643","0.0-2.0-22.6-0.6","60fdb65690ed7b149bebd1ad","A3","batch1","","853","tol_tohand","","","","tol_peg_2","853","853","0","[[2,1,0],[0,0],[0]]","7","[[0,0,0],[1,2],[3]]","4","0","","","","","","7","","","","","","","","",""
"","","","","","single-stim-button","84","200156","0.0-2.0-22.6-1.6","60fdb65690ed7b149bebd1ad","A3","batch1","","1510","tol_toboard","","","","tol_peg_3","1510","1510","0","[[2,1,0],[0,0],[3]]","7","[[0,0,0],[1,2],[3]]","4","0","","","","","","7","","","","","","","","",""
"","","","","","single-stim-button","85","205240","0.0-2.0-22.7-0.7","60fdb65690ed7b149bebd1ad","A3","batch1","","5079","tol_tohand","","","","tol_peg_1","5079","5079","0","[[2,0,0],[0,0],[3]]","8","[[0,0,0],[1,2],[3]]","4","0","","","","","","7","","","","","","","","",""
"","","","","","single-stim-button","86","207957","0.0-2.0-22.7-1.7","60fdb65690ed7b149bebd1ad","A3","batch1","","2715","tol_toboard","","","","tol_peg_2","2715","2715","0","[[2,0,0],[1,0],[3]]","8","[[0,0,0],[1,2],[3]]","4","0","","","","","","7","","","","","","","","",""
"","","","","","single-stim-button","87","208818","0.0-2.0-22.8-0.8","60fdb65690ed7b149bebd1ad","A3","batch1","","857","tol_tohand","","","","tol_peg_1","857","857","0","[[0,0,0],[1,0],[3]]","9","[[0,0,0],[1,2],[3]]","4","0","","","","","","7","","","","","","","","",""
"","","","","","single-stim-button","88","210641","0.0-2.0-22.8-1.8","60fdb65690ed7b149bebd1ad","A3","batch1","","1821","tol_toboard","","","","tol_peg_2","1821","1821","0","[[0,0,0],[1,2],[3]]","9","[[0,0,0],[1,2],[3]]","4","0","","","","","","7","","","","","","","","",""
"","","","","","poldrack-single-stim","89","211655","0.0-2.0-23.0","60fdb65690ed7b149bebd1ad","A3","batch1","","-1","tol_feedback","","","true","","1000","1000","500","","","","","","-1","none","true","8807","22932","","","","","","","","","",""
"","","","","","html-button-response","90","212776","0.0-2.0-24.0","60fdb65690ed7b149bebd1ad","A3","batch1","","1118.8000000715256","tol_trial_num","<div class = centerbox><p class = center-block-text>problem <strong>6</strong> out of 25 problems</p></div>","0","","","","","","","","","","","","","","","","","","","","","","","","",""
"","","","","","single-stim-button","91","217105","0.0-2.0-25.0-0.0","60fdb65690ed7b149bebd1ad","A3","batch1","","4326","tol_tohand","","","","tol_peg_3","4326","4326","0","[[0,0,0],[1,2],[0]]","1","[[1,0,0],[2,3],[0]]","5","0","","","","","","6","","","","","","","","",""
"","","","","","single-stim-button","92","218527","0.0-2.0-25.0-1.0","60fdb65690ed7b149bebd1ad","A3","batch1","","1418","tol_toboard","","","","tol_peg_1","1418","1418","0","[[3,0,0],[1,2],[0]]","1","[[1,0,0],[2,3],[0]]","5","0","","","","","","6","","","","","","","","",""
"","","","","","single-stim-button","93","219886","0.0-2.0-25.1-0.1","60fdb65690ed7b149bebd1ad","A3","batch1","","1355","tol_tohand","","","","tol_peg_2","1355","1355","0","[[3,0,0],[1,0],[0]]","2","[[1,0,0],[2,3],[0]]","5","0","","","","","","6","","","","","","","","",""
"","","","","","single-stim-button","94","221365","0.0-2.0-25.1-1.1","60fdb65690ed7b149bebd1ad","A3","batch1","","1476","tol_toboard","","","","tol_peg_3","1476","1476","0","[[3,0,0],[1,0],[2]]","2","[[1,0,0],[2,3],[0]]","5","0","","","","","","6","","","","","","","","",""
"","","","","","single-stim-button","95","223122","0.0-2.0-25.2-0.2","60fdb65690ed7b149bebd1ad","A3","batch1","","1753","tol_tohand","","","","tol_peg_2","1753","1753","0","[[3,0,0],[0,0],[2]]","3","[[1,0,0],[2,3],[0]]","5","0","","","","","","6","","","","","","","","",""
"","","","","","single-stim-button","96","223992","0.0-2.0-25.2-1.2","60fdb65690ed7b149bebd1ad","A3","batch1","","867","tol_toboard","","","","tol_peg_1","867","867","0","[[3,1,0],[0,0],[2]]","3","[[1,0,0],[2,3],[0]]","5","0","","","","","","6","","","","","","","","",""
"","","","","","single-stim-button","97","225435","0.0-2.0-25.3-0.3","60fdb65690ed7b149bebd1ad","A3","batch1","","1441","tol_tohand","","","","tol_peg_3","1441","1441","0","[[3,1,0],[0,0],[0]]","4","[[1,0,0],[2,3],[0]]","5","0","","","","","","6","","","","","","","","",""
"","","","","","single-stim-button","98","227362","0.0-2.0-25.3-1.3","60fdb65690ed7b149bebd1ad","A3","batch1","","1924","tol_toboard","","","","tol_peg_2","1924","1924","0","[[3,1,0],[2,0],[0]]","4","[[1,0,0],[2,3],[0]]","5","0","","","","","","6","","","","","","","","",""
"","","","","","single-stim-button","99","228092","0.0-2.0-25.4-0.4","60fdb65690ed7b149bebd1ad","A3","batch1","","728","tol_tohand","","","","tol_peg_1","728","728","0","[[3,0,0],[2,0],[0]]","5","[[1,0,0],[2,3],[0]]","5","0","","","","","","6","","","","","","","","",""
"","","","","","single-stim-button","100","229221","0.0-2.0-25.4-1.4","60fdb65690ed7b149bebd1ad","A3","batch1","","1126","tol_toboard","","","","tol_peg_3","1126","1126","0","[[3,0,0],[2,0],[1]]","5","[[1,0,0],[2,3],[0]]","5","0","","","","","","6","","","","","","","","",""
"","","","","","single-stim-button","101","230246","0.0-2.0-25.5-0.5","60fdb65690ed7b149bebd1ad","A3","batch1","","1023","tol_tohand","","","","tol_peg_1","1023","1023","0","[[0,0,0],[2,0],[1]]","6","[[1,0,0],[2,3],[0]]","5","0","","","","","","6","","","","","","","","",""
"","","","","","single-stim-button","102","231048","0.0-2.0-25.5-1.5","60fdb65690ed7b149bebd1ad","A3","batch1","","798","tol_toboard","","","","tol_peg_2","798","798","0","[[0,0,0],[2,3],[1]]","6","[[1,0,0],[2,3],[0]]","5","0","","","","","","6","","","","","","","","",""
"","","","","","single-stim-button","103","232401","0.0-2.0-25.6-0.6","60fdb65690ed7b149bebd1ad","A3","batch1","","1350","tol_tohand","","","","tol_peg_3","1350","1350","0","[[0,0,0],[2,3],[0]]","7","[[1,0,0],[2,3],[0]]","5","0","","","","","","6","","","","","","","","",""
"","","","","","single-stim-button","104","233280","0.0-2.0-25.6-1.6","60fdb65690ed7b149bebd1ad","A3","batch1","","875","tol_toboard","","","","tol_peg_1","875","875","0","[[1,0,0],[2,3],[0]]","7","[[1,0,0],[2,3],[0]]","5","0","","","","","","6","","","","","","","","",""
"","","","","","poldrack-single-stim","105","234295","0.0-2.0-26.0","60fdb65690ed7b149bebd1ad","A3","batch1","","-1","tol_feedback","","","true","","1000","1000","500","","","","","","-1","none","true","4326","11976","","","","","","","","","",""
"","","","","","html-button-response","106","235614","0.0-2.0-27.0","60fdb65690ed7b149bebd1ad","A3","batch1","","1317.3999999761581","tol_trial_num","<div class = centerbox><p class = center-block-text>problem <strong>7</strong> out of 25 problems</p></div>","0","","","","","","","","","","","","","","","","","","","","","","","","",""
"","","","","","single-stim-button","107","239644","0.0-2.0-28.0-0.0","60fdb65690ed7b149bebd1ad","A3","batch1","","4027","tol_tohand","","","","tol_peg_3","4027","4027","0","[[2,1,0],[0,0],[0]]","1","[[1,2,0],[3,0],[0]]","6","0","","","","","","5","","","","","","","","",""
"","","","","","single-stim-button","108","240488","0.0-2.0-28.0-1.0","60fdb65690ed7b149bebd1ad","A3","batch1","","841","tol_toboard","","","","tol_peg_2","841","841","0","[[2,1,0],[3,0],[0]]","1","[[1,2,0],[3,0],[0]]","6","0","","","","","","5","","","","","","","","",""
"","","","","","single-stim-button","109","242506","0.0-2.0-28.1-0.1","60fdb65690ed7b149bebd1ad","A3","batch1","","2015","tol_tohand","","","","tol_peg_1","2015","2015","0","[[2,0,0],[3,0],[0]]","2","[[1,2,0],[3,0],[0]]","6","0","","","","","","5","","","","","","","","",""
"","","","","","single-stim-button","110","243941","0.0-2.0-28.1-1.1","60fdb65690ed7b149bebd1ad","A3","batch1","","1431","tol_toboard","","","","tol_peg_3","1431","1431","0","[[2,0,0],[3,0],[1]]","2","[[1,2,0],[3,0],[0]]","6","0","","","","","","5","","","","","","","","",""
"","","","","","single-stim-button","111","244798","0.0-2.0-28.2-0.2","60fdb65690ed7b149bebd1ad","A3","batch1","","854","tol_tohand","","","","tol_peg_1","854","854","0","[[0,0,0],[3,0],[1]]","3","[[1,2,0],[3,0],[0]]","6","0","","","","","","5","","","","","","","","",""
"","","","","","single-stim-button","112","245578","0.0-2.0-28.2-1.2","60fdb65690ed7b149bebd1ad","A3","batch1","","777","tol_toboard","","","","tol_peg_2","777","777","0","[[0,0,0],[3,2],[1]]","3","[[1,2,0],[3,0],[0]]","6","0","","","","","","5","","","","","","","","",""
"","","","","","single-stim-button","113","247009","0.0-2.0-28.3-0.3","60fdb65690ed7b149bebd1ad","A3","batch1","","1427","tol_tohand","","","","tol_peg_3","1427","1427","0","[[0,0,0],[3,2],[0]]","4","[[1,2,0],[3,0],[0]]","6","0","","","","","","5","","","","","","","","",""
"","","","","","single-stim-button","114","247887","0.0-2.0-28.3-1.3","60fdb65690ed7b149bebd1ad","A3","batch1","","876","tol_toboard","","","","tol_peg_1","876","876","0","[[1,0,0],[3,2],[0]]","4","[[1,2,0],[3,0],[0]]","6","0","","","","","","5","","","","","","","","",""
"","","","","","single-stim-button","115","248693","0.0-2.0-28.4-0.4","60fdb65690ed7b149bebd1ad","A3","batch1","","800","tol_tohand","","","","tol_peg_2","800","800","0","[[1,0,0],[3,0],[0]]","5","[[1,2,0],[3,0],[0]]","6","0","","","","","","5","","","","","","","","",""
"","","","","","single-stim-button","116","249424","0.0-2.0-28.4-1.4","60fdb65690ed7b149bebd1ad","A3","batch1","","728","tol_toboard","","","","tol_peg_1","728","728","0","[[1,2,0],[3,0],[0]]","5","[[1,2,0],[3,0],[0]]","6","0","","","","","","5","","","","","","","","",""
"","","","","","poldrack-single-stim","117","250434","0.0-2.0-29.0","60fdb65690ed7b149bebd1ad","A3","batch1","","-1","tol_feedback","","","true","","1000","1000","500","","","","","","-1","none","true","4027","9123","","","","","","","","","",""
"","","","","","html-button-response","118","251219","0.0-2.0-30.0","60fdb65690ed7b149bebd1ad","A3","batch1","","782.8999999761581","tol_trial_num","<div class = centerbox><p class = center-block-text>problem <strong>8</strong> out of 25 problems</p></div>","0","","","","","","","","","","","","","","","","","","","","","","","","",""
"","","","","","single-stim-button","119","255442","0.0-2.0-31.0-0.0","60fdb65690ed7b149bebd1ad","A3","batch1","","4218","tol_tohand","","","","tol_peg_3","4218","4218","0","[[0,0,0],[2,3],[0]]","1","[[1,2,0],[3,0],[0]]","7","0","","","","","","4","","","","","","","","",""
"","","","","","single-stim-button","120","256228","0.0-2.0-31.0-1.0","60fdb65690ed7b149bebd1ad","A3","batch1","","783","tol_toboard","","","","tol_peg_1","783","783","0","[[1,0,0],[2,3],[0]]","1","[[1,2,0],[3,0],[0]]","7","0","","","","","","4","","","","","","","","",""
"","","","","","single-stim-button","121","257498","0.0-2.0-31.1-0.1","60fdb65690ed7b149bebd1ad","A3","batch1","","1267","tol_tohand","","","","tol_peg_2","1267","1267","0","[[1,0,0],[2,0],[0]]","2","[[1,2,0],[3,0],[0]]","7","0","","","","","","4","","","","","","","","",""
"","","","","","single-stim-button","122","258513","0.0-2.0-31.1-1.1","60fdb65690ed7b149bebd1ad","A3","batch1","","1013","tol_toboard","","","","tol_peg_3","1013","1013","0","[[1,0,0],[2,0],[3]]","2","[[1,2,0],[3,0],[0]]","7","0","","","","","","4","","","","","","","","",""
"","","","","","single-stim-button","123","259330","0.0-2.0-31.2-0.2","60fdb65690ed7b149bebd1ad","A3","batch1","","813","tol_tohand","","","","tol_peg_2","813","813","0","[[1,0,0],[0,0],[3]]","3","[[1,2,0],[3,0],[0]]","7","0","","","","","","4","","","","","","","","",""
"","","","","","single-stim-button","124","260231","0.0-2.0-31.2-1.2","60fdb65690ed7b149bebd1ad","A3","batch1","","898","tol_toboard","","","","tol_peg_1","898","898","0","[[1,2,0],[0,0],[3]]","3","[[1,2,0],[3,0],[0]]","7","0","","","","","","4","","","","","","","","",""
"","","","","","single-stim-button","125","261680","0.0-2.0-31.3-0.3","60fdb65690ed7b149bebd1ad","A3","batch1","","1445","tol_tohand","","","","tol_peg_3","1445","1445","0","[[1,2,0],[0,0],[0]]","4","[[1,2,0],[3,0],[0]]","7","0","","","","","","4","","","","","","","","",""
"","","","","","single-stim-button","126","262401","0.0-2.0-31.3-1.3","60fdb65690ed7b149bebd1ad","A3","batch1","","716","tol_toboard","","","","tol_peg_2","716","716","0","[[1,2,0],[3,0],[0]]","4","[[1,2,0],[3,0],[0]]","7","0","","","","","","4","","","","","","","","",""
"","","","","","poldrack-single-stim","127","263418","0.0-2.0-32.0","60fdb65690ed7b149bebd1ad","A3","batch1","","-1","tol_feedback","","","true","","1000","1000","500","","","","","","-1","none","true","4218","7743","","","","","","","","","",""
"","","","","","html-button-response","128","264656","0.0-2.0-33.0","60fdb65690ed7b149bebd1ad","A3","batch1","","1236.7000000476837","tol_trial_num","<div class = centerbox><p class = center-block-text>problem <strong>9</strong> out of 25 problems</p></div>","0","","","","","","","","","","","","","","","","","","","","","","","","",""
"","","","","","single-stim-button","129","268836","0.0-2.0-34.0-0.0","60fdb65690ed7b149bebd1ad","A3","batch1","","4175","tol_tohand","","","","tol_peg_3","4175","4175","0","[[3,2,0],[0,0],[0]]","1","[[2,1,0],[3,0],[0]]","8","0","","","","","","6","","","","","","","","",""
"","","","","","single-stim-button","130","269902","0.0-2.0-34.0-1.0","60fdb65690ed7b149bebd1ad","A3","batch1","","1062","tol_toboard","","","","tol_peg_2","1062","1062","0","[[3,2,0],[1,0],[0]]","1","[[2,1,0],[3,0],[0]]","8","0","","","","","","6","","","","","","","","",""
"","","","","","single-stim-button","131","270745","0.0-2.0-34.1-0.1","60fdb65690ed7b149bebd1ad","A3","batch1","","841","tol_tohand","","","","tol_peg_1","841","841","0","[[3,0,0],[1,0],[0]]","2","[[2,1,0],[3,0],[0]]","8","0","","","","","","6","","","","","","","","",""
"","","","","","single-stim-button","132","272343","0.0-2.0-34.1-1.1","60fdb65690ed7b149bebd1ad","A3","batch1","","1594","tol_toboard","","","","tol_peg_3","1594","1594","0","[[3,0,0],[1,0],[2]]","2","[[2,1,0],[3,0],[0]]","8","0","","","","","","6","","","","","","","","",""
"","","","","","single-stim-button","133","273381","0.0-2.0-34.2-0.2","60fdb65690ed7b149bebd1ad","A3","batch1","","1035","tol_tohand","","","","tol_peg_2","1035","1035","0","[[3,0,0],[0,0],[2]]","3","[[2,1,0],[3,0],[0]]","8","0","","","","","","6","","","","","","","","",""
"","","","","","single-stim-button","134","274780","0.0-2.0-34.2-1.2","60fdb65690ed7b149bebd1ad","A3","batch1","","1397","tol_toboard","","","","tol_peg_1","1397","1397","0","[[3,1,0],[0,0],[2]]","3","[[2,1,0],[3,0],[0]]","8","0","","","","","","6","","","","","","","","",""
"","","","","","single-stim-button","135","276363","0.0-2.0-34.3-0.3","60fdb65690ed7b149bebd1ad","A3","batch1","","1581","tol_tohand","","","","tol_peg_3","1581","1581","0","[[3,1,0],[0,0],[0]]","4","[[2,1,0],[3,0],[0]]","8","0","","","","","","6","","","","","","","","",""
"","","","","","single-stim-button","136","277242","0.0-2.0-34.3-1.3","60fdb65690ed7b149bebd1ad","A3","batch1","","876","tol_toboard","","","","tol_peg_2","876","876","0","[[3,1,0],[2,0],[0]]","4","[[2,1,0],[3,0],[0]]","8","0","","","","","","6","","","","","","","","",""
"","","","","","single-stim-button","137","278207","0.0-2.0-34.4-0.4","60fdb65690ed7b149bebd1ad","A3","batch1","","961","tol_tohand","","","","tol_peg_1","961","961","0","[[3,0,0],[2,0],[0]]","5","[[2,1,0],[3,0],[0]]","8","0","","","","","","6","","","","","","","","",""
"","","","","","single-stim-button","138","282027","0.0-2.0-34.4-1.4","60fdb65690ed7b149bebd1ad","A3","batch1","","3817","tol_toboard","","","","tol_peg_3","3817","3817","0","[[3,0,0],[2,0],[1]]","5","[[2,1,0],[3,0],[0]]","8","0","","","","","","6","","","","","","","","",""
"","","","","","single-stim-button","139","283443","0.0-2.0-34.5-0.5","60fdb65690ed7b149bebd1ad","A3","batch1","","1414","tol_tohand","","","","tol_peg_1","1414","1414","0","[[0,0,0],[2,0],[1]]","6","[[2,1,0],[3,0],[0]]","8","0","","","","","","6","","","","","","","","",""
"","","","","","single-stim-button","140","284630","0.0-2.0-34.5-1.5","60fdb65690ed7b149bebd1ad","A3","batch1","","1184","tol_toboard","","","","tol_peg_2","1184","1184","0","[[0,0,0],[2,3],[1]]","6","[[2,1,0],[3,0],[0]]","8","0","","","","","","6","","","","","","","","",""
"","","","","","single-stim-button","141","286353","0.0-2.0-34.6-0.6","60fdb65690ed7b149bebd1ad","A3","batch1","","1720","tol_tohand","","","","tol_peg_3","1720","1720","0","[[0,0,0],[2,3],[0]]","7","[[2,1,0],[3,0],[0]]","8","0","","","","","","6","","","","","","","","",""
"","","","","","single-stim-button","142","287484","0.0-2.0-34.6-1.6","60fdb65690ed7b149bebd1ad","A3","batch1","","1128","tol_toboard","","","","tol_peg_1","1128","1128","0","[[1,0,0],[2,3],[0]]","7","[[2,1,0],[3,0],[0]]","8","0","","","","","","6","","","","","","","","",""
"","","","","","single-stim-button","143","288262","0.0-2.0-34.7-0.7","60fdb65690ed7b149bebd1ad","A3","batch1","","776","tol_tohand","","","","tol_peg_2","776","776","0","[[1,0,0],[2,0],[0]]","8","[[2,1,0],[3,0],[0]]","8","0","","","","","","6","","","","","","","","",""
"","","","","","single-stim-button","144","289302","0.0-2.0-34.7-1.7","60fdb65690ed7b149bebd1ad","A3","batch1","","1037","tol_toboard","","","","tol_peg_3","1037","1037","0","[[1,0,0],[2,0],[3]]","8","[[2,1,0],[3,0],[0]]","8","0","","","","","","6","","","","","","","","",""
"","","","","","single-stim-button","145","291046","0.0-2.0-34.8-0.8","60fdb65690ed7b149bebd1ad","A3","batch1","","1739","tol_tohand","","","","tol_peg_1","1739","1739","0","[[0,0,0],[2,0],[3]]","9","[[2,1,0],[3,0],[0]]","8","0","","","","","","6","","","","","","","","",""
"","","","","","single-stim-button","146","296896","0.0-2.0-34.8-1.8","60fdb65690ed7b149bebd1ad","A3","batch1","","5848","tol_toboard","","","","tol_peg_2","5848","5848","0","[[0,0,0],[2,1],[3]]","9","[[2,1,0],[3,0],[0]]","8","0","","","","","","6","","","","","","","","",""
"","","","","","single-stim-button","147","298736","0.0-2.0-34.9-0.9","60fdb65690ed7b149bebd1ad","A3","batch1","","1836","tol_tohand","","","","tol_peg_3","1836","1836","0","[[0,0,0],[2,1],[0]]","10","[[2,1,0],[3,0],[0]]","8","0","","","","","","6","","","","","","","","",""
"","","","","","single-stim-button","148","300437","0.0-2.0-34.9-1.9","60fdb65690ed7b149bebd1ad","A3","batch1","","1699","tol_toboard","","","","tol_peg_1","1699","1699","0","[[3,0,0],[2,1],[0]]","10","[[2,1,0],[3,0],[0]]","8","0","","","","","","6","","","","","","","","",""
"","","","","","single-stim-button","149","301249","0.0-2.0-34.10-0.10","60fdb65690ed7b149bebd1ad","A3","batch1","","808","tol_tohand","","","","tol_peg_2","808","808","0","[[3,0,0],[2,0],[0]]","11","[[2,1,0],[3,0],[0]]","8","0","","","","","","6","","","","","","","","",""
"","","","","","single-stim-button","150","302077","0.0-2.0-34.10-1.10","60fdb65690ed7b149bebd1ad","A3","batch1","","826","tol_toboard","","","","tol_peg_3","826","826","0","[[3,0,0],[2,0],[1]]","11","[[2,1,0],[3,0],[0]]","8","0","","","","","","6","","","","","","","","",""
"","","","","","single-stim-button","151","302984","0.0-2.0-34.11-0.11","60fdb65690ed7b149bebd1ad","A3","batch1","","904","tol_tohand","","","","tol_peg_2","904","904","0","[[3,0,0],[0,0],[1]]","12","[[2,1,0],[3,0],[0]]","8","0","","","","","","6","","","","","","","","",""
"","","","","","single-stim-button","152","303733","0.0-2.0-34.11-1.11","60fdb65690ed7b149bebd1ad","A3","batch1","","744","tol_toboard","","","","tol_peg_1","744","744","0","[[3,2,0],[0,0],[1]]","12","[[2,1,0],[3,0],[0]]","8","0","","","","","","6","","","","","","","","",""
"","","","","","single-stim-button","153","304552","0.0-2.0-34.12-0.12","60fdb65690ed7b149bebd1ad","A3","batch1","","817","tol_tohand","","","","tol_peg_3","817","817","0","[[3,2,0],[0,0],[0]]","13","[[2,1,0],[3,0],[0]]","8","0","","","","","","6","","","","","","","","",""
"","","","","","single-stim-button","154","305703","0.0-2.0-34.12-1.12","60fdb65690ed7b149bebd1ad","A3","batch1","","1148","tol_toboard","","","","tol_peg_2","1148","1148","0","[[3,2,0],[1,0],[0]]","13","[[2,1,0],[3,0],[0]]","8","0","","","","","","6","","","","","","","","",""
"","","","","","single-stim-button","155","306507","0.0-2.0-34.13-0.13","60fdb65690ed7b149bebd1ad","A3","batch1","","800","tol_tohand","","","","tol_peg_1","800","800","0","[[3,0,0],[1,0],[0]]","14","[[2,1,0],[3,0],[0]]","8","0","","","","","","6","","","","","","","","",""
"","","","","","single-stim-button","156","311298","0.0-2.0-34.13-1.13","60fdb65690ed7b149bebd1ad","A3","batch1","","4788","tol_toboard","","","","tol_peg_3","4788","4788","0","[[3,0,0],[1,0],[2]]","14","[[2,1,0],[3,0],[0]]","8","0","","","","","","6","","","","","","","","",""
"","","","","","single-stim-button","157","313857","0.0-2.0-34.14-0.14","60fdb65690ed7b149bebd1ad","A3","batch1","","2556","tol_tohand","","","","tol_peg_1","2556","2556","0","[[0,0,0],[1,0],[2]]","15","[[2,1,0],[3,0],[0]]","8","0","","","","","","6","","","","","","","","",""
"","","","","","single-stim-button","158","315266","0.0-2.0-34.14-1.14","60fdb65690ed7b149bebd1ad","A3","batch1","","1406","tol_toboard","","","","tol_peg_2","1406","1406","0","[[0,0,0],[1,3],[2]]","15","[[2,1,0],[3,0],[0]]","8","0","","","","","","6","","","","","","","","",""
"","","","","","single-stim-button","159","316083","0.0-2.0-34.15-0.15","60fdb65690ed7b149bebd1ad","A3","batch1","","813","tol_tohand","","","","tol_peg_3","813","813","0","[[0,0,0],[1,3],[0]]","16","[[2,1,0],[3,0],[0]]","8","0","","","","","","6","","","","","","","","",""
"","","","","","single-stim-button","160","317010","0.0-2.0-34.15-1.15","60fdb65690ed7b149bebd1ad","A3","batch1","","924","tol_toboard","","","","tol_peg_1","924","924","0","[[2,0,0],[1,3],[0]]","16","[[2,1,0],[3,0],[0]]","8","0","","","","","","6","","","","","","","","",""
"","","","","","single-stim-button","161","317909","0.0-2.0-34.16-0.16","60fdb65690ed7b149bebd1ad","A3","batch1","","897","tol_tohand","","","","tol_peg_2","897","897","0","[[2,0,0],[1,0],[0]]","17","[[2,1,0],[3,0],[0]]","8","0","","","","","","6","","","","","","","","",""
"","","","","","single-stim-button","162","318745","0.0-2.0-34.16-1.16","60fdb65690ed7b149bebd1ad","A3","batch1","","834","tol_toboard","","","","tol_peg_3","834","834","0","[[2,0,0],[1,0],[3]]","17","[[2,1,0],[3,0],[0]]","8","0","","","","","","6","","","","","","","","",""
"","","","","","single-stim-button","163","319471","0.0-2.0-34.17-0.17","60fdb65690ed7b149bebd1ad","A3","batch1","","723","tol_tohand","","","","tol_peg_2","723","723","0","[[2,0,0],[0,0],[3]]","18","[[2,1,0],[3,0],[0]]","8","0","","","","","","6","","","","","","","","",""
"","","","","","single-stim-button","164","320176","0.0-2.0-34.17-1.17","60fdb65690ed7b149bebd1ad","A3","batch1","","703","tol_toboard","","","","tol_peg_1","703","703","0","[[2,1,0],[0,0],[3]]","18","[[2,1,0],[3,0],[0]]","8","0","","","","","","6","","","","","","","","",""
"","","","","","single-stim-button","165","320915","0.0-2.0-34.18-0.18","60fdb65690ed7b149bebd1ad","A3","batch1","","736","tol_tohand","","","","tol_peg_3","736","736","0","[[2,1,0],[0,0],[0]]","19","[[2,1,0],[3,0],[0]]","8","0","","","","","","6","","","","","","","","",""
"","","","","","single-stim-button","166","321815","0.0-2.0-34.18-1.18","60fdb65690ed7b149bebd1ad","A3","batch1","","895","tol_toboard","","","","tol_peg_2","895","895","0","[[2,1,0],[3,0],[0]]","19","[[2,1,0],[3,0],[0]]","8","0","","","","","","6","","","","","","","","",""
"","","","","","poldrack-single-stim","167","322820","0.0-2.0-35.0","60fdb65690ed7b149bebd1ad","A3","batch1","","-1","tol_feedback","","","true","","1000","1000","500","","","","","","-1","none","true","4175","25132","","","","","","","","","",""
"","","","","","html-button-response","168","324304","0.0-2.0-36.0","60fdb65690ed7b149bebd1ad","A3","batch1","","1482.8000000715256","tol_trial_num","<div class = centerbox><p class = center-block-text>problem <strong>10</strong> out of 25 problems</p></div>","0","","","","","","","","","","","","","","","","","","","","","","","","",""
"","","","","","single-stim-button","169","328289","0.0-2.0-37.0-0.0","60fdb65690ed7b149bebd1ad","A3","batch1","","3981","tol_tohand","","","","tol_peg_2","3981","3981","0","[[3,0,0],[0,0],[2]]","1","[[3,0,0],[2,1],[0]]","9","0","","","","","","3","","","","","","","","",""
"","","","","","single-stim-button","170","329012","0.0-2.0-37.0-1.0","60fdb65690ed7b149bebd1ad","A3","batch1","","721","tol_toboard","","","","tol_peg_1","721","721","0","[[3,1,0],[0,0],[2]]","1","[[3,0,0],[2,1],[0]]","9","0","","","","","","3","","","","","","","","",""
"","","","","","single-stim-button","171","330531","0.0-2.0-37.1-0.1","60fdb65690ed7b149bebd1ad","A3","batch1","","1516","tol_tohand","","","","tol_peg_3","1516","1516","0","[[3,1,0],[0,0],[0]]","2","[[3,0,0],[2,1],[0]]","9","0","","","","","","3","","","","","","","","",""
"","","","","","single-stim-button","172","331437","0.0-2.0-37.1-1.1","60fdb65690ed7b149bebd1ad","A3","batch1","","905","tol_toboard","","","","tol_peg_2","905","905","0","[[3,1,0],[2,0],[0]]","2","[[3,0,0],[2,1],[0]]","9","0","","","","","","3","","","","","","","","",""
"","","","","","single-stim-button","173","332275","0.0-2.0-37.2-0.2","60fdb65690ed7b149bebd1ad","A3","batch1","","836","tol_tohand","","","","tol_peg_1","836","836","0","[[3,0,0],[2,0],[0]]","3","[[3,0,0],[2,1],[0]]","9","0","","","","","","3","","","","","","","","",""
"","","","","","single-stim-button","174","333203","0.0-2.0-37.2-1.2","60fdb65690ed7b149bebd1ad","A3","batch1","","926","tol_toboard","","","","tol_peg_2","926","926","0","[[3,0,0],[2,1],[0]]","3","[[3,0,0],[2,1],[0]]","9","0","","","","","","3","","","","","","","","",""
"","","","","","poldrack-single-stim","175","334225","0.0-2.0-38.0","60fdb65690ed7b149bebd1ad","A3","batch1","","-1","tol_feedback","","","true","","1000","1000","500","","","","","","-1","none","true","3981","6333","","","","","","","","","",""
"","","","","","html-button-response","176","335259","0.0-2.0-39.0","60fdb65690ed7b149bebd1ad","A3","batch1","","1032.5","tol_trial_num","<div class = centerbox><p class = center-block-text>problem <strong>11</strong> out of 25 problems</p></div>","0","","","","","","","","","","","","","","","","","","","","","","","","",""
"","","","","","single-stim-button","177","339666","0.0-2.0-40.0-0.0","60fdb65690ed7b149bebd1ad","A3","batch1","","4405","tol_tohand","","","","tol_peg_1","4405","4405","0","[[1,0,0],[3,0],[0]]","1","[[2,0,0],[1,3],[0]]","10","0","","","","","","6","","","","","","","","",""
"","","","","","single-stim-button","178","340557","0.0-2.0-40.0-1.0","60fdb65690ed7b149bebd1ad","A3","batch1","","888","tol_toboard","","","","tol_peg_3","888","888","0","[[1,0,0],[3,0],[2]]","1","[[2,0,0],[1,3],[0]]","10","0","","","","","","6","","","","","","","","",""
"","","","","","single-stim-button","179","341696","0.0-2.0-40.1-0.1","60fdb65690ed7b149bebd1ad","A3","batch1","","1135","tol_tohand","","","","tol_peg_1","1135","1135","0","[[0,0,0],[3,0],[2]]","2","[[2,0,0],[1,3],[0]]","10","0","","","","","","6","","","","","","","","",""
"","","","","","single-stim-button","180","345244","0.0-2.0-40.1-1.1","60fdb65690ed7b149bebd1ad","A3","batch1","","3546","tol_toboard","","","","tol_peg_2","3546","3546","0","[[0,0,0],[3,1],[2]]","2","[[2,0,0],[1,3],[0]]","10","0","","","","","","6","","","","","","","","",""
"","","","","","single-stim-button","181","345969","0.0-2.0-40.2-0.2","60fdb65690ed7b149bebd1ad","A3","batch1","","722","tol_tohand","","","","tol_peg_3","722","722","0","[[0,0,0],[3,1],[0]]","3","[[2,0,0],[1,3],[0]]","10","0","","","","","","6","","","","","","","","",""
"","","","","","single-stim-button","182","346863","0.0-2.0-40.2-1.2","60fdb65690ed7b149bebd1ad","A3","batch1","","891","tol_toboard","","","","tol_peg_1","891","891","0","[[2,0,0],[3,1],[0]]","3","[[2,0,0],[1,3],[0]]","10","0","","","","","","6","","","","","","","","",""
"","","","","","single-stim-button","183","348243","0.0-2.0-40.3-0.3","60fdb65690ed7b149bebd1ad","A3","batch1","","1378","tol_tohand","","","","tol_peg_2","1378","1378","0","[[2,0,0],[3,0],[0]]","4","[[2,0,0],[1,3],[0]]","10","0","","","","","","6","","","","","","","","",""
"","","","","","single-stim-button","184","350434","0.0-2.0-40.3-1.3","60fdb65690ed7b149bebd1ad","A3","batch1","","2187","tol_toboard","","","","tol_peg_3","2187","2187","0","[[2,0,0],[3,0],[1]]","4","[[2,0,0],[1,3],[0]]","10","0","","","","","","6","","","","","","","","",""
"","","","","","single-stim-button","185","350999","0.0-2.0-40.4-0.4","60fdb65690ed7b149bebd1ad","A3","batch1","","562","tol_tohand","","","","tol_peg_2","562","562","0","[[2,0,0],[0,0],[1]]","5","[[2,0,0],[1,3],[0]]","10","0","","","","","","6","","","","","","","","",""
"","","","","","single-stim-button","186","351753","0.0-2.0-40.4-1.4","60fdb65690ed7b149bebd1ad","A3","batch1","","751","tol_toboard","","","","tol_peg_1","751","751","0","[[2,3,0],[0,0],[1]]","5","[[2,0,0],[1,3],[0]]","10","0","","","","","","6","","","","","","","","",""
"","","","","","single-stim-button","187","352973","0.0-2.0-40.5-0.5","60fdb65690ed7b149bebd1ad","A3","batch1","","1216","tol_tohand","","","","tol_peg_3","1216","1216","0","[[2,3,0],[0,0],[0]]","6","[[2,0,0],[1,3],[0]]","10","0","","","","","","6","","","","","","","","",""
"","","","","","single-stim-button","188","353735","0.0-2.0-40.5-1.5","60fdb65690ed7b149bebd1ad","A3","batch1","","759","tol_toboard","","","","tol_peg_2","759","759","0","[[2,3,0],[1,0],[0]]","6","[[2,0,0],[1,3],[0]]","10","0","","","","","","6","","","","","","","","",""
"","","","","","single-stim-button","189","354416","0.0-2.0-40.6-0.6","60fdb65690ed7b149bebd1ad","A3","batch1","","679","tol_tohand","","","","tol_peg_1","679","679","0","[[2,0,0],[1,0],[0]]","7","[[2,0,0],[1,3],[0]]","10","0","","","","","","6","","","","","","","","",""
"","","","","","single-stim-button","190","355547","0.0-2.0-40.6-1.6","60fdb65690ed7b149bebd1ad","A3","batch1","","1129","tol_toboard","","","","tol_peg_2","1129","1129","0","[[2,0,0],[1,3],[0]]","7","[[2,0,0],[1,3],[0]]","10","0","","","","","","6","","","","","","","","",""
"","","","","","poldrack-single-stim","191","356553","0.0-2.0-41.0","60fdb65690ed7b149bebd1ad","A3","batch1","","-1","tol_feedback","","","true","","1000","1000","500","","","","","","-1","none","true","4405","10097","","","","","","","","","",""
"","","","","","html-button-response","192","357604","0.0-2.0-42.0","60fdb65690ed7b149bebd1ad","A3","batch1","","1049","tol_trial_num","<div class = centerbox><p class = center-block-text>problem <strong>12</strong> out of 25 problems</p></div>","0","","","","","","","","","","","","","","","","","","","","","","","","",""
"","","","","","single-stim-button","193","360486","0.0-2.0-43.0-0.0","60fdb65690ed7b149bebd1ad","A3","batch1","","2876","tol_tohand","","","","tol_peg_1","2876","2876","0","[[1,0,0],[3,0],[0]]","1","[[2,3,0],[0,0],[1]]","11","0","","","","","","4","","","","","","","","",""
"","","","","","single-stim-button","194","361553","0.0-2.0-43.0-1.0","60fdb65690ed7b149bebd1ad","A3","batch1","","1064","tol_toboard","","","","tol_peg_2","1064","1064","0","[[1,0,0],[3,2],[0]]","1","[[2,3,0],[0,0],[1]]","11","0","","","","","","4","","","","","","","","",""
"","","","","","single-stim-button","195","362410","0.0-2.0-43.1-0.1","60fdb65690ed7b149bebd1ad","A3","batch1","","854","tol_tohand","","","","tol_peg_1","854","854","0","[[0,0,0],[3,2],[0]]","2","[[2,3,0],[0,0],[1]]","11","0","","","","","","4","","","","","","","","",""
"","","","","","single-stim-button","196","363199","0.0-2.0-43.1-1.1","60fdb65690ed7b149bebd1ad","A3","batch1","","787","tol_toboard","","","","tol_peg_3","787","787","0","[[0,0,0],[3,2],[1]]","2","[[2,3,0],[0,0],[1]]","11","0","","","","","","4","","","","","","","","",""
"","","","","","single-stim-button","197","363905","0.0-2.0-43.2-0.2","60fdb65690ed7b149bebd1ad","A3","batch1","","702","tol_tohand","","","","tol_peg_2","702","702","0","[[0,0,0],[3,0],[1]]","3","[[2,3,0],[0,0],[1]]","11","0","","","","","","4","","","","","","","","",""
"","","","","","single-stim-button","198","364931","0.0-2.0-43.2-1.2","60fdb65690ed7b149bebd1ad","A3","batch1","","1023","tol_toboard","","","","tol_peg_1","1023","1023","0","[[2,0,0],[3,0],[1]]","3","[[2,3,0],[0,0],[1]]","11","0","","","","","","4","","","","","","","","",""
"","","","","","single-stim-button","199","365599","0.0-2.0-43.3-0.3","60fdb65690ed7b149bebd1ad","A3","batch1","","665","tol_tohand","","","","tol_peg_2","665","665","0","[[2,0,0],[0,0],[1]]","4","[[2,3,0],[0,0],[1]]","11","0","","","","","","4","","","","","","","","",""
"","","","","","single-stim-button","200","366408","0.0-2.0-43.3-1.3","60fdb65690ed7b149bebd1ad","A3","batch1","","807","tol_toboard","","","","tol_peg_1","807","807","0","[[2,3,0],[0,0],[1]]","4","[[2,3,0],[0,0],[1]]","11","0","","","","","","4","","","","","","","","",""
"","","","","","poldrack-single-stim","201","367423","0.0-2.0-44.0","60fdb65690ed7b149bebd1ad","A3","batch1","","-1","tol_feedback","","","true","","1000","1000","500","","","","","","-1","none","true","2876","5097","","","","","","","","","",""
"","","","","","html-button-response","202","368158","0.0-2.0-45.0","60fdb65690ed7b149bebd1ad","A3","batch1","","733.2000000476837","tol_trial_num","<div class = centerbox><p class = center-block-text>problem <strong>13</strong> out of 25 problems</p></div>","0","","","","","","","","","","","","","","","","","","","","","","","","",""
"","","","","","single-stim-button","203","370888","0.0-2.0-46.0-0.0","60fdb65690ed7b149bebd1ad","A3","batch1","","2725","tol_tohand","","","","tol_peg_1","2725","2725","0","[[1,0,0],[3,0],[0]]","1","[[0,0,0],[2,3],[1]]","12","0","","","","","","4","","","","","","","","",""
"","","","","","single-stim-button","204","371871","0.0-2.0-46.0-1.0","60fdb65690ed7b149bebd1ad","A3","batch1","","980","tol_toboard","","","","tol_peg_2","980","980","0","[[1,0,0],[3,2],[0]]","1","[[0,0,0],[2,3],[1]]","12","0","","","","","","4","","","","","","","","",""
"","","","","","single-stim-button","205","374987","0.0-2.0-46.1-0.1","60fdb65690ed7b149bebd1ad","A3","batch1","","3114","tol_tohand","","","","tol_peg_1","3114","3114","0","[[0,0,0],[3,2],[0]]","2","[[0,0,0],[2,3],[1]]","12","0","","","","","","4","","","","","","","","",""
"","","","","","single-stim-button","206","375770","0.0-2.0-46.1-1.1","60fdb65690ed7b149bebd1ad","A3","batch1","","779","tol_toboard","","","","tol_peg_3","779","779","0","[[0,0,0],[3,2],[1]]","2","[[0,0,0],[2,3],[1]]","12","0","","","","","","4","","","","","","","","",""
"","","","","","single-stim-button","207","376691","0.0-2.0-46.2-0.2","60fdb65690ed7b149bebd1ad","A3","batch1","","918","tol_tohand","","","","tol_peg_2","918","918","0","[[0,0,0],[3,0],[1]]","3","[[0,0,0],[2,3],[1]]","12","0","","","","","","4","","","","","","","","",""
"","","","","","single-stim-button","208","377912","0.0-2.0-46.2-1.2","60fdb65690ed7b149bebd1ad","A3","batch1","","1218","tol_toboard","","","","tol_peg_1","1218","1218","0","[[2,0,0],[3,0],[1]]","3","[[0,0,0],[2,3],[1]]","12","0","","","","","","4","","","","","","","","",""
"","","","","","single-stim-button","209","378902","0.0-2.0-46.3-0.3","60fdb65690ed7b149bebd1ad","A3","batch1","","986","tol_tohand","","","","tol_peg_3","986","986","0","[[2,0,0],[3,0],[0]]","4","[[0,0,0],[2,3],[1]]","12","0","","","","","","4","","","","","","","","",""
"","","","","","single-stim-button","210","381002","0.0-2.0-46.3-1.3","60fdb65690ed7b149bebd1ad","A3","batch1","","2097","tol_toboard","","","","tol_peg_1","2097","2097","0","[[2,1,0],[3,0],[0]]","4","[[0,0,0],[2,3],[1]]","12","0","","","","","","4","","","","","","","","",""
"","","","","","single-stim-button","211","381706","0.0-2.0-46.4-0.4","60fdb65690ed7b149bebd1ad","A3","batch1","","700","tol_tohand","","","","tol_peg_2","700","700","0","[[2,1,0],[0,0],[0]]","5","[[0,0,0],[2,3],[1]]","12","0","","","","","","4","","","","","","","","",""
"","","","","","single-stim-button","212","382474","0.0-2.0-46.4-1.4","60fdb65690ed7b149bebd1ad","A3","batch1","","764","tol_toboard","","","","tol_peg_3","764","764","0","[[2,1,0],[0,0],[3]]","5","[[0,0,0],[2,3],[1]]","12","0","","","","","","4","","","","","","","","",""
"","","","","","single-stim-button","213","384505","0.0-2.0-46.5-0.5","60fdb65690ed7b149bebd1ad","A3","batch1","","2027","tol_tohand","","","","tol_peg_1","2027","2027","0","[[2,0,0],[0,0],[3]]","6","[[0,0,0],[2,3],[1]]","12","0","","","","","","4","","","","","","","","",""
"","","","","","single-stim-button","214","385487","0.0-2.0-46.5-1.5","60fdb65690ed7b149bebd1ad","A3","batch1","","979","tol_toboard","","","","tol_peg_2","979","979","0","[[2,0,0],[1,0],[3]]","6","[[0,0,0],[2,3],[1]]","12","0","","","","","","4","","","","","","","","",""
"","","","","","single-stim-button","215","387631","0.0-2.0-46.6-0.6","60fdb65690ed7b149bebd1ad","A3","batch1","","2141","tol_tohand","","","","tol_peg_1","2141","2141","0","[[0,0,0],[1,0],[3]]","7","[[0,0,0],[2,3],[1]]","12","0","","","","","","4","","","","","","","","",""
"","","","","","single-stim-button","216","388557","0.0-2.0-46.6-1.6","60fdb65690ed7b149bebd1ad","A3","batch1","","924","tol_toboard","","","","tol_peg_2","924","924","0","[[0,0,0],[1,2],[3]]","7","[[0,0,0],[2,3],[1]]","12","0","","","","","","4","","","","","","","","",""
"","","","","","single-stim-button","217","389902","0.0-2.0-46.7-0.7","60fdb65690ed7b149bebd1ad","A3","batch1","","1342","tol_tohand","","","","tol_peg_3","1342","1342","0","[[0,0,0],[1,2],[0]]","8","[[0,0,0],[2,3],[1]]","12","0","","","","","","4","","","","","","","","",""
"","","","","","single-stim-button","218","390797","0.0-2.0-46.7-1.7","60fdb65690ed7b149bebd1ad","A3","batch1","","889","tol_toboard","","","","tol_peg_1","889","889","0","[[3,0,0],[1,2],[0]]","8","[[0,0,0],[2,3],[1]]","12","0","","","","","","4","","","","","","","","",""
"","","","","","single-stim-button","219","391939","0.0-2.0-46.8-0.8","60fdb65690ed7b149bebd1ad","A3","batch1","","1139","tol_tohand","","","","tol_peg_2","1139","1139","0","[[3,0,0],[1,0],[0]]","9","[[0,0,0],[2,3],[1]]","12","0","","","","","","4","","","","","","","","",""
"","","","","","single-stim-button","220","392719","0.0-2.0-46.8-1.8","60fdb65690ed7b149bebd1ad","A3","batch1","","777","tol_toboard","","","","tol_peg_1","777","777","0","[[3,2,0],[1,0],[0]]","9","[[0,0,0],[2,3],[1]]","12","0","","","","","","4","","","","","","","","",""
"","","","","","single-stim-button","221","394395","0.0-2.0-46.9-0.9","60fdb65690ed7b149bebd1ad","A3","batch1","","1672","tol_tohand","","","","tol_peg_2","1672","1672","0","[[3,2,0],[0,0],[0]]","10","[[0,0,0],[2,3],[1]]","12","0","","","","","","4","","","","","","","","",""
"","","","","","single-stim-button","222","395109","0.0-2.0-46.9-1.9","60fdb65690ed7b149bebd1ad","A3","batch1","","712","tol_toboard","","","","tol_peg_3","712","712","0","[[3,2,0],[0,0],[1]]","10","[[0,0,0],[2,3],[1]]","12","0","","","","","","4","","","","","","","","",""
"","","","","","single-stim-button","223","396934","0.0-2.0-46.10-0.10","60fdb65690ed7b149bebd1ad","A3","batch1","","1822","tol_tohand","","","","tol_peg_1","1822","1822","0","[[3,0,0],[0,0],[1]]","11","[[0,0,0],[2,3],[1]]","12","0","","","","","","4","","","","","","","","",""
"","","","","","single-stim-button","224","398970","0.0-2.0-46.10-1.10","60fdb65690ed7b149bebd1ad","A3","batch1","","2033","tol_toboard","","","","tol_peg_2","2033","2033","0","[[3,0,0],[2,0],[1]]","11","[[0,0,0],[2,3],[1]]","12","0","","","","","","4","","","","","","","","",""
"","","","","","single-stim-button","225","400345","0.0-2.0-46.11-0.11","60fdb65690ed7b149bebd1ad","A3","batch1","","1373","tol_tohand","","","","tol_peg_1","1373","1373","0","[[0,0,0],[2,0],[1]]","12","[[0,0,0],[2,3],[1]]","12","0","","","","","","4","","","","","","","","",""
"","","","","","single-stim-button","226","401183","0.0-2.0-46.11-1.11","60fdb65690ed7b149bebd1ad","A3","batch1","","836","tol_toboard","","","","tol_peg_2","836","836","0","[[0,0,0],[2,3],[1]]","12","[[0,0,0],[2,3],[1]]","12","0","","","","","","4","","","","","","","","",""
"","","","","","poldrack-single-stim","227","402202","0.0-2.0-47.0","60fdb65690ed7b149bebd1ad","A3","batch1","","-1","tol_feedback","","","true","","1000","1000","500","","","","","","-1","none","true","2725","19959","","","","","","","","","",""
"","","","","","html-button-response","228","404404","0.0-2.0-48.0","60fdb65690ed7b149bebd1ad","A3","batch1","","2200.100000023842","attention_check","<p class = block-text>How many balls are in your board<br></p>","1","true","","","","","","","","","","","","","","","","","","","","","","","",""
"","","","","","html-button-response","229","405255","0.0-2.0-49.0","60fdb65690ed7b149bebd1ad","A3","batch1","","848.0999999046326","tol_trial_num","<div class = centerbox><p class = center-block-text>problem <strong>14</strong> out of 25 problems</p></div>","0","","","","","","","","","","","","","","","","","","","","","","","","",""
"","","","","","single-stim-button","230","409281","0.0-2.0-50.0-0.0","60fdb65690ed7b149bebd1ad","A3","batch1","","4023","tol_tohand","","","","tol_peg_1","4023","4023","0","[[2,0,0],[3,0],[0]]","1","[[1,2,0],[3,0],[0]]","13","0","","","","","","4","","","","","","","","",""
"","","","","","single-stim-button","231","409978","0.0-2.0-50.0-1.0","60fdb65690ed7b149bebd1ad","A3","batch1","","694","tol_toboard","","","","tol_peg_3","694","694","0","[[2,0,0],[3,0],[1]]","1","[[1,2,0],[3,0],[0]]","13","0","","","","","","4","","","","","","","","",""
"","","","","","single-stim-button","232","410760","0.0-2.0-50.1-0.1","60fdb65690ed7b149bebd1ad","A3","batch1","","778","tol_tohand","","","","tol_peg_1","778","778","0","[[0,0,0],[3,0],[1]]","2","[[1,2,0],[3,0],[0]]","13","0","","","","","","4","","","","","","","","",""
"","","","","","single-stim-button","233","411513","0.0-2.0-50.1-1.1","60fdb65690ed7b149bebd1ad","A3","batch1","","750","tol_toboard","","","","tol_peg_2","750","750","0","[[0,0,0],[3,2],[1]]","2","[[1,2,0],[3,0],[0]]","13","0","","","","","","4","","","","","","","","",""
"","","","","","single-stim-button","234","412217","0.0-2.0-50.2-0.2","60fdb65690ed7b149bebd1ad","A3","batch1","","702","tol_tohand","","","","tol_peg_3","702","702","0","[[0,0,0],[3,2],[0]]","3","[[1,2,0],[3,0],[0]]","13","0","","","","","","4","","","","","","","","",""
"","","","","","single-stim-button","235","413131","0.0-2.0-50.2-1.2","60fdb65690ed7b149bebd1ad","A3","batch1","","912","tol_toboard","","","","tol_peg_1","912","912","0","[[1,0,0],[3,2],[0]]","3","[[1,2,0],[3,0],[0]]","13","0","","","","","","4","","","","","","","","",""
"","","","","","single-stim-button","236","414115","0.0-2.0-50.3-0.3","60fdb65690ed7b149bebd1ad","A3","batch1","","981","tol_tohand","","","","tol_peg_2","981","981","0","[[1,0,0],[3,0],[0]]","4","[[1,2,0],[3,0],[0]]","13","0","","","","","","4","","","","","","","","",""
"","","","","","single-stim-button","237","414750","0.0-2.0-50.3-1.3","60fdb65690ed7b149bebd1ad","A3","batch1","","633","tol_toboard","","","","tol_peg_1","633","633","0","[[1,2,0],[3,0],[0]]","4","[[1,2,0],[3,0],[0]]","13","0","","","","","","4","","","","","","","","",""
"","","","","","poldrack-single-stim","238","415763","0.0-2.0-51.0","60fdb65690ed7b149bebd1ad","A3","batch1","","-1","tol_feedback","","","true","","1000","1000","500","","","","","","-1","none","true","4023","6484","","","","","","","","","",""
"","","","","","html-button-response","239","417532","0.0-2.0-52.0","60fdb65690ed7b149bebd1ad","A3","batch1","","1767.5","tol_trial_num","<div class = centerbox><p class = center-block-text>problem <strong>15</strong> out of 25 problems</p></div>","0","","","","","","","","","","","","","","","","","","","","","","","","",""
"","","","","","single-stim-button","240","420828","0.0-2.0-53.0-0.0","60fdb65690ed7b149bebd1ad","A3","batch1","","3292","tol_tohand","","","","tol_peg_1","3292","3292","0","[[1,0,0],[3,0],[0]]","1","[[2,0,0],[3,0],[1]]","14","0","","","","","","3","","","","","","","","",""
"","","","","","single-stim-button","241","422089","0.0-2.0-53.0-1.0","60fdb65690ed7b149bebd1ad","A3","batch1","","1259","tol_toboard","","","","tol_peg_2","1259","1259","0","[[1,0,0],[3,2],[0]]","1","[[2,0,0],[3,0],[1]]","14","0","","","","","","3","","","","","","","","",""
"","","","","","single-stim-button","242","422772","0.0-2.0-53.1-0.1","60fdb65690ed7b149bebd1ad","A3","batch1","","679","tol_tohand","","","","tol_peg_1","679","679","0","[[0,0,0],[3,2],[0]]","2","[[2,0,0],[3,0],[1]]","14","0","","","","","","3","","","","","","","","",""
"","","","","","single-stim-button","243","423629","0.0-2.0-53.1-1.1","60fdb65690ed7b149bebd1ad","A3","batch1","","854","tol_toboard","","","","tol_peg_3","854","854","0","[[0,0,0],[3,2],[1]]","2","[[2,0,0],[3,0],[1]]","14","0","","","","","","3","","","","","","","","",""
"","","","","","single-stim-button","244","424406","0.0-2.0-53.2-0.2","60fdb65690ed7b149bebd1ad","A3","batch1","","774","tol_tohand","","","","tol_peg_2","774","774","0","[[0,0,0],[3,0],[1]]","3","[[2,0,0],[3,0],[1]]","14","0","","","","","","3","","","","","","","","",""
"","","","","","single-stim-button","245","425479","0.0-2.0-53.2-1.2","60fdb65690ed7b149bebd1ad","A3","batch1","","1071","tol_toboard","","","","tol_peg_1","1071","1071","0","[[2,0,0],[3,0],[1]]","3","[[2,0,0],[3,0],[1]]","14","0","","","","","","3","","","","","","","","",""
"","","","","","poldrack-single-stim","246","426499","0.0-2.0-54.0","60fdb65690ed7b149bebd1ad","A3","batch1","","-1","tol_feedback","","","true","","1000","1000","500","","","","","","-1","none","true","3292","4745","","","","","","","","","",""
"","","","","","html-button-response","247","427613","0.0-2.0-55.0","60fdb65690ed7b149bebd1ad","A3","batch1","","1112.3999999761581","tol_trial_num","<div class = centerbox><p class = center-block-text>problem <strong>16</strong> out of 25 problems</p></div>","0","","","","","","","","","","","","","","","","","","","","","","","","",""
"","","","","","single-stim-button","248","432930","0.0-2.0-56.0-0.0","60fdb65690ed7b149bebd1ad","A3","batch1","","5313","tol_tohand","","","","tol_peg_3","5313","5313","0","[[0,0,0],[2,3],[0]]","1","[[2,3,0],[1,0],[0]]","15","0","","","","","","7","","","","","","","","",""
"","","","","","single-stim-button","249","433850","0.0-2.0-56.0-1.0","60fdb65690ed7b149bebd1ad","A3","batch1","","917","tol_toboard","","","","tol_peg_1","917","917","0","[[1,0,0],[2,3],[0]]","1","[[2,3,0],[1,0],[0]]","15","0","","","","","","7","","","","","","","","",""
"","","","","","single-stim-button","250","438413","0.0-2.0-56.1-0.1","60fdb65690ed7b149bebd1ad","A3","batch1","","4560","tol_tohand","","","","tol_peg_2","4560","4560","0","[[1,0,0],[2,0],[0]]","2","[[2,3,0],[1,0],[0]]","15","0","","","","","","7","","","","","","","","",""
"","","","","","single-stim-button","251","440819","0.0-2.0-56.1-1.1","60fdb65690ed7b149bebd1ad","A3","batch1","","2403","tol_toboard","","","","tol_peg_1","2403","2403","0","[[1,3,0],[2,0],[0]]","2","[[2,3,0],[1,0],[0]]","15","0","","","","","","7","","","","","","","","",""
"","","","","","single-stim-button","252","441623","0.0-2.0-56.2-0.2","60fdb65690ed7b149bebd1ad","A3","batch1","","800","tol_tohand","","","","tol_peg_2","800","800","0","[[1,3,0],[0,0],[0]]","3","[[2,3,0],[1,0],[0]]","15","0","","","","","","7","","","","","","","","",""
"","","","","","single-stim-button","253","442811","0.0-2.0-56.2-1.2","60fdb65690ed7b149bebd1ad","A3","batch1","","1186","tol_toboard","","","","tol_peg_3","1186","1186","0","[[1,3,0],[0,0],[2]]","3","[[2,3,0],[1,0],[0]]","15","0","","","","","","7","","","","","","","","",""
"","","","","","single-stim-button","254","444137","0.0-2.0-56.3-0.3","60fdb65690ed7b149bebd1ad","A3","batch1","","1324","tol_tohand","","","","tol_peg_1","1324","1324","0","[[1,0,0],[0,0],[2]]","4","[[2,3,0],[1,0],[0]]","15","0","","","","","","7","","","","","","","","",""
"","","","","","single-stim-button","255","445282","0.0-2.0-56.3-1.3","60fdb65690ed7b149bebd1ad","A3","batch1","","1143","tol_toboard","","","","tol_peg_2","1143","1143","0","[[1,0,0],[3,0],[2]]","4","[[2,3,0],[1,0],[0]]","15","0","","","","","","7","","","","","","","","",""
"","","","","","single-stim-button","256","445891","0.0-2.0-56.4-0.4","60fdb65690ed7b149bebd1ad","A3","batch1","","606","tol_tohand","","","","tol_peg_1","606","606","0","[[0,0,0],[3,0],[2]]","5","[[2,3,0],[1,0],[0]]","15","0","","","","","","7","","","","","","","","",""
"","","","","","single-stim-button","257","446774","0.0-2.0-56.4-1.4","60fdb65690ed7b149bebd1ad","A3","batch1","","881","tol_toboard","","","","tol_peg_2","881","881","0","[[0,0,0],[3,1],[2]]","5","[[2,3,0],[1,0],[0]]","15","0","","","","","","7","","","","","","","","",""
"","","","","","single-stim-button","258","447443","0.0-2.0-56.5-0.5","60fdb65690ed7b149bebd1ad","A3","batch1","","667","tol_tohand","","","","tol_peg_3","667","667","0","[[0,0,0],[3,1],[0]]","6","[[2,3,0],[1,0],[0]]","15","0","","","","","","7","","","","","","","","",""
"","","","","","single-stim-button","259","448487","0.0-2.0-56.5-1.5","60fdb65690ed7b149bebd1ad","A3","batch1","","1041","tol_toboard","","","","tol_peg_1","1041","1041","0","[[2,0,0],[3,1],[0]]","6","[[2,3,0],[1,0],[0]]","15","0","","","","","","7","","","","","","","","",""
"","","","","","single-stim-button","260","449188","0.0-2.0-56.6-0.6","60fdb65690ed7b149bebd1ad","A3","batch1","","698","tol_tohand","","","","tol_peg_2","698","698","0","[[2,0,0],[3,0],[0]]","7","[[2,3,0],[1,0],[0]]","15","0","","","","","","7","","","","","","","","",""
"","","","","","single-stim-button","261","450115","0.0-2.0-56.6-1.6","60fdb65690ed7b149bebd1ad","A3","batch1","","926","tol_toboard","","","","tol_peg_3","926","926","0","[[2,0,0],[3,0],[1]]","7","[[2,3,0],[1,0],[0]]","15","0","","","","","","7","","","","","","","","",""
"","","","","","single-stim-button","262","450750","0.0-2.0-56.7-0.7","60fdb65690ed7b149bebd1ad","A3","batch1","","634","tol_tohand","","","","tol_peg_2","634","634","0","[[2,0,0],[0,0],[1]]","8","[[2,3,0],[1,0],[0]]","15","0","","","","","","7","","","","","","","","",""
"","","","","","single-stim-button","263","451448","0.0-2.0-56.7-1.7","60fdb65690ed7b149bebd1ad","A3","batch1","","696","tol_toboard","","","","tol_peg_1","696","696","0","[[2,3,0],[0,0],[1]]","8","[[2,3,0],[1,0],[0]]","15","0","","","","","","7","","","","","","","","",""
"","","","","","single-stim-button","264","452285","0.0-2.0-56.8-0.8","60fdb65690ed7b149bebd1ad","A3","batch1","","834","tol_tohand","","","","tol_peg_3","834","834","0","[[2,3,0],[0,0],[0]]","9","[[2,3,0],[1,0],[0]]","15","0","","","","","","7","","","","","","","","",""
"","","","","","single-stim-button","265","453143","0.0-2.0-56.8-1.8","60fdb65690ed7b149bebd1ad","A3","batch1","","856","tol_toboard","","","","tol_peg_2","856","856","0","[[2,3,0],[1,0],[0]]","9","[[2,3,0],[1,0],[0]]","15","0","","","","","","7","","","","","","","","",""
"","","","","","poldrack-single-stim","266","454163","0.0-2.0-57.0","60fdb65690ed7b149bebd1ad","A3","batch1","","-1","tol_feedback","","","true","","1000","1000","500","","","","","","-1","none","true","5313","15436","","","","","","","","","",""
"","","","","","html-button-response","267","455097","0.0-2.0-58.0","60fdb65690ed7b149bebd1ad","A3","batch1","","932.5","tol_trial_num","<div class = centerbox><p class = center-block-text>problem <strong>17</strong> out of 25 problems</p></div>","0","","","","","","","","","","","","","","","","","","","","","","","","",""
"","","","","","single-stim-button","268","460018","0.0-2.0-59.0-0.0","60fdb65690ed7b149bebd1ad","A3","batch1","","4918","tol_tohand","","","","tol_peg_2","4918","4918","0","[[1,2,0],[0,0],[0]]","1","[[3,1,0],[2,0],[0]]","16","0","","","","","","5","","","","","","","","",""
"","","","","","single-stim-button","269","460799","0.0-2.0-59.0-1.0","60fdb65690ed7b149bebd1ad","A3","batch1","","778","tol_toboard","","","","tol_peg_3","778","778","0","[[1,2,0],[0,0],[3]]","1","[[3,1,0],[2,0],[0]]","16","0","","","","","","5","","","","","","","","",""
"","","","","","single-stim-button","270","461573","0.0-2.0-59.1-0.1","60fdb65690ed7b149bebd1ad","A3","batch1","","772","tol_tohand","","","","tol_peg_1","772","772","0","[[1,0,0],[0,0],[3]]","2","[[3,1,0],[2,0],[0]]","16","0","","","","","","5","","","","","","","","",""
"","","","","","single-stim-button","271","462503","0.0-2.0-59.1-1.1","60fdb65690ed7b149bebd1ad","A3","batch1","","927","tol_toboard","","","","tol_peg_2","927","927","0","[[1,0,0],[2,0],[3]]","2","[[3,1,0],[2,0],[0]]","16","0","","","","","","5","","","","","","","","",""
"","","","","","single-stim-button","272","464113","0.0-2.0-59.2-0.2","60fdb65690ed7b149bebd1ad","A3","batch1","","1607","tol_tohand","","","","tol_peg_1","1607","1607","0","[[0,0,0],[2,0],[3]]","3","[[3,1,0],[2,0],[0]]","16","0","","","","","","5","","","","","","","","",""
"","","","","","single-stim-button","273","464896","0.0-2.0-59.2-1.2","60fdb65690ed7b149bebd1ad","A3","batch1","","780","tol_toboard","","","","tol_peg_2","780","780","0","[[0,0,0],[2,1],[3]]","3","[[3,1,0],[2,0],[0]]","16","0","","","","","","5","","","","","","","","",""
"","","","","","single-stim-button","274","465579","0.0-2.0-59.3-0.3","60fdb65690ed7b149bebd1ad","A3","batch1","","679","tol_tohand","","","","tol_peg_3","679","679","0","[[0,0,0],[2,1],[0]]","4","[[3,1,0],[2,0],[0]]","16","0","","","","","","5","","","","","","","","",""
"","","","","","single-stim-button","275","466430","0.0-2.0-59.3-1.3","60fdb65690ed7b149bebd1ad","A3","batch1","","848","tol_toboard","","","","tol_peg_1","848","848","0","[[3,0,0],[2,1],[0]]","4","[[3,1,0],[2,0],[0]]","16","0","","","","","","5","","","","","","","","",""
"","","","","","single-stim-button","276","467381","0.0-2.0-59.4-0.4","60fdb65690ed7b149bebd1ad","A3","batch1","","947","tol_tohand","","","","tol_peg_2","947","947","0","[[3,0,0],[2,0],[0]]","5","[[3,1,0],[2,0],[0]]","16","0","","","","","","5","","","","","","","","",""
"","","","","","single-stim-button","277","468342","0.0-2.0-59.4-1.4","60fdb65690ed7b149bebd1ad","A3","batch1","","958","tol_toboard","","","","tol_peg_1","958","958","0","[[3,1,0],[2,0],[0]]","5","[[3,1,0],[2,0],[0]]","16","0","","","","","","5","","","","","","","","",""
"","","","","","poldrack-single-stim","278","469353","0.0-2.0-60.0","60fdb65690ed7b149bebd1ad","A3","batch1","","-1","tol_feedback","","","true","","1000","1000","500","","","","","","-1","none","true","4918","8923","","","","","","","","","",""
"","","","","","html-button-response","279","470441","0.0-2.0-61.0","60fdb65690ed7b149bebd1ad","A3","batch1","","1086.6999999284744","tol_trial_num","<div class = centerbox><p class = center-block-text>problem <strong>18</strong> out of 25 problems</p></div>","0","","","","","","","","","","","","","","","","","","","","","","","","",""
"","","","","","single-stim-button","280","474020","0.0-2.0-62.0-0.0","60fdb65690ed7b149bebd1ad","A3","batch1","","3574","tol_tohand","","","","tol_peg_1","3574","3574","0","[[1,0,0],[3,0],[0]]","1","[[3,0,0],[2,0],[1]]","17","0","","","","","","5","","","","","","","","",""
"","","","","","single-stim-button","281","475142","0.0-2.0-62.0-1.0","60fdb65690ed7b149bebd1ad","A3","batch1","","1119","tol_toboard","","","","tol_peg_2","1119","1119","0","[[1,0,0],[3,2],[0]]","1","[[3,0,0],[2,0],[1]]","17","0","","","","","","5","","","","","","","","",""
"","","","","","single-stim-button","282","475798","0.0-2.0-62.1-0.1","60fdb65690ed7b149bebd1ad","A3","batch1","","653","tol_tohand","","","","tol_peg_1","653","653","0","[[0,0,0],[3,2],[0]]","2","[[3,0,0],[2,0],[1]]","17","0","","","","","","5","","","","","","","","",""
"","","","","","single-stim-button","283","476693","0.0-2.0-62.1-1.1","60fdb65690ed7b149bebd1ad","A3","batch1","","891","tol_toboard","","","","tol_peg_3","891","891","0","[[0,0,0],[3,2],[1]]","2","[[3,0,0],[2,0],[1]]","17","0","","","","","","5","","","","","","","","",""
"","","","","","single-stim-button","284","478038","0.0-2.0-62.2-0.2","60fdb65690ed7b149bebd1ad","A3","batch1","","1342","tol_tohand","","","","tol_peg_2","1342","1342","0","[[0,0,0],[3,0],[1]]","3","[[3,0,0],[2,0],[1]]","17","0","","","","","","5","","","","","","","","",""
"","","","","","single-stim-button","285","478987","0.0-2.0-62.2-1.2","60fdb65690ed7b149bebd1ad","A3","batch1","","947","tol_toboard","","","","tol_peg_1","947","947","0","[[2,0,0],[3,0],[1]]","3","[[3,0,0],[2,0],[1]]","17","0","","","","","","5","","","","","","","","",""
"","","","","","single-stim-button","286","480668","0.0-2.0-62.3-0.3","60fdb65690ed7b149bebd1ad","A3","batch1","","1677","tol_tohand","","","","tol_peg_3","1677","1677","0","[[2,0,0],[3,0],[0]]","4","[[3,0,0],[2,0],[1]]","17","0","","","","","","5","","","","","","","","",""
"","","","","","single-stim-button","287","481701","0.0-2.0-62.3-1.3","60fdb65690ed7b149bebd1ad","A3","batch1","","1028","tol_toboard","","","","tol_peg_1","1028","1028","0","[[2,1,0],[3,0],[0]]","4","[[3,0,0],[2,0],[1]]","17","0","","","","","","5","","","","","","","","",""
"","","","","","single-stim-button","288","482318","0.0-2.0-62.4-0.4","60fdb65690ed7b149bebd1ad","A3","batch1","","615","tol_tohand","","","","tol_peg_2","615","615","0","[[2,1,0],[0,0],[0]]","5","[[3,0,0],[2,0],[1]]","17","0","","","","","","5","","","","","","","","",""
"","","","","","single-stim-button","289","483155","0.0-2.0-62.4-1.4","60fdb65690ed7b149bebd1ad","A3","batch1","","836","tol_toboard","","","","tol_peg_3","836","836","0","[[2,1,0],[0,0],[3]]","5","[[3,0,0],[2,0],[1]]","17","0","","","","","","5","","","","","","","","",""
"","","","","","single-stim-button","290","485297","0.0-2.0-62.5-0.5","60fdb65690ed7b149bebd1ad","A3","batch1","","2140","tol_tohand","","","","tol_peg_1","2140","2140","0","[[2,0,0],[0,0],[3]]","6","[[3,0,0],[2,0],[1]]","17","0","","","","","","5","","","","","","","","",""
"","","","","","single-stim-button","291","486615","0.0-2.0-62.5-1.5","60fdb65690ed7b149bebd1ad","A3","batch1","","1316","tol_toboard","","","","tol_peg_2","1316","1316","0","[[2,0,0],[1,0],[3]]","6","[[3,0,0],[2,0],[1]]","17","0","","","","","","5","","","","","","","","",""
"","","","","","single-stim-button","292","487425","0.0-2.0-62.6-0.6","60fdb65690ed7b149bebd1ad","A3","batch1","","808","tol_tohand","","","","tol_peg_1","808","808","0","[[0,0,0],[1,0],[3]]","7","[[3,0,0],[2,0],[1]]","17","0","","","","","","5","","","","","","","","",""
"","","","","","single-stim-button","293","488538","0.0-2.0-62.6-1.6","60fdb65690ed7b149bebd1ad","A3","batch1","","1110","tol_toboard","","","","tol_peg_2","1110","1110","0","[[0,0,0],[1,2],[3]]","7","[[3,0,0],[2,0],[1]]","17","0","","","","","","5","","","","","","","","",""
"","","","","","single-stim-button","294","489339","0.0-2.0-62.7-0.7","60fdb65690ed7b149bebd1ad","A3","batch1","","799","tol_tohand","","","","tol_peg_3","799","799","0","[[0,0,0],[1,2],[0]]","8","[[3,0,0],[2,0],[1]]","17","0","","","","","","5","","","","","","","","",""
"","","","","","single-stim-button","295","490380","0.0-2.0-62.7-1.7","60fdb65690ed7b149bebd1ad","A3","batch1","","1039","tol_toboard","","","","tol_peg_1","1039","1039","0","[[3,0,0],[1,2],[0]]","8","[[3,0,0],[2,0],[1]]","17","0","","","","","","5","","","","","","","","",""
"","","","","","single-stim-button","296","491613","0.0-2.0-62.8-0.8","60fdb65690ed7b149bebd1ad","A3","batch1","","1230","tol_tohand","","","","tol_peg_2","1230","1230","0","[[3,0,0],[1,0],[0]]","9","[[3,0,0],[2,0],[1]]","17","0","","","","","","5","","","","","","","","",""
"","","","","","single-stim-button","297","492527","0.0-2.0-62.8-1.8","60fdb65690ed7b149bebd1ad","A3","batch1","","910","tol_toboard","","","","tol_peg_1","910","910","0","[[3,2,0],[1,0],[0]]","9","[[3,0,0],[2,0],[1]]","17","0","","","","","","5","","","","","","","","",""
"","","","","","single-stim-button","298","493151","0.0-2.0-62.9-0.9","60fdb65690ed7b149bebd1ad","A3","batch1","","620","tol_tohand","","","","tol_peg_2","620","620","0","[[3,2,0],[0,0],[0]]","10","[[3,0,0],[2,0],[1]]","17","0","","","","","","5","","","","","","","","",""
"","","","","","single-stim-button","299","493936","0.0-2.0-62.9-1.9","60fdb65690ed7b149bebd1ad","A3","batch1","","783","tol_toboard","","","","tol_peg_3","783","783","0","[[3,2,0],[0,0],[1]]","10","[[3,0,0],[2,0],[1]]","17","0","","","","","","5","","","","","","","","",""
"","","","","","single-stim-button","300","494760","0.0-2.0-62.10-0.10","60fdb65690ed7b149bebd1ad","A3","batch1","","822","tol_tohand","","","","tol_peg_1","822","822","0","[[3,0,0],[0,0],[1]]","11","[[3,0,0],[2,0],[1]]","17","0","","","","","","5","","","","","","","","",""
"","","","","","single-stim-button","301","495571","0.0-2.0-62.10-1.10","60fdb65690ed7b149bebd1ad","A3","batch1","","806","tol_toboard","","","","tol_peg_2","806","806","0","[[3,0,0],[2,0],[1]]","11","[[3,0,0],[2,0],[1]]","17","0","","","","","","5","","","","","","","","",""
"","","","","","poldrack-single-stim","302","496576","0.0-2.0-63.0","60fdb65690ed7b149bebd1ad","A3","batch1","","-1","tol_feedback","","","true","","1000","1000","500","","","","","","-1","none","true","3574","14280","","","","","","","","","",""
"","","","","","html-button-response","303","497662","0.0-2.0-64.0","60fdb65690ed7b149bebd1ad","A3","batch1","","1083.3999999761581","tol_trial_num","<div class = centerbox><p class = center-block-text>problem <strong>19</strong> out of 25 problems</p></div>","0","","","","","","","","","","","","","","","","","","","","","","","","",""
"","","","","","single-stim-button","304","501408","0.0-2.0-65.0-0.0","60fdb65690ed7b149bebd1ad","A3","batch1","","3743","tol_tohand","","","","tol_peg_1","3743","3743","0","[[1,0,0],[3,0],[0]]","1","[[0,0,0],[1,2],[3]]","18","0","","","","","","7","","","","","","","","",""
"","","","","","single-stim-button","305","504053","0.0-2.0-65.0-1.0","60fdb65690ed7b149bebd1ad","A3","batch1","","2641","tol_toboard","","","","tol_peg_3","2641","2641","0","[[1,0,0],[3,0],[2]]","1","[[0,0,0],[1,2],[3]]","18","0","","","","","","7","","","","","","","","",""
"","","","","","single-stim-button","306","505496","0.0-2.0-65.1-0.1","60fdb65690ed7b149bebd1ad","A3","batch1","","1439","tol_tohand","","","","tol_peg_1","1439","1439","0","[[0,0,0],[3,0],[2]]","2","[[0,0,0],[1,2],[3]]","18","0","","","","","","7","","","","","","","","",""
"","","","","","single-stim-button","307","506863","0.0-2.0-65.1-1.1","60fdb65690ed7b149bebd1ad","A3","batch1","","1364","tol_toboard","","","","tol_peg_2","1364","1364","0","[[0,0,0],[3,1],[2]]","2","[[0,0,0],[1,2],[3]]","18","0","","","","","","7","","","","","","","","",""
"","","","","","single-stim-button","308","507511","0.0-2.0-65.2-0.2","60fdb65690ed7b149bebd1ad","A3","batch1","","646","tol_tohand","","","","tol_peg_3","646","646","0","[[0,0,0],[3,1],[0]]","3","[[0,0,0],[1,2],[3]]","18","0","","","","","","7","","","","","","","","",""
"","","","","","single-stim-button","309","508401","0.0-2.0-65.2-1.2","60fdb65690ed7b149bebd1ad","A3","batch1","","887","tol_toboard","","","","tol_peg_1","887","887","0","[[2,0,0],[3,1],[0]]","3","[[0,0,0],[1,2],[3]]","18","0","","","","","","7","","","","","","","","",""
"","","","","","single-stim-button","310","509361","0.0-2.0-65.3-0.3","60fdb65690ed7b149bebd1ad","A3","batch1","","957","tol_tohand","","","","tol_peg_2","957","957","0","[[2,0,0],[3,0],[0]]","4","[[0,0,0],[1,2],[3]]","18","0","","","","","","7","","","","","","","","",""
"","","","","","single-stim-button","311","510799","0.0-2.0-65.3-1.3","60fdb65690ed7b149bebd1ad","A3","batch1","","1434","tol_toboard","","","","tol_peg_3","1434","1434","0","[[2,0,0],[3,0],[1]]","4","[[0,0,0],[1,2],[3]]","18","0","","","","","","7","","","","","","","","",""
"","","","","","single-stim-button","312","511642","0.0-2.0-65.4-0.4","60fdb65690ed7b149bebd1ad","A3","batch1","","841","tol_tohand","","","","tol_peg_2","841","841","0","[[2,0,0],[0,0],[1]]","5","[[0,0,0],[1,2],[3]]","18","0","","","","","","7","","","","","","","","",""
"","","","","","single-stim-button","313","512508","0.0-2.0-65.4-1.4","60fdb65690ed7b149bebd1ad","A3","batch1","","864","tol_toboard","","","","tol_peg_1","864","864","0","[[2,3,0],[0,0],[1]]","5","[[0,0,0],[1,2],[3]]","18","0","","","","","","7","","","","","","","","",""
"","","","","","single-stim-button","314","513562","0.0-2.0-65.5-0.5","60fdb65690ed7b149bebd1ad","A3","batch1","","1050","tol_tohand","","","","tol_peg_3","1050","1050","0","[[2,3,0],[0,0],[0]]","6","[[0,0,0],[1,2],[3]]","18","0","","","","","","7","","","","","","","","",""
"","","","","","single-stim-button","315","514230","0.0-2.0-65.5-1.5","60fdb65690ed7b149bebd1ad","A3","batch1","","666","tol_toboard","","","","tol_peg_2","666","666","0","[[2,3,0],[1,0],[0]]","6","[[0,0,0],[1,2],[3]]","18","0","","","","","","7","","","","","","","","",""
"","","","","","single-stim-button","316","514842","0.0-2.0-65.6-0.6","60fdb65690ed7b149bebd1ad","A3","batch1","","608","tol_tohand","","","","tol_peg_1","608","608","0","[[2,0,0],[1,0],[0]]","7","[[0,0,0],[1,2],[3]]","18","0","","","","","","7","","","","","","","","",""
"","","","","","single-stim-button","317","515525","0.0-2.0-65.6-1.6","60fdb65690ed7b149bebd1ad","A3","batch1","","682","tol_toboard","","","","tol_peg_3","682","682","0","[[2,0,0],[1,0],[3]]","7","[[0,0,0],[1,2],[3]]","18","0","","","","","","7","","","","","","","","",""
"","","","","","single-stim-button","318","516188","0.0-2.0-65.7-0.7","60fdb65690ed7b149bebd1ad","A3","batch1","","661","tol_tohand","","","","tol_peg_1","661","661","0","[[0,0,0],[1,0],[3]]","8","[[0,0,0],[1,2],[3]]","18","0","","","","","","7","","","","","","","","",""
"","","","","","single-stim-button","319","516965","0.0-2.0-65.7-1.7","60fdb65690ed7b149bebd1ad","A3","batch1","","774","tol_toboard","","","","tol_peg_2","774","774","0","[[0,0,0],[1,2],[3]]","8","[[0,0,0],[1,2],[3]]","18","0","","","","","","7","","","","","","","","",""
"","","","","","poldrack-single-stim","320","517971","0.0-2.0-66.0","60fdb65690ed7b149bebd1ad","A3","batch1","","-1","tol_feedback","","","true","","1000","1000","500","","","","","","-1","none","true","3743","9945","","","","","","","","","",""
"","","","","","html-button-response","321","519073","0.0-2.0-67.0","60fdb65690ed7b149bebd1ad","A3","batch1","","1099.2000000476837","tol_trial_num","<div class = centerbox><p class = center-block-text>problem <strong>20</strong> out of 25 problems</p></div>","0","","","","","","","","","","","","","","","","","","","","","","","","",""
"","","","","","single-stim-button","322","522073","0.0-2.0-68.0-0.0","60fdb65690ed7b149bebd1ad","A3","batch1","","2997","tol_tohand","","","","tol_peg_1","2997","2997","0","[[1,0,0],[3,0],[0]]","1","[[2,1,0],[0,0],[3]]","19","0","","","","","","5","","","","","","","","",""
"","","","","","single-stim-button","323","523705","0.0-2.0-68.0-1.0","60fdb65690ed7b149bebd1ad","A3","batch1","","1629","tol_toboard","","","","tol_peg_3","1629","1629","0","[[1,0,0],[3,0],[2]]","1","[[2,1,0],[0,0],[3]]","19","0","","","","","","5","","","","","","","","",""
"","","","","","single-stim-button","324","524423","0.0-2.0-68.1-0.1","60fdb65690ed7b149bebd1ad","A3","batch1","","714","tol_tohand","","","","tol_peg_1","714","714","0","[[0,0,0],[3,0],[2]]","2","[[2,1,0],[0,0],[3]]","19","0","","","","","","5","","","","","","","","",""
"","","","","","single-stim-button","325","525506","0.0-2.0-68.1-1.1","60fdb65690ed7b149bebd1ad","A3","batch1","","1080","tol_toboard","","","","tol_peg_2","1080","1080","0","[[0,0,0],[3,1],[2]]","2","[[2,1,0],[0,0],[3]]","19","0","","","","","","5","","","","","","","","",""
"","","","","","single-stim-button","326","526189","0.0-2.0-68.2-0.2","60fdb65690ed7b149bebd1ad","A3","batch1","","681","tol_tohand","","","","tol_peg_3","681","681","0","[[0,0,0],[3,1],[0]]","3","[[2,1,0],[0,0],[3]]","19","0","","","","","","5","","","","","","","","",""
"","","","","","single-stim-button","327","527192","0.0-2.0-68.2-1.2","60fdb65690ed7b149bebd1ad","A3","batch1","","999","tol_toboard","","","","tol_peg_1","999","999","0","[[2,0,0],[3,1],[0]]","3","[[2,1,0],[0,0],[3]]","19","0","","","","","","5","","","","","","","","",""
"","","","","","single-stim-button","328","527827","0.0-2.0-68.3-0.3","60fdb65690ed7b149bebd1ad","A3","batch1","","631","tol_tohand","","","","tol_peg_2","631","631","0","[[2,0,0],[3,0],[0]]","4","[[2,1,0],[0,0],[3]]","19","0","","","","","","5","","","","","","","","",""
"","","","","","single-stim-button","329","528672","0.0-2.0-68.3-1.3","60fdb65690ed7b149bebd1ad","A3","batch1","","843","tol_toboard","","","","tol_peg_1","843","843","0","[[2,1,0],[3,0],[0]]","4","[[2,1,0],[0,0],[3]]","19","0","","","","","","5","","","","","","","","",""
"","","","","","single-stim-button","330","529383","0.0-2.0-68.4-0.4","60fdb65690ed7b149bebd1ad","A3","batch1","","708","tol_tohand","","","","tol_peg_2","708","708","0","[[2,1,0],[0,0],[0]]","5","[[2,1,0],[0,0],[3]]","19","0","","","","","","5","","","","","","","","",""
"","","","","","single-stim-button","331","530143","0.0-2.0-68.4-1.4","60fdb65690ed7b149bebd1ad","A3","batch1","","758","tol_toboard","","","","tol_peg_3","758","758","0","[[2,1,0],[0,0],[3]]","5","[[2,1,0],[0,0],[3]]","19","0","","","","","","5","","","","","","","","",""
"","","","","","poldrack-single-stim","332","531151","0.0-2.0-69.0","60fdb65690ed7b149bebd1ad","A3","batch1","","-1","tol_feedback","","","true","","1000","1000","500","","","","","","-1","none","true","2997","5731","","","","","","","","","",""
"","","","","","html-button-response","333","531944","0.0-2.0-70.0","60fdb65690ed7b149bebd1ad","A3","batch1","","791.1000000238419","tol_trial_num","<div class = centerbox><p class = center-block-text>problem <strong>21</strong> out of 25 problems</p></div>","0","","","","","","","","","","","","","","","","","","","","","","","","",""
"","","","","","single-stim-button","334","535991","0.0-2.0-71.0-0.0","60fdb65690ed7b149bebd1ad","A3","batch1","","4044","tol_tohand","","","","tol_peg_1","4044","4044","0","[[1,0,0],[3,0],[0]]","1","[[3,2,0],[0,0],[1]]","20","0","","","","","","6","","","","","","","","",""
"","","","","","single-stim-button","335","538301","0.0-2.0-71.0-1.0","60fdb65690ed7b149bebd1ad","A3","batch1","","2306","tol_toboard","","","","tol_peg_3","2306","2306","0","[[1,0,0],[3,0],[2]]","1","[[3,2,0],[0,0],[1]]","20","0","","","","","","6","","","","","","","","",""
"","","","","","single-stim-button","336","539195","0.0-2.0-71.1-0.1","60fdb65690ed7b149bebd1ad","A3","batch1","","890","tol_tohand","","","","tol_peg_1","890","890","0","[[0,0,0],[3,0],[2]]","2","[[3,2,0],[0,0],[1]]","20","0","","","","","","6","","","","","","","","",""
"","","","","","single-stim-button","337","539949","0.0-2.0-71.1-1.1","60fdb65690ed7b149bebd1ad","A3","batch1","","751","tol_toboard","","","","tol_peg_2","751","751","0","[[0,0,0],[3,1],[2]]","2","[[3,2,0],[0,0],[1]]","20","0","","","","","","6","","","","","","","","",""
"","","","","","single-stim-button","338","541873","0.0-2.0-71.2-0.2","60fdb65690ed7b149bebd1ad","A3","batch1","","1922","tol_tohand","","","","tol_peg_3","1922","1922","0","[[0,0,0],[3,1],[0]]","3","[[3,2,0],[0,0],[1]]","20","0","","","","","","6","","","","","","","","",""
"","","","","","single-stim-button","339","542609","0.0-2.0-71.2-1.2","60fdb65690ed7b149bebd1ad","A3","batch1","","732","tol_toboard","","","","tol_peg_1","732","732","0","[[2,0,0],[3,1],[0]]","3","[[3,2,0],[0,0],[1]]","20","0","","","","","","6","","","","","","","","",""
"","","","","","single-stim-button","340","543213","0.0-2.0-71.3-0.3","60fdb65690ed7b149bebd1ad","A3","batch1","","602","tol_tohand","","","","tol_peg_2","602","602","0","[[2,0,0],[3,0],[0]]","4","[[3,2,0],[0,0],[1]]","20","0","","","","","","6","","","","","","","","",""
"","","","","","single-stim-button","341","544427","0.0-2.0-71.3-1.3","60fdb65690ed7b149bebd1ad","A3","batch1","","1210","tol_toboard","","","","tol_peg_3","1210","1210","0","[[2,0,0],[3,0],[1]]","4","[[3,2,0],[0,0],[1]]","20","0","","","","","","6","","","","","","","","",""
"","","","","","single-stim-button","342","545061","0.0-2.0-71.4-0.4","60fdb65690ed7b149bebd1ad","A3","batch1","","632","tol_tohand","","","","tol_peg_2","632","632","0","[[2,0,0],[0,0],[1]]","5","[[3,2,0],[0,0],[1]]","20","0","","","","","","6","","","","","","","","",""
"","","","","","single-stim-button","343","545921","0.0-2.0-71.4-1.4","60fdb65690ed7b149bebd1ad","A3","batch1","","856","tol_toboard","","","","tol_peg_1","856","856","0","[[2,3,0],[0,0],[1]]","5","[[3,2,0],[0,0],[1]]","20","0","","","","","","6","","","","","","","","",""
"","","","","","single-stim-button","344","547839","0.0-2.0-71.5-0.5","60fdb65690ed7b149bebd1ad","A3","batch1","","1915","tol_tohand","","","","tol_peg_1","1915","1915","0","[[2,0,0],[0,0],[1]]","6","[[3,2,0],[0,0],[1]]","20","0","","","","","","6","","","","","","","","",""
"","","","","","single-stim-button","345","551377","0.0-2.0-71.5-1.5","60fdb65690ed7b149bebd1ad","A3","batch1","","3534","tol_toboard","","","","tol_peg_2","3534","3534","0","[[2,0,0],[3,0],[1]]","6","[[3,2,0],[0,0],[1]]","20","0","","","","","","6","","","","","","","","",""
"","","","","","single-stim-button","346","551964","0.0-2.0-71.6-0.6","60fdb65690ed7b149bebd1ad","A3","batch1","","582","tol_tohand","","","","tol_peg_1","582","582","0","[[0,0,0],[3,0],[1]]","7","[[3,2,0],[0,0],[1]]","20","0","","","","","","6","","","","","","","","",""
"","","","","","single-stim-button","347","552709","0.0-2.0-71.6-1.6","60fdb65690ed7b149bebd1ad","A3","batch1","","742","tol_toboard","","","","tol_peg_2","742","742","0","[[0,0,0],[3,2],[1]]","7","[[3,2,0],[0,0],[1]]","20","0","","","","","","6","","","","","","","","",""
"","","","","","single-stim-button","348","553428","0.0-2.0-71.7-0.7","60fdb65690ed7b149bebd1ad","A3","batch1","","714","tol_tohand","","","","tol_peg_3","714","714","0","[[0,0,0],[3,2],[0]]","8","[[3,2,0],[0,0],[1]]","20","0","","","","","","6","","","","","","","","",""
"","","","","","single-stim-button","349","554487","0.0-2.0-71.7-1.7","60fdb65690ed7b149bebd1ad","A3","batch1","","1057","tol_toboard","","","","tol_peg_1","1057","1057","0","[[1,0,0],[3,2],[0]]","8","[[3,2,0],[0,0],[1]]","20","0","","","","","","6","","","","","","","","",""
"","","","","","single-stim-button","350","555451","0.0-2.0-71.8-0.8","60fdb65690ed7b149bebd1ad","A3","batch1","","960","tol_tohand","","","","tol_peg_2","960","960","0","[[1,0,0],[3,0],[0]]","9","[[3,2,0],[0,0],[1]]","20","0","","","","","","6","","","","","","","","",""
"","","","","","single-stim-button","351","556393","0.0-2.0-71.8-1.8","60fdb65690ed7b149bebd1ad","A3","batch1","","940","tol_toboard","","","","tol_peg_3","940","940","0","[[1,0,0],[3,0],[2]]","9","[[3,2,0],[0,0],[1]]","20","0","","","","","","6","","","","","","","","",""
"","","","","","single-stim-button","352","558681","0.0-2.0-71.9-0.9","60fdb65690ed7b149bebd1ad","A3","batch1","","2286","tol_tohand","","","","tol_peg_2","2286","2286","0","[[1,0,0],[0,0],[2]]","10","[[3,2,0],[0,0],[1]]","20","0","","","","","","6","","","","","","","","",""
"","","","","","single-stim-button","353","559589","0.0-2.0-71.9-1.9","60fdb65690ed7b149bebd1ad","A3","batch1","","905","tol_toboard","","","","tol_peg_1","905","905","0","[[1,3,0],[0,0],[2]]","10","[[3,2,0],[0,0],[1]]","20","0","","","","","","6","","","","","","","","",""
