"success","timeout","failed_images","failed_audio","failed_video","trial_type","trial_index","time_elapsed","internal_node_id","subject_id","study_id","session_id","view_history","rt","task","stimulus","response","correct","mouse_click","stim_duration","block_duration","timing_post_trial","current_position","tol_num_moves_made","tol_target","tol_problem_id","tol_rt","key_press","possible_responses","tol_correct","preplanning","tol_rt_per_trial","tol_min_moves","answer","item","fiar_detect_rt","fiar_detect_correct","total_correct_fiar_detect","post_trial_gap","choices","spm_correct","spm_rt"
"true","false","[]","[]","[]","preload","0","1083","0.0-0.0","60fd01cc86bb3e402db85e93","A3","batch1","","","","","","","","","","","","","","","","","","","","","","","","","","","","","",""
"true","","","","","fullscreen","1","9295","0.0-1.0-0.0","60fd01cc86bb3e402db85e93","A3","batch1","","","","","","","","","","","","","","","","","","","","","","","","","","","","","",""
"true","","","","","fullscreen","2","11869","0.0-2.0-0.0","60fd01cc86bb3e402db85e93","A3","batch1","","","","","","","","","","","","","","","","","","","","","","","","","","","","","",""
"","","","","","instructions","3","56359","0.0-2.0-1.0-0.0-0.0","60fd01cc86bb3e402db85e93","A3","batch1","[{""page_index"":0,""viewing_time"":12251.900000095367},{""page_index"":1,""viewing_time"":5178.400000095367},{""page_index"":2,""viewing_time"":3369.5999999046326},{""page_index"":3,""viewing_time"":8205},{""page_index"":4,""viewing_time"":2386.9000000953674},{""page_index"":5,""viewing_time"":9624.299999713898},{""page_index"":6,""viewing_time"":3472.2000002861023}]","44488.5","tol-instructions","","","","","","","","","","","","","","","","","","","","","","","","","","",""
"","","","","","html-button-response","4","57420","0.0-2.0-1.0-1.0-0.0","60fd01cc86bb3e402db85e93","A3","batch1","","1060.8000001907349","tol_enter_quiz","<p class=block-text> Let's answer a few questions <br>","0","","","","","","","","","","","","","","","","","","","","","","","","",""
"","","","","","html-button-response","5","61130","0.0-2.0-1.0-1.0-1.0","60fd01cc86bb3e402db85e93","A3","batch1","","3708.0999999046326","tol_quiz","<p class = block-text>True or False: You can only move the ball on top of a peg. <br></p>","0","true","","","","","","","","","","","","","","","","","","","","","","","",""
"","","","","","html-button-response","6","62070","0.0-2.0-1.0-1.0-2.0","60fd01cc86bb3e402db85e93","A3","batch1","","938.8000001907349","tol_quiz_feedback","<p class = block-text>Correct! You can only move the ball on top of a peg.</p>","0","","","","","","","","","","","","","","","","","","","","","","","","",""
"","","","","","html-button-response","7","64720","0.0-2.0-1.0-1.0-3.0","60fd01cc86bb3e402db85e93","A3","batch1","","2649.7000002861023","tol_quiz","<p class = block-text>True or False: You should try to match your board with the target board with fewest moves possible. <br></p>","0","true","","","","","","","","","","","","","","","","","","","","","","","",""
"","","","","","html-button-response","8","65542","0.0-2.0-1.0-1.0-4.0","60fd01cc86bb3e402db85e93","A3","batch1","","821.4000000953674","tol_quiz_feedback","<p class = block-text>Correct! </p>","0","","","","","","","","","","","","","","","","","","","","","","","","",""
"","","","","","html-button-response","9","67075","0.0-2.0-2.0","60fd01cc86bb3e402db85e93","A3","batch1","","1531.2000002861023","","<p class=block-text> Now that you've understood the game, let's practice a few easier examples before we start!<br> <br>","0","","","","","","","","","","","","","","","","","","","","","","","","",""
"","","","","","single-stim-button","10","71183","0.0-2.0-3.0-0.0","60fd01cc86bb3e402db85e93","A3","batch1","","4107","tol_practice","","","","tol_peg_2","4107","4107","0","[[1,2,0],[0,0],[0]]","1","[[1,2,0],[0,0],[3]]","practice","4107","","","","","","","","","","","","","","",""
"","","","","","single-stim-button","11","72590","0.0-2.0-3.0-1.0","60fd01cc86bb3e402db85e93","A3","batch1","","1406","tol_practice","","","","tol_peg_3","1406","1406","0","[[1,2,0],[0,0],[3]]","1","[[1,2,0],[0,0],[3]]","practice","1406","","","","","","","","","","","","","","",""
"","","","","","poldrack-single-stim","12","73592","0.0-2.0-4.0","60fd01cc86bb3e402db85e93","A3","batch1","","-1","tol_feedback","","","true","","1000","1000","500","","","","","","-1","none","true","","0","","","","","","","","","",""
"","","","","","single-stim-button","13","77425","0.0-2.0-5.0-0.0","60fd01cc86bb3e402db85e93","A3","batch1","","3833","tol_practice","","","","tol_peg_1","3833","3833","0","[[1,0,0],[3,0],[0]]","2","[[0,0,0],[3,1],[2]]","practice","3833","","","","","","","","","","","","","","",""
"","","","","","single-stim-button","14","78560","0.0-2.0-5.0-1.0","60fd01cc86bb3e402db85e93","A3","batch1","","1133","tol_practice","","","","tol_peg_3","1133","1133","0","[[1,0,0],[3,0],[2]]","2","[[0,0,0],[3,1],[2]]","practice","1133","","","","","","","","","","","","","","",""
"","","","","","single-stim-button","15","79501","0.0-2.0-5.1-0.1","60fd01cc86bb3e402db85e93","A3","batch1","","940","tol_practice","","","","tol_peg_1","940","940","0","[[0,0,0],[3,0],[2]]","3","[[0,0,0],[3,1],[2]]","practice","940","","","","","","","","","","","","","","",""
"","","","","","single-stim-button","16","80329","0.0-2.0-5.1-1.1","60fd01cc86bb3e402db85e93","A3","batch1","","828","tol_practice","","","","tol_peg_2","828","828","0","[[0,0,0],[3,1],[2]]","3","[[0,0,0],[3,1],[2]]","practice","828","","","","","","","","","","","","","","",""
"","","","","","poldrack-single-stim","17","81336","0.0-2.0-6.0","60fd01cc86bb3e402db85e93","A3","batch1","","-1","tol_feedback","","","true","","1000","1000","500","","","","","","-1","none","true","","0","","","","","","","","","",""
"","","","","","single-stim-button","18","84995","0.0-2.0-7.0-0.0","60fd01cc86bb3e402db85e93","A3","batch1","","3658","tol_practice","","","","tol_peg_2","3658","3658","0","[[1,2,0],[0,0],[0]]","4","[[1,0,0],[2,0],[3]]","practice","3658","","","","","","","","","","","","","","",""
"","","","","","single-stim-button","19","86235","0.0-2.0-7.0-1.0","60fd01cc86bb3e402db85e93","A3","batch1","","1238","tol_practice","","","","tol_peg_3","1238","1238","0","[[1,2,0],[0,0],[3]]","4","[[1,0,0],[2,0],[3]]","practice","1238","","","","","","","","","","","","","","",""
"","","","","","single-stim-button","20","87026","0.0-2.0-7.1-0.1","60fd01cc86bb3e402db85e93","A3","batch1","","791","tol_practice","","","","tol_peg_1","791","791","0","[[1,0,0],[0,0],[3]]","5","[[1,0,0],[2,0],[3]]","practice","791","","","","","","","","","","","","","","",""
"","","","","","single-stim-button","21","87944","0.0-2.0-7.1-1.1","60fd01cc86bb3e402db85e93","A3","batch1","","917","tol_practice","","","","tol_peg_2","917","917","0","[[1,0,0],[2,0],[3]]","5","[[1,0,0],[2,0],[3]]","practice","917","","","","","","","","","","","","","","",""
"","","","","","poldrack-single-stim","22","88961","0.0-2.0-8.0","60fd01cc86bb3e402db85e93","A3","batch1","","-1","tol_feedback","","","true","","1000","1000","500","","","","","","-1","none","true","","0","","","","","","","","","",""
"","","","","","html-button-response","23","90467","0.0-2.0-9.0","60fd01cc86bb3e402db85e93","A3","batch1","","1505","tol_instruction","<div class = centerbox><p class = center-block-text>Great job! You are done with practice trials<br>You are about to start official trials.<br> <br> Problem <strong>1</strong> out of 25 problems</p></div>","0","","","","","","","","","","","","","","","","","","","","","","","","",""
"","","","","","single-stim-button","24","94845","0.0-2.0-10.0-0.0","60fd01cc86bb3e402db85e93","A3","batch1","","3369","tol_tohand","","","","tol_peg_1","3369","3369","0","[[1,0,0],[3,0],[0]]","1","[[1,3,0],[2,0],[0]]","0","0","","","","","","3","","","","","","","","",""
"","","","","","single-stim-button","25","96925","0.0-2.0-10.0-1.0","60fd01cc86bb3e402db85e93","A3","batch1","","2080","tol_toboard","","","","tol_peg_3","2080","2080","0","[[1,0,0],[3,0],[2]]","1","[[1,3,0],[2,0],[0]]","0","0","","","","","","3","","","","","","","","",""
"","","","","","single-stim-button","26","97597","0.0-2.0-10.1-0.1","60fd01cc86bb3e402db85e93","A3","batch1","","671","tol_tohand","","","","tol_peg_2","671","671","0","[[1,0,0],[0,0],[2]]","2","[[1,3,0],[2,0],[0]]","0","0","","","","","","3","","","","","","","","",""
"","","","","","single-stim-button","27","99072","0.0-2.0-10.1-1.1","60fd01cc86bb3e402db85e93","A3","batch1","","1474","tol_toboard","","","","tol_peg_1","1474","1474","0","[[1,3,0],[0,0],[2]]","2","[[1,3,0],[2,0],[0]]","0","0","","","","","","3","","","","","","","","",""
"","","","","","single-stim-button","28","99980","0.0-2.0-10.2-0.2","60fd01cc86bb3e402db85e93","A3","batch1","","907","tol_tohand","","","","tol_peg_3","907","907","0","[[1,3,0],[0,0],[0]]","3","[[1,3,0],[2,0],[0]]","0","0","","","","","","3","","","","","","","","",""
"","","","","","single-stim-button","29","100877","0.0-2.0-10.2-1.2","60fd01cc86bb3e402db85e93","A3","batch1","","897","tol_toboard","","","","tol_peg_2","897","897","0","[[1,3,0],[2,0],[0]]","3","[[1,3,0],[2,0],[0]]","0","0","","","","","","3","","","","","","","","",""
"","","","","","poldrack-single-stim","30","101880","0.0-2.0-11.0","60fd01cc86bb3e402db85e93","A3","batch1","","-1","tol_feedback","","","true","","1000","1000","500","","","","","","-1","none","true","3369","4947","","","","","","","","","",""
"","","","","","html-button-response","31","102900","0.0-2.0-12.0","60fd01cc86bb3e402db85e93","A3","batch1","","1019.1999998092651","tol_trial_num","<div class = centerbox><p class = center-block-text>problem <strong>2</strong> out of 25 problems</p></div>","0","","","","","","","","","","","","","","","","","","","","","","","","",""
"","","","","","single-stim-button","32","110945","0.0-2.0-13.0-0.0","60fd01cc86bb3e402db85e93","A3","batch1","","8044","tol_tohand","","","","tol_peg_1","8044","8044","0","[[1,0,0],[3,0],[0]]","1","[[2,1,3],[0,0],[0]]","1","0","","","","","","5","","","","","","","","",""
"","","","","","single-stim-button","33","113009","0.0-2.0-13.0-1.0","60fd01cc86bb3e402db85e93","A3","batch1","","2064","tol_toboard","","","","tol_peg_2","2064","2064","0","[[1,0,0],[3,2],[0]]","1","[[2,1,3],[0,0],[0]]","1","0","","","","","","5","","","","","","","","",""
"","","","","","single-stim-button","34","113654","0.0-2.0-13.1-0.1","60fd01cc86bb3e402db85e93","A3","batch1","","643","tol_tohand","","","","tol_peg_1","643","643","0","[[0,0,0],[3,2],[0]]","2","[[2,1,3],[0,0],[0]]","1","0","","","","","","5","","","","","","","","",""
"","","","","","single-stim-button","35","114734","0.0-2.0-13.1-1.1","60fd01cc86bb3e402db85e93","A3","batch1","","1080","tol_toboard","","","","tol_peg_3","1080","1080","0","[[0,0,0],[3,2],[1]]","2","[[2,1,3],[0,0],[0]]","1","0","","","","","","5","","","","","","","","",""
"","","","","","single-stim-button","36","115378","0.0-2.0-13.2-0.2","60fd01cc86bb3e402db85e93","A3","batch1","","643","tol_tohand","","","","tol_peg_2","643","643","0","[[0,0,0],[3,0],[1]]","3","[[2,1,3],[0,0],[0]]","1","0","","","","","","5","","","","","","","","",""
"","","","","","single-stim-button","37","116371","0.0-2.0-13.2-1.2","60fd01cc86bb3e402db85e93","A3","batch1","","993","tol_toboard","","","","tol_peg_1","993","993","0","[[2,0,0],[3,0],[1]]","3","[[2,1,3],[0,0],[0]]","1","0","","","","","","5","","","","","","","","",""
"","","","","","single-stim-button","38","117083","0.0-2.0-13.3-0.3","60fd01cc86bb3e402db85e93","A3","batch1","","711","tol_tohand","","","","tol_peg_3","711","711","0","[[2,0,0],[3,0],[0]]","4","[[2,1,3],[0,0],[0]]","1","0","","","","","","5","","","","","","","","",""
"","","","","","single-stim-button","39","118018","0.0-2.0-13.3-1.3","60fd01cc86bb3e402db85e93","A3","batch1","","935","tol_toboard","","","","tol_peg_1","935","935","0","[[2,1,0],[3,0],[0]]","4","[[2,1,3],[0,0],[0]]","1","0","","","","","","5","","","","","","","","",""
"","","","","","single-stim-button","40","118698","0.0-2.0-13.4-0.4","60fd01cc86bb3e402db85e93","A3","batch1","","678","tol_tohand","","","","tol_peg_2","678","678","0","[[2,1,0],[0,0],[0]]","5","[[2,1,3],[0,0],[0]]","1","0","","","","","","5","","","","","","","","",""
"","","","","","single-stim-button","41","119695","0.0-2.0-13.4-1.4","60fd01cc86bb3e402db85e93","A3","batch1","","996","tol_toboard","","","","tol_peg_1","996","996","0","[[2,1,3],[0,0],[0]]","5","[[2,1,3],[0,0],[0]]","1","0","","","","","","5","","","","","","","","",""
"","","","","","poldrack-single-stim","42","120709","0.0-2.0-14.0","60fd01cc86bb3e402db85e93","A3","batch1","","-1","tol_feedback","","","true","","1000","1000","500","","","","","","-1","none","true","8044","10719","","","","","","","","","",""
"","","","","","html-button-response","43","121501","0.0-2.0-15.0","60fd01cc86bb3e402db85e93","A3","batch1","","790.7000002861023","tol_trial_num","<div class = centerbox><p class = center-block-text>problem <strong>3</strong> out of 25 problems</p></div>","0","","","","","","","","","","","","","","","","","","","","","","","","",""
"","","","","","single-stim-button","44","124724","0.0-2.0-16.0-0.0","60fd01cc86bb3e402db85e93","A3","batch1","","3222","tol_tohand","","","","tol_peg_1","3222","3222","0","[[2,0,0],[0,0],[1]]","1","[[1,2,0],[3,0],[0]]","2","0","","","","","","4","","","","","","","","",""
"","","","","","single-stim-button","45","125454","0.0-2.0-16.0-1.0","60fd01cc86bb3e402db85e93","A3","batch1","","729","tol_toboard","","","","tol_peg_2","729","729","0","[[2,0,0],[3,0],[1]]","1","[[1,2,0],[3,0],[0]]","2","0","","","","","","4","","","","","","","","",""
"","","","","","single-stim-button","46","126196","0.0-2.0-16.1-0.1","60fd01cc86bb3e402db85e93","A3","batch1","","742","tol_tohand","","","","tol_peg_1","742","742","0","[[0,0,0],[3,0],[1]]","2","[[1,2,0],[3,0],[0]]","2","0","","","","","","4","","","","","","","","",""
"","","","","","single-stim-button","47","127108","0.0-2.0-16.1-1.1","60fd01cc86bb3e402db85e93","A3","batch1","","911","tol_toboard","","","","tol_peg_2","911","911","0","[[0,0,0],[3,2],[1]]","2","[[1,2,0],[3,0],[0]]","2","0","","","","","","4","","","","","","","","",""
"","","","","","single-stim-button","48","128995","0.0-2.0-16.2-0.2","60fd01cc86bb3e402db85e93","A3","batch1","","1886","tol_tohand","","","","tol_peg_3","1886","1886","0","[[0,0,0],[3,2],[0]]","3","[[1,2,0],[3,0],[0]]","2","0","","","","","","4","","","","","","","","",""
"","","","","","single-stim-button","49","129901","0.0-2.0-16.2-1.2","60fd01cc86bb3e402db85e93","A3","batch1","","905","tol_toboard","","","","tol_peg_1","905","905","0","[[1,0,0],[3,2],[0]]","3","[[1,2,0],[3,0],[0]]","2","0","","","","","","4","","","","","","","","",""
"","","","","","single-stim-button","50","130596","0.0-2.0-16.3-0.3","60fd01cc86bb3e402db85e93","A3","batch1","","694","tol_tohand","","","","tol_peg_2","694","694","0","[[1,0,0],[3,0],[0]]","4","[[1,2,0],[3,0],[0]]","2","0","","","","","","4","","","","","","","","",""
"","","","","","single-stim-button","51","132267","0.0-2.0-16.3-1.3","60fd01cc86bb3e402db85e93","A3","batch1","","1670","tol_toboard","","","","tol_peg_1","1670","1670","0","[[1,2,0],[3,0],[0]]","4","[[1,2,0],[3,0],[0]]","2","0","","","","","","4","","","","","","","","",""
"","","","","","poldrack-single-stim","52","133268","0.0-2.0-17.0","60fd01cc86bb3e402db85e93","A3","batch1","","-1","tol_feedback","","","true","","1000","1000","500","","","","","","-1","none","true","3222","6544","","","","","","","","","",""
"","","","","","html-button-response","53","134278","0.0-2.0-18.0","60fd01cc86bb3e402db85e93","A3","batch1","","1008.7999997138977","tol_trial_num","<div class = centerbox><p class = center-block-text>problem <strong>4</strong> out of 25 problems</p></div>","0","","","","","","","","","","","","","","","","","","","","","","","","",""
"","","","","","single-stim-button","54","137374","0.0-2.0-19.0-0.0","60fd01cc86bb3e402db85e93","A3","batch1","","3096","tol_tohand","","","","tol_peg_2","3096","3096","0","[[3,0,0],[2,0],[0]]","1","[[3,0,0],[1,0],[2]]","3","0","","","","","","3","","","","","","","","",""
"","","","","","single-stim-button","55","138341","0.0-2.0-19.0-1.0","60fd01cc86bb3e402db85e93","A3","batch1","","965","tol_toboard","","","","tol_peg_1","965","965","0","[[3,1,0],[2,0],[0]]","1","[[3,0,0],[1,0],[2]]","3","0","","","","","","3","","","","","","","","",""
"","","","","","single-stim-button","56","139078","0.0-2.0-19.1-0.1","60fd01cc86bb3e402db85e93","A3","batch1","","737","tol_tohand","","","","tol_peg_2","737","737","0","[[3,1,0],[0,0],[0]]","2","[[3,0,0],[1,0],[2]]","3","0","","","","","","3","","","","","","","","",""
"","","","","","single-stim-button","57","140079","0.0-2.0-19.1-1.1","60fd01cc86bb3e402db85e93","A3","batch1","","1000","tol_toboard","","","","tol_peg_3","1000","1000","0","[[3,1,0],[0,0],[2]]","2","[[3,0,0],[1,0],[2]]","3","0","","","","","","3","","","","","","","","",""
"","","","","","single-stim-button","58","140781","0.0-2.0-19.2-0.2","60fd01cc86bb3e402db85e93","A3","batch1","","701","tol_tohand","","","","tol_peg_1","701","701","0","[[3,0,0],[0,0],[2]]","3","[[3,0,0],[1,0],[2]]","3","0","","","","","","3","","","","","","","","",""
"","","","","","single-stim-button","59","141488","0.0-2.0-19.2-1.2","60fd01cc86bb3e402db85e93","A3","batch1","","707","tol_toboard","","","","tol_peg_2","707","707","0","[[3,0,0],[1,0],[2]]","3","[[3,0,0],[1,0],[2]]","3","0","","","","","","3","","","","","","","","",""
"","","","","","poldrack-single-stim","60","142503","0.0-2.0-20.0","60fd01cc86bb3e402db85e93","A3","batch1","","-1","tol_feedback","","","true","","1000","1000","500","","","","","","-1","none","true","3096","4534","","","","","","","","","",""
"","","","","","html-button-response","61","143466","0.0-2.0-21.0","60fd01cc86bb3e402db85e93","A3","batch1","","961.8999996185303","tol_trial_num","<div class = centerbox><p class = center-block-text>problem <strong>5</strong> out of 25 problems</p></div>","0","","","","","","","","","","","","","","","","","","","","","","","","",""
"","","","","","single-stim-button","62","188171","0.0-2.0-22.0-0.0","60fd01cc86bb3e402db85e93","A3","batch1","","44705","tol_tohand","","","","tol_peg_1","44705","44705","0","[[0,0,0],[2,0],[3]]","1","[[0,0,0],[1,2],[3]]","4","0","","","","","","7","","","","","","","","",""
"","","","","","single-stim-button","63","188944","0.0-2.0-22.0-1.0","60fd01cc86bb3e402db85e93","A3","batch1","","773","tol_toboard","","","","tol_peg_2","773","773","0","[[0,0,0],[2,1],[3]]","1","[[0,0,0],[1,2],[3]]","4","0","","","","","","7","","","","","","","","",""
"","","","","","single-stim-button","64","189573","0.0-2.0-22.1-0.1","60fd01cc86bb3e402db85e93","A3","batch1","","628","tol_tohand","","","","tol_peg_3","628","628","0","[[0,0,0],[2,1],[0]]","2","[[0,0,0],[1,2],[3]]","4","0","","","","","","7","","","","","","","","",""
"","","","","","single-stim-button","65","190555","0.0-2.0-22.1-1.1","60fd01cc86bb3e402db85e93","A3","batch1","","982","tol_toboard","","","","tol_peg_1","982","982","0","[[3,0,0],[2,1],[0]]","2","[[0,0,0],[1,2],[3]]","4","0","","","","","","7","","","","","","","","",""
"","","","","","single-stim-button","66","191472","0.0-2.0-22.2-0.2","60fd01cc86bb3e402db85e93","A3","batch1","","916","tol_tohand","","","","tol_peg_2","916","916","0","[[3,0,0],[2,0],[0]]","3","[[0,0,0],[1,2],[3]]","4","0","","","","","","7","","","","","","","","",""
"","","","","","single-stim-button","67","192996","0.0-2.0-22.2-1.2","60fd01cc86bb3e402db85e93","A3","batch1","","1523","tol_toboard","","","","tol_peg_3","1523","1523","0","[[3,0,0],[2,0],[1]]","3","[[0,0,0],[1,2],[3]]","4","0","","","","","","7","","","","","","","","",""
"","","","","","single-stim-button","68","193751","0.0-2.0-22.3-0.3","60fd01cc86bb3e402db85e93","A3","batch1","","755","tol_tohand","","","","tol_peg_2","755","755","0","[[3,0,0],[0,0],[1]]","4","[[0,0,0],[1,2],[3]]","4","0","","","","","","7","","","","","","","","",""
"","","","","","single-stim-button","69","194988","0.0-2.0-22.3-1.3","60fd01cc86bb3e402db85e93","A3","batch1","","1236","tol_toboard","","","","tol_peg_1","1236","1236","0","[[3,2,0],[0,0],[1]]","4","[[0,0,0],[1,2],[3]]","4","0","","","","","","7","","","","","","","","",""
"","","","","","single-stim-button","70","195903","0.0-2.0-22.4-0.4","60fd01cc86bb3e402db85e93","A3","batch1","","915","tol_tohand","","","","tol_peg_3","915","915","0","[[3,2,0],[0,0],[0]]","5","[[0,0,0],[1,2],[3]]","4","0","","","","","","7","","","","","","","","",""
"","","","","","single-stim-button","71","196819","0.0-2.0-22.4-1.4","60fd01cc86bb3e402db85e93","A3","batch1","","916","tol_toboard","","","","tol_peg_2","916","916","0","[[3,2,0],[1,0],[0]]","5","[[0,0,0],[1,2],[3]]","4","0","","","","","","7","","","","","","","","",""
"","","","","","single-stim-button","72","197512","0.0-2.0-22.5-0.5","60fd01cc86bb3e402db85e93","A3","batch1","","693","tol_tohand","","","","tol_peg_1","693","693","0","[[3,0,0],[1,0],[0]]","6","[[0,0,0],[1,2],[3]]","4","0","","","","","","7","","","","","","","","",""
"","","","","","single-stim-button","73","198284","0.0-2.0-22.5-1.5","60fd01cc86bb3e402db85e93","A3","batch1","","772","tol_toboard","","","","tol_peg_2","772","772","0","[[3,0,0],[1,2],[0]]","6","[[0,0,0],[1,2],[3]]","4","0","","","","","","7","","","","","","","","",""
"","","","","","single-stim-button","74","198839","0.0-2.0-22.6-0.6","60fd01cc86bb3e402db85e93","A3","batch1","","555","tol_tohand","","","","tol_peg_1","555","555","0","[[0,0,0],[1,2],[0]]","7","[[0,0,0],[1,2],[3]]","4","0","","","","","","7","","","","","","","","",""
"","","","","","single-stim-button","75","199686","0.0-2.0-22.6-1.6","60fd01cc86bb3e402db85e93","A3","batch1","","847","tol_toboard","","","","tol_peg_3","847","847","0","[[0,0,0],[1,2],[3]]","7","[[0,0,0],[1,2],[3]]","4","0","","","","","","7","","","","","","","","",""
"","","","","","poldrack-single-stim","76","200694","0.0-2.0-23.0","60fd01cc86bb3e402db85e93","A3","batch1","","-1","tol_feedback","","","true","","1000","1000","500","","","","","","-1","none","true","44705","49167","","","","","","","","","",""
"","","","","","html-button-response","77","201877","0.0-2.0-24.0","60fd01cc86bb3e402db85e93","A3","batch1","","1182","tol_trial_num","<div class = centerbox><p class = center-block-text>problem <strong>6</strong> out of 25 problems</p></div>","0","","","","","","","","","","","","","","","","","","","","","","","","",""
"","","","","","single-stim-button","78","209834","0.0-2.0-25.0-0.0","60fd01cc86bb3e402db85e93","A3","batch1","","7956","tol_tohand","","","","tol_peg_3","7956","7956","0","[[0,0,0],[1,2],[0]]","1","[[1,0,0],[2,3],[0]]","5","0","","","","","","6","","","","","","","","",""
"","","","","","single-stim-button","79","213137","0.0-2.0-25.0-1.0","60fd01cc86bb3e402db85e93","A3","batch1","","3303","tol_toboard","","","","tol_peg_1","3303","3303","0","[[3,0,0],[1,2],[0]]","1","[[1,0,0],[2,3],[0]]","5","0","","","","","","6","","","","","","","","",""
"","","","","","single-stim-button","80","213805","0.0-2.0-25.1-0.1","60fd01cc86bb3e402db85e93","A3","batch1","","667","tol_tohand","","","","tol_peg_2","667","667","0","[[3,0,0],[1,0],[0]]","2","[[1,0,0],[2,3],[0]]","5","0","","","","","","6","","","","","","","","",""
"","","","","","single-stim-button","81","214635","0.0-2.0-25.1-1.1","60fd01cc86bb3e402db85e93","A3","batch1","","830","tol_toboard","","","","tol_peg_1","830","830","0","[[3,2,0],[1,0],[0]]","2","[[1,0,0],[2,3],[0]]","5","0","","","","","","6","","","","","","","","",""
"","","","","","single-stim-button","82","215413","0.0-2.0-25.2-0.2","60fd01cc86bb3e402db85e93","A3","batch1","","777","tol_tohand","","","","tol_peg_2","777","777","0","[[3,2,0],[0,0],[0]]","3","[[1,0,0],[2,3],[0]]","5","0","","","","","","6","","","","","","","","",""
"","","","","","single-stim-button","83","216405","0.0-2.0-25.2-1.2","60fd01cc86bb3e402db85e93","A3","batch1","","991","tol_toboard","","","","tol_peg_3","991","991","0","[[3,2,0],[0,0],[1]]","3","[[1,0,0],[2,3],[0]]","5","0","","","","","","6","","","","","","","","",""
"","","","","","single-stim-button","84","217224","0.0-2.0-25.3-0.3","60fd01cc86bb3e402db85e93","A3","batch1","","818","tol_tohand","","","","tol_peg_1","818","818","0","[[3,0,0],[0,0],[1]]","4","[[1,0,0],[2,3],[0]]","5","0","","","","","","6","","","","","","","","",""
"","","","","","single-stim-button","85","217933","0.0-2.0-25.3-1.3","60fd01cc86bb3e402db85e93","A3","batch1","","708","tol_toboard","","","","tol_peg_2","708","708","0","[[3,0,0],[2,0],[1]]","4","[[1,0,0],[2,3],[0]]","5","0","","","","","","6","","","","","","","","",""
"","","","","","single-stim-button","86","218647","0.0-2.0-25.4-0.4","60fd01cc86bb3e402db85e93","A3","batch1","","714","tol_tohand","","","","tol_peg_1","714","714","0","[[0,0,0],[2,0],[1]]","5","[[1,0,0],[2,3],[0]]","5","0","","","","","","6","","","","","","","","",""
"","","","","","single-stim-button","87","219513","0.0-2.0-25.4-1.4","60fd01cc86bb3e402db85e93","A3","batch1","","865","tol_toboard","","","","tol_peg_2","865","865","0","[[0,0,0],[2,3],[1]]","5","[[1,0,0],[2,3],[0]]","5","0","","","","","","6","","","","","","","","",""
"","","","","","single-stim-button","88","220283","0.0-2.0-25.5-0.5","60fd01cc86bb3e402db85e93","A3","batch1","","770","tol_tohand","","","","tol_peg_3","770","770","0","[[0,0,0],[2,3],[0]]","6","[[1,0,0],[2,3],[0]]","5","0","","","","","","6","","","","","","","","",""
"","","","","","single-stim-button","89","221285","0.0-2.0-25.5-1.5","60fd01cc86bb3e402db85e93","A3","batch1","","1002","tol_toboard","","","","tol_peg_1","1002","1002","0","[[1,0,0],[2,3],[0]]","6","[[1,0,0],[2,3],[0]]","5","0","","","","","","6","","","","","","","","",""
"","","","","","poldrack-single-stim","90","222286","0.0-2.0-26.0","60fd01cc86bb3e402db85e93","A3","batch1","","-1","tol_feedback","","","true","","1000","1000","500","","","","","","-1","none","true","7956","11702","","","","","","","","","",""
"","","","","","html-button-response","91","222997","0.0-2.0-27.0","60fd01cc86bb3e402db85e93","A3","batch1","","710.4000000953674","tol_trial_num","<div class = centerbox><p class = center-block-text>problem <strong>7</strong> out of 25 problems</p></div>","0","","","","","","","","","","","","","","","","","","","","","","","","",""
"","","","","","single-stim-button","92","228965","0.0-2.0-28.0-0.0","60fd01cc86bb3e402db85e93","A3","batch1","","5968","tol_tohand","","","","tol_peg_3","5968","5968","0","[[2,1,0],[0,0],[0]]","1","[[1,2,0],[3,0],[0]]","6","0","","","","","","5","","","","","","","","",""
"","","","","","single-stim-button","93","229751","0.0-2.0-28.0-1.0","60fd01cc86bb3e402db85e93","A3","batch1","","786","tol_toboard","","","","tol_peg_2","786","786","0","[[2,1,0],[3,0],[0]]","1","[[1,2,0],[3,0],[0]]","6","0","","","","","","5","","","","","","","","",""
"","","","","","single-stim-button","94","230411","0.0-2.0-28.1-0.1","60fd01cc86bb3e402db85e93","A3","batch1","","659","tol_tohand","","","","tol_peg_1","659","659","0","[[2,0,0],[3,0],[0]]","2","[[1,2,0],[3,0],[0]]","6","0","","","","","","5","","","","","","","","",""
"","","","","","single-stim-button","95","232059","0.0-2.0-28.1-1.1","60fd01cc86bb3e402db85e93","A3","batch1","","1648","tol_toboard","","","","tol_peg_2","1648","1648","0","[[2,0,0],[3,1],[0]]","2","[[1,2,0],[3,0],[0]]","6","0","","","","","","5","","","","","","","","",""
"","","","","","single-stim-button","96","232671","0.0-2.0-28.2-0.2","60fd01cc86bb3e402db85e93","A3","batch1","","612","tol_tohand","","","","tol_peg_1","612","612","0","[[0,0,0],[3,1],[0]]","3","[[1,2,0],[3,0],[0]]","6","0","","","","","","5","","","","","","","","",""
"","","","","","single-stim-button","97","233725","0.0-2.0-28.2-1.2","60fd01cc86bb3e402db85e93","A3","batch1","","1054","tol_toboard","","","","tol_peg_3","1054","1054","0","[[0,0,0],[3,1],[2]]","3","[[1,2,0],[3,0],[0]]","6","0","","","","","","5","","","","","","","","",""
"","","","","","single-stim-button","98","234413","0.0-2.0-28.3-0.3","60fd01cc86bb3e402db85e93","A3","batch1","","688","tol_tohand","","","","tol_peg_2","688","688","0","[[0,0,0],[3,0],[2]]","4","[[1,2,0],[3,0],[0]]","6","0","","","","","","5","","","","","","","","",""
"","","","","","single-stim-button","99","235307","0.0-2.0-28.3-1.3","60fd01cc86bb3e402db85e93","A3","batch1","","894","tol_toboard","","","","tol_peg_1","894","894","0","[[1,0,0],[3,0],[2]]","4","[[1,2,0],[3,0],[0]]","6","0","","","","","","5","","","","","","","","",""
"","","","","","single-stim-button","100","235972","0.0-2.0-28.4-0.4","60fd01cc86bb3e402db85e93","A3","batch1","","663","tol_tohand","","","","tol_peg_3","663","663","0","[[1,0,0],[3,0],[0]]","5","[[1,2,0],[3,0],[0]]","6","0","","","","","","5","","","","","","","","",""
"","","","","","single-stim-button","101","237072","0.0-2.0-28.4-1.4","60fd01cc86bb3e402db85e93","A3","batch1","","1100","tol_toboard","","","","tol_peg_1","1100","1100","0","[[1,2,0],[3,0],[0]]","5","[[1,2,0],[3,0],[0]]","6","0","","","","","","5","","","","","","","","",""
"","","","","","poldrack-single-stim","102","238078","0.0-2.0-29.0","60fd01cc86bb3e402db85e93","A3","batch1","","-1","tol_feedback","","","true","","1000","1000","500","","","","","","-1","none","true","5968","8590","","","","","","","","","",""
"","","","","","html-button-response","103","238960","0.0-2.0-30.0","60fd01cc86bb3e402db85e93","A3","batch1","","881.5999999046326","tol_trial_num","<div class = centerbox><p class = center-block-text>problem <strong>8</strong> out of 25 problems</p></div>","0","","","","","","","","","","","","","","","","","","","","","","","","",""
"","","","","","single-stim-button","104","241691","0.0-2.0-31.0-0.0","60fd01cc86bb3e402db85e93","A3","batch1","","2731","tol_tohand","","","","tol_peg_3","2731","2731","0","[[0,0,0],[2,3],[0]]","1","[[1,2,0],[3,0],[0]]","7","0","","","","","","4","","","","","","","","",""
"","","","","","single-stim-button","105","245469","0.0-2.0-31.0-1.0","60fd01cc86bb3e402db85e93","A3","batch1","","3778","tol_toboard","","","","tol_peg_1","3778","3778","0","[[1,0,0],[2,3],[0]]","1","[[1,2,0],[3,0],[0]]","7","0","","","","","","4","","","","","","","","",""
"","","","","","single-stim-button","106","246123","0.0-2.0-31.1-0.1","60fd01cc86bb3e402db85e93","A3","batch1","","653","tol_tohand","","","","tol_peg_2","653","653","0","[[1,0,0],[2,0],[0]]","2","[[1,2,0],[3,0],[0]]","7","0","","","","","","4","","","","","","","","",""
"","","","","","single-stim-button","107","247204","0.0-2.0-31.1-1.1","60fd01cc86bb3e402db85e93","A3","batch1","","1081","tol_toboard","","","","tol_peg_3","1081","1081","0","[[1,0,0],[2,0],[3]]","2","[[1,2,0],[3,0],[0]]","7","0","","","","","","4","","","","","","","","",""
"","","","","","single-stim-button","108","247908","0.0-2.0-31.2-0.2","60fd01cc86bb3e402db85e93","A3","batch1","","703","tol_tohand","","","","tol_peg_2","703","703","0","[[1,0,0],[0,0],[3]]","3","[[1,2,0],[3,0],[0]]","7","0","","","","","","4","","","","","","","","",""
"","","","","","single-stim-button","109","248660","0.0-2.0-31.2-1.2","60fd01cc86bb3e402db85e93","A3","batch1","","752","tol_toboard","","","","tol_peg_1","752","752","0","[[1,2,0],[0,0],[3]]","3","[[1,2,0],[3,0],[0]]","7","0","","","","","","4","","","","","","","","",""
"","","","","","single-stim-button","110","249400","0.0-2.0-31.3-0.3","60fd01cc86bb3e402db85e93","A3","batch1","","740","tol_tohand","","","","tol_peg_3","740","740","0","[[1,2,0],[0,0],[0]]","4","[[1,2,0],[3,0],[0]]","7","0","","","","","","4","","","","","","","","",""
"","","","","","single-stim-button","111","250068","0.0-2.0-31.3-1.3","60fd01cc86bb3e402db85e93","A3","batch1","","668","tol_toboard","","","","tol_peg_2","668","668","0","[[1,2,0],[3,0],[0]]","4","[[1,2,0],[3,0],[0]]","7","0","","","","","","4","","","","","","","","",""
"","","","","","poldrack-single-stim","112","251069","0.0-2.0-32.0","60fd01cc86bb3e402db85e93","A3","batch1","","-1","tol_feedback","","","true","","1000","1000","500","","","","","","-1","none","true","2731","4827","","","","","","","","","",""
"","","","","","html-button-response","113","251769","0.0-2.0-33.0","60fd01cc86bb3e402db85e93","A3","batch1","","698.6999998092651","tol_trial_num","<div class = centerbox><p class = center-block-text>problem <strong>9</strong> out of 25 problems</p></div>","0","","","","","","","","","","","","","","","","","","","","","","","","",""
"","","","","","single-stim-button","114","261162","0.0-2.0-34.0-0.0","60fd01cc86bb3e402db85e93","A3","batch1","","9392","tol_tohand","","","","tol_peg_3","9392","9392","0","[[3,2,0],[0,0],[0]]","1","[[2,1,0],[3,0],[0]]","8","0","","","","","","6","","","","","","","","",""
"","","","","","single-stim-button","115","261995","0.0-2.0-34.0-1.0","60fd01cc86bb3e402db85e93","A3","batch1","","832","tol_toboard","","","","tol_peg_2","832","832","0","[[3,2,0],[1,0],[0]]","1","[[2,1,0],[3,0],[0]]","8","0","","","","","","6","","","","","","","","",""
"","","","","","single-stim-button","116","262600","0.0-2.0-34.1-0.1","60fd01cc86bb3e402db85e93","A3","batch1","","605","tol_tohand","","","","tol_peg_1","605","605","0","[[3,0,0],[1,0],[0]]","2","[[2,1,0],[3,0],[0]]","8","0","","","","","","6","","","","","","","","",""
"","","","","","single-stim-button","117","263436","0.0-2.0-34.1-1.1","60fd01cc86bb3e402db85e93","A3","batch1","","835","tol_toboard","","","","tol_peg_2","835","835","0","[[3,0,0],[1,2],[0]]","2","[[2,1,0],[3,0],[0]]","8","0","","","","","","6","","","","","","","","",""
"","","","","","single-stim-button","118","264141","0.0-2.0-34.2-0.2","60fd01cc86bb3e402db85e93","A3","batch1","","704","tol_tohand","","","","tol_peg_1","704","704","0","[[0,0,0],[1,2],[0]]","3","[[2,1,0],[3,0],[0]]","8","0","","","","","","6","","","","","","","","",""
"","","","","","single-stim-button","119","265081","0.0-2.0-34.2-1.2","60fd01cc86bb3e402db85e93","A3","batch1","","940","tol_toboard","","","","tol_peg_3","940","940","0","[[0,0,0],[1,2],[3]]","3","[[2,1,0],[3,0],[0]]","8","0","","","","","","6","","","","","","","","",""
"","","","","","single-stim-button","120","265730","0.0-2.0-34.3-0.3","60fd01cc86bb3e402db85e93","A3","batch1","","649","tol_tohand","","","","tol_peg_2","649","649","0","[[0,0,0],[1,0],[3]]","4","[[2,1,0],[3,0],[0]]","8","0","","","","","","6","","","","","","","","",""
"","","","","","single-stim-button","121","266455","0.0-2.0-34.3-1.3","60fd01cc86bb3e402db85e93","A3","batch1","","725","tol_toboard","","","","tol_peg_1","725","725","0","[[2,0,0],[1,0],[3]]","4","[[2,1,0],[3,0],[0]]","8","0","","","","","","6","","","","","","","","",""
"","","","","","single-stim-button","122","267184","0.0-2.0-34.4-0.4","60fd01cc86bb3e402db85e93","A3","batch1","","728","tol_tohand","","","","tol_peg_2","728","728","0","[[2,0,0],[0,0],[3]]","5","[[2,1,0],[3,0],[0]]","8","0","","","","","","6","","","","","","","","",""
"","","","","","single-stim-button","123","267945","0.0-2.0-34.4-1.4","60fd01cc86bb3e402db85e93","A3","batch1","","760","tol_toboard","","","","tol_peg_1","760","760","0","[[2,1,0],[0,0],[3]]","5","[[2,1,0],[3,0],[0]]","8","0","","","","","","6","","","","","","","","",""
"","","","","","single-stim-button","124","268854","0.0-2.0-34.5-0.5","60fd01cc86bb3e402db85e93","A3","batch1","","909","tol_tohand","","","","tol_peg_3","909","909","0","[[2,1,0],[0,0],[0]]","6","[[2,1,0],[3,0],[0]]","8","0","","","","","","6","","","","","","","","",""
"","","","","","single-stim-button","125","269696","0.0-2.0-34.5-1.5","60fd01cc86bb3e402db85e93","A3","batch1","","842","tol_toboard","","","","tol_peg_2","842","842","0","[[2,1,0],[3,0],[0]]","6","[[2,1,0],[3,0],[0]]","8","0","","","","","","6","","","","","","","","",""
"","","","","","poldrack-single-stim","126","270698","0.0-2.0-35.0","60fd01cc86bb3e402db85e93","A3","batch1","","-1","tol_feedback","","","true","","1000","1000","500","","","","","","-1","none","true","9392","12987","","","","","","","","","",""
"","","","","","html-button-response","127","271456","0.0-2.0-36.0","60fd01cc86bb3e402db85e93","A3","batch1","","757.0999999046326","tol_trial_num","<div class = centerbox><p class = center-block-text>problem <strong>10</strong> out of 25 problems</p></div>","0","","","","","","","","","","","","","","","","","","","","","","","","",""
"","","","","","single-stim-button","128","274360","0.0-2.0-37.0-0.0","60fd01cc86bb3e402db85e93","A3","batch1","","2904","tol_tohand","","","","tol_peg_2","2904","2904","0","[[3,0,0],[0,0],[2]]","1","[[3,0,0],[2,1],[0]]","9","0","","","","","","3","","","","","","","","",""
"","","","","","single-stim-button","129","276023","0.0-2.0-37.0-1.0","60fd01cc86bb3e402db85e93","A3","batch1","","1662","tol_toboard","","","","tol_peg_1","1662","1662","0","[[3,1,0],[0,0],[2]]","1","[[3,0,0],[2,1],[0]]","9","0","","","","","","3","","","","","","","","",""
"","","","","","single-stim-button","130","276646","0.0-2.0-37.1-0.1","60fd01cc86bb3e402db85e93","A3","batch1","","621","tol_tohand","","","","tol_peg_3","621","621","0","[[3,1,0],[0,0],[0]]","2","[[3,0,0],[2,1],[0]]","9","0","","","","","","3","","","","","","","","",""
"","","","","","single-stim-button","131","277577","0.0-2.0-37.1-1.1","60fd01cc86bb3e402db85e93","A3","batch1","","931","tol_toboard","","","","tol_peg_2","931","931","0","[[3,1,0],[2,0],[0]]","2","[[3,0,0],[2,1],[0]]","9","0","","","","","","3","","","","","","","","",""
"","","","","","single-stim-button","132","278167","0.0-2.0-37.2-0.2","60fd01cc86bb3e402db85e93","A3","batch1","","588","tol_tohand","","","","tol_peg_1","588","588","0","[[3,0,0],[2,0],[0]]","3","[[3,0,0],[2,1],[0]]","9","0","","","","","","3","","","","","","","","",""
"","","","","","single-stim-button","133","278919","0.0-2.0-37.2-1.2","60fd01cc86bb3e402db85e93","A3","batch1","","752","tol_toboard","","","","tol_peg_2","752","752","0","[[3,0,0],[2,1],[0]]","3","[[3,0,0],[2,1],[0]]","9","0","","","","","","3","","","","","","","","",""
"","","","","","poldrack-single-stim","134","279920","0.0-2.0-38.0","60fd01cc86bb3e402db85e93","A3","batch1","","-1","tol_feedback","","","true","","1000","1000","500","","","","","","-1","none","true","2904","4113","","","","","","","","","",""
"","","","","","html-button-response","135","280516","0.0-2.0-39.0","60fd01cc86bb3e402db85e93","A3","batch1","","595.3999996185303","tol_trial_num","<div class = centerbox><p class = center-block-text>problem <strong>11</strong> out of 25 problems</p></div>","0","","","","","","","","","","","","","","","","","","","","","","","","",""
"","","","","","single-stim-button","136","302941","0.0-2.0-40.0-0.0","60fd01cc86bb3e402db85e93","A3","batch1","","22424","tol_tohand","","","","tol_peg_1","22424","22424","0","[[1,0,0],[3,0],[0]]","1","[[2,0,0],[1,3],[0]]","10","0","","","","","","6","","","","","","","","",""
"","","","","","single-stim-button","137","311380","0.0-2.0-40.0-1.0","60fd01cc86bb3e402db85e93","A3","batch1","","8437","tol_toboard","","","","tol_peg_2","8437","8437","0","[[1,0,0],[3,2],[0]]","1","[[2,0,0],[1,3],[0]]","10","0","","","","","","6","","","","","","","","",""
"","","","","","single-stim-button","138","312052","0.0-2.0-40.1-0.1","60fd01cc86bb3e402db85e93","A3","batch1","","672","tol_tohand","","","","tol_peg_1","672","672","0","[[0,0,0],[3,2],[0]]","2","[[2,0,0],[1,3],[0]]","10","0","","","","","","6","","","","","","","","",""
"","","","","","single-stim-button","139","313080","0.0-2.0-40.1-1.1","60fd01cc86bb3e402db85e93","A3","batch1","","1027","tol_toboard","","","","tol_peg_3","1027","1027","0","[[0,0,0],[3,2],[1]]","2","[[2,0,0],[1,3],[0]]","10","0","","","","","","6","","","","","","","","",""
"","","","","","single-stim-button","140","314119","0.0-2.0-40.2-0.2","60fd01cc86bb3e402db85e93","A3","batch1","","1039","tol_tohand","","","","tol_peg_2","1039","1039","0","[[0,0,0],[3,0],[1]]","3","[[2,0,0],[1,3],[0]]","10","0","","","","","","6","","","","","","","","",""
"","","","","","single-stim-button","141","314947","0.0-2.0-40.2-1.2","60fd01cc86bb3e402db85e93","A3","batch1","","828","tol_toboard","","","","tol_peg_1","828","828","0","[[2,0,0],[3,0],[1]]","3","[[2,0,0],[1,3],[0]]","10","0","","","","","","6","","","","","","","","",""
"","","","","","single-stim-button","142","315555","0.0-2.0-40.3-0.3","60fd01cc86bb3e402db85e93","A3","batch1","","608","tol_tohand","","","","tol_peg_2","608","608","0","[[2,0,0],[0,0],[1]]","4","[[2,0,0],[1,3],[0]]","10","0","","","","","","6","","","","","","","","",""
"","","","","","single-stim-button","143","316540","0.0-2.0-40.3-1.3","60fd01cc86bb3e402db85e93","A3","batch1","","984","tol_toboard","","","","tol_peg_1","984","984","0","[[2,3,0],[0,0],[1]]","4","[[2,0,0],[1,3],[0]]","10","0","","","","","","6","","","","","","","","",""
"","","","","","single-stim-button","144","317218","0.0-2.0-40.4-0.4","60fd01cc86bb3e402db85e93","A3","batch1","","677","tol_tohand","","","","tol_peg_3","677","677","0","[[2,3,0],[0,0],[0]]","5","[[2,0,0],[1,3],[0]]","10","0","","","","","","6","","","","","","","","",""
"","","","","","single-stim-button","145","318003","0.0-2.0-40.4-1.4","60fd01cc86bb3e402db85e93","A3","batch1","","783","tol_toboard","","","","tol_peg_2","783","783","0","[[2,3,0],[1,0],[0]]","5","[[2,0,0],[1,3],[0]]","10","0","","","","","","6","","","","","","","","",""
"","","","","","single-stim-button","146","318588","0.0-2.0-40.5-0.5","60fd01cc86bb3e402db85e93","A3","batch1","","585","tol_tohand","","","","tol_peg_1","585","585","0","[[2,0,0],[1,0],[0]]","6","[[2,0,0],[1,3],[0]]","10","0","","","","","","6","","","","","","","","",""
"","","","","","single-stim-button","147","319240","0.0-2.0-40.5-1.5","60fd01cc86bb3e402db85e93","A3","batch1","","650","tol_toboard","","","","tol_peg_2","650","650","0","[[2,0,0],[1,3],[0]]","6","[[2,0,0],[1,3],[0]]","10","0","","","","","","6","","","","","","","","",""
"","","","","","poldrack-single-stim","148","320241","0.0-2.0-41.0","60fd01cc86bb3e402db85e93","A3","batch1","","-1","tol_feedback","","","true","","1000","1000","500","","","","","","-1","none","true","22424","26005","","","","","","","","","",""
"","","","","","html-button-response","149","321001","0.0-2.0-42.0","60fd01cc86bb3e402db85e93","A3","batch1","","760.1999998092651","tol_trial_num","<div class = centerbox><p class = center-block-text>problem <strong>12</strong> out of 25 problems</p></div>","0","","","","","","","","","","","","","","","","","","","","","","","","",""
"","","","","","single-stim-button","150","325163","0.0-2.0-43.0-0.0","60fd01cc86bb3e402db85e93","A3","batch1","","4161","tol_tohand","","","","tol_peg_1","4161","4161","0","[[1,0,0],[3,0],[0]]","1","[[2,3,0],[0,0],[1]]","11","0","","","","","","4","","","","","","","","",""
"","","","","","single-stim-button","151","325914","0.0-2.0-43.0-1.0","60fd01cc86bb3e402db85e93","A3","batch1","","750","tol_toboard","","","","tol_peg_2","750","750","0","[[1,0,0],[3,2],[0]]","1","[[2,3,0],[0,0],[1]]","11","0","","","","","","4","","","","","","","","",""
"","","","","","single-stim-button","152","326516","0.0-2.0-43.1-0.1","60fd01cc86bb3e402db85e93","A3","batch1","","601","tol_tohand","","","","tol_peg_1","601","601","0","[[0,0,0],[3,2],[0]]","2","[[2,3,0],[0,0],[1]]","11","0","","","","","","4","","","","","","","","",""
"","","","","","single-stim-button","153","327188","0.0-2.0-43.1-1.1","60fd01cc86bb3e402db85e93","A3","batch1","","671","tol_toboard","","","","tol_peg_3","671","671","0","[[0,0,0],[3,2],[1]]","2","[[2,3,0],[0,0],[1]]","11","0","","","","","","4","","","","","","","","",""
"","","","","","single-stim-button","154","327824","0.0-2.0-43.2-0.2","60fd01cc86bb3e402db85e93","A3","batch1","","636","tol_tohand","","","","tol_peg_2","636","636","0","[[0,0,0],[3,0],[1]]","3","[[2,3,0],[0,0],[1]]","11","0","","","","","","4","","","","","","","","",""
"","","","","","single-stim-button","155","328620","0.0-2.0-43.2-1.2","60fd01cc86bb3e402db85e93","A3","batch1","","795","tol_toboard","","","","tol_peg_1","795","795","0","[[2,0,0],[3,0],[1]]","3","[[2,3,0],[0,0],[1]]","11","0","","","","","","4","","","","","","","","",""
"","","","","","single-stim-button","156","329231","0.0-2.0-43.3-0.3","60fd01cc86bb3e402db85e93","A3","batch1","","610","tol_tohand","","","","tol_peg_2","610","610","0","[[2,0,0],[0,0],[1]]","4","[[2,3,0],[0,0],[1]]","11","0","","","","","","4","","","","","","","","",""
"","","","","","single-stim-button","157","329868","0.0-2.0-43.3-1.3","60fd01cc86bb3e402db85e93","A3","batch1","","637","tol_toboard","","","","tol_peg_1","637","637","0","[[2,3,0],[0,0],[1]]","4","[[2,3,0],[0,0],[1]]","11","0","","","","","","4","","","","","","","","",""
"","","","","","poldrack-single-stim","158","330883","0.0-2.0-44.0","60fd01cc86bb3e402db85e93","A3","batch1","","-1","tol_feedback","","","true","","1000","1000","500","","","","","","-1","none","true","4161","6008","","","","","","","","","",""
"","","","","","html-button-response","159","331656","0.0-2.0-45.0","60fd01cc86bb3e402db85e93","A3","batch1","","772.4000000953674","tol_trial_num","<div class = centerbox><p class = center-block-text>problem <strong>13</strong> out of 25 problems</p></div>","0","","","","","","","","","","","","","","","","","","","","","","","","",""
"","","","","","single-stim-button","160","336190","0.0-2.0-46.0-0.0","60fd01cc86bb3e402db85e93","A3","batch1","","4534","tol_tohand","","","","tol_peg_1","4534","4534","0","[[1,0,0],[3,0],[0]]","1","[[0,0,0],[2,3],[1]]","12","0","","","","","","4","","","","","","","","",""
"","","","","","single-stim-button","161","338245","0.0-2.0-46.0-1.0","60fd01cc86bb3e402db85e93","A3","batch1","","2054","tol_toboard","","","","tol_peg_1","2054","2054","0","[[1,2,0],[3,0],[0]]","1","[[0,0,0],[2,3],[1]]","12","0","","","","","","4","","","","","","","","",""
"","","","","","single-stim-button","162","339849","0.0-2.0-46.1-0.1","60fd01cc86bb3e402db85e93","A3","batch1","","1603","tol_tohand","","","","tol_peg_2","1603","1603","0","[[1,2,0],[0,0],[0]]","2","[[0,0,0],[2,3],[1]]","12","0","","","","","","4","","","","","","","","",""
"","","","","","single-stim-button","163","340933","0.0-2.0-46.1-1.1","60fd01cc86bb3e402db85e93","A3","batch1","","1084","tol_toboard","","","","tol_peg_3","1084","1084","0","[[1,2,0],[0,0],[3]]","2","[[0,0,0],[2,3],[1]]","12","0","","","","","","4","","","","","","","","",""
"","","","","","single-stim-button","164","341622","0.0-2.0-46.2-0.2","60fd01cc86bb3e402db85e93","A3","batch1","","689","tol_tohand","","","","tol_peg_1","689","689","0","[[1,0,0],[0,0],[3]]","3","[[0,0,0],[2,3],[1]]","12","0","","","","","","4","","","","","","","","",""
"","","","","","single-stim-button","165","342459","0.0-2.0-46.2-1.2","60fd01cc86bb3e402db85e93","A3","batch1","","837","tol_toboard","","","","tol_peg_2","837","837","0","[[1,0,0],[2,0],[3]]","3","[[0,0,0],[2,3],[1]]","12","0","","","","","","4","","","","","","","","",""
"","","","","","single-stim-button","166","343076","0.0-2.0-46.3-0.3","60fd01cc86bb3e402db85e93","A3","batch1","","616","tol_tohand","","","","tol_peg_3","616","616","0","[[1,0,0],[2,0],[0]]","4","[[0,0,0],[2,3],[1]]","12","0","","","","","","4","","","","","","","","",""
"","","","","","single-stim-button","167","343702","0.0-2.0-46.3-1.3","60fd01cc86bb3e402db85e93","A3","batch1","","625","tol_toboard","","","","tol_peg_2","625","625","0","[[1,0,0],[2,3],[0]]","4","[[0,0,0],[2,3],[1]]","12","0","","","","","","4","","","","","","","","",""
"","","","","","single-stim-button","168","344292","0.0-2.0-46.4-0.4","60fd01cc86bb3e402db85e93","A3","batch1","","590","tol_tohand","","","","tol_peg_1","590","590","0","[[0,0,0],[2,3],[0]]","5","[[0,0,0],[2,3],[1]]","12","0","","","","","","4","","","","","","","","",""
"","","","","","single-stim-button","169","345061","0.0-2.0-46.4-1.4","60fd01cc86bb3e402db85e93","A3","batch1","","769","tol_toboard","","","","tol_peg_3","769","769","0","[[0,0,0],[2,3],[1]]","5","[[0,0,0],[2,3],[1]]","12","0","","","","","","4","","","","","","","","",""
"","","","","","poldrack-single-stim","170","346064","0.0-2.0-47.0","60fd01cc86bb3e402db85e93","A3","batch1","","-1","tol_feedback","","","true","","1000","1000","500","","","","","","-1","none","true","4534","8032","","","","","","","","","",""
"","","","","","html-button-response","171","349385","0.0-2.0-48.0","60fd01cc86bb3e402db85e93","A3","batch1","","3319.5999999046326","attention_check","<p class = block-text>How many balls are in your board<br></p>","1","true","","","","","","","","","","","","","","","","","","","","","","","",""
"","","","","","html-button-response","172","350180","0.0-2.0-49.0","60fd01cc86bb3e402db85e93","A3","batch1","","794.9000000953674","tol_trial_num","<div class = centerbox><p class = center-block-text>problem <strong>14</strong> out of 25 problems</p></div>","0","","","","","","","","","","","","","","","","","","","","","","","","",""
"","","","","","single-stim-button","173","353616","0.0-2.0-50.0-0.0","60fd01cc86bb3e402db85e93","A3","batch1","","3435","tol_tohand","","","","tol_peg_1","3435","3435","0","[[2,0,0],[3,0],[0]]","1","[[1,2,0],[3,0],[0]]","13","0","","","","","","4","","","","","","","","",""
"","","","","","single-stim-button","174","355422","0.0-2.0-50.0-1.0","60fd01cc86bb3e402db85e93","A3","batch1","","1805","tol_toboard","","","","tol_peg_2","1805","1805","0","[[2,0,0],[3,1],[0]]","1","[[1,2,0],[3,0],[0]]","13","0","","","","","","4","","","","","","","","",""
"","","","","","single-stim-button","175","356155","0.0-2.0-50.1-0.1","60fd01cc86bb3e402db85e93","A3","batch1","","732","tol_tohand","","","","tol_peg_1","732","732","0","[[0,0,0],[3,1],[0]]","2","[[1,2,0],[3,0],[0]]","13","0","","","","","","4","","","","","","","","",""
"","","","","","single-stim-button","176","356967","0.0-2.0-50.1-1.1","60fd01cc86bb3e402db85e93","A3","batch1","","812","tol_toboard","","","","tol_peg_3","812","812","0","[[0,0,0],[3,1],[2]]","2","[[1,2,0],[3,0],[0]]","13","0","","","","","","4","","","","","","","","",""
"","","","","","single-stim-button","177","357675","0.0-2.0-50.2-0.2","60fd01cc86bb3e402db85e93","A3","batch1","","707","tol_tohand","","","","tol_peg_2","707","707","0","[[0,0,0],[3,0],[2]]","3","[[1,2,0],[3,0],[0]]","13","0","","","","","","4","","","","","","","","",""
"","","","","","single-stim-button","178","358446","0.0-2.0-50.2-1.2","60fd01cc86bb3e402db85e93","A3","batch1","","771","tol_toboard","","","","tol_peg_1","771","771","0","[[1,0,0],[3,0],[2]]","3","[[1,2,0],[3,0],[0]]","13","0","","","","","","4","","","","","","","","",""
"","","","","","single-stim-button","179","359089","0.0-2.0-50.3-0.3","60fd01cc86bb3e402db85e93","A3","batch1","","642","tol_tohand","","","","tol_peg_3","642","642","0","[[1,0,0],[3,0],[0]]","4","[[1,2,0],[3,0],[0]]","13","0","","","","","","4","","","","","","","","",""
"","","","","","single-stim-button","180","360004","0.0-2.0-50.3-1.3","60fd01cc86bb3e402db85e93","A3","batch1","","915","tol_toboard","","","","tol_peg_1","915","915","0","[[1,2,0],[3,0],[0]]","4","[[1,2,0],[3,0],[0]]","13","0","","","","","","4","","","","","","","","",""
"","","","","","poldrack-single-stim","181","361006","0.0-2.0-51.0","60fd01cc86bb3e402db85e93","A3","batch1","","-1","tol_feedback","","","true","","1000","1000","500","","","","","","-1","none","true","3435","5516","","","","","","","","","",""
"","","","","","html-button-response","182","362688","0.0-2.0-52.0","60fd01cc86bb3e402db85e93","A3","batch1","","1680.5999999046326","tol_trial_num","<div class = centerbox><p class = center-block-text>problem <strong>15</strong> out of 25 problems</p></div>","0","","","","","","","","","","","","","","","","","","","","","","","","",""
"","","","","","single-stim-button","183","366340","0.0-2.0-53.0-0.0","60fd01cc86bb3e402db85e93","A3","batch1","","3652","tol_tohand","","","","tol_peg_1","3652","3652","0","[[1,0,0],[3,0],[0]]","1","[[2,0,0],[3,0],[1]]","14","0","","","","","","3","","","","","","","","",""
"","","","","","single-stim-button","184","367195","0.0-2.0-53.0-1.0","60fd01cc86bb3e402db85e93","A3","batch1","","855","tol_toboard","","","","tol_peg_2","855","855","0","[[1,0,0],[3,2],[0]]","1","[[2,0,0],[3,0],[1]]","14","0","","","","","","3","","","","","","","","",""
"","","","","","single-stim-button","185","367900","0.0-2.0-53.1-0.1","60fd01cc86bb3e402db85e93","A3","batch1","","705","tol_tohand","","","","tol_peg_1","705","705","0","[[0,0,0],[3,2],[0]]","2","[[2,0,0],[3,0],[1]]","14","0","","","","","","3","","","","","","","","",""
"","","","","","single-stim-button","186","368777","0.0-2.0-53.1-1.1","60fd01cc86bb3e402db85e93","A3","batch1","","876","tol_toboard","","","","tol_peg_3","876","876","0","[[0,0,0],[3,2],[1]]","2","[[2,0,0],[3,0],[1]]","14","0","","","","","","3","","","","","","","","",""
"","","","","","single-stim-button","187","369616","0.0-2.0-53.2-0.2","60fd01cc86bb3e402db85e93","A3","batch1","","839","tol_tohand","","","","tol_peg_2","839","839","0","[[0,0,0],[3,0],[1]]","3","[[2,0,0],[3,0],[1]]","14","0","","","","","","3","","","","","","","","",""
"","","","","","single-stim-button","188","370380","0.0-2.0-53.2-1.2","60fd01cc86bb3e402db85e93","A3","batch1","","764","tol_toboard","","","","tol_peg_1","764","764","0","[[2,0,0],[3,0],[1]]","3","[[2,0,0],[3,0],[1]]","14","0","","","","","","3","","","","","","","","",""
"","","","","","poldrack-single-stim","189","371381","0.0-2.0-54.0","60fd01cc86bb3e402db85e93","A3","batch1","","-1","tol_feedback","","","true","","1000","1000","500","","","","","","-1","none","true","3652","5196","","","","","","","","","",""
"","","","","","html-button-response","190","371913","0.0-2.0-55.0","60fd01cc86bb3e402db85e93","A3","batch1","","531.6999998092651","tol_trial_num","<div class = centerbox><p class = center-block-text>problem <strong>16</strong> out of 25 problems</p></div>","0","","","","","","","","","","","","","","","","","","","","","","","","",""
"","","","","","single-stim-button","191","379096","0.0-2.0-56.0-0.0","60fd01cc86bb3e402db85e93","A3","batch1","","7182","tol_tohand","","","","tol_peg_3","7182","7182","0","[[0,0,0],[2,3],[0]]","1","[[2,3,0],[1,0],[0]]","15","0","","","","","","7","","","","","","","","",""
"","","","","","single-stim-button","192","409595","0.0-2.0-56.0-1.0","60fd01cc86bb3e402db85e93","A3","batch1","","30499","tol_toboard","","","","tol_peg_1","30499","30499","0","[[1,0,0],[2,3],[0]]","1","[[2,3,0],[1,0],[0]]","15","0","","","","","","7","","","","","","","","",""
"","","","","","single-stim-button","193","410660","0.0-2.0-56.1-0.1","60fd01cc86bb3e402db85e93","A3","batch1","","1065","tol_tohand","","","","tol_peg_2","1065","1065","0","[[1,0,0],[2,0],[0]]","2","[[2,3,0],[1,0],[0]]","15","0","","","","","","7","","","","","","","","",""
"","","","","","single-stim-button","194","411482","0.0-2.0-56.1-1.1","60fd01cc86bb3e402db85e93","A3","batch1","","821","tol_toboard","","","","tol_peg_1","821","821","0","[[1,3,0],[2,0],[0]]","2","[[2,3,0],[1,0],[0]]","15","0","","","","","","7","","","","","","","","",""
"","","","","","single-stim-button","195","412261","0.0-2.0-56.2-0.2","60fd01cc86bb3e402db85e93","A3","batch1","","779","tol_tohand","","","","tol_peg_2","779","779","0","[[1,3,0],[0,0],[0]]","3","[[2,3,0],[1,0],[0]]","15","0","","","","","","7","","","","","","","","",""
"","","","","","single-stim-button","196","413222","0.0-2.0-56.2-1.2","60fd01cc86bb3e402db85e93","A3","batch1","","960","tol_toboard","","","","tol_peg_3","960","960","0","[[1,3,0],[0,0],[2]]","3","[[2,3,0],[1,0],[0]]","15","0","","","","","","7","","","","","","","","",""
"","","","","","single-stim-button","197","414659","0.0-2.0-56.3-0.3","60fd01cc86bb3e402db85e93","A3","batch1","","1436","tol_tohand","","","","tol_peg_1","1436","1436","0","[[1,0,0],[0,0],[2]]","4","[[2,3,0],[1,0],[0]]","15","0","","","","","","7","","","","","","","","",""
"","","","","","single-stim-button","198","415704","0.0-2.0-56.3-1.3","60fd01cc86bb3e402db85e93","A3","batch1","","1044","tol_toboard","","","","tol_peg_2","1044","1044","0","[[1,0,0],[3,0],[2]]","4","[[2,3,0],[1,0],[0]]","15","0","","","","","","7","","","","","","","","",""
"","","","","","single-stim-button","199","416364","0.0-2.0-56.4-0.4","60fd01cc86bb3e402db85e93","A3","batch1","","659","tol_tohand","","","","tol_peg_1","659","659","0","[[0,0,0],[3,0],[2]]","5","[[2,3,0],[1,0],[0]]","15","0","","","","","","7","","","","","","","","",""
"","","","","","single-stim-button","200","417045","0.0-2.0-56.4-1.4","60fd01cc86bb3e402db85e93","A3","batch1","","680","tol_toboard","","","","tol_peg_2","680","680","0","[[0,0,0],[3,1],[2]]","5","[[2,3,0],[1,0],[0]]","15","0","","","","","","7","","","","","","","","",""
"","","","","","single-stim-button","201","417621","0.0-2.0-56.5-0.5","60fd01cc86bb3e402db85e93","A3","batch1","","575","tol_tohand","","","","tol_peg_3","575","575","0","[[0,0,0],[3,1],[0]]","6","[[2,3,0],[1,0],[0]]","15","0","","","","","","7","","","","","","","","",""
"","","","","","single-stim-button","202","418597","0.0-2.0-56.5-1.5","60fd01cc86bb3e402db85e93","A3","batch1","","976","tol_toboard","","","","tol_peg_1","976","976","0","[[2,0,0],[3,1],[0]]","6","[[2,3,0],[1,0],[0]]","15","0","","","","","","7","","","","","","","","",""
"","","","","","single-stim-button","203","419197","0.0-2.0-56.6-0.6","60fd01cc86bb3e402db85e93","A3","batch1","","600","tol_tohand","","","","tol_peg_2","600","600","0","[[2,0,0],[3,0],[0]]","7","[[2,3,0],[1,0],[0]]","15","0","","","","","","7","","","","","","","","",""
"","","","","","single-stim-button","204","419978","0.0-2.0-56.6-1.6","60fd01cc86bb3e402db85e93","A3","batch1","","781","tol_toboard","","","","tol_peg_3","781","781","0","[[2,0,0],[3,0],[1]]","7","[[2,3,0],[1,0],[0]]","15","0","","","","","","7","","","","","","","","",""
"","","","","","single-stim-button","205","420613","0.0-2.0-56.7-0.7","60fd01cc86bb3e402db85e93","A3","batch1","","634","tol_tohand","","","","tol_peg_2","634","634","0","[[2,0,0],[0,0],[1]]","8","[[2,3,0],[1,0],[0]]","15","0","","","","","","7","","","","","","","","",""
"","","","","","single-stim-button","206","421304","0.0-2.0-56.7-1.7","60fd01cc86bb3e402db85e93","A3","batch1","","691","tol_toboard","","","","tol_peg_1","691","691","0","[[2,3,0],[0,0],[1]]","8","[[2,3,0],[1,0],[0]]","15","0","","","","","","7","","","","","","","","",""
"","","","","","single-stim-button","207","422164","0.0-2.0-56.8-0.8","60fd01cc86bb3e402db85e93","A3","batch1","","859","tol_tohand","","","","tol_peg_3","859","859","0","[[2,3,0],[0,0],[0]]","9","[[2,3,0],[1,0],[0]]","15","0","","","","","","7","","","","","","","","",""
"","","","","","single-stim-button","208","422885","0.0-2.0-56.8-1.8","60fd01cc86bb3e402db85e93","A3","batch1","","721","tol_toboard","","","","tol_peg_2","721","721","0","[[2,3,0],[1,0],[0]]","9","[[2,3,0],[1,0],[0]]","15","0","","","","","","7","","","","","","","","",""
"","","","","","poldrack-single-stim","209","423894","0.0-2.0-57.0","60fd01cc86bb3e402db85e93","A3","batch1","","-1","tol_feedback","","","true","","1000","1000","500","","","","","","-1","none","true","7182","13789","","","","","","","","","",""
"","","","","","html-button-response","210","424521","0.0-2.0-58.0","60fd01cc86bb3e402db85e93","A3","batch1","","626.0999999046326","tol_trial_num","<div class = centerbox><p class = center-block-text>problem <strong>17</strong> out of 25 problems</p></div>","0","","","","","","","","","","","","","","","","","","","","","","","","",""
"","","","","","single-stim-button","211","430195","0.0-2.0-59.0-0.0","60fd01cc86bb3e402db85e93","A3","batch1","","5674","tol_tohand","","","","tol_peg_1","5674","5674","0","[[1,0,0],[3,0],[0]]","1","[[3,1,0],[2,0],[0]]","16","0","","","","","","5","","","","","","","","",""
"","","","","","single-stim-button","212","434779","0.0-2.0-59.0-1.0","60fd01cc86bb3e402db85e93","A3","batch1","","4584","tol_toboard","","","","tol_peg_1","4584","4584","0","[[1,2,0],[3,0],[0]]","1","[[3,1,0],[2,0],[0]]","16","0","","","","","","5","","","","","","","","",""
"","","","","","single-stim-button","213","435930","0.0-2.0-59.1-0.1","60fd01cc86bb3e402db85e93","A3","batch1","","1150","tol_tohand","","","","tol_peg_2","1150","1150","0","[[1,2,0],[0,0],[0]]","2","[[3,1,0],[2,0],[0]]","16","0","","","","","","5","","","","","","","","",""
"","","","","","single-stim-button","214","438717","0.0-2.0-59.1-1.1","60fd01cc86bb3e402db85e93","A3","batch1","","2787","tol_toboard","","","","tol_peg_3","2787","2787","0","[[1,2,0],[0,0],[3]]","2","[[3,1,0],[2,0],[0]]","16","0","","","","","","5","","","","","","","","",""
"","","","","","single-stim-button","215","439425","0.0-2.0-59.2-0.2","60fd01cc86bb3e402db85e93","A3","batch1","","708","tol_tohand","","","","tol_peg_1","708","708","0","[[1,0,0],[0,0],[3]]","3","[[3,1,0],[2,0],[0]]","16","0","","","","","","5","","","","","","","","",""
"","","","","","single-stim-button","216","440232","0.0-2.0-59.2-1.2","60fd01cc86bb3e402db85e93","A3","batch1","","806","tol_toboard","","","","tol_peg_2","806","806","0","[[1,0,0],[2,0],[3]]","3","[[3,1,0],[2,0],[0]]","16","0","","","","","","5","","","","","","","","",""
"","","","","","single-stim-button","217","440985","0.0-2.0-59.3-0.3","60fd01cc86bb3e402db85e93","A3","batch1","","752","tol_tohand","","","","tol_peg_1","752","752","0","[[0,0,0],[2,0],[3]]","4","[[3,1,0],[2,0],[0]]","16","0","","","","","","5","","","","","","","","",""
"","","","","","single-stim-button","218","441717","0.0-2.0-59.3-1.3","60fd01cc86bb3e402db85e93","A3","batch1","","732","tol_toboard","","","","tol_peg_2","732","732","0","[[0,0,0],[2,1],[3]]","4","[[3,1,0],[2,0],[0]]","16","0","","","","","","5","","","","","","","","",""
"","","","","","single-stim-button","219","442546","0.0-2.0-59.4-0.4","60fd01cc86bb3e402db85e93","A3","batch1","","828","tol_tohand","","","","tol_peg_3","828","828","0","[[0,0,0],[2,1],[0]]","5","[[3,1,0],[2,0],[0]]","16","0","","","","","","5","","","","","","","","",""
"","","","","","single-stim-button","220","443430","0.0-2.0-59.4-1.4","60fd01cc86bb3e402db85e93","A3","batch1","","884","tol_toboard","","","","tol_peg_1","884","884","0","[[3,0,0],[2,1],[0]]","5","[[3,1,0],[2,0],[0]]","16","0","","","","","","5","","","","","","","","",""
"","","","","","single-stim-button","221","444107","0.0-2.0-59.5-0.5","60fd01cc86bb3e402db85e93","A3","batch1","","677","tol_tohand","","","","tol_peg_2","677","677","0","[[3,0,0],[2,0],[0]]","6","[[3,1,0],[2,0],[0]]","16","0","","","","","","5","","","","","","","","",""
"","","","","","single-stim-button","222","444896","0.0-2.0-59.5-1.5","60fd01cc86bb3e402db85e93","A3","batch1","","788","tol_toboard","","","","tol_peg_1","788","788","0","[[3,1,0],[2,0],[0]]","6","[[3,1,0],[2,0],[0]]","16","0","","","","","","5","","","","","","","","",""
"","","","","","poldrack-single-stim","223","445908","0.0-2.0-60.0","60fd01cc86bb3e402db85e93","A3","batch1","","-1","tol_feedback","","","true","","1000","1000","500","","","","","","-1","none","true","5674","9789","","","","","","","","","",""
"","","","","","html-button-response","224","446824","0.0-2.0-61.0","60fd01cc86bb3e402db85e93","A3","batch1","","916.0999999046326","tol_trial_num","<div class = centerbox><p class = center-block-text>problem <strong>18</strong> out of 25 problems</p></div>","0","","","","","","","","","","","","","","","","","","","","","","","","",""
"","","","","","single-stim-button","225","456764","0.0-2.0-62.0-0.0","60fd01cc86bb3e402db85e93","A3","batch1","","9938","tol_tohand","","","","tol_peg_2","9938","9938","0","[[1,2,0],[0,0],[0]]","1","[[3,0,0],[2,0],[1]]","17","0","","","","","","5","","","","","","","","",""
"","","","","","single-stim-button","226","457531","0.0-2.0-62.0-1.0","60fd01cc86bb3e402db85e93","A3","batch1","","767","tol_toboard","","","","tol_peg_3","767","767","0","[[1,2,0],[0,0],[3]]","1","[[3,0,0],[2,0],[1]]","17","0","","","","","","5","","","","","","","","",""
"","","","","","single-stim-button","227","458307","0.0-2.0-62.1-0.1","60fd01cc86bb3e402db85e93","A3","batch1","","774","tol_tohand","","","","tol_peg_1","774","774","0","[[1,0,0],[0,0],[3]]","2","[[3,0,0],[2,0],[1]]","17","0","","","","","","5","","","","","","","","",""
"","","","","","single-stim-button","228","459023","0.0-2.0-62.1-1.1","60fd01cc86bb3e402db85e93","A3","batch1","","716","tol_toboard","","","","tol_peg_2","716","716","0","[[1,0,0],[2,0],[3]]","2","[[3,0,0],[2,0],[1]]","17","0","","","","","","5","","","","","","","","",""
"","","","","","single-stim-button","229","459850","0.0-2.0-62.2-0.2","60fd01cc86bb3e402db85e93","A3","batch1","","825","tol_tohand","","","","tol_peg_1","825","825","0","[[0,0,0],[2,0],[3]]","3","[[3,0,0],[2,0],[1]]","17","0","","","","","","5","","","","","","","","",""
"","","","","","single-stim-button","230","460479","0.0-2.0-62.2-1.2","60fd01cc86bb3e402db85e93","A3","batch1","","629","tol_toboard","","","","tol_peg_2","629","629","0","[[0,0,0],[2,1],[3]]","3","[[3,0,0],[2,0],[1]]","17","0","","","","","","5","","","","","","","","",""
"","","","","","single-stim-button","231","461085","0.0-2.0-62.3-0.3","60fd01cc86bb3e402db85e93","A3","batch1","","606","tol_tohand","","","","tol_peg_3","606","606","0","[[0,0,0],[2,1],[0]]","4","[[3,0,0],[2,0],[1]]","17","0","","","","","","5","","","","","","","","",""
"","","","","","single-stim-button","232","461936","0.0-2.0-62.3-1.3","60fd01cc86bb3e402db85e93","A3","batch1","","850","tol_toboard","","","","tol_peg_1","850","850","0","[[3,0,0],[2,1],[0]]","4","[[3,0,0],[2,0],[1]]","17","0","","","","","","5","","","","","","","","",""
"","","","","","single-stim-button","233","462757","0.0-2.0-62.4-0.4","60fd01cc86bb3e402db85e93","A3","batch1","","820","tol_tohand","","","","tol_peg_2","820","820","0","[[3,0,0],[2,0],[0]]","5","[[3,0,0],[2,0],[1]]","17","0","","","","","","5","","","","","","","","",""
"","","","","","single-stim-button","234","463503","0.0-2.0-62.4-1.4","60fd01cc86bb3e402db85e93","A3","batch1","","746","tol_toboard","","","","tol_peg_3","746","746","0","[[3,0,0],[2,0],[1]]","5","[[3,0,0],[2,0],[1]]","17","0","","","","","","5","","","","","","","","",""
"","","","","","poldrack-single-stim","235","464513","0.0-2.0-63.0","60fd01cc86bb3e402db85e93","A3","batch1","","-1","tol_feedback","","","true","","1000","1000","500","","","","","","-1","none","true","9938","12963","","","","","","","","","",""
"","","","","","html-button-response","236","465294","0.0-2.0-64.0","60fd01cc86bb3e402db85e93","A3","batch1","","780.2999997138977","tol_trial_num","<div class = centerbox><p class = center-block-text>problem <strong>19</strong> out of 25 problems</p></div>","0","","","","","","","","","","","","","","","","","","","","","","","","",""
"","","","","","single-stim-button","237","499759","0.0-2.0-65.0-0.0","60fd01cc86bb3e402db85e93","A3","batch1","","34464","tol_tohand","","","","tol_peg_1","34464","34464","0","[[1,0,0],[3,0],[0]]","1","[[0,0,0],[1,2],[3]]","18","0","","","","","","7","","","","","","","","",""
"","","","","","single-stim-button","238","502009","0.0-2.0-65.0-1.0","60fd01cc86bb3e402db85e93","A3","batch1","","2249","tol_toboard","","","","tol_peg_2","2249","2249","0","[[1,0,0],[3,2],[0]]","1","[[0,0,0],[1,2],[3]]","18","0","","","","","","7","","","","","","","","",""
"","","","","","single-stim-button","239","503000","0.0-2.0-65.1-0.1","60fd01cc86bb3e402db85e93","A3","batch1","","990","tol_tohand","","","","tol_peg_1","990","990","0","[[0,0,0],[3,2],[0]]","2","[[0,0,0],[1,2],[3]]","18","0","","","","","","7","","","","","","","","",""
"","","","","","single-stim-button","240","507330","0.0-2.0-65.1-1.1","60fd01cc86bb3e402db85e93","A3","batch1","","4329","tol_toboard","","","","tol_peg_3","4329","4329","0","[[0,0,0],[3,2],[1]]","2","[[0,0,0],[1,2],[3]]","18","0","","","","","","7","","","","","","","","",""
"","","","","","single-stim-button","241","508294","0.0-2.0-65.2-0.2","60fd01cc86bb3e402db85e93","A3","batch1","","962","tol_tohand","","","","tol_peg_2","962","962","0","[[0,0,0],[3,0],[1]]","3","[[0,0,0],[1,2],[3]]","18","0","","","","","","7","","","","","","","","",""
"","","","","","single-stim-button","242","509121","0.0-2.0-65.2-1.2","60fd01cc86bb3e402db85e93","A3","batch1","","827","tol_toboard","","","","tol_peg_1","827","827","0","[[2,0,0],[3,0],[1]]","3","[[0,0,0],[1,2],[3]]","18","0","","","","","","7","","","","","","","","",""
"","","","","","single-stim-button","243","509887","0.0-2.0-65.3-0.3","60fd01cc86bb3e402db85e93","A3","batch1","","765","tol_tohand","","","","tol_peg_2","765","765","0","[[2,0,0],[0,0],[1]]","4","[[0,0,0],[1,2],[3]]","18","0","","","","","","7","","","","","","","","",""
"","","","","","single-stim-button","244","510708","0.0-2.0-65.3-1.3","60fd01cc86bb3e402db85e93","A3","batch1","","821","tol_toboard","","","","tol_peg_1","821","821","0","[[2,3,0],[0,0],[1]]","4","[[0,0,0],[1,2],[3]]","18","0","","","","","","7","","","","","","","","",""
"","","","","","single-stim-button","245","511345","0.0-2.0-65.4-0.4","60fd01cc86bb3e402db85e93","A3","batch1","","636","tol_tohand","","","","tol_peg_3","636","636","0","[[2,3,0],[0,0],[0]]","5","[[0,0,0],[1,2],[3]]","18","0","","","","","","7","","","","","","","","",""
"","","","","","single-stim-button","246","512251","0.0-2.0-65.4-1.4","60fd01cc86bb3e402db85e93","A3","batch1","","905","tol_toboard","","","","tol_peg_2","905","905","0","[[2,3,0],[1,0],[0]]","5","[[0,0,0],[1,2],[3]]","18","0","","","","","","7","","","","","","","","",""
"","","","","","single-stim-button","247","512925","0.0-2.0-65.5-0.5","60fd01cc86bb3e402db85e93","A3","batch1","","673","tol_tohand","","","","tol_peg_1","673","673","0","[[2,0,0],[1,0],[0]]","6","[[0,0,0],[1,2],[3]]","18","0","","","","","","7","","","","","","","","",""
"","","","","","single-stim-button","248","513877","0.0-2.0-65.5-1.5","60fd01cc86bb3e402db85e93","A3","batch1","","951","tol_toboard","","","","tol_peg_3","951","951","0","[[2,0,0],[1,0],[3]]","6","[[0,0,0],[1,2],[3]]","18","0","","","","","","7","","","","","","","","",""
"","","","","","single-stim-button","249","514644","0.0-2.0-65.6-0.6","60fd01cc86bb3e402db85e93","A3","batch1","","767","tol_tohand","","","","tol_peg_1","767","767","0","[[0,0,0],[1,0],[3]]","7","[[0,0,0],[1,2],[3]]","18","0","","","","","","7","","","","","","","","",""
"","","","","","single-stim-button","250","515254","0.0-2.0-65.6-1.6","60fd01cc86bb3e402db85e93","A3","batch1","","610","tol_toboard","","","","tol_peg_2","610","610","0","[[0,0,0],[1,2],[3]]","7","[[0,0,0],[1,2],[3]]","18","0","","","","","","7","","","","","","","","",""
"","","","","","poldrack-single-stim","251","516255","0.0-2.0-66.0","60fd01cc86bb3e402db85e93","A3","batch1","","-1","tol_feedback","","","true","","1000","1000","500","","","","","","-1","none","true","34464","39257","","","","","","","","","",""
"","","","","","html-button-response","252","516934","0.0-2.0-67.0","60fd01cc86bb3e402db85e93","A3","batch1","","677.5999999046326","tol_trial_num","<div class = centerbox><p class = center-block-text>problem <strong>20</strong> out of 25 problems</p></div>","0","","","","","","","","","","","","","","","","","","","","","","","","",""
"","","","","","single-stim-button","253","522054","0.0-2.0-68.0-0.0","60fd01cc86bb3e402db85e93","A3","batch1","","5120","tol_tohand","","","","tol_peg_1","5120","5120","0","[[1,0,0],[3,0],[0]]","1","[[2,1,0],[0,0],[3]]","19","0","","","","","","5","","","","","","","","",""
"","","","","","single-stim-button","254","523370","0.0-2.0-68.0-1.0","60fd01cc86bb3e402db85e93","A3","batch1","","1314","tol_toboard","","","","tol_peg_2","1314","1314","0","[[1,0,0],[3,2],[0]]","1","[[2,1,0],[0,0],[3]]","19","0","","","","","","5","","","","","","","","",""
"","","","","","single-stim-button","255","524230","0.0-2.0-68.1-0.1","60fd01cc86bb3e402db85e93","A3","batch1","","860","tol_tohand","","","","tol_peg_1","860","860","0","[[0,0,0],[3,2],[0]]","2","[[2,1,0],[0,0],[3]]","19","0","","","","","","5","","","","","","","","",""
"","","","","","single-stim-button","256","525135","0.0-2.0-68.1-1.1","60fd01cc86bb3e402db85e93","A3","batch1","","904","tol_toboard","","","","tol_peg_3","904","904","0","[[0,0,0],[3,2],[1]]","2","[[2,1,0],[0,0],[3]]","19","0","","","","","","5","","","","","","","","",""
"","","","","","single-stim-button","257","525756","0.0-2.0-68.2-0.2","60fd01cc86bb3e402db85e93","A3","batch1","","621","tol_tohand","","","","tol_peg_2","621","621","0","[[0,0,0],[3,0],[1]]","3","[[2,1,0],[0,0],[3]]","19","0","","","","","","5","","","","","","","","",""
"","","","","","single-stim-button","258","526564","0.0-2.0-68.2-1.2","60fd01cc86bb3e402db85e93","A3","batch1","","806","tol_toboard","","","","tol_peg_1","806","806","0","[[2,0,0],[3,0],[1]]","3","[[2,1,0],[0,0],[3]]","19","0","","","","","","5","","","","","","","","",""
"","","","","","single-stim-button","259","527359","0.0-2.0-68.3-0.3","60fd01cc86bb3e402db85e93","A3","batch1","","795","tol_tohand","","","","tol_peg_3","795","795","0","[[2,0,0],[3,0],[0]]","4","[[2,1,0],[0,0],[3]]","19","0","","","","","","5","","","","","","","","",""
"","","","","","single-stim-button","260","528158","0.0-2.0-68.3-1.3","60fd01cc86bb3e402db85e93","A3","batch1","","798","tol_toboard","","","","tol_peg_1","798","798","0","[[2,1,0],[3,0],[0]]","4","[[2,1,0],[0,0],[3]]","19","0","","","","","","5","","","","","","","","",""
"","","","","","single-stim-button","261","528896","0.0-2.0-68.4-0.4","60fd01cc86bb3e402db85e93","A3","batch1","","738","tol_tohand","","","","tol_peg_2","738","738","0","[[2,1,0],[0,0],[0]]","5","[[2,1,0],[0,0],[3]]","19","0","","","","","","5","","","","","","","","",""
"","","","","","single-stim-button","262","529695","0.0-2.0-68.4-1.4","60fd01cc86bb3e402db85e93","A3","batch1","","798","tol_toboard","","","","tol_peg_3","798","798","0","[[2,1,0],[0,0],[3]]","5","[[2,1,0],[0,0],[3]]","19","0","","","","","","5","","","","","","","","",""
"","","","","","poldrack-single-stim","263","530696","0.0-2.0-69.0","60fd01cc86bb3e402db85e93","A3","batch1","","-1","tol_feedback","","","true","","1000","1000","500","","","","","","-1","none","true","5120","8134","","","","","","","","","",""
"","","","","","html-button-response","264","531511","0.0-2.0-70.0","60fd01cc86bb3e402db85e93","A3","batch1","","813.8999996185303","tol_trial_num","<div class = centerbox><p class = center-block-text>problem <strong>21</strong> out of 25 problems</p></div>","0","","","","","","","","","","","","","","","","","","","","","","","","",""
"","","","","","single-stim-button","265","542425","0.0-2.0-71.0-0.0","60fd01cc86bb3e402db85e93","A3","batch1","","10914","tol_tohand","","","","tol_peg_2","10914","10914","0","[[1,2,0],[0,0],[0]]","1","[[3,2,0],[0,0],[1]]","20","0","","","","","","6","","","","","","","","",""
"","","","","","single-stim-button","266","547054","0.0-2.0-71.0-1.0","60fd01cc86bb3e402db85e93","A3","batch1","","4627","tol_toboard","","","","tol_peg_3","4627","4627","0","[[1,2,0],[0,0],[3]]","1","[[3,2,0],[0,0],[1]]","20","0","","","","","","6","","","","","","","","",""
"","","","","","single-stim-button","267","547820","0.0-2.0-71.1-0.1","60fd01cc86bb3e402db85e93","A3","batch1","","765","tol_tohand","","","","tol_peg_1","765","765","0","[[1,0,0],[0,0],[3]]","2","[[3,2,0],[0,0],[1]]","20","0","","","","","","6","","","","","","","","",""
"","","","","","single-stim-button","268","548475","0.0-2.0-71.1-1.1","60fd01cc86bb3e402db85e93","A3","batch1","","655","tol_toboard","","","","tol_peg_2","655","655","0","[[1,0,0],[2,0],[3]]","2","[[3,2,0],[0,0],[1]]","20","0","","","","","","6","","","","","","","","",""
"","","","","","single-stim-button","269","549113","0.0-2.0-71.2-0.2","60fd01cc86bb3e402db85e93","A3","batch1","","637","tol_tohand","","","","tol_peg_1","637","637","0","[[0,0,0],[2,0],[3]]","3","[[3,2,0],[0,0],[1]]","20","0","","","","","","6","","","","","","","","",""
"","","","","","single-stim-button","270","549800","0.0-2.0-71.2-1.2","60fd01cc86bb3e402db85e93","A3","batch1","","686","tol_toboard","","","","tol_peg_2","686","686","0","[[0,0,0],[2,1],[3]]","3","[[3,2,0],[0,0],[1]]","20","0","","","","","","6","","","","","","","","",""
"","","","","","single-stim-button","271","550571","0.0-2.0-71.3-0.3","60fd01cc86bb3e402db85e93","A3","batch1","","770","tol_tohand","","","","tol_peg_3","770","770","0","[[0,0,0],[2,1],[0]]","4","[[3,2,0],[0,0],[1]]","20","0","","","","","","6","","","","","","","","",""
"","","","","","single-stim-button","272","551428","0.0-2.0-71.3-1.3","60fd01cc86bb3e402db85e93","A3","batch1","","856","tol_toboard","","","","tol_peg_1","856","856","0","[[3,0,0],[2,1],[0]]","4","[[3,2,0],[0,0],[1]]","20","0","","","","","","6","","","","","","","","",""
"","","","","","single-stim-button","273","552085","0.0-2.0-71.4-0.4","60fd01cc86bb3e402db85e93","A3","batch1","","656","tol_tohand","","","","tol_peg_2","656","656","0","[[3,0,0],[2,0],[0]]","5","[[3,2,0],[0,0],[1]]","20","0","","","","","","6","","","","","","","","",""
"","","","","","single-stim-button","274","552911","0.0-2.0-71.4-1.4","60fd01cc86bb3e402db85e93","A3","batch1","","825","tol_toboard","","","","tol_peg_3","825","825","0","[[3,0,0],[2,0],[1]]","5","[[3,2,0],[0,0],[1]]","20","0","","","","","","6","","","","","","","","",""
"","","","","","single-stim-button","275","553541","0.0-2.0-71.5-0.5","60fd01cc86bb3e402db85e93","A3","batch1","","630","tol_tohand","","","","tol_peg_2","630","630","0","[[3,0,0],[0,0],[1]]","6","[[3,2,0],[0,0],[1]]","20","0","","","","","","6","","","","","","","","",""
"","","","","","single-stim-button","276","554136","0.0-2.0-71.5-1.5","60fd01cc86bb3e402db85e93","A3","batch1","","593","tol_toboard","","","","tol_peg_1","593","593","0","[[3,2,0],[0,0],[1]]","6","[[3,2,0],[0,0],[1]]","20","0","","","","","","6","","","","","","","","",""
"","","","","","poldrack-single-stim","277","555137","0.0-2.0-72.0","60fd01cc86bb3e402db85e93","A3","batch1","","-1","tol_feedback","","","true","","1000","1000","500","","","","","","-1","none","true","10914","14372","","","","","","","","","",""
"","","","","","html-button-response","278","555865","0.0-2.0-73.0","60fd01cc86bb3e402db85e93","A3","batch1","","727.7999997138977","tol_trial_num","<div class = centerbox><p class = center-block-text>problem <strong>22</strong> out of 25 problems</p></div>","0","","","","","","","","","","","","","","","","","","","","","","","","",""
"","","","","","single-stim-button","279","589317","0.0-2.0-74.0-0.0","60fd01cc86bb3e402db85e93","A3","batch1","","33451","tol_tohand","","","","tol_peg_1","33451","33451","0","[[0,0,0],[2,3],[0]]","1","[[0,0,0],[1,2],[3]]","21","0","","","","","","6","","","","","","","","",""
"","","","","","single-stim-button","280","590254","0.0-2.0-74.0-1.0","60fd01cc86bb3e402db85e93","A3","batch1","","936","tol_toboard","","","","tol_peg_3","936","936","0","[[0,0,0],[2,3],[1]]","1","[[0,0,0],[1,2],[3]]","21","0","","","","","","6","","","","","","","","",""
"","","","","","single-stim-button","281","590981","0.0-2.0-74.1-0.1","60fd01cc86bb3e402db85e93","A3","batch1","","725","tol_tohand","","","","tol_peg_2","725","725","0","[[0,0,0],[2,0],[1]]","2","[[0,0,0],[1,2],[3]]","21","0","","","","","","6","","","","","","","","",""
"","","","","","single-stim-button","282","591816","0.0-2.0-74.1-1.1","60fd01cc86bb3e402db85e93","A3","batch1","","835","tol_toboard","","","","tol_peg_1","835","835","0","[[3,0,0],[2,0],[1]]","2","[[0,0,0],[1,2],[3]]","21","0","","","","","","6","","","","","","","","",""
"","","","","","single-stim-button","283","592413","0.0-2.0-74.2-0.2","60fd01cc86bb3e402db85e93","A3","batch1","","596","tol_tohand","","","","tol_peg_2","596","596","0","[[3,0,0],[0,0],[1]]","3","[[0,0,0],[1,2],[3]]","21","0","","","","","","6","","","","","","","","",""
"","","","","","single-stim-button","284","593331","0.0-2.0-74.2-1.2","60fd01cc86bb3e402db85e93","A3","batch1","","918","tol_toboard","","","","tol_peg_1","918","918","0","[[3,2,0],[0,0],[1]]","3","[[0,0,0],[1,2],[3]]","21","0","","","","","","6","","","","","","","","",""
"","","","","","single-stim-button","285","594166","0.0-2.0-74.3-0.3","60fd01cc86bb3e402db85e93","A3","batch1","","835","tol_tohand","","","","tol_peg_3","835","835","0","[[3,2,0],[0,0],[0]]","4","[[0,0,0],[1,2],[3]]","21","0","","","","","","6","","","","","","","","",""
"","","","","","single-stim-button","286","595009","0.0-2.0-74.3-1.3","60fd01cc86bb3e402db85e93","A3","batch1","","841","tol_toboard","","","","tol_peg_2","841","841","0","[[3,2,0],[1,0],[0]]","4","[[0,0,0],[1,2],[3]]","21","0","","","","","","6","","","","","","","","",""
"","","","","","single-stim-button","287","595867","0.0-2.0-74.4-0.4","60fd01cc86bb3e402db85e93","A3","batch1","","858","tol_tohand","","","","tol_peg_1","858","858","0","[[3,0,0],[1,0],[0]]","5","[[0,0,0],[1,2],[3]]","21","0","","","","","","6","","","","","","","","",""
"","","","","","single-stim-button","288","596420","0.0-2.0-74.4-1.4","60fd01cc86bb3e402db85e93","A3","batch1","","553","tol_toboard","","","","tol_peg_2","553","553","0","[[3,0,0],[1,2],[0]]","5","[[0,0,0],[1,2],[3]]","21","0","","","","","","6","","","","","","","","",""
"","","","","","single-stim-button","289","596993","0.0-2.0-74.5-0.5","60fd01cc86bb3e402db85e93","A3","batch1","","573","tol_tohand","","","","tol_peg_1","573","573","0","[[0,0,0],[1,2],[0]]","6","[[0,0,0],[1,2],[3]]","21","0","","","","","","6","","","","","","","","",""
"","","","","","single-stim-button","290","597688","0.0-2.0-74.5-1.5","60fd01cc86bb3e402db85e93","A3","batch1","","694","tol_toboard","","","","tol_peg_3","694","694","0","[[0,0,0],[1,2],[3]]","6","[[0,0,0],[1,2],[3]]","21","0","","","","","","6","","","","","","","","",""
"","","","","","poldrack-single-stim","291","598696","0.0-2.0-75.0","60fd01cc86bb3e402db85e93","A3","batch1","","-1","tol_feedback","","","true","","1000","1000","500","","","","","","-1","none","true","33451","37038","","","","","","","","","",""
"","","","","","html-button-response","292","599424","0.0-2.0-76.0","60fd01cc86bb3e402db85e93","A3","batch1","","727","tol_trial_num","<div class = centerbox><p class = center-block-text>problem <strong>23</strong> out of 25 problems</p></div>","0","","","","","","","","","","","","","","","","","","","","","","","","",""
"","","","","","single-stim-button","293","603468","0.0-2.0-77.0-0.0","60fd01cc86bb3e402db85e93","A3","batch1","","4044","tol_tohand","","","","tol_peg_1","4044","4044","0","[[1,0,0],[3,0],[0]]","1","[[1,3,2],[0,0],[0]]","22","0","","","","","","3","","","","","","","","",""
"","","","","","single-stim-button","294","604646","0.0-2.0-77.0-1.0","60fd01cc86bb3e402db85e93","A3","batch1","","1177","tol_toboard","","","","tol_peg_3","1177","1177","0","[[1,0,0],[3,0],[2]]","1","[[1,3,2],[0,0],[0]]","22","0","","","","","","3","","","","","","","","",""
"","","","","","single-stim-button","295","605224","0.0-2.0-77.1-0.1","60fd01cc86bb3e402db85e93","A3","batch1","","577","tol_tohand","","","","tol_peg_2","577","577","0","[[1,0,0],[0,0],[2]]","2","[[1,3,2],[0,0],[0]]","22","0","","","","","","3","","","","","","","","",""
"","","","","","single-stim-button","296","605968","0.0-2.0-77.1-1.1","60fd01cc86bb3e402db85e93","A3","batch1","","744","tol_toboard","","","","tol_peg_1","744","744","0","[[1,3,0],[0,0],[2]]","2","[[1,3,2],[0,0],[0]]","22","0","","","","","","3","","","","","","","","",""
"","","","","","single-stim-button","297","606983","0.0-2.0-77.2-0.2","60fd01cc86bb3e402db85e93","A3","batch1","","1015","tol_tohand","","","","tol_peg_3","1015","1015","0","[[1,3,0],[0,0],[0]]","3","[[1,3,2],[0,0],[0]]","22","0","","","","","","3","","","","","","","","",""
"","","","","","single-stim-button","298","607776","0.0-2.0-77.2-1.2","60fd01cc86bb3e402db85e93","A3","batch1","","793","tol_toboard","","","","tol_peg_1","793","793","0","[[1,3,2],[0,0],[0]]","3","[[1,3,2],[0,0],[0]]","22","0","","","","","","3","","","","","","","","",""
"","","","","","poldrack-single-stim","299","608778","0.0-2.0-78.0","60fd01cc86bb3e402db85e93","A3","batch1","","-1","tol_feedback","","","true","","1000","1000","500","","","","","","-1","none","true","4044","5636","","","","","","","","","",""
"","","","","","html-button-response","300","609574","0.0-2.0-79.0","60fd01cc86bb3e402db85e93","A3","batch1","","795","tol_trial_num","<div class = centerbox><p class = center-block-text>problem <strong>24</strong> out of 25 problems</p></div>","0","","","","","","","","","","","","","","","","","","","","","","","","",""
"","","","","","single-stim-button","301","625979","0.0-2.0-80.0-0.0","60fd01cc86bb3e402db85e93","A3","batch1","","16405","tol_tohand","","","","tol_peg_3","16405","16405","0","[[0,0,0],[2,3],[0]]","1","[[2,0,0],[3,0],[1]]","23","0","","","","","","7","","","","","","","","",""
"","","","","","single-stim-button","302","627061","0.0-2.0-80.0-1.0","60fd01cc86bb3e402db85e93","A3","batch1","","1081","tol_toboard","","","","tol_peg_1","1081","1081","0","[[1,0,0],[2,3],[0]]","1","[[2,0,0],[3,0],[1]]","23","0","","","","","","7","","","","","","","","",""
"","","","","","single-stim-button","303","627736","0.0-2.0-80.1-0.1","60fd01cc86bb3e402db85e93","A3","batch1","","675","tol_tohand","","","","tol_peg_2","675","675","0","[[1,0,0],[2,0],[0]]","2","[[2,0,0],[3,0],[1]]","23","0","","","","","","7","","","","","","","","",""
"","","","","","single-stim-button","304","628474","0.0-2.0-80.1-1.1","60fd01cc86bb3e402db85e93","A3","batch1","","738","tol_toboard","","","","tol_peg_3","738","738","0","[[1,0,0],[2,0],[3]]","2","[[2,0,0],[3,0],[1]]","23","0","","","","","","7","","","","","","","","",""
"","","","","","single-stim-button","305","630545","0.0-2.0-80.2-0.2","60fd01cc86bb3e402db85e93","A3","batch1","","2071","tol_tohand","","","","tol_peg_2","2071","2071","0","[[1,0,0],[0,0],[3]]","3","[[2,0,0],[3,0],[1]]","23","0","","","","","","7","","","","","","","","",""
"","","","","","single-stim-button","306","631200","0.0-2.0-80.2-1.2","60fd01cc86bb3e402db85e93","A3","batch1","","654","tol_toboard","","","","tol_peg_1","654","654","0","[[1,2,0],[0,0],[3]]","3","[[2,0,0],[3,0],[1]]","23","0","","","","","","7","","","","","","","","",""
"","","","","","single-stim-button","307","632266","0.0-2.0-80.3-0.3","60fd01cc86bb3e402db85e93","A3","batch1","","1064","tol_tohand","","","","tol_peg_3","1064","1064","0","[[1,2,0],[0,0],[0]]","4","[[2,0,0],[3,0],[1]]","23","0","","","","","","7","","","","","","","","",""
"","","","","","single-stim-button","308","633036","0.0-2.0-80.3-1.3","60fd01cc86bb3e402db85e93","A3","batch1","","770","tol_toboard","","","","tol_peg_2","770","770","0","[[1,2,0],[3,0],[0]]","4","[[2,0,0],[3,0],[1]]","23","0","","","","","","7","","","","","","","","",""
"","","","","","single-stim-button","309","633817","0.0-2.0-80.4-0.4","60fd01cc86bb3e402db85e93","A3","batch1","","781","tol_tohand","","","","tol_peg_1","781","781","0","[[1,0,0],[3,0],[0]]","5","[[2,0,0],[3,0],[1]]","23","0","","","","","","7","","","","","","","","",""
"","","","","","single-stim-button","310","634424","0.0-2.0-80.4-1.4","60fd01cc86bb3e402db85e93","A3","batch1","","607","tol_toboard","","","","tol_peg_3","607","607","0","[[1,0,0],[3,0],[2]]","5","[[2,0,0],[3,0],[1]]","23","0","","","","","","7","","","","","","","","",""
"","","","","","single-stim-button","311","635103","0.0-2.0-80.5-0.5","60fd01cc86bb3e402db85e93","A3","batch1","","679","tol_tohand","","","","tol_peg_1","679","679","0","[[0,0,0],[3,0],[2]]","6","[[2,0,0],[3,0],[1]]","23","0","","","","","","7","","","","","","","","",""
"","","","","","single-stim-button","312","635960","0.0-2.0-80.5-1.5","60fd01cc86bb3e402db85e93","A3","batch1","","857","tol_toboard","","","","tol_peg_2","857","857","0","[[0,0,0],[3,1],[2]]","6","[[2,0,0],[3,0],[1]]","23","0","","","","","","7","","","","","","","","",""
"","","","","","single-stim-button","313","636562","0.0-2.0-80.6-0.6","60fd01cc86bb3e402db85e93","A3","batch1","","601","tol_tohand","","","","tol_peg_3","601","601","0","[[0,0,0],[3,1],[0]]","7","[[2,0,0],[3,0],[1]]","23","0","","","","","","7","","","","","","","","",""
"","","","","","single-stim-button","314","637419","0.0-2.0-80.6-1.6","60fd01cc86bb3e402db85e93","A3","batch1","","856","tol_toboard","","","","tol_peg_1","856","856","0","[[2,0,0],[3,1],[0]]","7","[[2,0,0],[3,0],[1]]","23","0","","","","","","7","","","","","","","","",""
"","","","","","single-stim-button","315","638062","0.0-2.0-80.7-0.7","60fd01cc86bb3e402db85e93","A3","batch1","","642","tol_tohand","","","","tol_peg_2","642","642","0","[[2,0,0],[3,0],[0]]","8","[[2,0,0],[3,0],[1]]","23","0","","","","","","7","","","","","","","","",""
"","","","","","single-stim-button","316","638803","0.0-2.0-80.7-1.7","60fd01cc86bb3e402db85e93","A3","batch1","","741","tol_toboard","","","","tol_peg_3","741","741","0","[[2,0,0],[3,0],[1]]","8","[[2,0,0],[3,0],[1]]","23","0","","","","","","7","","","","","","","","",""
"","","","","","poldrack-single-stim","317","639805","0.0-2.0-81.0","60fd01cc86bb3e402db85e93","A3","batch1","","-1","tol_feedback","","","true","","1000","1000","500","","","","","","-1","none","true","16405","22918","","","","","","","","","",""
"","","","","","html-button-response","318","640383","0.0-2.0-82.0","60fd01cc86bb3e402db85e93","A3","batch1","","576.8000001907349","tol_trial_num","<div class = centerbox><p class = center-block-text>problem <strong>25</strong> out of 25 problems</p></div>","0","","","","","","","","","","","","","","","","","","","","","","","","",""
"","","","","","single-stim-button","319","648793","0.0-2.0-83.0-0.0","60fd01cc86bb3e402db85e93","A3","batch1","","8409","tol_tohand","","","","tol_peg_2","8409","8409","0","[[1,2,0],[0,0],[0]]","1","[[3,0,0],[1,0],[2]]","24","0","","","","","","7","","","","","","","","",""
"","","","","","single-stim-button","320","649737","0.0-2.0-83.0-1.0","60fd01cc86bb3e402db85e93","A3","batch1","","943","tol_toboard","","","","tol_peg_3","943","943","0","[[1,2,0],[0,0],[3]]","1","[[3,0,0],[1,0],[2]]","24","0","","","","","","7","","","","","","","","",""
"","","","","","single-stim-button","321","650408","0.0-2.0-83.1-0.1","60fd01cc86bb3e402db85e93","A3","batch1","","670","tol_tohand","","","","tol_peg_1","670","670","0","[[1,0,0],[0,0],[3]]","2","[[3,0,0],[1,0],[2]]","24","0","","","","","","7","","","","","","","","",""
"","","","","","single-stim-button","322","651215","0.0-2.0-83.1-1.1","60fd01cc86bb3e402db85e93","A3","batch1","","807","tol_toboard","","","","tol_peg_2","807","807","0","[[1,0,0],[2,0],[3]]","2","[[3,0,0],[1,0],[2]]","24","0","","","","","","7","","","","","","","","",""
"","","","","","single-stim-button","323","651827","0.0-2.0-83.2-0.2","60fd01cc86bb3e402db85e93","A3","batch1","","612","tol_tohand","","","","tol_peg_1","612","612","0","[[0,0,0],[2,0],[3]]","3","[[3,0,0],[1,0],[2]]","24","0","","","","","","7","","","","","","","","",""
"","","","","","single-stim-button","324","652432","0.0-2.0-83.2-1.2","60fd01cc86bb3e402db85e93","A3","batch1","","604","tol_toboard","","","","tol_peg_2","604","604","0","[[0,0,0],[2,1],[3]]","3","[[3,0,0],[1,0],[2]]","24","0","","","","","","7","","","","","","","","",""
"","","","","","single-stim-button","325","652988","0.0-2.0-83.3-0.3","60fd01cc86bb3e402db85e93","A3","batch1","","556","tol_tohand","","","","tol_peg_3","556","556","0","[[0,0,0],[2,1],[0]]","4","[[3,0,0],[1,0],[2]]","24","0","","","","","","7","","","","","","","","",""
"","","","","","single-stim-button","326","654608","0.0-2.0-83.3-1.3","60fd01cc86bb3e402db85e93","A3","batch1","","1619","tol_toboard","","","","tol_peg_1","1619","1619","0","[[3,0,0],[2,1],[0]]","4","[[3,0,0],[1,0],[2]]","24","0","","","","","","7","","","","","","","","",""
"","","","","","single-stim-button","327","655482","0.0-2.0-83.4-0.4","60fd01cc86bb3e402db85e93","A3","batch1","","874","tol_tohand","","","","tol_peg_2","874","874","0","[[3,0,0],[2,0],[0]]","5","[[3,0,0],[1,0],[2]]","24","0","","","","","","7","","","","","","","","",""
"","","","","","single-stim-button","328","656374","0.0-2.0-83.4-1.4","60fd01cc86bb3e402db85e93","A3","batch1","","891","tol_toboard","","","","tol_peg_1","891","891","0","[[3,1,0],[2,0],[0]]","5","[[3,0,0],[1,0],[2]]","24","0","","","","","","7","","","","","","","","",""
"","","","","","single-stim-button","329","657036","0.0-2.0-83.5-0.5","60fd01cc86bb3e402db85e93","A3","batch1","","661","tol_tohand","","","","tol_peg_2","661","661","0","[[3,1,0],[0,0],[0]]","6","[[3,0,0],[1,0],[2]]","24","0","","","","","","7","","","","","","","","",""
"","","","","","single-stim-button","330","657898","0.0-2.0-83.5-1.5","60fd01cc86bb3e402db85e93","A3","batch1","","861","tol_toboard","","","","tol_peg_3","861","861","0","[[3,1,0],[0,0],[2]]","6","[[3,0,0],[1,0],[2]]","24","0","","","","","","7","","","","","","","","",""
"","","","","","single-stim-button","331","658788","0.0-2.0-83.6-0.6","60fd01cc86bb3e402db85e93","A3","batch1","","890","tol_tohand","","","","tol_peg_1","890","890","0","[[3,0,0],[0,0],[2]]","7","[[3,0,0],[1,0],[2]]","24","0","","","","","","7","","","","","","","","",""
"","","","","","single-stim-button","332","659460","0.0-2.0-83.6-1.6","60fd01cc86bb3e402db85e93","A3","batch1","","671","tol_toboard","","","","tol_peg_2","671","671","0","[[3,0,0],[1,0],[2]]","7","[[3,0,0],[1,0],[2]]","24","0","","","","","","7","","","","","","","","",""
"","","","","","poldrack-single-stim","333","660469","0.0-2.0-84.0","60fd01cc86bb3e402db85e93","A3","batch1","","-1","tol_feedback","","","true","","1000","1000","500","","","","","","-1","none","true","8409","12672","","","","","","","","","",""
"","","","","","html-button-response","334","662645","0.0-2.0-85.0","60fd01cc86bb3e402db85e93","A3","batch1","","2175.199999809265","tol-goodbye","<p class= block-text>This concludes the Tower of London Task. Thank you for your responses!<br> Click the button below to continue</p>","0","","","","","","","","","","","","","","","","","","","","","","","","",""
"true","","","","","fullscreen","335","676240","0.0-3.0-0.0","60fd01cc86bb3e402db85e93","A3","batch1","","","","","","","","","","","","","","","","","","","","","","","","","","","","","",""
"","","","","","instructions","336","697384","0.0-3.0-1.0-0.0","60fd01cc86bb3e402db85e93","A3","batch1","[{""page_index"":0,""viewing_time"":14665.300000190735},{""page_index"":1,""viewing_time"":6477.5}]","21143","","","","","","","","","","","","","","","","","","","","","","","","","","","",""
"","","","","","html-button-response","337","698616","0.0-3.0-1.0-1.0-0.0","60fd01cc86bb3e402db85e93","A3","batch1","","1230.8000001907349","pattern_enter_quiz","<p class=block-text> Let's answer a few questions <br>","0","","","","","","","","","","","","","","","","","","","","","","","","",""
"","","","","","html-button-response","338","701490","0.0-3.0-1.0-1.0-1.0","60fd01cc86bb3e402db85e93","A3","batch1","","2873.5","pattern_quiz","<p class = block-text>True or False: You will have as much time as you want to make each choice. <br></p>","1","true","","","","","","","","","","","","","","","","","","","","","","","",""
"","","","","","html-button-response","339","702594","0.0-3.0-1.0-1.0-2.0","60fd01cc86bb3e402db85e93","A3","batch1","","1103.1999998092651","pattern_quiz_feedback","<p class = block-text>Correct! You should make your choice <strong> as fast as you can</strong>.</p>","0","","","","","","","","","","","","","","","","","","","","","","","","",""
"","","","","","html-button-response","340","706191","0.0-3.0-1.0-1.0-3.0","60fd01cc86bb3e402db85e93","A3","batch1","","3596.699999809265","pattern_quiz","<p class = block-text>True or False: You will look for 4 pieces in black or white color connected in a row either horizontally, vertically or diagonally. <br></p>","0","true","","","","","","","","","","","","","","","","","","","","","","","",""
"","","","","","html-button-response","341","706911","0.0-3.0-1.0-1.0-4.0","60fd01cc86bb3e402db85e93","A3","batch1","","718.4000000953674","pattern_quiz_feedback","<p class = block-text>Correct! </p>","0","","","","","","","","","","","","","","","","","","","","","","","","",""
"","","","","","html-button-response","342","709430","0.0-3.0-2.0","60fd01cc86bb3e402db85e93","A3","batch1","","2517.699999809265","pattern_enter_practice","<p class=block-text> Now that you've understood the game, let's do a few practice trials before we start!<br> <br>","0","","","","","","","","","","","","","","","","","","","","","","","","",""
"","","","","","image-keyboard-response","343","713558","0.0-3.0-3.0-0.0","60fd01cc86bb3e402db85e93","A3","batch1","","4125.900000095367","pattern_practice","stim/prac_yes_18_hor_w1.png","f","true","","","","","","","","","","","","","","","","f","","","","","","","",""
"","","","","","html-keyboard-response","344","714581","0.0-3.0-3.0-1.0","60fd01cc86bb3e402db85e93","A3","batch1","","null","pattern_feedback","<p style=""font-size:30px;color:green;"">Correct!</p>","null","","","","","","","","","","","","","","","","","","","","","","","","",""
"","","","","","image-keyboard-response","345","715910","0.0-3.0-3.0-0.1","60fd01cc86bb3e402db85e93","A3","batch1","","1327.0999999046326","pattern_practice","stim/prac_yes_20_dia_b1.png","f","true","","","","","","","","","","","","","","","","f","","","","","","","",""
"","","","","","html-keyboard-response","346","716930","0.0-3.0-3.0-1.1","60fd01cc86bb3e402db85e93","A3","batch1","","null","pattern_feedback","<p style=""font-size:30px;color:green;"">Correct!</p>","null","","","","","","","","","","","","","","","","","","","","","","","","",""
"","","","","","image-keyboard-response","347","719075","0.0-3.0-3.0-0.2","60fd01cc86bb3e402db85e93","A3","batch1","","2143.2000002861023","pattern_practice","stim/prac_no_18_1.png","j","true","","","","","","","","","","","","","","","","j","","","","","","","",""
"","","","","","html-keyboard-response","348","720086","0.0-3.0-3.0-1.2","60fd01cc86bb3e402db85e93","A3","batch1","","null","pattern_feedback","<p style=""font-size:30px;color:green;"">Correct!</p>","null","","","","","","","","","","","","","","","","","","","","","","","","",""
"","","","","","image-keyboard-response","349","720801","0.0-3.0-3.0-0.3","60fd01cc86bb3e402db85e93","A3","batch1","","713.6000003814697","pattern_practice","stim/prac_yes_16_ver_w1.png","f","true","","","","","","","","","","","","","","","","f","","","","","","","",""
"","","","","","html-keyboard-response","350","721809","0.0-3.0-3.0-1.3","60fd01cc86bb3e402db85e93","A3","batch1","","null","pattern_feedback","<p style=""font-size:30px;color:green;"">Correct!</p>","null","","","","","","","","","","","","","","","","","","","","","","","","",""
"","","","","","image-keyboard-response","351","723597","0.0-3.0-3.0-0.4","60fd01cc86bb3e402db85e93","A3","batch1","","1787.0999999046326","pattern_practice","stim/prac_no_16_1.png","j","true","","","","","","","","","","","","","","","","j","","","","","","","",""
"","","","","","html-keyboard-response","352","724603","0.0-3.0-3.0-1.4","60fd01cc86bb3e402db85e93","A3","batch1","","null","pattern_feedback","<p style=""font-size:30px;color:green;"">Correct!</p>","null","","","","","","","","","","","","","","","","","","","","","","","","",""
"","","","","","html-button-response","353","726990","0.0-3.0-4.0","60fd01cc86bb3e402db85e93","A3","batch1","","2386","pattern_enter_official_trials","<p class=block-text> Good job! You are done with practice trials!<br>
        You responded correctly on 100% of the trials.<br>
        Press the button below to start official trials. Now you won't see any feedback about your response</p>","0","","","","","","","","","","","","","","","","","","","","","","","","",""
