"success","timeout","failed_images","failed_audio","failed_video","trial_type","trial_index","time_elapsed","internal_node_id","subject_id","study_id","session_id","view_history","rt","stimulus","response","task","correct","answer","item","fiar_detect_rt","fiar_detect_correct","total_correct_fiar_detect","post_trial_gap","choices","mouse_click","stim_duration","block_duration","timing_post_trial","current_position","tol_num_moves_made","tol_target","tol_problem_id","tol_rt","key_press","possible_responses","tol_correct","preplanning","tol_rt_per_trial","tol_min_moves","spm_correct","spm_rt"
"true","false","[]","[]","[]","preload","0","1779","0.0-0.0","60fda20d89edf1022f91ace9","C3","batch3","","","","","","","","","","","","","","","","","","","","","","","","","","","","","",""
"true","","","","","fullscreen","1","17331","0.0-1.0-0.0","60fda20d89edf1022f91ace9","C3","batch3","","","","","","","","","","","","","","","","","","","","","","","","","","","","","",""
"true","","","","","fullscreen","2","20548","0.0-2.0-0.0","60fda20d89edf1022f91ace9","C3","batch3","","","","","","","","","","","","","","","","","","","","","","","","","","","","","",""
"","","","","","instructions","3","32424","0.0-2.0-1.0-0.0","60fda20d89edf1022f91ace9","C3","batch3","[{""page_index"":0,""viewing_time"":6076.599999904633},{""page_index"":1,""viewing_time"":5794.700000286102}]","11871.599999904633","","","","","","","","","","","","","","","","","","","","","","","","","","","",""
"","","","","","html-button-response","4","34069","0.0-2.0-1.0-1.0-0.0","60fda20d89edf1022f91ace9","C3","batch3","","1641.5999999046326","<p class=block-text> Let's answer a few questions <br>","0","pattern_enter_quiz","","","","","","","","","","","","","","","","","","","","","","","","",""
"","","","","","html-button-response","5","36599","0.0-2.0-1.0-1.0-1.0","60fda20d89edf1022f91ace9","C3","batch3","","2529.300000190735","<p class = block-text>True or False: You will have as much time as you want to make each choice. <br></p>","1","pattern_quiz","true","","","","","","","","","","","","","","","","","","","","","","","",""
"","","","","","html-button-response","6","37692","0.0-2.0-1.0-1.0-2.0","60fda20d89edf1022f91ace9","C3","batch3","","1091.4000000953674","<p class = block-text>Correct! You should make your choice <strong> as fast as you can</strong>.</p>","0","pattern_quiz_feedback","","","","","","","","","","","","","","","","","","","","","","","","",""
"","","","","","html-button-response","7","41196","0.0-2.0-1.0-1.0-3.0","60fda20d89edf1022f91ace9","C3","batch3","","3503.2000002861023","<p class = block-text>True or False: You will look for 4 pieces in black or white color connected in a row either horizontally, vertically or diagonally. <br></p>","0","pattern_quiz","true","","","","","","","","","","","","","","","","","","","","","","","",""
"","","","","","html-button-response","8","42150","0.0-2.0-1.0-1.0-4.0","60fda20d89edf1022f91ace9","C3","batch3","","953.2000002861023","<p class = block-text>Correct! </p>","0","pattern_quiz_feedback","","","","","","","","","","","","","","","","","","","","","","","","",""
"","","","","","html-button-response","9","43195","0.0-2.0-2.0","60fda20d89edf1022f91ace9","C3","batch3","","1042.2999997138977","<p class=block-text> Now that you've understood the game, let's do a few practice trials before we start!<br> <br>","0","pattern_enter_practice","","","","","","","","","","","","","","","","","","","","","","","","",""
"","","","","","image-keyboard-response","10","45413","0.0-2.0-3.0-0.0","60fda20d89edf1022f91ace9","C3","batch3","","2187.300000190735","stim/prac_yes_16_ver_w1.png","f","pattern_practice","true","f","","","","","","","","","","","","","","","","","","","","","","",""
"","","","","","html-keyboard-response","11","46419","0.0-2.0-3.0-1.0","60fda20d89edf1022f91ace9","C3","batch3","","null","<p style=""font-size:30px;color:green;"">Correct!</p>","null","pattern_feedback","","","","","","","","","","","","","","","","","","","","","","","","",""
"","","","","","image-keyboard-response","12","47460","0.0-2.0-3.0-0.1","60fda20d89edf1022f91ace9","C3","batch3","","1038.0999999046326","stim/prac_no_18_1.png","j","pattern_practice","true","j","","","","","","","","","","","","","","","","","","","","","","",""
"","","","","","html-keyboard-response","13","48470","0.0-2.0-3.0-1.1","60fda20d89edf1022f91ace9","C3","batch3","","null","<p style=""font-size:30px;color:green;"">Correct!</p>","null","pattern_feedback","","","","","","","","","","","","","","","","","","","","","","","","",""
"","","","","","image-keyboard-response","14","50865","0.0-2.0-3.0-0.2","60fda20d89edf1022f91ace9","C3","batch3","","2393.199999809265","stim/prac_no_16_1.png","j","pattern_practice","true","j","","","","","","","","","","","","","","","","","","","","","","",""
"","","","","","html-keyboard-response","15","51886","0.0-2.0-3.0-1.2","60fda20d89edf1022f91ace9","C3","batch3","","null","<p style=""font-size:30px;color:green;"">Correct!</p>","null","pattern_feedback","","","","","","","","","","","","","","","","","","","","","","","","",""
"","","","","","image-keyboard-response","16","52619","0.0-2.0-3.0-0.3","60fda20d89edf1022f91ace9","C3","batch3","","730.1999998092651","stim/prac_yes_18_hor_w1.png","f","pattern_practice","true","f","","","","","","","","","","","","","","","","","","","","","","",""
"","","","","","html-keyboard-response","17","53637","0.0-2.0-3.0-1.3","60fda20d89edf1022f91ace9","C3","batch3","","null","<p style=""font-size:30px;color:green;"">Correct!</p>","null","pattern_feedback","","","","","","","","","","","","","","","","","","","","","","","","",""
"","","","","","image-keyboard-response","18","54642","0.0-2.0-3.0-0.4","60fda20d89edf1022f91ace9","C3","batch3","","1002.4000000953674","stim/prac_yes_20_dia_b1.png","f","pattern_practice","true","f","","","","","","","","","","","","","","","","","","","","","","",""
"","","","","","html-keyboard-response","19","55658","0.0-2.0-3.0-1.4","60fda20d89edf1022f91ace9","C3","batch3","","null","<p style=""font-size:30px;color:green;"">Correct!</p>","null","pattern_feedback","","","","","","","","","","","","","","","","","","","","","","","","",""
"","","","","","html-button-response","20","57854","0.0-2.0-4.0","60fda20d89edf1022f91ace9","C3","batch3","","2193.800000190735","<p class=block-text> Good job! You are done with practice trials!<br>
        You responded correctly on 100% of the trials.<br>
        Press the button below to start official trials. Now you won't see any feedback about your response</p>","0","pattern_enter_official_trials","","","","","","","","","","","","","","","","","","","","","","","","",""
"","","","","","html-keyboard-response","21","58661","0.0-2.0-5.0-0.0","60fda20d89edf1022f91ace9","C3","batch3","","null","<p class=block-text>Trial 1 out of 78</p>","null","pattern_show_trial_num","","","","","","","","","","","","","","","","","","","","","","","","",""
"","","","","","image-keyboard-response","22","62749","0.0-2.0-5.0-1.0","60fda20d89edf1022f91ace9","C3","batch3","","4086","stim/no_45_1_w.png","j","pattern_response","true","j","pattern_25","4086","true","1","","","","","","","","","","","","","","","","","","",""
"","","","","","html-keyboard-response","23","64066","0.0-2.0-5.0-0.1","60fda20d89edf1022f91ace9","C3","batch3","","null","<p class=block-text>Trial 2 out of 78</p>","null","pattern_show_trial_num","","","","","","","","","","","","","","","","","","","","","","","","",""
"","","","","","image-keyboard-response","24","65055","0.0-2.0-5.0-1.1","60fda20d89edf1022f91ace9","C3","batch3","","985.8999996185303","stim/yes_30_ver_b1_b.png","f","pattern_response","true","f","pattern_54","985.8999996185303","true","2","","","","","","","","","","","","","","","","","","",""
"","","","","","html-keyboard-response","25","66374","0.0-2.0-5.0-0.2","60fda20d89edf1022f91ace9","C3","batch3","","null","<p class=block-text>Trial 3 out of 78</p>","null","pattern_show_trial_num","","","","","","","","","","","","","","","","","","","","","","","","",""
"","","","","","image-keyboard-response","26","67327","0.0-2.0-5.0-1.2","60fda20d89edf1022f91ace9","C3","batch3","","950.2999997138977","stim/yes_39_hor_w1_w.png","f","pattern_response","true","f","pattern_62","950.2999997138977","true","3","","","","","","","","","","","","","","","","","","",""
"","","","","","html-keyboard-response","27","68647","0.0-2.0-5.0-0.3","60fda20d89edf1022f91ace9","C3","batch3","","null","<p class=block-text>Trial 4 out of 78</p>","null","pattern_show_trial_num","","","","","","","","","","","","","","","","","","","","","","","","",""
"","","","","","image-keyboard-response","28","70030","0.0-2.0-5.0-1.3","60fda20d89edf1022f91ace9","C3","batch3","","1379.0999999046326","stim/yes_51_dia_b1.png","f","pattern_response","true","f","pattern_72","1379.0999999046326","true","4","","","","","","","","","","","","","","","","","","",""
"","","","","","html-keyboard-response","29","71345","0.0-2.0-5.0-0.4","60fda20d89edf1022f91ace9","C3","batch3","","null","<p class=block-text>Trial 5 out of 78</p>","null","pattern_show_trial_num","","","","","","","","","","","","","","","","","","","","","","","","",""
"","","","","","image-keyboard-response","30","73091","0.0-2.0-5.0-1.4","60fda20d89edf1022f91ace9","C3","batch3","","1741.0999999046326","stim/no_22_1_b.png","j","pattern_response","true","j","pattern_07","1741.0999999046326","true","5","","","","","","","","","","","","","","","","","","",""
"","","","","","html-keyboard-response","31","74408","0.0-2.0-5.0-0.5","60fda20d89edf1022f91ace9","C3","batch3","","null","<p class=block-text>Trial 6 out of 78</p>","null","pattern_show_trial_num","","","","","","","","","","","","","","","","","","","","","","","","",""
"","","","","","image-keyboard-response","32","75117","0.0-2.0-5.0-1.5","60fda20d89edf1022f91ace9","C3","batch3","","705.5999999046326","stim/yes_15_dia_b1u_b.png","j","pattern_response","false","f","pattern_44","705.5999999046326","false","5","","","","","","","","","","","","","","","","","","",""
"","","","","","html-keyboard-response","33","76433","0.0-2.0-5.0-0.6","60fda20d89edf1022f91ace9","C3","batch3","","null","<p class=block-text>Trial 7 out of 78</p>","null","pattern_show_trial_num","","","","","","","","","","","","","","","","","","","","","","","","",""
"","","","","","image-keyboard-response","34","77390","0.0-2.0-5.0-1.6","60fda20d89edf1022f91ace9","C3","batch3","","953.1999998092651","stim/yes_42_dia_w1_w.png","f","pattern_response","true","f","pattern_64","953.1999998092651","true","6","","","","","","","","","","","","","","","","","","",""
"","","","","","html-keyboard-response","35","78706","0.0-2.0-5.0-0.7","60fda20d89edf1022f91ace9","C3","batch3","","null","<p class=block-text>Trial 8 out of 78</p>","null","pattern_show_trial_num","","","","","","","","","","","","","","","","","","","","","","","","",""
"","","","","","image-keyboard-response","36","82811","0.0-2.0-5.0-1.7","60fda20d89edf1022f91ace9","C3","batch3","","4100.5","stim/no_51_1.png","j","pattern_response","true","j","pattern_31","4100.5","true","7","","","","","","","","","","","","","","","","","","",""
"","","","","","html-keyboard-response","37","84125","0.0-2.0-5.0-0.8","60fda20d89edf1022f91ace9","C3","batch3","","null","<p class=block-text>Trial 9 out of 78</p>","null","pattern_show_trial_num","","","","","","","","","","","","","","","","","","","","","","","","",""
"","","","","","image-keyboard-response","38","86180","0.0-2.0-5.0-1.8","60fda20d89edf1022f91ace9","C3","batch3","","2049.699999809265","stim/no_25_1_b.png","j","pattern_response","true","j","pattern_09","2049.699999809265","true","8","","","","","","","","","","","","","","","","","","",""
"","","","","","html-keyboard-response","39","87497","0.0-2.0-5.0-0.9","60fda20d89edf1022f91ace9","C3","batch3","","null","<p class=block-text>Trial 10 out of 78</p>","null","pattern_show_trial_num","","","","","","","","","","","","","","","","","","","","","","","","",""
"","","","","","image-keyboard-response","40","88913","0.0-2.0-5.0-1.9","60fda20d89edf1022f91ace9","C3","batch3","","1412","stim/yes_70_ver_b1.png","f","pattern_response","true","f","pattern_80","1412","true","9","","","","","","","","","","","","","","","","","","",""
"","","","","","html-keyboard-response","41","90233","0.0-2.0-5.0-0.10","60fda20d89edf1022f91ace9","C3","batch3","","null","<p class=block-text>Trial 11 out of 78</p>","null","pattern_show_trial_num","","","","","","","","","","","","","","","","","","","","","","","","",""
"","","","","","image-keyboard-response","42","91560","0.0-2.0-5.0-1.10","60fda20d89edf1022f91ace9","C3","batch3","","1323.5","stim/yes_49_hor_w1_b.png","f","pattern_response","true","f","pattern_70","1323.5","true","10","","","","","","","","","","","","","","","","","","",""
"","","","","","html-keyboard-response","43","92871","0.0-2.0-5.0-0.11","60fda20d89edf1022f91ace9","C3","batch3","","null","<p class=block-text>Trial 12 out of 78</p>","null","pattern_show_trial_num","","","","","","","","","","","","","","","","","","","","","","","","",""
"","","","","","image-keyboard-response","44","94243","0.0-2.0-5.0-1.11","60fda20d89edf1022f91ace9","C3","batch3","","1368","stim/yes_46_ver_b1_b.png","f","pattern_response","true","f","pattern_68","1368","true","11","","","","","","","","","","","","","","","","","","",""
"","","","","","html-keyboard-response","45","95561","0.0-2.0-5.0-0.12","60fda20d89edf1022f91ace9","C3","batch3","","null","<p class=block-text>Trial 13 out of 78</p>","null","pattern_show_trial_num","","","","","","","","","","","","","","","","","","","","","","","","",""
"","","","","","image-keyboard-response","46","96504","0.0-2.0-5.0-1.12","60fda20d89edf1022f91ace9","C3","batch3","","938.5999999046326","stim/no_49_2_b.png","f","pattern_response","false","j","pattern_29","938.5999999046326","false","11","","","","","","","","","","","","","","","","","","",""
"","","","","","html-keyboard-response","47","97816","0.0-2.0-5.0-0.13","60fda20d89edf1022f91ace9","C3","batch3","","null","<p class=block-text>Trial 14 out of 78</p>","null","pattern_show_trial_num","","","","","","","","","","","","","","","","","","","","","","","","",""
"","","","","","image-keyboard-response","48","98799","0.0-2.0-5.0-1.13","60fda20d89edf1022f91ace9","C3","batch3","","980.9000000953674","stim/no_15_1_w.png","j","pattern_response","true","j","pattern_03","980.9000000953674","true","12","","","","","","","","","","","","","","","","","","",""
"","","","","","html-keyboard-response","49","100112","0.0-2.0-5.0-0.14","60fda20d89edf1022f91ace9","C3","batch3","","null","<p class=block-text>Trial 15 out of 78</p>","null","pattern_show_trial_num","","","","","","","","","","","","","","","","","","","","","","","","",""
"","","","","","image-keyboard-response","50","102223","0.0-2.0-5.0-1.14","60fda20d89edf1022f91ace9","C3","batch3","","2107.7000002861023","stim/no_33_1_b.png","j","pattern_response","true","j","pattern_15","2107.7000002861023","true","13","","","","","","","","","","","","","","","","","","",""
"","","","","","html-keyboard-response","51","103540","0.0-2.0-5.0-0.15","60fda20d89edf1022f91ace9","C3","batch3","","null","<p class=block-text>Trial 16 out of 78</p>","null","pattern_show_trial_num","","","","","","","","","","","","","","","","","","","","","","","","",""
"","","","","","image-keyboard-response","52","105201","0.0-2.0-5.0-1.15","60fda20d89edf1022f91ace9","C3","batch3","","1658.0999999046326","stim/no_30_1_b.png","j","pattern_response","true","j","pattern_13","1658.0999999046326","true","14","","","","","","","","","","","","","","","","","","",""
"","","","","","html-keyboard-response","53","106513","0.0-2.0-5.0-0.16","60fda20d89edf1022f91ace9","C3","batch3","","null","<p class=block-text>Trial 17 out of 78</p>","null","pattern_show_trial_num","","","","","","","","","","","","","","","","","","","","","","","","",""
"","","","","","image-keyboard-response","54","109117","0.0-2.0-5.0-1.16","60fda20d89edf1022f91ace9","C3","batch3","","2600.7000002861023","stim/no_39_1_w.png","j","pattern_response","true","j","pattern_21","2600.7000002861023","true","15","","","","","","","","","","","","","","","","","","",""
"","","","","","html-keyboard-response","55","110435","0.0-2.0-5.0-0.17","60fda20d89edf1022f91ace9","C3","batch3","","null","<p class=block-text>Trial 18 out of 78</p>","null","pattern_show_trial_num","","","","","","","","","","","","","","","","","","","","","","","","",""
"","","","","","image-keyboard-response","56","113728","0.0-2.0-5.0-1.17","60fda20d89edf1022f91ace9","C3","batch3","","3289","stim/yes_58_dia_w1_w.png","j","pattern_response","false","f","pattern_76","3289","false","15","","","","","","","","","","","","","","","","","","",""
"","","","","","html-keyboard-response","57","115042","0.0-2.0-5.0-0.18","60fda20d89edf1022f91ace9","C3","batch3","","null","<p class=block-text>Trial 19 out of 78</p>","null","pattern_show_trial_num","","","","","","","","","","","","","","","","","","","","","","","","",""
"","","","","","image-keyboard-response","58","116002","0.0-2.0-5.0-1.18","60fda20d89edf1022f91ace9","C3","batch3","","956.3999996185303","stim/yes_53_ver_b1_b.png","f","pattern_response","true","f","pattern_74","956.3999996185303","true","16","","","","","","","","","","","","","","","","","","",""
"","","","","","html-keyboard-response","59","117313","0.0-2.0-5.0-0.19","60fda20d89edf1022f91ace9","C3","batch3","","null","<p class=block-text>Trial 20 out of 78</p>","null","pattern_show_trial_num","","","","","","","","","","","","","","","","","","","","","","","","",""
"","","","","","image-keyboard-response","60","119289","0.0-2.0-5.0-1.19","60fda20d89edf1022f91ace9","C3","batch3","","1972.4000000953674","stim/no_36_1_b.png","j","pattern_response","true","j","pattern_17","1972.4000000953674","true","17","","","","","","","","","","","","","","","","","","",""
"","","","","","html-keyboard-response","61","120605","0.0-2.0-5.0-0.20","60fda20d89edf1022f91ace9","C3","batch3","","null","<p class=block-text>Trial 21 out of 78</p>","null","pattern_show_trial_num","","","","","","","","","","","","","","","","","","","","","","","","",""
"","","","","","image-keyboard-response","62","126623","0.0-2.0-5.0-1.20","60fda20d89edf1022f91ace9","C3","batch3","","6014.900000095367","stim/no_53_1_b.png","j","pattern_response","true","j","pattern_33","6014.900000095367","true","18","","","","","","","","","","","","","","","","","","",""
"","","","","","html-keyboard-response","63","127938","0.0-2.0-5.0-0.21","60fda20d89edf1022f91ace9","C3","batch3","","null","<p class=block-text>Trial 22 out of 78</p>","null","pattern_show_trial_num","","","","","","","","","","","","","","","","","","","","","","","","",""
"","","","","","image-keyboard-response","64","130245","0.0-2.0-5.0-1.21","60fda20d89edf1022f91ace9","C3","batch3","","2303.199999809265","stim/no_28_2.png","j","pattern_response","true","j","pattern_11","2303.199999809265","true","19","","","","","","","","","","","","","","","","","","",""
"","","","","","html-keyboard-response","65","131564","0.0-2.0-5.0-0.22","60fda20d89edf1022f91ace9","C3","batch3","","null","<p class=block-text>Trial 23 out of 78</p>","null","pattern_show_trial_num","","","","","","","","","","","","","","","","","","","","","","","","",""
"","","","","","image-keyboard-response","66","132900","0.0-2.0-5.0-1.22","60fda20d89edf1022f91ace9","C3","batch3","","1332.4000000953674","stim/yes_33_dia_w1_w.png","f","pattern_response","true","f","pattern_56","1332.4000000953674","true","20","","","","","","","","","","","","","","","","","","",""
"","","","","","html-keyboard-response","67","134212","0.0-2.0-5.0-0.23","60fda20d89edf1022f91ace9","C3","batch3","","null","<p class=block-text>Trial 24 out of 78</p>","null","pattern_show_trial_num","","","","","","","","","","","","","","","","","","","","","","","","",""
"","","","","","image-keyboard-response","68","139197","0.0-2.0-5.0-1.23","60fda20d89edf1022f91ace9","C3","batch3","","4981.900000095367","stim/no_67_1.png","j","pattern_response","true","j","pattern_39","4981.900000095367","true","21","","","","","","","","","","","","","","","","","","",""
"","","","","","html-keyboard-response","69","140514","0.0-2.0-5.0-0.24","60fda20d89edf1022f91ace9","C3","batch3","","null","<p class=block-text>Trial 25 out of 78</p>","null","pattern_show_trial_num","","","","","","","","","","","","","","","","","","","","","","","","",""
"","","","","","image-keyboard-response","70","145160","0.0-2.0-5.0-1.24","60fda20d89edf1022f91ace9","C3","batch3","","4643.299999713898","stim/no_58_1_w.png","j","pattern_response","true","j","pattern_35","4643.299999713898","true","22","","","","","","","","","","","","","","","","","","",""
"","","","","","html-keyboard-response","71","146477","0.0-2.0-5.0-0.25","60fda20d89edf1022f91ace9","C3","batch3","","null","<p class=block-text>Trial 26 out of 78</p>","null","pattern_show_trial_num","","","","","","","","","","","","","","","","","","","","","","","","",""
"","","","","","image-keyboard-response","72","147897","0.0-2.0-5.0-1.25","60fda20d89edf1022f91ace9","C3","batch3","","1415.9000000953674","stim/yes_44_ver_w1_w.png","f","pattern_response","true","f","pattern_66","1415.9000000953674","true","23","","","","","","","","","","","","","","","","","","",""
"","","","","","html-keyboard-response","73","149213","0.0-2.0-5.0-0.26","60fda20d89edf1022f91ace9","C3","batch3","","null","<p class=block-text>Trial 27 out of 78</p>","null","pattern_show_trial_num","","","","","","","","","","","","","","","","","","","","","","","","",""
"","","","","","image-keyboard-response","74","150242","0.0-2.0-5.0-1.26","60fda20d89edf1022f91ace9","C3","batch3","","1026.5999999046326","stim/yes_29_hor_b1_b.png","f","pattern_response","true","f","pattern_52","1026.5999999046326","true","24","","","","","","","","","","","","","","","","","","",""
"","","","","","html-keyboard-response","75","151558","0.0-2.0-5.0-0.27","60fda20d89edf1022f91ace9","C3","batch3","","null","<p class=block-text>Trial 28 out of 78</p>","null","pattern_show_trial_num","","","","","","","","","","","","","","","","","","","","","","","","",""
"","","","","","image-keyboard-response","76","152470","0.0-2.0-5.0-1.27","60fda20d89edf1022f91ace9","C3","batch3","","909.5","stim/yes_36_ver_w1_w.png","f","pattern_response","true","f","pattern_58","909.5","true","25","","","","","","","","","","","","","","","","","","",""
"","","","","","html-keyboard-response","77","153788","0.0-2.0-5.0-0.28","60fda20d89edf1022f91ace9","C3","batch3","","null","<p class=block-text>Trial 29 out of 78</p>","null","pattern_show_trial_num","","","","","","","","","","","","","","","","","","","","","","","","",""
"","","","","","image-keyboard-response","78","154776","0.0-2.0-5.0-1.28","60fda20d89edf1022f91ace9","C3","batch3","","984.9000000953674","stim/no_12_1.png","j","pattern_response","true","j","pattern_01","984.9000000953674","true","26","","","","","","","","","","","","","","","","","","",""
"","","","","","html-keyboard-response","79","156093","0.0-2.0-5.0-0.29","60fda20d89edf1022f91ace9","C3","batch3","","null","<p class=block-text>Trial 30 out of 78</p>","null","pattern_show_trial_num","","","","","","","","","","","","","","","","","","","","","","","","",""
"","","","","","image-keyboard-response","80","157252","0.0-2.0-5.0-1.29","60fda20d89edf1022f91ace9","C3","batch3","","1155.4000000953674","stim/yes_26_dia_w2_w.png","f","pattern_response","true","f","pattern_50","1155.4000000953674","true","27","","","","","","","","","","","","","","","","","","",""
"","","","","","html-keyboard-response","81","158564","0.0-2.0-5.0-0.30","60fda20d89edf1022f91ace9","C3","batch3","","null","<p class=block-text>Trial 31 out of 78</p>","null","pattern_show_trial_num","","","","","","","","","","","","","","","","","","","","","","","","",""
"","","","","","image-keyboard-response","82","159984","0.0-2.0-5.0-1.30","60fda20d89edf1022f91ace9","C3","batch3","","1416.4000000953674","stim/no_18_1_b.png","j","pattern_response","true","j","pattern_05","1416.4000000953674","true","28","","","","","","","","","","","","","","","","","","",""
"","","","","","html-keyboard-response","83","161301","0.0-2.0-5.0-0.31","60fda20d89edf1022f91ace9","C3","batch3","","null","<p class=block-text>Trial 32 out of 78</p>","null","pattern_show_trial_num","","","","","","","","","","","","","","","","","","","","","","","","",""
"","","","","","image-keyboard-response","84","164032","0.0-2.0-5.0-1.31","60fda20d89edf1022f91ace9","C3","batch3","","2728.4000000953674","stim/no_47_1_b.png","j","pattern_response","true","j","pattern_27","2728.4000000953674","true","29","","","","","","","","","","","","","","","","","","",""
"","","","","","html-keyboard-response","85","165346","0.0-2.0-5.0-0.32","60fda20d89edf1022f91ace9","C3","batch3","","null","<p class=block-text>Trial 33 out of 78</p>","null","pattern_show_trial_num","","","","","","","","","","","","","","","","","","","","","","","","",""
"","","","","","image-keyboard-response","86","168552","0.0-2.0-5.0-1.32","60fda20d89edf1022f91ace9","C3","batch3","","3202.7000002861023","stim/no_43_2_b.png","j","pattern_response","true","j","pattern_23","3202.7000002861023","true","30","","","","","","","","","","","","","","","","","","",""
"","","","","","html-keyboard-response","87","169869","0.0-2.0-5.0-0.33","60fda20d89edf1022f91ace9","C3","batch3","","null","<p class=block-text>Trial 34 out of 78</p>","null","pattern_show_trial_num","","","","","","","","","","","","","","","","","","","","","","","","",""
"","","","","","image-keyboard-response","88","170837","0.0-2.0-5.0-1.33","60fda20d89edf1022f91ace9","C3","batch3","","964.8999996185303","stim/yes_17_ver_b1_b.png","f","pattern_response","true","f","pattern_46","964.8999996185303","true","31","","","","","","","","","","","","","","","","","","",""
"","","","","","html-keyboard-response","89","172155","0.0-2.0-5.0-0.34","60fda20d89edf1022f91ace9","C3","batch3","","null","<p class=block-text>Trial 35 out of 78</p>","null","pattern_show_trial_num","","","","","","","","","","","","","","","","","","","","","","","","",""
"","","","","","image-keyboard-response","90","173946","0.0-2.0-5.0-1.34","60fda20d89edf1022f91ace9","C3","batch3","","1787.2999997138977","stim/yes_63_dia_b1.png","f","pattern_response","true","f","pattern_78","1787.2999997138977","true","32","","","","","","","","","","","","","","","","","","",""
"","","","","","html-keyboard-response","91","175262","0.0-2.0-5.0-0.35","60fda20d89edf1022f91ace9","C3","batch3","","null","<p class=block-text>Trial 36 out of 78</p>","null","pattern_show_trial_num","","","","","","","","","","","","","","","","","","","","","","","","",""
"","","","","","image-keyboard-response","92","175950","0.0-2.0-5.0-1.35","60fda20d89edf1022f91ace9","C3","batch3","","685.4000000953674","stim/yes_12_hor_w1_w.png","f","pattern_response","true","f","pattern_42","685.4000000953674","true","33","","","","","","","","","","","","","","","","","","",""
"","","","","","html-keyboard-response","93","177270","0.0-2.0-5.0-0.36","60fda20d89edf1022f91ace9","C3","batch3","","null","<p class=block-text>Trial 37 out of 78</p>","null","pattern_show_trial_num","","","","","","","","","","","","","","","","","","","","","","","","",""
"","","","","","image-keyboard-response","94","180818","0.0-2.0-5.0-1.36","60fda20d89edf1022f91ace9","C3","batch3","","3545.9000000953674","stim/no_37_2_w.png","j","pattern_response","true","j","pattern_19","3545.9000000953674","true","34","","","","","","","","","","","","","","","","","","",""
"","","","","","html-keyboard-response","95","182134","0.0-2.0-5.0-0.37","60fda20d89edf1022f91ace9","C3","batch3","","null","<p class=block-text>Trial 38 out of 78</p>","null","pattern_show_trial_num","","","","","","","","","","","","","","","","","","","","","","","","",""
"","","","","","image-keyboard-response","96","183443","0.0-2.0-5.0-1.37","60fda20d89edf1022f91ace9","C3","batch3","","1305.9000000953674","stim/yes_23_ver_b1.png","f","pattern_response","true","f","pattern_48","1305.9000000953674","true","35","","","","","","","","","","","","","","","","","","",""
"","","","","","html-keyboard-response","97","184755","0.0-2.0-5.0-0.38","60fda20d89edf1022f91ace9","C3","batch3","","null","<p class=block-text>Trial 39 out of 78</p>","null","pattern_show_trial_num","","","","","","","","","","","","","","","","","","","","","","","","",""
"","","","","","image-keyboard-response","98","185570","0.0-2.0-5.0-1.38","60fda20d89edf1022f91ace9","C3","batch3","","811.5999999046326","stim/yes_37_hor_w1_w.png","f","pattern_response","true","f","pattern_60","811.5999999046326","true","36","","","","","","","","","","","","","","","","","","",""
"","","","","","image-keyboard-response","99","187744","0.0-2.0-6.0","60fda20d89edf1022f91ace9","C3","batch3","","1666.4000000953674","stim/empty_board.png","j","attention_check","true","j","","","","","500","[""f"",""j""]","","","","","","","","","","","","","","","","",""
"","","","","","html-keyboard-response","100","188558","0.0-2.0-7.0-0.0","60fda20d89edf1022f91ace9","C3","batch3","","null","<p class=block-text>Trial 40 out of 78</p>","null","pattern_show_trial_num","","","","","","","","","","","","","","","","","","","","","","","","",""
"","","","","","image-keyboard-response","101","194974","0.0-2.0-7.0-1.0","60fda20d89edf1022f91ace9","C3","batch3","","6412.900000095367","stim/no_62_1_w.png","j","pattern_response","true","j","pattern_36","6412.900000095367","true","37","","","","","","","","","","","","","","","","","","",""
"","","","","","html-keyboard-response","102","196290","0.0-2.0-7.0-0.1","60fda20d89edf1022f91ace9","C3","batch3","","null","<p class=block-text>Trial 41 out of 78</p>","null","pattern_show_trial_num","","","","","","","","","","","","","","","","","","","","","","","","",""
"","","","","","image-keyboard-response","103","197131","0.0-2.0-7.0-1.1","60fda20d89edf1022f91ace9","C3","batch3","","836.5999999046326","stim/yes_28_ver_b1.png","f","pattern_response","true","f","pattern_51","836.5999999046326","true","38","","","","","","","","","","","","","","","","","","",""
"","","","","","html-keyboard-response","104","198443","0.0-2.0-7.0-0.2","60fda20d89edf1022f91ace9","C3","batch3","","null","<p class=block-text>Trial 42 out of 78</p>","null","pattern_show_trial_num","","","","","","","","","","","","","","","","","","","","","","","","",""
"","","","","","image-keyboard-response","105","203265","0.0-2.0-7.0-1.2","60fda20d89edf1022f91ace9","C3","batch3","","4819.799999713898","stim/no_50_1.png","j","pattern_response","true","j","pattern_30","4819.799999713898","true","39","","","","","","","","","","","","","","","","","","",""
"","","","","","html-keyboard-response","106","204580","0.0-2.0-7.0-0.3","60fda20d89edf1022f91ace9","C3","batch3","","null","<p class=block-text>Trial 43 out of 78</p>","null","pattern_show_trial_num","","","","","","","","","","","","","","","","","","","","","","","","",""
"","","","","","image-keyboard-response","107","207638","0.0-2.0-7.0-1.3","60fda20d89edf1022f91ace9","C3","batch3","","3053.5999999046326","stim/no_44_1.png","j","pattern_response","true","j","pattern_24","3053.5999999046326","true","40","","","","","","","","","","","","","","","","","","",""
"","","","","","html-keyboard-response","108","208958","0.0-2.0-7.0-0.4","60fda20d89edf1022f91ace9","C3","batch3","","null","<p class=block-text>Trial 44 out of 78</p>","null","pattern_show_trial_num","","","","","","","","","","","","","","","","","","","","","","","","",""
"","","","","","image-keyboard-response","109","211797","0.0-2.0-7.0-1.4","60fda20d89edf1022f91ace9","C3","batch3","","2835.5","stim/no_52_1.png","j","pattern_response","true","j","pattern_32","2835.5","true","41","","","","","","","","","","","","","","","","","","",""
"","","","","","html-keyboard-response","110","213110","0.0-2.0-7.0-0.5","60fda20d89edf1022f91ace9","C3","batch3","","null","<p class=block-text>Trial 45 out of 78</p>","null","pattern_show_trial_num","","","","","","","","","","","","","","","","","","","","","","","","",""
"","","","","","image-keyboard-response","111","214727","0.0-2.0-7.0-1.5","60fda20d89edf1022f91ace9","C3","batch3","","1612.7999997138977","stim/yes_35_dia_b1.png","j","pattern_response","false","f","pattern_57","1612.7999997138977","false","41","","","","","","","","","","","","","","","","","","",""
"","","","","","html-keyboard-response","112","216046","0.0-2.0-7.0-0.6","60fda20d89edf1022f91ace9","C3","batch3","","null","<p class=block-text>Trial 46 out of 78</p>","null","pattern_show_trial_num","","","","","","","","","","","","","","","","","","","","","","","","",""
"","","","","","image-keyboard-response","113","216806","0.0-2.0-7.0-1.6","60fda20d89edf1022f91ace9","C3","batch3","","757.2999997138977","stim/yes_14_hor_b1_w.png","f","pattern_response","true","f","pattern_43","757.2999997138977","true","42","","","","","","","","","","","","","","","","","","",""
"","","","","","html-keyboard-response","114","218121","0.0-2.0-7.0-0.7","60fda20d89edf1022f91ace9","C3","batch3","","null","<p class=block-text>Trial 47 out of 78</p>","null","pattern_show_trial_num","","","","","","","","","","","","","","","","","","","","","","","","",""
"","","","","","image-keyboard-response","115","218867","0.0-2.0-7.0-1.7","60fda20d89edf1022f91ace9","C3","batch3","","743.2999997138977","stim/no_13_2_b.png","j","pattern_response","true","j","pattern_02","743.2999997138977","true","43","","","","","","","","","","","","","","","","","","",""
"","","","","","html-keyboard-response","116","220180","0.0-2.0-7.0-0.8","60fda20d89edf1022f91ace9","C3","batch3","","null","<p class=block-text>Trial 48 out of 78</p>","null","pattern_show_trial_num","","","","","","","","","","","","","","","","","","","","","","","","",""
"","","","","","image-keyboard-response","117","225889","0.0-2.0-7.0-1.8","60fda20d89edf1022f91ace9","C3","batch3","","5708.10000038147","stim/no_70_2.png","j","pattern_response","true","j","pattern_40","5708.10000038147","true","44","","","","","","","","","","","","","","","","","","",""
"","","","","","html-keyboard-response","118","227205","0.0-2.0-7.0-0.9","60fda20d89edf1022f91ace9","C3","batch3","","null","<p class=block-text>Trial 49 out of 78</p>","null","pattern_show_trial_num","","","","","","","","","","","","","","","","","","","","","","","","",""
"","","","","","image-keyboard-response","119","228693","0.0-2.0-7.0-1.9","60fda20d89edf1022f91ace9","C3","batch3","","1484.3000001907349","stim/yes_60_ver_b1_b.png","f","pattern_response","true","f","pattern_77","1484.3000001907349","true","45","","","","","","","","","","","","","","","","","","",""
"","","","","","html-keyboard-response","120","230013","0.0-2.0-7.0-0.10","60fda20d89edf1022f91ace9","C3","batch3","","null","<p class=block-text>Trial 50 out of 78</p>","null","pattern_show_trial_num","","","","","","","","","","","","","","","","","","","","","","","","",""
"","","","","","image-keyboard-response","121","231446","0.0-2.0-7.0-1.10","60fda20d89edf1022f91ace9","C3","batch3","","1429.7000002861023","stim/yes_31_hor_b1.png","f","pattern_response","true","f","pattern_55","1429.7000002861023","true","46","","","","","","","","","","","","","","","","","","",""
"","","","","","html-keyboard-response","122","232765","0.0-2.0-7.0-0.11","60fda20d89edf1022f91ace9","C3","batch3","","null","<p class=block-text>Trial 51 out of 78</p>","null","pattern_show_trial_num","","","","","","","","","","","","","","","","","","","","","","","","",""
"","","","","","image-keyboard-response","123","234790","0.0-2.0-7.0-1.11","60fda20d89edf1022f91ace9","C3","batch3","","2022.9000000953674","stim/no_26_1_w.png","j","pattern_response","true","j","pattern_10","2022.9000000953674","true","47","","","","","","","","","","","","","","","","","","",""
"","","","","","html-keyboard-response","124","236110","0.0-2.0-7.0-0.12","60fda20d89edf1022f91ace9","C3","batch3","","null","<p class=block-text>Trial 52 out of 78</p>","null","pattern_show_trial_num","","","","","","","","","","","","","","","","","","","","","","","","",""
"","","","","","image-keyboard-response","125","237170","0.0-2.0-7.0-1.12","60fda20d89edf1022f91ace9","C3","batch3","","1055","stim/yes_45_hor_b2_b.png","f","pattern_response","true","f","pattern_67","1055","true","48","","","","","","","","","","","","","","","","","","",""
"","","","","","html-keyboard-response","126","238486","0.0-2.0-7.0-0.13","60fda20d89edf1022f91ace9","C3","batch3","","null","<p class=block-text>Trial 53 out of 78</p>","null","pattern_show_trial_num","","","","","","","","","","","","","","","","","","","","","","","","",""
"","","","","","image-keyboard-response","127","239904","0.0-2.0-7.0-1.13","60fda20d89edf1022f91ace9","C3","batch3","","1415.5","stim/no_23_1.png","j","pattern_response","true","j","pattern_08","1415.5","true","49","","","","","","","","","","","","","","","","","","",""
"","","","","","html-keyboard-response","128","241219","0.0-2.0-7.0-0.14","60fda20d89edf1022f91ace9","C3","batch3","","null","<p class=block-text>Trial 54 out of 78</p>","null","pattern_show_trial_num","","","","","","","","","","","","","","","","","","","","","","","","",""
"","","","","","image-keyboard-response","129","242077","0.0-2.0-7.0-1.14","60fda20d89edf1022f91ace9","C3","batch3","","855.2999997138977","stim/yes_50_dia_w1.png","f","pattern_response","true","f","pattern_71","855.2999997138977","true","50","","","","","","","","","","","","","","","","","","",""
"","","","","","html-keyboard-response","130","243388","0.0-2.0-7.0-0.15","60fda20d89edf1022f91ace9","C3","batch3","","null","<p class=block-text>Trial 55 out of 78</p>","null","pattern_show_trial_num","","","","","","","","","","","","","","","","","","","","","","","","",""
"","","","","","image-keyboard-response","131","244290","0.0-2.0-7.0-1.15","60fda20d89edf1022f91ace9","C3","batch3","","898.1000003814697","stim/yes_55_hor_w1_w.png","f","pattern_response","true","f","pattern_75","898.1000003814697","true","51","","","","","","","","","","","","","","","","","","",""
"","","","","","html-keyboard-response","132","245606","0.0-2.0-7.0-0.16","60fda20d89edf1022f91ace9","C3","batch3","","null","<p class=block-text>Trial 56 out of 78</p>","null","pattern_show_trial_num","","","","","","","","","","","","","","","","","","","","","","","","",""
"","","","","","image-keyboard-response","133","246990","0.0-2.0-7.0-1.16","60fda20d89edf1022f91ace9","C3","batch3","","1382.2999997138977","stim/no_20_1_w.png","j","pattern_response","true","j","pattern_06","1382.2999997138977","true","52","","","","","","","","","","","","","","","","","","",""
"","","","","","html-keyboard-response","134","248308","0.0-2.0-7.0-0.17","60fda20d89edf1022f91ace9","C3","batch3","","null","<p class=block-text>Trial 57 out of 78</p>","null","pattern_show_trial_num","","","","","","","","","","","","","","","","","","","","","","","","",""
"","","","","","image-keyboard-response","135","252078","0.0-2.0-7.0-1.17","60fda20d89edf1022f91ace9","C3","batch3","","3766.7000002861023","stim/no_48_1_w.png","j","pattern_response","true","j","pattern_28","3766.7000002861023","true","53","","","","","","","","","","","","","","","","","","",""
"","","","","","html-keyboard-response","136","253396","0.0-2.0-7.0-0.18","60fda20d89edf1022f91ace9","C3","batch3","","null","<p class=block-text>Trial 58 out of 78</p>","null","pattern_show_trial_num","","","","","","","","","","","","","","","","","","","","","","","","",""
"","","","","","image-keyboard-response","137","254854","0.0-2.0-7.0-1.18","60fda20d89edf1022f91ace9","C3","batch3","","1454.9000000953674","stim/yes_37_dia_w1.png","f","pattern_response","true","f","pattern_59","1454.9000000953674","true","54","","","","","","","","","","","","","","","","","","",""
"","","","","","html-keyboard-response","138","256170","0.0-2.0-7.0-0.19","60fda20d89edf1022f91ace9","C3","batch3","","null","<p class=block-text>Trial 59 out of 78</p>","null","pattern_show_trial_num","","","","","","","","","","","","","","","","","","","","","","","","",""
"","","","","","image-keyboard-response","139","257757","0.0-2.0-7.0-1.19","60fda20d89edf1022f91ace9","C3","batch3","","1582.6999998092651","stim/yes_52_ver_w1.png","f","pattern_response","true","f","pattern_73","1582.6999998092651","true","55","","","","","","","","","","","","","","","","","","",""
"","","","","","html-keyboard-response","140","259076","0.0-2.0-7.0-0.20","60fda20d89edf1022f91ace9","C3","batch3","","null","<p class=block-text>Trial 60 out of 78</p>","null","pattern_show_trial_num","","","","","","","","","","","","","","","","","","","","","","","","",""
"","","","","","image-keyboard-response","141","262652","0.0-2.0-7.0-1.20","60fda20d89edf1022f91ace9","C3","batch3","","3573.9000000953674","stim/no_55_1_w.png","j","pattern_response","true","j","pattern_34","3573.9000000953674","true","56","","","","","","","","","","","","","","","","","","",""
"","","","","","html-keyboard-response","142","263965","0.0-2.0-7.0-0.21","60fda20d89edf1022f91ace9","C3","batch3","","null","<p class=block-text>Trial 61 out of 78</p>","null","pattern_show_trial_num","","","","","","","","","","","","","","","","","","","","","","","","",""
"","","","","","image-keyboard-response","143","267045","0.0-2.0-7.0-1.21","60fda20d89edf1022f91ace9","C3","batch3","","3076.5","stim/yes_48_dia_w1_w.png","j","pattern_response","false","f","pattern_69","3076.5","false","56","","","","","","","","","","","","","","","","","","",""
"","","","","","html-keyboard-response","144","268355","0.0-2.0-7.0-0.22","60fda20d89edf1022f91ace9","C3","batch3","","null","<p class=block-text>Trial 62 out of 78</p>","null","pattern_show_trial_num","","","","","","","","","","","","","","","","","","","","","","","","",""
"","","","","","image-keyboard-response","145","269231","0.0-2.0-7.0-1.22","60fda20d89edf1022f91ace9","C3","batch3","","871.5","stim/yes_67_hor_b1.png","f","pattern_response","true","f","pattern_79","871.5","true","57","","","","","","","","","","","","","","","","","","",""
"","","","","","html-keyboard-response","146","270547","0.0-2.0-7.0-0.23","60fda20d89edf1022f91ace9","C3","batch3","","null","<p class=block-text>Trial 63 out of 78</p>","null","pattern_show_trial_num","","","","","","","","","","","","","","","","","","","","","","","","",""
"","","","","","image-keyboard-response","147","272425","0.0-2.0-7.0-1.23","60fda20d89edf1022f91ace9","C3","batch3","","1875","stim/no_29_1_b.png","j","pattern_response","true","j","pattern_12","1875","true","58","","","","","","","","","","","","","","","","","","",""
"","","","","","html-keyboard-response","148","273741","0.0-2.0-7.0-0.24","60fda20d89edf1022f91ace9","C3","batch3","","null","<p class=block-text>Trial 64 out of 78</p>","null","pattern_show_trial_num","","","","","","","","","","","","","","","","","","","","","","","","",""
"","","","","","image-keyboard-response","149","274602","0.0-2.0-7.0-1.24","60fda20d89edf1022f91ace9","C3","batch3","","857.9000000953674","stim/yes_22_ver_w1.png","f","pattern_response","true","f","pattern_47","857.9000000953674","true","59","","","","","","","","","","","","","","","","","","",""
"","","","","","html-keyboard-response","150","275915","0.0-2.0-7.0-0.25","60fda20d89edf1022f91ace9","C3","batch3","","null","<p class=block-text>Trial 65 out of 78</p>","null","pattern_show_trial_num","","","","","","","","","","","","","","","","","","","","","","","","",""
"","","","","","image-keyboard-response","151","278778","0.0-2.0-7.0-1.25","60fda20d89edf1022f91ace9","C3","batch3","","2859.800000190735","stim/no_42_1_w.png","j","pattern_response","true","j","pattern_22","2859.800000190735","true","60","","","","","","","","","","","","","","","","","","",""
"","","","","","html-keyboard-response","152","280094","0.0-2.0-7.0-0.26","60fda20d89edf1022f91ace9","C3","batch3","","null","<p class=block-text>Trial 66 out of 78</p>","null","pattern_show_trial_num","","","","","","","","","","","","","","","","","","","","","","","","",""
"","","","","","image-keyboard-response","153","283388","0.0-2.0-7.0-1.26","60fda20d89edf1022f91ace9","C3","batch3","","3290.699999809265","stim/no_34_1_b.png","j","pattern_response","true","j","pattern_16","3290.699999809265","true","61","","","","","","","","","","","","","","","","","","",""
"","","","","","html-keyboard-response","154","284702","0.0-2.0-7.0-0.27","60fda20d89edf1022f91ace9","C3","batch3","","null","<p class=block-text>Trial 67 out of 78</p>","null","pattern_show_trial_num","","","","","","","","","","","","","","","","","","","","","","","","",""
"","","","","","image-keyboard-response","155","288108","0.0-2.0-7.0-1.27","60fda20d89edf1022f91ace9","C3","batch3","","3404.5999999046326","stim/no_46_1_b.png","j","pattern_response","true","j","pattern_26","3404.5999999046326","true","62","","","","","","","","","","","","","","","","","","",""
"","","","","","html-keyboard-response","156","289419","0.0-2.0-7.0-0.28","60fda20d89edf1022f91ace9","C3","batch3","","null","<p class=block-text>Trial 68 out of 78</p>","null","pattern_show_trial_num","","","","","","","","","","","","","","","","","","","","","","","","",""
"","","","","","image-keyboard-response","157","295555","0.0-2.0-7.0-1.28","60fda20d89edf1022f91ace9","C3","batch3","","6132.700000286102","stim/no_65_1_b.png","j","pattern_response","true","j","pattern_38","6132.700000286102","true","63","","","","","","","","","","","","","","","","","","",""
"","","","","","html-keyboard-response","158","296867","0.0-2.0-7.0-0.29","60fda20d89edf1022f91ace9","C3","batch3","","null","<p class=block-text>Trial 69 out of 78</p>","null","pattern_show_trial_num","","","","","","","","","","","","","","","","","","","","","","","","",""
"","","","","","image-keyboard-response","159","298394","0.0-2.0-7.0-1.29","60fda20d89edf1022f91ace9","C3","batch3","","1525.3000001907349","stim/yes_29_ver_w1.png","f","pattern_response","true","f","pattern_53","1525.3000001907349","true","64","","","","","","","","","","","","","","","","","","",""
"","","","","","html-keyboard-response","160","299710","0.0-2.0-7.0-0.30","60fda20d89edf1022f91ace9","C3","batch3","","null","<p class=block-text>Trial 70 out of 78</p>","null","pattern_show_trial_num","","","","","","","","","","","","","","","","","","","","","","","","",""
"","","","","","image-keyboard-response","161","300878","0.0-2.0-7.0-1.30","60fda20d89edf1022f91ace9","C3","batch3","","1164.0999999046326","stim/yes_38_hor_b1_b.png","f","pattern_response","true","f","pattern_61","1164.0999999046326","true","65","","","","","","","","","","","","","","","","","","",""
"","","","","","html-keyboard-response","162","302198","0.0-2.0-7.0-0.31","60fda20d89edf1022f91ace9","C3","batch3","","null","<p class=block-text>Trial 71 out of 78</p>","null","pattern_show_trial_num","","","","","","","","","","","","","","","","","","","","","","","","",""
"","","","","","image-keyboard-response","163","305716","0.0-2.0-7.0-1.31","60fda20d89edf1022f91ace9","C3","batch3","","3513.300000190735","stim/no_36_2_w.png","j","pattern_response","true","j","pattern_18","3513.300000190735","true","66","","","","","","","","","","","","","","","","","","",""
"","","","","","html-keyboard-response","164","307019","0.0-2.0-7.0-0.32","60fda20d89edf1022f91ace9","C3","batch3","","null","<p class=block-text>Trial 72 out of 78</p>","null","pattern_show_trial_num","","","","","","","","","","","","","","","","","","","","","","","","",""
"","","","","","image-keyboard-response","165","308171","0.0-2.0-7.0-1.32","60fda20d89edf1022f91ace9","C3","batch3","","1148.3000001907349","stim/no_17_1_w.png","j","pattern_response","true","j","pattern_04","1148.3000001907349","true","67","","","","","","","","","","","","","","","","","","",""
"","","","","","html-keyboard-response","166","309485","0.0-2.0-7.0-0.33","60fda20d89edf1022f91ace9","C3","batch3","","null","<p class=block-text>Trial 73 out of 78</p>","null","pattern_show_trial_num","","","","","","","","","","","","","","","","","","","","","","","","",""
"","","","","","image-keyboard-response","167","310649","0.0-2.0-7.0-1.33","60fda20d89edf1022f91ace9","C3","batch3","","1161.5","stim/no_32_1_w.png","j","pattern_response","true","j","pattern_14","1161.5","true","68","","","","","","","","","","","","","","","","","","",""
"","","","","","html-keyboard-response","168","311965","0.0-2.0-7.0-0.34","60fda20d89edf1022f91ace9","C3","batch3","","null","<p class=block-text>Trial 74 out of 78</p>","null","pattern_show_trial_num","","","","","","","","","","","","","","","","","","","","","","","","",""
"","","","","","image-keyboard-response","169","313041","0.0-2.0-7.0-1.34","60fda20d89edf1022f91ace9","C3","batch3","","1073.0999999046326","stim/yes_17_dia_w1.png","f","pattern_response","true","f","pattern_45","1073.0999999046326","true","69","","","","","","","","","","","","","","","","","","",""
"","","","","","html-keyboard-response","170","314354","0.0-2.0-7.0-0.35","60fda20d89edf1022f91ace9","C3","batch3","","null","<p class=block-text>Trial 75 out of 78</p>","null","pattern_show_trial_num","","","","","","","","","","","","","","","","","","","","","","","","",""
"","","","","","image-keyboard-response","171","315729","0.0-2.0-7.0-1.35","60fda20d89edf1022f91ace9","C3","batch3","","1371.0999999046326","stim/yes_40_dia_b1_b.png","f","pattern_response","true","f","pattern_63","1371.0999999046326","true","70","","","","","","","","","","","","","","","","","","",""
"","","","","","html-keyboard-response","172","317042","0.0-2.0-7.0-0.36","60fda20d89edf1022f91ace9","C3","batch3","","null","<p class=block-text>Trial 76 out of 78</p>","null","pattern_show_trial_num","","","","","","","","","","","","","","","","","","","","","","","","",""
"","","","","","image-keyboard-response","173","319651","0.0-2.0-7.0-1.36","60fda20d89edf1022f91ace9","C3","batch3","","2607.699999809265","stim/no_38_1_b.png","j","pattern_response","true","j","pattern_20","2607.699999809265","true","71","","","","","","","","","","","","","","","","","","",""
"","","","","","html-keyboard-response","174","320965","0.0-2.0-7.0-0.37","60fda20d89edf1022f91ace9","C3","batch3","","null","<p class=block-text>Trial 77 out of 78</p>","null","pattern_show_trial_num","","","","","","","","","","","","","","","","","","","","","","","","",""
"","","","","","image-keyboard-response","175","322046","0.0-2.0-7.0-1.37","60fda20d89edf1022f91ace9","C3","batch3","","1077.5","stim/yes_43_ver_w1_w.png","f","pattern_response","true","f","pattern_65","1077.5","true","72","","","","","","","","","","","","","","","","","","",""
"","","","","","html-keyboard-response","176","323365","0.0-2.0-7.0-0.38","60fda20d89edf1022f91ace9","C3","batch3","","null","<p class=block-text>Trial 78 out of 78</p>","null","pattern_show_trial_num","","","","","","","","","","","","","","","","","","","","","","","","",""
"","","","","","image-keyboard-response","177","324160","0.0-2.0-7.0-1.38","60fda20d89edf1022f91ace9","C3","batch3","","792","stim/yes_25_hor_b1_b.png","f","pattern_response","true","f","pattern_49","792","true","73","","","","","","","","","","","","","","","","","","",""
"","","","","","html-button-response","178","328097","0.0-2.0-8.0","60fda20d89edf1022f91ace9","C3","batch3","","3429.2999997138977","<p class = block-text>This concludes the 4-in-a-row detection game.Thank you for your responses!<br>
            You responded correctly on 94% of the trials.<br>
            When you are ready, press ""Continue"" button to continue </p>","0","","","","","","","","","","","","","","","","","","","","","","","","","",""
"true","","","","","fullscreen","179","340062","0.0-3.0-0.0","60fda20d89edf1022f91ace9","C3","batch3","","","","","","","","","","","","","","","","","","","","","","","","","","","","","",""
"","","","","","instructions","180","411031","0.0-3.0-1.0-0.0-0.0","60fda20d89edf1022f91ace9","C3","batch3","[{""page_index"":0,""viewing_time"":30977.5},{""page_index"":1,""viewing_time"":10930.900000095367},{""page_index"":2,""viewing_time"":1974.2999997138977},{""page_index"":3,""viewing_time"":4046.9000000953674},{""page_index"":4,""viewing_time"":8957.5},{""page_index"":5,""viewing_time"":11756.5},{""page_index"":6,""viewing_time"":2322.300000190735}]","70966.19999980927","","","tol-instructions","","","","","","","","","","","","","","","","","","","","","","","","",""
"","","","","","html-button-response","181","411993","0.0-3.0-1.0-1.0-0.0","60fda20d89edf1022f91ace9","C3","batch3","","960.9000000953674","<p class=block-text> Let's answer a few questions <br>","0","tol_enter_quiz","","","","","","","","","","","","","","","","","","","","","","","","",""
"","","","","","html-button-response","182","416142","0.0-3.0-1.0-1.0-1.0","60fda20d89edf1022f91ace9","C3","batch3","","4146.39999961853","<p class = block-text>True or False: You can only move the ball on top of a peg. <br></p>","0","tol_quiz","true","","","","","","","","","","","","","","","","","","","","","","","",""
"","","","","","html-button-response","183","417306","0.0-3.0-1.0-1.0-2.0","60fda20d89edf1022f91ace9","C3","batch3","","1163.2000002861023","<p class = block-text>Correct! You can only move the ball on top of a peg.</p>","0","tol_quiz_feedback","","","","","","","","","","","","","","","","","","","","","","","","",""
"","","","","","html-button-response","184","420123","0.0-3.0-1.0-1.0-3.0","60fda20d89edf1022f91ace9","C3","batch3","","2815.7000002861023","<p class = block-text>True or False: You should try to match your board with the target board with fewest moves possible. <br></p>","0","tol_quiz","true","","","","","","","","","","","","","","","","","","","","","","","",""
"","","","","","html-button-response","185","420867","0.0-3.0-1.0-1.0-4.0","60fda20d89edf1022f91ace9","C3","batch3","","743.4000000953674","<p class = block-text>Correct! </p>","0","tol_quiz_feedback","","","","","","","","","","","","","","","","","","","","","","","","",""
"","","","","","html-button-response","186","421968","0.0-3.0-2.0","60fda20d89edf1022f91ace9","C3","batch3","","1099.8999996185303","<p class=block-text> Now that you've understood the game, let's practice a few easier examples before we start!<br> <br>","0","","","","","","","","","","","","","","","","","","","","","","","","","",""
"","","","","","single-stim-button","187","423687","0.0-3.0-3.0-0.0","60fda20d89edf1022f91ace9","C3","batch3","","1717","","","tol_practice","","","","","","","","","tol_peg_2","1717","1717","0","[[1,2,0],[0,0],[0]]","1","[[1,2,0],[0,0],[3]]","practice","1717","","","","","","","",""
"","","","","","single-stim-button","188","424566","0.0-3.0-3.0-1.0","60fda20d89edf1022f91ace9","C3","batch3","","879","","","tol_practice","","","","","","","","","tol_peg_3","879","879","0","[[1,2,0],[0,0],[3]]","1","[[1,2,0],[0,0],[3]]","practice","879","","","","","","","",""
"","","","","","poldrack-single-stim","189","425572","0.0-3.0-4.0","60fda20d89edf1022f91ace9","C3","batch3","","-1","","","tol_feedback","true","","","","","","","","","1000","1000","500","","","","","","-1","none","true","","0","","",""
"","","","","","single-stim-button","190","428346","0.0-3.0-5.0-0.0","60fda20d89edf1022f91ace9","C3","batch3","","2773","","","tol_practice","","","","","","","","","tol_peg_1","2773","2773","0","[[1,0,0],[3,0],[0]]","2","[[0,0,0],[3,1],[2]]","practice","2773","","","","","","","",""
"","","","","","single-stim-button","191","429543","0.0-3.0-5.0-1.0","60fda20d89edf1022f91ace9","C3","batch3","","1197","","","tol_practice","","","","","","","","","tol_peg_3","1197","1197","0","[[1,0,0],[3,0],[2]]","2","[[0,0,0],[3,1],[2]]","practice","1197","","","","","","","",""
"","","","","","single-stim-button","192","430458","0.0-3.0-5.1-0.1","60fda20d89edf1022f91ace9","C3","batch3","","913","","","tol_practice","","","","","","","","","tol_peg_1","913","913","0","[[0,0,0],[3,0],[2]]","3","[[0,0,0],[3,1],[2]]","practice","913","","","","","","","",""
"","","","","","single-stim-button","193","431210","0.0-3.0-5.1-1.1","60fda20d89edf1022f91ace9","C3","batch3","","752","","","tol_practice","","","","","","","","","tol_peg_2","752","752","0","[[0,0,0],[3,1],[2]]","3","[[0,0,0],[3,1],[2]]","practice","752","","","","","","","",""
"","","","","","poldrack-single-stim","194","432220","0.0-3.0-6.0","60fda20d89edf1022f91ace9","C3","batch3","","-1","","","tol_feedback","true","","","","","","","","","1000","1000","500","","","","","","-1","none","true","","0","","",""
"","","","","","single-stim-button","195","434494","0.0-3.0-7.0-0.0","60fda20d89edf1022f91ace9","C3","batch3","","2272","","","tol_practice","","","","","","","","","tol_peg_2","2272","2272","0","[[1,2,0],[0,0],[0]]","4","[[1,0,0],[2,0],[3]]","practice","2272","","","","","","","",""
"","","","","","single-stim-button","196","435286","0.0-3.0-7.0-1.0","60fda20d89edf1022f91ace9","C3","batch3","","792","","","tol_practice","","","","","","","","","tol_peg_3","792","792","0","[[1,2,0],[0,0],[3]]","4","[[1,0,0],[2,0],[3]]","practice","792","","","","","","","",""
"","","","","","single-stim-button","197","436127","0.0-3.0-7.1-0.1","60fda20d89edf1022f91ace9","C3","batch3","","840","","","tol_practice","","","","","","","","","tol_peg_1","840","840","0","[[1,0,0],[0,0],[3]]","5","[[1,0,0],[2,0],[3]]","practice","840","","","","","","","",""
"","","","","","single-stim-button","198","437043","0.0-3.0-7.1-1.1","60fda20d89edf1022f91ace9","C3","batch3","","914","","","tol_practice","","","","","","","","","tol_peg_2","914","914","0","[[1,0,0],[2,0],[3]]","5","[[1,0,0],[2,0],[3]]","practice","914","","","","","","","",""
"","","","","","poldrack-single-stim","199","438052","0.0-3.0-8.0","60fda20d89edf1022f91ace9","C3","batch3","","-1","","","tol_feedback","true","","","","","","","","","1000","1000","500","","","","","","-1","none","true","","0","","",""
"","","","","","html-button-response","200","439924","0.0-3.0-9.0","60fda20d89edf1022f91ace9","C3","batch3","","1870.4000000953674","<div class = centerbox><p class = center-block-text>Great job! You are done with practice trials<br>You are about to start official trials.<br> <br> Problem <strong>1</strong> out of 25 problems</p></div>","0","tol_instruction","","","","","","","","","","","","","","","","","","","","","","","","",""
"","","","","","single-stim-button","201","447079","0.0-3.0-10.0-0.0","60fda20d89edf1022f91ace9","C3","batch3","","6146","","","tol_tohand","","","","","","","","","tol_peg_1","6146","6146","0","[[1,0,0],[3,0],[0]]","1","[[1,3,0],[2,0],[0]]","0","0","","","","","","3","",""
"","","","","","single-stim-button","202","447944","0.0-3.0-10.0-1.0","60fda20d89edf1022f91ace9","C3","batch3","","865","","","tol_toboard","","","","","","","","","tol_peg_3","865","865","0","[[1,0,0],[3,0],[2]]","1","[[1,3,0],[2,0],[0]]","0","0","","","","","","3","",""
"","","","","","single-stim-button","203","448454","0.0-3.0-10.1-0.1","60fda20d89edf1022f91ace9","C3","batch3","","509","","","tol_tohand","","","","","","","","","tol_peg_2","509","509","0","[[1,0,0],[0,0],[2]]","2","[[1,3,0],[2,0],[0]]","0","0","","","","","","3","",""
"","","","","","single-stim-button","204","449086","0.0-3.0-10.1-1.1","60fda20d89edf1022f91ace9","C3","batch3","","631","","","tol_toboard","","","","","","","","","tol_peg_1","631","631","0","[[1,3,0],[0,0],[2]]","2","[[1,3,0],[2,0],[0]]","0","0","","","","","","3","",""
"","","","","","single-stim-button","205","449749","0.0-3.0-10.2-0.2","60fda20d89edf1022f91ace9","C3","batch3","","662","","","tol_tohand","","","","","","","","","tol_peg_3","662","662","0","[[1,3,0],[0,0],[0]]","3","[[1,3,0],[2,0],[0]]","0","0","","","","","","3","",""
"","","","","","single-stim-button","206","450283","0.0-3.0-10.2-1.2","60fda20d89edf1022f91ace9","C3","batch3","","533","","","tol_toboard","","","","","","","","","tol_peg_2","533","533","0","[[1,3,0],[2,0],[0]]","3","[[1,3,0],[2,0],[0]]","0","0","","","","","","3","",""
"","","","","","poldrack-single-stim","207","451294","0.0-3.0-11.0","60fda20d89edf1022f91ace9","C3","batch3","","-1","","","tol_feedback","true","","","","","","","","","1000","1000","500","","","","","","-1","none","true","6146","7317","","",""
"","","","","","html-button-response","208","452282","0.0-3.0-12.0","60fda20d89edf1022f91ace9","C3","batch3","","986.2000002861023","<div class = centerbox><p class = center-block-text>problem <strong>2</strong> out of 25 problems</p></div>","0","tol_trial_num","","","","","","","","","","","","","","","","","","","","","","","","",""
"","","","","","single-stim-button","209","455236","0.0-3.0-13.0-0.0","60fda20d89edf1022f91ace9","C3","batch3","","2953","","","tol_tohand","","","","","","","","","tol_peg_1","2953","2953","0","[[1,0,0],[3,0],[0]]","1","[[2,1,3],[0,0],[0]]","1","0","","","","","","5","",""
"","","","","","single-stim-button","210","460036","0.0-3.0-13.0-1.0","60fda20d89edf1022f91ace9","C3","batch3","","4799","","","tol_toboard","","","","","","","","","tol_peg_2","4799","4799","0","[[1,0,0],[3,2],[0]]","1","[[2,1,3],[0,0],[0]]","1","0","","","","","","5","",""
"","","","","","single-stim-button","211","460642","0.0-3.0-13.1-0.1","60fda20d89edf1022f91ace9","C3","batch3","","605","","","tol_tohand","","","","","","","","","tol_peg_1","605","605","0","[[0,0,0],[3,2],[0]]","2","[[2,1,3],[0,0],[0]]","1","0","","","","","","5","",""
"","","","","","single-stim-button","212","461330","0.0-3.0-13.1-1.1","60fda20d89edf1022f91ace9","C3","batch3","","688","","","tol_toboard","","","","","","","","","tol_peg_3","688","688","0","[[0,0,0],[3,2],[1]]","2","[[2,1,3],[0,0],[0]]","1","0","","","","","","5","",""
"","","","","","single-stim-button","213","462034","0.0-3.0-13.2-0.2","60fda20d89edf1022f91ace9","C3","batch3","","703","","","tol_tohand","","","","","","","","","tol_peg_2","703","703","0","[[0,0,0],[3,0],[1]]","3","[[2,1,3],[0,0],[0]]","1","0","","","","","","5","",""
"","","","","","single-stim-button","214","462836","0.0-3.0-13.2-1.2","60fda20d89edf1022f91ace9","C3","batch3","","801","","","tol_toboard","","","","","","","","","tol_peg_1","801","801","0","[[2,0,0],[3,0],[1]]","3","[[2,1,3],[0,0],[0]]","1","0","","","","","","5","",""
"","","","","","single-stim-button","215","463483","0.0-3.0-13.3-0.3","60fda20d89edf1022f91ace9","C3","batch3","","646","","","tol_tohand","","","","","","","","","tol_peg_3","646","646","0","[[2,0,0],[3,0],[0]]","4","[[2,1,3],[0,0],[0]]","1","0","","","","","","5","",""
"","","","","","single-stim-button","216","464389","0.0-3.0-13.3-1.3","60fda20d89edf1022f91ace9","C3","batch3","","905","","","tol_toboard","","","","","","","","","tol_peg_1","905","905","0","[[2,1,0],[3,0],[0]]","4","[[2,1,3],[0,0],[0]]","1","0","","","","","","5","",""
"","","","","","single-stim-button","217","464859","0.0-3.0-13.4-0.4","60fda20d89edf1022f91ace9","C3","batch3","","469","","","tol_tohand","","","","","","","","","tol_peg_2","469","469","0","[[2,1,0],[0,0],[0]]","5","[[2,1,3],[0,0],[0]]","1","0","","","","","","5","",""
"","","","","","single-stim-button","218","465960","0.0-3.0-13.4-1.4","60fda20d89edf1022f91ace9","C3","batch3","","1099","","","tol_toboard","","","","","","","","","tol_peg_1","1099","1099","0","[[2,1,3],[0,0],[0]]","5","[[2,1,3],[0,0],[0]]","1","0","","","","","","5","",""
"","","","","","poldrack-single-stim","219","466966","0.0-3.0-14.0","60fda20d89edf1022f91ace9","C3","batch3","","-1","","","tol_feedback","true","","","","","","","","","1000","1000","500","","","","","","-1","none","true","2953","5376","","",""
"","","","","","html-button-response","220","468355","0.0-3.0-15.0","60fda20d89edf1022f91ace9","C3","batch3","","1387.3999996185303","<div class = centerbox><p class = center-block-text>problem <strong>3</strong> out of 25 problems</p></div>","0","tol_trial_num","","","","","","","","","","","","","","","","","","","","","","","","",""
"","","","","","single-stim-button","221","471586","0.0-3.0-16.0-0.0","60fda20d89edf1022f91ace9","C3","batch3","","3229","","","tol_tohand","","","","","","","","","tol_peg_1","3229","3229","0","[[2,0,0],[0,0],[1]]","1","[[1,2,0],[3,0],[0]]","2","0","","","","","","4","",""
"","","","","","single-stim-button","222","472476","0.0-3.0-16.0-1.0","60fda20d89edf1022f91ace9","C3","batch3","","890","","","tol_toboard","","","","","","","","","tol_peg_2","890","890","0","[[2,0,0],[3,0],[1]]","1","[[1,2,0],[3,0],[0]]","2","0","","","","","","4","",""
"","","","","","single-stim-button","223","473390","0.0-3.0-16.1-0.1","60fda20d89edf1022f91ace9","C3","batch3","","913","","","tol_tohand","","","","","","","","","tol_peg_1","913","913","0","[[0,0,0],[3,0],[1]]","2","[[1,2,0],[3,0],[0]]","2","0","","","","","","4","",""
"","","","","","single-stim-button","224","473924","0.0-3.0-16.1-1.1","60fda20d89edf1022f91ace9","C3","batch3","","534","","","tol_toboard","","","","","","","","","tol_peg_2","534","534","0","[[0,0,0],[3,2],[1]]","2","[[1,2,0],[3,0],[0]]","2","0","","","","","","4","",""
"","","","","","single-stim-button","225","474522","0.0-3.0-16.2-0.2","60fda20d89edf1022f91ace9","C3","batch3","","597","","","tol_tohand","","","","","","","","","tol_peg_3","597","597","0","[[0,0,0],[3,2],[0]]","3","[[1,2,0],[3,0],[0]]","2","0","","","","","","4","",""
"","","","","","single-stim-button","226","475210","0.0-3.0-16.2-1.2","60fda20d89edf1022f91ace9","C3","batch3","","687","","","tol_toboard","","","","","","","","","tol_peg_1","687","687","0","[[1,0,0],[3,2],[0]]","3","[[1,2,0],[3,0],[0]]","2","0","","","","","","4","",""
"","","","","","single-stim-button","227","475842","0.0-3.0-16.3-0.3","60fda20d89edf1022f91ace9","C3","batch3","","631","","","tol_tohand","","","","","","","","","tol_peg_2","631","631","0","[[1,0,0],[3,0],[0]]","4","[[1,2,0],[3,0],[0]]","2","0","","","","","","4","",""
"","","","","","single-stim-button","228","476441","0.0-3.0-16.3-1.3","60fda20d89edf1022f91ace9","C3","batch3","","599","","","tol_toboard","","","","","","","","","tol_peg_1","599","599","0","[[1,2,0],[3,0],[0]]","4","[[1,2,0],[3,0],[0]]","2","0","","","","","","4","",""
"","","","","","poldrack-single-stim","229","477446","0.0-3.0-17.0","60fda20d89edf1022f91ace9","C3","batch3","","-1","","","tol_feedback","true","","","","","","","","","1000","1000","500","","","","","","-1","none","true","3229","5370","","",""
"","","","","","html-button-response","230","478594","0.0-3.0-18.0","60fda20d89edf1022f91ace9","C3","batch3","","1146.3000001907349","<div class = centerbox><p class = center-block-text>problem <strong>4</strong> out of 25 problems</p></div>","0","tol_trial_num","","","","","","","","","","","","","","","","","","","","","","","","",""
"","","","","","single-stim-button","231","481427","0.0-3.0-19.0-0.0","60fda20d89edf1022f91ace9","C3","batch3","","2832","","","tol_tohand","","","","","","","","","tol_peg_2","2832","2832","0","[[3,0,0],[2,0],[0]]","1","[[3,0,0],[1,0],[2]]","3","0","","","","","","3","",""
"","","","","","single-stim-button","232","481920","0.0-3.0-19.0-1.0","60fda20d89edf1022f91ace9","C3","batch3","","493","","","tol_toboard","","","","","","","","","tol_peg_1","493","493","0","[[3,1,0],[2,0],[0]]","1","[[3,0,0],[1,0],[2]]","3","0","","","","","","3","",""
"","","","","","single-stim-button","233","482446","0.0-3.0-19.1-0.1","60fda20d89edf1022f91ace9","C3","batch3","","526","","","tol_tohand","","","","","","","","","tol_peg_2","526","526","0","[[3,1,0],[0,0],[0]]","2","[[3,0,0],[1,0],[2]]","3","0","","","","","","3","",""
"","","","","","single-stim-button","234","483053","0.0-3.0-19.1-1.1","60fda20d89edf1022f91ace9","C3","batch3","","606","","","tol_toboard","","","","","","","","","tol_peg_3","606","606","0","[[3,1,0],[0,0],[2]]","2","[[3,0,0],[1,0],[2]]","3","0","","","","","","3","",""
"","","","","","single-stim-button","235","483644","0.0-3.0-19.2-0.2","60fda20d89edf1022f91ace9","C3","batch3","","591","","","tol_tohand","","","","","","","","","tol_peg_1","591","591","0","[[3,0,0],[0,0],[2]]","3","[[3,0,0],[1,0],[2]]","3","0","","","","","","3","",""
"","","","","","single-stim-button","236","484405","0.0-3.0-19.2-1.2","60fda20d89edf1022f91ace9","C3","batch3","","760","","","tol_toboard","","","","","","","","","tol_peg_2","760","760","0","[[3,0,0],[1,0],[2]]","3","[[3,0,0],[1,0],[2]]","3","0","","","","","","3","",""
"","","","","","poldrack-single-stim","237","485413","0.0-3.0-20.0","60fda20d89edf1022f91ace9","C3","batch3","","-1","","","tol_feedback","true","","","","","","","","","1000","1000","500","","","","","","-1","none","true","2832","3949","","",""
"","","","","","html-button-response","238","486485","0.0-3.0-21.0","60fda20d89edf1022f91ace9","C3","batch3","","1070.5999999046326","<div class = centerbox><p class = center-block-text>problem <strong>5</strong> out of 25 problems</p></div>","0","tol_trial_num","","","","","","","","","","","","","","","","","","","","","","","","",""
"","","","","","single-stim-button","239","497840","0.0-3.0-22.0-0.0","60fda20d89edf1022f91ace9","C3","batch3","","11355","","","tol_tohand","","","","","","","","","tol_peg_3","11355","11355","0","[[1,0,0],[2,0],[0]]","1","[[0,0,0],[1,2],[3]]","4","0","","","","","","7","",""
"","","","","","single-stim-button","240","499191","0.0-3.0-22.0-1.0","60fda20d89edf1022f91ace9","C3","batch3","","1350","","","tol_toboard","","","","","","","","","tol_peg_1","1350","1350","0","[[1,3,0],[2,0],[0]]","1","[[0,0,0],[1,2],[3]]","4","0","","","","","","7","",""
"","","","","","single-stim-button","241","513460","0.0-3.0-22.1-0.1","60fda20d89edf1022f91ace9","C3","batch3","","14267","","","tol_tohand","","","","","","","","","tol_peg_2","14267","14267","0","[[1,3,0],[0,0],[0]]","2","[[0,0,0],[1,2],[3]]","4","0","","","","","","7","",""
"","","","","","single-stim-button","242","514415","0.0-3.0-22.1-1.1","60fda20d89edf1022f91ace9","C3","batch3","","953","","","tol_toboard","","","","","","","","","tol_peg_3","953","953","0","[[1,3,0],[0,0],[2]]","2","[[0,0,0],[1,2],[3]]","4","0","","","","","","7","",""
"","","","","","single-stim-button","243","515442","0.0-3.0-22.2-0.2","60fda20d89edf1022f91ace9","C3","batch3","","1027","","","tol_tohand","","","","","","","","","tol_peg_1","1027","1027","0","[[1,0,0],[0,0],[2]]","3","[[0,0,0],[1,2],[3]]","4","0","","","","","","7","",""
"","","","","","single-stim-button","244","516388","0.0-3.0-22.2-1.2","60fda20d89edf1022f91ace9","C3","batch3","","945","","","tol_toboard","","","","","","","","","tol_peg_2","945","945","0","[[1,0,0],[3,0],[2]]","3","[[0,0,0],[1,2],[3]]","4","0","","","","","","7","",""
"","","","","","single-stim-button","245","529144","0.0-3.0-22.3-0.3","60fda20d89edf1022f91ace9","C3","batch3","","12755","","","tol_tohand","","","","","","","","","tol_peg_3","12755","12755","0","[[1,0,0],[3,0],[0]]","4","[[0,0,0],[1,2],[3]]","4","0","","","","","","7","",""
"","","","","","single-stim-button","246","529718","0.0-3.0-22.3-1.3","60fda20d89edf1022f91ace9","C3","batch3","","573","","","tol_toboard","","","","","","","","","tol_peg_2","573","573","0","[[1,0,0],[3,2],[0]]","4","[[0,0,0],[1,2],[3]]","4","0","","","","","","7","",""
"","","","","","single-stim-button","247","530374","0.0-3.0-22.4-0.4","60fda20d89edf1022f91ace9","C3","batch3","","655","","","tol_tohand","","","","","","","","","tol_peg_1","655","655","0","[[0,0,0],[3,2],[0]]","5","[[0,0,0],[1,2],[3]]","4","0","","","","","","7","",""
"","","","","","single-stim-button","248","531207","0.0-3.0-22.4-1.4","60fda20d89edf1022f91ace9","C3","batch3","","833","","","tol_toboard","","","","","","","","","tol_peg_3","833","833","0","[[0,0,0],[3,2],[1]]","5","[[0,0,0],[1,2],[3]]","4","0","","","","","","7","",""
"","","","","","single-stim-button","249","536127","0.0-3.0-22.5-0.5","60fda20d89edf1022f91ace9","C3","batch3","","4920","","","tol_tohand","","","","","","","","","tol_peg_2","4920","4920","0","[[0,0,0],[3,0],[1]]","6","[[0,0,0],[1,2],[3]]","4","0","","","","","","7","",""
"","","","","","single-stim-button","250","537205","0.0-3.0-22.5-1.5","60fda20d89edf1022f91ace9","C3","batch3","","1076","","","tol_toboard","","","","","","","","","tol_peg_1","1076","1076","0","[[2,0,0],[3,0],[1]]","6","[[0,0,0],[1,2],[3]]","4","0","","","","","","7","",""
"","","","","","single-stim-button","251","537666","0.0-3.0-22.6-0.6","60fda20d89edf1022f91ace9","C3","batch3","","460","","","tol_tohand","","","","","","","","","tol_peg_2","460","460","0","[[2,0,0],[0,0],[1]]","7","[[0,0,0],[1,2],[3]]","4","0","","","","","","7","",""
"","","","","","single-stim-button","252","538191","0.0-3.0-22.6-1.6","60fda20d89edf1022f91ace9","C3","batch3","","525","","","tol_toboard","","","","","","","","","tol_peg_1","525","525","0","[[2,3,0],[0,0],[1]]","7","[[0,0,0],[1,2],[3]]","4","0","","","","","","7","",""
"","","","","","single-stim-button","253","539049","0.0-3.0-22.7-0.7","60fda20d89edf1022f91ace9","C3","batch3","","857","","","tol_tohand","","","","","","","","","tol_peg_3","857","857","0","[[2,3,0],[0,0],[0]]","8","[[0,0,0],[1,2],[3]]","4","0","","","","","","7","",""
"","","","","","single-stim-button","254","539536","0.0-3.0-22.7-1.7","60fda20d89edf1022f91ace9","C3","batch3","","487","","","tol_toboard","","","","","","","","","tol_peg_2","487","487","0","[[2,3,0],[1,0],[0]]","8","[[0,0,0],[1,2],[3]]","4","0","","","","","","7","",""
"","","","","","single-stim-button","255","540190","0.0-3.0-22.8-0.8","60fda20d89edf1022f91ace9","C3","batch3","","654","","","tol_tohand","","","","","","","","","tol_peg_1","654","654","0","[[2,0,0],[1,0],[0]]","9","[[0,0,0],[1,2],[3]]","4","0","","","","","","7","",""
"","","","","","single-stim-button","256","540806","0.0-3.0-22.8-1.8","60fda20d89edf1022f91ace9","C3","batch3","","615","","","tol_toboard","","","","","","","","","tol_peg_3","615","615","0","[[2,0,0],[1,0],[3]]","9","[[0,0,0],[1,2],[3]]","4","0","","","","","","7","",""
"","","","","","single-stim-button","257","541308","0.0-3.0-22.9-0.9","60fda20d89edf1022f91ace9","C3","batch3","","501","","","tol_tohand","","","","","","","","","tol_peg_1","501","501","0","[[0,0,0],[1,0],[3]]","10","[[0,0,0],[1,2],[3]]","4","0","","","","","","7","",""
"","","","","","single-stim-button","258","541745","0.0-3.0-22.9-1.9","60fda20d89edf1022f91ace9","C3","batch3","","437","","","tol_toboard","","","","","","","","","tol_peg_2","437","437","0","[[0,0,0],[1,2],[3]]","10","[[0,0,0],[1,2],[3]]","4","0","","","","","","7","",""
"","","","","","poldrack-single-stim","259","542752","0.0-3.0-23.0","60fda20d89edf1022f91ace9","C3","batch3","","-1","","","tol_feedback","true","","","","","","","","","1000","1000","500","","","","","","-1","none","true","11355","47451","","",""
"","","","","","html-button-response","260","543719","0.0-3.0-24.0","60fda20d89edf1022f91ace9","C3","batch3","","966.4000000953674","<div class = centerbox><p class = center-block-text>problem <strong>6</strong> out of 25 problems</p></div>","0","tol_trial_num","","","","","","","","","","","","","","","","","","","","","","","","",""
"","","","","","single-stim-button","261","551570","0.0-3.0-25.0-0.0","60fda20d89edf1022f91ace9","C3","batch3","","7850","","","tol_tohand","","","","","","","","","tol_peg_3","7850","7850","0","[[0,0,0],[1,2],[0]]","1","[[1,0,0],[2,3],[0]]","5","0","","","","","","6","",""
"","","","","","single-stim-button","262","552355","0.0-3.0-25.0-1.0","60fda20d89edf1022f91ace9","C3","batch3","","784","","","tol_toboard","","","","","","","","","tol_peg_1","784","784","0","[[3,0,0],[1,2],[0]]","1","[[1,0,0],[2,3],[0]]","5","0","","","","","","6","",""
"","","","","","single-stim-button","263","552986","0.0-3.0-25.1-0.1","60fda20d89edf1022f91ace9","C3","batch3","","631","","","tol_tohand","","","","","","","","","tol_peg_2","631","631","0","[[3,0,0],[1,0],[0]]","2","[[1,0,0],[2,3],[0]]","5","0","","","","","","6","",""
"","","","","","single-stim-button","264","553440","0.0-3.0-25.1-1.1","60fda20d89edf1022f91ace9","C3","batch3","","452","","","tol_toboard","","","","","","","","","tol_peg_1","452","452","0","[[3,2,0],[1,0],[0]]","2","[[1,0,0],[2,3],[0]]","5","0","","","","","","6","",""
"","","","","","single-stim-button","265","553893","0.0-3.0-25.2-0.2","60fda20d89edf1022f91ace9","C3","batch3","","452","","","tol_tohand","","","","","","","","","tol_peg_2","452","452","0","[[3,2,0],[0,0],[0]]","3","[[1,0,0],[2,3],[0]]","5","0","","","","","","6","",""
"","","","","","single-stim-button","266","554653","0.0-3.0-25.2-1.2","60fda20d89edf1022f91ace9","C3","batch3","","760","","","tol_toboard","","","","","","","","","tol_peg_3","760","760","0","[[3,2,0],[0,0],[1]]","3","[[1,0,0],[2,3],[0]]","5","0","","","","","","6","",""
"","","","","","single-stim-button","267","555867","0.0-3.0-25.3-0.3","60fda20d89edf1022f91ace9","C3","batch3","","1213","","","tol_tohand","","","","","","","","","tol_peg_1","1213","1213","0","[[3,0,0],[0,0],[1]]","4","[[1,0,0],[2,3],[0]]","5","0","","","","","","6","",""
"","","","","","single-stim-button","268","556571","0.0-3.0-25.3-1.3","60fda20d89edf1022f91ace9","C3","batch3","","703","","","tol_toboard","","","","","","","","","tol_peg_2","703","703","0","[[3,0,0],[2,0],[1]]","4","[[1,0,0],[2,3],[0]]","5","0","","","","","","6","",""
"","","","","","single-stim-button","269","557114","0.0-3.0-25.4-0.4","60fda20d89edf1022f91ace9","C3","batch3","","542","","","tol_tohand","","","","","","","","","tol_peg_1","542","542","0","[[0,0,0],[2,0],[1]]","5","[[1,0,0],[2,3],[0]]","5","0","","","","","","6","",""
"","","","","","single-stim-button","270","557575","0.0-3.0-25.4-1.4","60fda20d89edf1022f91ace9","C3","batch3","","461","","","tol_toboard","","","","","","","","","tol_peg_2","461","461","0","[[0,0,0],[2,3],[1]]","5","[[1,0,0],[2,3],[0]]","5","0","","","","","","6","",""
"","","","","","single-stim-button","271","558093","0.0-3.0-25.5-0.5","60fda20d89edf1022f91ace9","C3","batch3","","517","","","tol_tohand","","","","","","","","","tol_peg_3","517","517","0","[[0,0,0],[2,3],[0]]","6","[[1,0,0],[2,3],[0]]","5","0","","","","","","6","",""
"","","","","","single-stim-button","272","558748","0.0-3.0-25.5-1.5","60fda20d89edf1022f91ace9","C3","batch3","","654","","","tol_toboard","","","","","","","","","tol_peg_1","654","654","0","[[1,0,0],[2,3],[0]]","6","[[1,0,0],[2,3],[0]]","5","0","","","","","","6","",""
"","","","","","poldrack-single-stim","273","559751","0.0-3.0-26.0","60fda20d89edf1022f91ace9","C3","batch3","","-1","","","tol_feedback","true","","","","","","","","","1000","1000","500","","","","","","-1","none","true","7850","11205","","",""
"","","","","","html-button-response","274","560690","0.0-3.0-27.0","60fda20d89edf1022f91ace9","C3","batch3","","938.5","<div class = centerbox><p class = center-block-text>problem <strong>7</strong> out of 25 problems</p></div>","0","tol_trial_num","","","","","","","","","","","","","","","","","","","","","","","","",""
"","","","","","single-stim-button","275","564090","0.0-3.0-28.0-0.0","60fda20d89edf1022f91ace9","C3","batch3","","3399","","","tol_tohand","","","","","","","","","tol_peg_1","3399","3399","0","[[2,0,0],[0,0],[3]]","1","[[1,2,0],[3,0],[0]]","6","0","","","","","","5","",""
"","","","","","single-stim-button","276","565976","0.0-3.0-28.0-1.0","60fda20d89edf1022f91ace9","C3","batch3","","1885","","","tol_toboard","","","","","","","","","tol_peg_1","1885","1885","0","[[2,1,0],[0,0],[3]]","1","[[1,2,0],[3,0],[0]]","6","0","","","","","","5","",""
"","","","","","single-stim-button","277","567036","0.0-3.0-28.1-0.1","60fda20d89edf1022f91ace9","C3","batch3","","1060","","","tol_tohand","","","","","","","","","tol_peg_3","1060","1060","0","[[2,1,0],[0,0],[0]]","2","[[1,2,0],[3,0],[0]]","6","0","","","","","","5","",""
"","","","","","single-stim-button","278","567635","0.0-3.0-28.1-1.1","60fda20d89edf1022f91ace9","C3","batch3","","599","","","tol_toboard","","","","","","","","","tol_peg_2","599","599","0","[[2,1,0],[3,0],[0]]","2","[[1,2,0],[3,0],[0]]","6","0","","","","","","5","",""
"","","","","","single-stim-button","279","568185","0.0-3.0-28.2-0.2","60fda20d89edf1022f91ace9","C3","batch3","","549","","","tol_tohand","","","","","","","","","tol_peg_1","549","549","0","[[2,0,0],[3,0],[0]]","3","[[1,2,0],[3,0],[0]]","6","0","","","","","","5","",""
"","","","","","single-stim-button","280","569026","0.0-3.0-28.2-1.2","60fda20d89edf1022f91ace9","C3","batch3","","841","","","tol_toboard","","","","","","","","","tol_peg_3","841","841","0","[[2,0,0],[3,0],[1]]","3","[[1,2,0],[3,0],[0]]","6","0","","","","","","5","",""
"","","","","","single-stim-button","281","570046","0.0-3.0-28.3-0.3","60fda20d89edf1022f91ace9","C3","batch3","","1019","","","tol_tohand","","","","","","","","","tol_peg_1","1019","1019","0","[[0,0,0],[3,0],[1]]","4","[[1,2,0],[3,0],[0]]","6","0","","","","","","5","",""
"","","","","","single-stim-button","282","570734","0.0-3.0-28.3-1.3","60fda20d89edf1022f91ace9","C3","batch3","","688","","","tol_toboard","","","","","","","","","tol_peg_2","688","688","0","[[0,0,0],[3,2],[1]]","4","[[1,2,0],[3,0],[0]]","6","0","","","","","","5","",""
"","","","","","single-stim-button","283","571616","0.0-3.0-28.4-0.4","60fda20d89edf1022f91ace9","C3","batch3","","882","","","tol_tohand","","","","","","","","","tol_peg_3","882","882","0","[[0,0,0],[3,2],[0]]","5","[[1,2,0],[3,0],[0]]","6","0","","","","","","5","",""
"","","","","","single-stim-button","284","572216","0.0-3.0-28.4-1.4","60fda20d89edf1022f91ace9","C3","batch3","","598","","","tol_toboard","","","","","","","","","tol_peg_1","598","598","0","[[1,0,0],[3,2],[0]]","5","[[1,2,0],[3,0],[0]]","6","0","","","","","","5","",""
"","","","","","single-stim-button","285","572725","0.0-3.0-28.5-0.5","60fda20d89edf1022f91ace9","C3","batch3","","508","","","tol_tohand","","","","","","","","","tol_peg_2","508","508","0","[[1,0,0],[3,0],[0]]","6","[[1,2,0],[3,0],[0]]","6","0","","","","","","5","",""
"","","","","","single-stim-button","286","573210","0.0-3.0-28.5-1.5","60fda20d89edf1022f91ace9","C3","batch3","","485","","","tol_toboard","","","","","","","","","tol_peg_1","485","485","0","[[1,2,0],[3,0],[0]]","6","[[1,2,0],[3,0],[0]]","6","0","","","","","","5","",""
"","","","","","poldrack-single-stim","287","574221","0.0-3.0-29.0","60fda20d89edf1022f91ace9","C3","batch3","","-1","","","tol_feedback","true","","","","","","","","","1000","1000","500","","","","","","-1","none","true","3399","7417","","",""
"","","","","","html-button-response","288","575557","0.0-3.0-30.0","60fda20d89edf1022f91ace9","C3","batch3","","1334.6999998092651","<div class = centerbox><p class = center-block-text>problem <strong>8</strong> out of 25 problems</p></div>","0","tol_trial_num","","","","","","","","","","","","","","","","","","","","","","","","",""
"","","","","","single-stim-button","289","579353","0.0-3.0-31.0-0.0","60fda20d89edf1022f91ace9","C3","batch3","","3796","","","tol_tohand","","","","","","","","","tol_peg_3","3796","3796","0","[[0,0,0],[2,3],[0]]","1","[[1,2,0],[3,0],[0]]","7","0","","","","","","4","",""
"","","","","","single-stim-button","290","580316","0.0-3.0-31.0-1.0","60fda20d89edf1022f91ace9","C3","batch3","","962","","","tol_toboard","","","","","","","","","tol_peg_1","962","962","0","[[1,0,0],[2,3],[0]]","1","[[1,2,0],[3,0],[0]]","7","0","","","","","","4","",""
"","","","","","single-stim-button","291","581425","0.0-3.0-31.1-0.1","60fda20d89edf1022f91ace9","C3","batch3","","1108","","","tol_tohand","","","","","","","","","tol_peg_2","1108","1108","0","[[1,0,0],[2,0],[0]]","2","[[1,2,0],[3,0],[0]]","7","0","","","","","","4","",""
"","","","","","single-stim-button","292","582226","0.0-3.0-31.1-1.1","60fda20d89edf1022f91ace9","C3","batch3","","801","","","tol_toboard","","","","","","","","","tol_peg_3","801","801","0","[[1,0,0],[2,0],[3]]","2","[[1,2,0],[3,0],[0]]","7","0","","","","","","4","",""
"","","","","","single-stim-button","293","582696","0.0-3.0-31.2-0.2","60fda20d89edf1022f91ace9","C3","batch3","","469","","","tol_tohand","","","","","","","","","tol_peg_2","469","469","0","[[1,0,0],[0,0],[3]]","3","[[1,2,0],[3,0],[0]]","7","0","","","","","","4","",""
"","","","","","single-stim-button","294","583238","0.0-3.0-31.2-1.2","60fda20d89edf1022f91ace9","C3","batch3","","541","","","tol_toboard","","","","","","","","","tol_peg_1","541","541","0","[[1,2,0],[0,0],[3]]","3","[[1,2,0],[3,0],[0]]","7","0","","","","","","4","",""
"","","","","","single-stim-button","295","583820","0.0-3.0-31.3-0.3","60fda20d89edf1022f91ace9","C3","batch3","","581","","","tol_tohand","","","","","","","","","tol_peg_3","581","581","0","[[1,2,0],[0,0],[0]]","4","[[1,2,0],[3,0],[0]]","7","0","","","","","","4","",""
"","","","","","single-stim-button","296","584412","0.0-3.0-31.3-1.3","60fda20d89edf1022f91ace9","C3","batch3","","591","","","tol_toboard","","","","","","","","","tol_peg_2","591","591","0","[[1,2,0],[3,0],[0]]","4","[[1,2,0],[3,0],[0]]","7","0","","","","","","4","",""
"","","","","","poldrack-single-stim","297","585421","0.0-3.0-32.0","60fda20d89edf1022f91ace9","C3","batch3","","-1","","","tol_feedback","true","","","","","","","","","1000","1000","500","","","","","","-1","none","true","3796","5954","","",""
"","","","","","html-button-response","298","586272","0.0-3.0-33.0","60fda20d89edf1022f91ace9","C3","batch3","","849.7000002861023","<div class = centerbox><p class = center-block-text>problem <strong>9</strong> out of 25 problems</p></div>","0","tol_trial_num","","","","","","","","","","","","","","","","","","","","","","","","",""
"","","","","","single-stim-button","299","590958","0.0-3.0-34.0-0.0","60fda20d89edf1022f91ace9","C3","batch3","","4685","","","tol_tohand","","","","","","","","","tol_peg_3","4685","4685","0","[[3,2,0],[0,0],[0]]","1","[[2,1,0],[3,0],[0]]","8","0","","","","","","6","",""
"","","","","","single-stim-button","300","591849","0.0-3.0-34.0-1.0","60fda20d89edf1022f91ace9","C3","batch3","","890","","","tol_toboard","","","","","","","","","tol_peg_2","890","890","0","[[3,2,0],[1,0],[0]]","1","[[2,1,0],[3,0],[0]]","8","0","","","","","","6","",""
"","","","","","single-stim-button","301","592440","0.0-3.0-34.1-0.1","60fda20d89edf1022f91ace9","C3","batch3","","590","","","tol_tohand","","","","","","","","","tol_peg_1","590","590","0","[[3,0,0],[1,0],[0]]","2","[[2,1,0],[3,0],[0]]","8","0","","","","","","6","",""
"","","","","","single-stim-button","302","593548","0.0-3.0-34.1-1.1","60fda20d89edf1022f91ace9","C3","batch3","","1108","","","tol_toboard","","","","","","","","","tol_peg_2","1108","1108","0","[[3,0,0],[1,2],[0]]","2","[[2,1,0],[3,0],[0]]","8","0","","","","","","6","",""
"","","","","","single-stim-button","303","594074","0.0-3.0-34.2-0.2","60fda20d89edf1022f91ace9","C3","batch3","","525","","","tol_tohand","","","","","","","","","tol_peg_1","525","525","0","[[0,0,0],[1,2],[0]]","3","[[2,1,0],[3,0],[0]]","8","0","","","","","","6","",""
"","","","","","single-stim-button","304","594924","0.0-3.0-34.2-1.2","60fda20d89edf1022f91ace9","C3","batch3","","850","","","tol_toboard","","","","","","","","","tol_peg_3","850","850","0","[[0,0,0],[1,2],[3]]","3","[[2,1,0],[3,0],[0]]","8","0","","","","","","6","",""
"","","","","","single-stim-button","305","595450","0.0-3.0-34.3-0.3","60fda20d89edf1022f91ace9","C3","batch3","","526","","","tol_tohand","","","","","","","","","tol_peg_2","526","526","0","[[0,0,0],[1,0],[3]]","4","[[2,1,0],[3,0],[0]]","8","0","","","","","","6","",""
"","","","","","single-stim-button","306","596057","0.0-3.0-34.3-1.3","60fda20d89edf1022f91ace9","C3","batch3","","606","","","tol_toboard","","","","","","","","","tol_peg_1","606","606","0","[[2,0,0],[1,0],[3]]","4","[[2,1,0],[3,0],[0]]","8","0","","","","","","6","",""
"","","","","","single-stim-button","307","596575","0.0-3.0-34.4-0.4","60fda20d89edf1022f91ace9","C3","batch3","","517","","","tol_tohand","","","","","","","","","tol_peg_2","517","517","0","[[2,0,0],[0,0],[3]]","5","[[2,1,0],[3,0],[0]]","8","0","","","","","","6","",""
"","","","","","single-stim-button","308","597611","0.0-3.0-34.4-1.4","60fda20d89edf1022f91ace9","C3","batch3","","1035","","","tol_toboard","","","","","","","","","tol_peg_1","1035","1035","0","[[2,1,0],[0,0],[3]]","5","[[2,1,0],[3,0],[0]]","8","0","","","","","","6","",""
"","","","","","single-stim-button","309","598227","0.0-3.0-34.5-0.5","60fda20d89edf1022f91ace9","C3","batch3","","614","","","tol_tohand","","","","","","","","","tol_peg_3","614","614","0","[[2,1,0],[0,0],[0]]","6","[[2,1,0],[3,0],[0]]","8","0","","","","","","6","",""
"","","","","","single-stim-button","310","598744","0.0-3.0-34.5-1.5","60fda20d89edf1022f91ace9","C3","batch3","","517","","","tol_toboard","","","","","","","","","tol_peg_2","517","517","0","[[2,1,0],[3,0],[0]]","6","[[2,1,0],[3,0],[0]]","8","0","","","","","","6","",""
"","","","","","poldrack-single-stim","311","599749","0.0-3.0-35.0","60fda20d89edf1022f91ace9","C3","batch3","","-1","","","tol_feedback","true","","","","","","","","","1000","1000","500","","","","","","-1","none","true","4685","7457","","",""
"","","","","","html-button-response","312","600938","0.0-3.0-36.0","60fda20d89edf1022f91ace9","C3","batch3","","1186.5","<div class = centerbox><p class = center-block-text>problem <strong>10</strong> out of 25 problems</p></div>","0","tol_trial_num","","","","","","","","","","","","","","","","","","","","","","","","",""
"","","","","","single-stim-button","313","603617","0.0-3.0-37.0-0.0","60fda20d89edf1022f91ace9","C3","batch3","","2678","","","tol_tohand","","","","","","","","","tol_peg_2","2678","2678","0","[[3,0,0],[0,0],[2]]","1","[[3,0,0],[2,1],[0]]","9","0","","","","","","3","",""
"","","","","","single-stim-button","314","604207","0.0-3.0-37.0-1.0","60fda20d89edf1022f91ace9","C3","batch3","","590","","","tol_toboard","","","","","","","","","tol_peg_1","590","590","0","[[3,1,0],[0,0],[2]]","1","[[3,0,0],[2,1],[0]]","9","0","","","","","","3","",""
"","","","","","single-stim-button","315","604734","0.0-3.0-37.1-0.1","60fda20d89edf1022f91ace9","C3","batch3","","525","","","tol_tohand","","","","","","","","","tol_peg_3","525","525","0","[[3,1,0],[0,0],[0]]","2","[[3,0,0],[2,1],[0]]","9","0","","","","","","3","",""
"","","","","","single-stim-button","316","605179","0.0-3.0-37.1-1.1","60fda20d89edf1022f91ace9","C3","batch3","","444","","","tol_toboard","","","","","","","","","tol_peg_2","444","444","0","[[3,1,0],[2,0],[0]]","2","[[3,0,0],[2,1],[0]]","9","0","","","","","","3","",""
"","","","","","single-stim-button","317","606466","0.0-3.0-37.2-0.2","60fda20d89edf1022f91ace9","C3","batch3","","1286","","","tol_tohand","","","","","","","","","tol_peg_1","1286","1286","0","[[3,0,0],[2,0],[0]]","3","[[3,0,0],[2,1],[0]]","9","0","","","","","","3","",""
"","","","","","single-stim-button","318","606983","0.0-3.0-37.2-1.2","60fda20d89edf1022f91ace9","C3","batch3","","517","","","tol_toboard","","","","","","","","","tol_peg_2","517","517","0","[[3,0,0],[2,1],[0]]","3","[[3,0,0],[2,1],[0]]","9","0","","","","","","3","",""
"","","","","","poldrack-single-stim","319","607988","0.0-3.0-38.0","60fda20d89edf1022f91ace9","C3","batch3","","-1","","","tol_feedback","true","","","","","","","","","1000","1000","500","","","","","","-1","none","true","2678","4489","","",""
"","","","","","html-button-response","320","608893","0.0-3.0-39.0","60fda20d89edf1022f91ace9","C3","batch3","","903.4000000953674","<div class = centerbox><p class = center-block-text>problem <strong>11</strong> out of 25 problems</p></div>","0","tol_trial_num","","","","","","","","","","","","","","","","","","","","","","","","",""
"","","","","","single-stim-button","321","617627","0.0-3.0-40.0-0.0","60fda20d89edf1022f91ace9","C3","batch3","","8733","","","tol_tohand","","","","","","","","","tol_peg_1","8733","8733","0","[[1,0,0],[3,0],[0]]","1","[[2,0,0],[1,3],[0]]","10","0","","","","","","6","",""
"","","","","","single-stim-button","322","618079","0.0-3.0-40.0-1.0","60fda20d89edf1022f91ace9","C3","batch3","","449","","","tol_toboard","","","","","","","","","tol_peg_2","449","449","0","[[1,0,0],[3,2],[0]]","1","[[2,0,0],[1,3],[0]]","10","0","","","","","","6","",""
"","","","","","single-stim-button","323","618556","0.0-3.0-40.1-0.1","60fda20d89edf1022f91ace9","C3","batch3","","477","","","tol_tohand","","","","","","","","","tol_peg_1","477","477","0","[[0,0,0],[3,2],[0]]","2","[[2,0,0],[1,3],[0]]","10","0","","","","","","6","",""
"","","","","","single-stim-button","324","619211","0.0-3.0-40.1-1.1","60fda20d89edf1022f91ace9","C3","batch3","","655","","","tol_toboard","","","","","","","","","tol_peg_3","655","655","0","[[0,0,0],[3,2],[1]]","2","[[2,0,0],[1,3],[0]]","10","0","","","","","","6","",""
"","","","","","single-stim-button","325","619786","0.0-3.0-40.2-0.2","60fda20d89edf1022f91ace9","C3","batch3","","574","","","tol_tohand","","","","","","","","","tol_peg_2","574","574","0","[[0,0,0],[3,0],[1]]","3","[[2,0,0],[1,3],[0]]","10","0","","","","","","6","",""
"","","","","","single-stim-button","326","620345","0.0-3.0-40.2-1.2","60fda20d89edf1022f91ace9","C3","batch3","","558","","","tol_toboard","","","","","","","","","tol_peg_1","558","558","0","[[2,0,0],[3,0],[1]]","3","[[2,0,0],[1,3],[0]]","10","0","","","","","","6","",""
"","","","","","single-stim-button","327","620846","0.0-3.0-40.3-0.3","60fda20d89edf1022f91ace9","C3","batch3","","500","","","tol_tohand","","","","","","","","","tol_peg_2","500","500","0","[[2,0,0],[0,0],[1]]","4","[[2,0,0],[1,3],[0]]","10","0","","","","","","6","",""
"","","","","","single-stim-button","328","621292","0.0-3.0-40.3-1.3","60fda20d89edf1022f91ace9","C3","batch3","","445","","","tol_toboard","","","","","","","","","tol_peg_1","445","445","0","[[2,3,0],[0,0],[1]]","4","[[2,0,0],[1,3],[0]]","10","0","","","","","","6","",""
"","","","","","single-stim-button","329","621761","0.0-3.0-40.4-0.4","60fda20d89edf1022f91ace9","C3","batch3","","469","","","tol_tohand","","","","","","","","","tol_peg_3","469","469","0","[[2,3,0],[0,0],[0]]","5","[[2,0,0],[1,3],[0]]","10","0","","","","","","6","",""
"","","","","","single-stim-button","330","622214","0.0-3.0-40.4-1.4","60fda20d89edf1022f91ace9","C3","batch3","","452","","","tol_toboard","","","","","","","","","tol_peg_2","452","452","0","[[2,3,0],[1,0],[0]]","5","[[2,0,0],[1,3],[0]]","10","0","","","","","","6","",""
"","","","","","single-stim-button","331","623298","0.0-3.0-40.5-0.5","60fda20d89edf1022f91ace9","C3","batch3","","1083","","","tol_tohand","","","","","","","","","tol_peg_1","1083","1083","0","[[2,0,0],[1,0],[0]]","6","[[2,0,0],[1,3],[0]]","10","0","","","","","","6","",""
"","","","","","single-stim-button","332","624164","0.0-3.0-40.5-1.5","60fda20d89edf1022f91ace9","C3","batch3","","866","","","tol_toboard","","","","","","","","","tol_peg_2","866","866","0","[[2,0,0],[1,3],[0]]","6","[[2,0,0],[1,3],[0]]","10","0","","","","","","6","",""
"","","","","","poldrack-single-stim","333","625174","0.0-3.0-41.0","60fda20d89edf1022f91ace9","C3","batch3","","-1","","","tol_feedback","true","","","","","","","","","1000","1000","500","","","","","","-1","none","true","8733","11836","","",""
"","","","","","html-button-response","334","626407","0.0-3.0-42.0","60fda20d89edf1022f91ace9","C3","batch3","","1231.6999998092651","<div class = centerbox><p class = center-block-text>problem <strong>12</strong> out of 25 problems</p></div>","0","tol_trial_num","","","","","","","","","","","","","","","","","","","","","","","","",""
"","","","","","single-stim-button","335","628827","0.0-3.0-43.0-0.0","60fda20d89edf1022f91ace9","C3","batch3","","2419","","","tol_tohand","","","","","","","","","tol_peg_1","2419","2419","0","[[1,0,0],[3,0],[0]]","1","[[2,3,0],[0,0],[1]]","11","0","","","","","","4","",""
"","","","","","single-stim-button","336","630501","0.0-3.0-43.0-1.0","60fda20d89edf1022f91ace9","C3","batch3","","1674","","","tol_toboard","","","","","","","","","tol_peg_2","1674","1674","0","[[1,0,0],[3,2],[0]]","1","[[2,3,0],[0,0],[1]]","11","0","","","","","","4","",""
"","","","","","single-stim-button","337","631003","0.0-3.0-43.1-0.1","60fda20d89edf1022f91ace9","C3","batch3","","500","","","tol_tohand","","","","","","","","","tol_peg_1","500","500","0","[[0,0,0],[3,2],[0]]","2","[[2,3,0],[0,0],[1]]","11","0","","","","","","4","",""
"","","","","","single-stim-button","338","631586","0.0-3.0-43.1-1.1","60fda20d89edf1022f91ace9","C3","batch3","","583","","","tol_toboard","","","","","","","","","tol_peg_3","583","583","0","[[0,0,0],[3,2],[1]]","2","[[2,3,0],[0,0],[1]]","11","0","","","","","","4","",""
"","","","","","single-stim-button","339","632087","0.0-3.0-43.2-0.2","60fda20d89edf1022f91ace9","C3","batch3","","501","","","tol_tohand","","","","","","","","","tol_peg_2","501","501","0","[[0,0,0],[3,0],[1]]","3","[[2,3,0],[0,0],[1]]","11","0","","","","","","4","",""
"","","","","","single-stim-button","340","632517","0.0-3.0-43.2-1.2","60fda20d89edf1022f91ace9","C3","batch3","","428","","","tol_toboard","","","","","","","","","tol_peg_1","428","428","0","[[2,0,0],[3,0],[1]]","3","[[2,3,0],[0,0],[1]]","11","0","","","","","","4","",""
"","","","","","single-stim-button","341","633051","0.0-3.0-43.3-0.3","60fda20d89edf1022f91ace9","C3","batch3","","533","","","tol_tohand","","","","","","","","","tol_peg_2","533","533","0","[[2,0,0],[0,0],[1]]","4","[[2,3,0],[0,0],[1]]","11","0","","","","","","4","",""
"","","","","","single-stim-button","342","633471","0.0-3.0-43.3-1.3","60fda20d89edf1022f91ace9","C3","batch3","","420","","","tol_toboard","","","","","","","","","tol_peg_1","420","420","0","[[2,3,0],[0,0],[1]]","4","[[2,3,0],[0,0],[1]]","11","0","","","","","","4","",""
"","","","","","poldrack-single-stim","343","634480","0.0-3.0-44.0","60fda20d89edf1022f91ace9","C3","batch3","","-1","","","tol_feedback","true","","","","","","","","","1000","1000","500","","","","","","-1","none","true","2419","3953","","",""
"","","","","","html-button-response","344","635364","0.0-3.0-45.0","60fda20d89edf1022f91ace9","C3","batch3","","881.1999998092651","<div class = centerbox><p class = center-block-text>problem <strong>13</strong> out of 25 problems</p></div>","0","tol_trial_num","","","","","","","","","","","","","","","","","","","","","","","","",""
"","","","","","single-stim-button","345","637398","0.0-3.0-46.0-0.0","60fda20d89edf1022f91ace9","C3","batch3","","2032","","","tol_tohand","","","","","","","","","tol_peg_1","2032","2032","0","[[1,0,0],[3,0],[0]]","1","[[0,0,0],[2,3],[1]]","12","0","","","","","","4","",""
"","","","","","single-stim-button","346","637963","0.0-3.0-46.0-1.0","60fda20d89edf1022f91ace9","C3","batch3","","562","","","tol_toboard","","","","","","","","","tol_peg_2","562","562","0","[[1,0,0],[3,2],[0]]","1","[[0,0,0],[2,3],[1]]","12","0","","","","","","4","",""
"","","","","","single-stim-button","347","638432","0.0-3.0-46.1-0.1","60fda20d89edf1022f91ace9","C3","batch3","","469","","","tol_tohand","","","","","","","","","tol_peg_1","469","469","0","[[0,0,0],[3,2],[0]]","2","[[0,0,0],[2,3],[1]]","12","0","","","","","","4","",""
"","","","","","single-stim-button","348","639007","0.0-3.0-46.1-1.1","60fda20d89edf1022f91ace9","C3","batch3","","575","","","tol_toboard","","","","","","","","","tol_peg_3","575","575","0","[[0,0,0],[3,2],[1]]","2","[[0,0,0],[2,3],[1]]","12","0","","","","","","4","",""
