"success","timeout","failed_images","failed_audio","failed_video","trial_type","trial_index","time_elapsed","internal_node_id","subject_id","study_id","session_id","view_history","rt","task","stimulus","response","correct","mouse_click","stim_duration","block_duration","timing_post_trial","current_position","tol_num_moves_made","tol_target","tol_problem_id","tol_rt","key_press","possible_responses","tol_correct","preplanning","tol_rt_per_trial","tol_min_moves","answer","item","fiar_detect_rt","fiar_detect_correct","total_correct_fiar_detect","post_trial_gap","choices","spm_correct","spm_rt"
"true","false","[]","[]","[]","preload","0","2949","0.0-0.0","60fe0aa942cdb85dc1404271","F1","batch6","","","","","","","","","","","","","","","","","","","","","","","","","","","","","",""
"true","","","","","fullscreen","1","9933","0.0-1.0-0.0","60fe0aa942cdb85dc1404271","F1","batch6","","","","","","","","","","","","","","","","","","","","","","","","","","","","","",""
"true","","","","","fullscreen","2","12126","0.0-2.0-0.0","60fe0aa942cdb85dc1404271","F1","batch6","","","","","","","","","","","","","","","","","","","","","","","","","","","","","",""
"","","","","","instructions","3","37395","0.0-2.0-1.0-0.0-0.0","60fe0aa942cdb85dc1404271","F1","batch6","[{""page_index"":0,""viewing_time"":6112.000000000004},{""page_index"":1,""viewing_time"":4679.999999999996},{""page_index"":2,""viewing_time"":3293},{""page_index"":3,""viewing_time"":3129.0000000000036},{""page_index"":4,""viewing_time"":4275.999999999996},{""page_index"":5,""viewing_time"":1832},{""page_index"":6,""viewing_time"":1945}]","25268","tol-instructions","","","","","","","","","","","","","","","","","","","","","","","","","","",""
"","","","","","html-button-response","4","38308","0.0-2.0-1.0-1.0-0.0","60fe0aa942cdb85dc1404271","F1","batch6","","908","tol_enter_quiz","<p class=block-text> Let's answer a few questions <br>","0","","","","","","","","","","","","","","","","","","","","","","","","",""
"","","","","","html-button-response","5","44727","0.0-2.0-1.0-1.0-1.0","60fe0aa942cdb85dc1404271","F1","batch6","","6415","tol_quiz","<p class = block-text>True or False: You can only move the ball on top of a peg. <br></p>","1","false","","","","","","","","","","","","","","","","","","","","","","","",""
"","","","","","html-button-response","6","45999","0.0-2.0-1.0-1.0-2.0","60fe0aa942cdb85dc1404271","F1","batch6","","1267","tol_quiz_feedback","<p class = block-text>Incorrect. Remember, you can only move the ball on top of a peg.</p>","0","","","","","","","","","","","","","","","","","","","","","","","","",""
"","","","","","html-button-response","7","50114","0.0-2.0-1.0-1.0-3.0","60fe0aa942cdb85dc1404271","F1","batch6","","4114","tol_quiz","<p class = block-text>True or False: You should try to match your board with the target board with fewest moves possible. <br></p>","0","true","","","","","","","","","","","","","","","","","","","","","","","",""
"","","","","","html-button-response","8","50762","0.0-2.0-1.0-1.0-4.0","60fe0aa942cdb85dc1404271","F1","batch6","","644.0000000000073","tol_quiz_feedback","<p class = block-text>Correct! </p>","0","","","","","","","","","","","","","","","","","","","","","","","","",""
"","","","","","html-button-response","9","52668","0.0-2.0-1.0-2.0-0.0","60fe0aa942cdb85dc1404271","F1","batch6","","1901","","<p class = block-text>You made too many incorrect choices.</p><p class = block-text>You will now repeat the instructions and quiz</p>","0","","","","","","","","","","","","","","","","","","","","","","","","",""
"","","","","","instructions","10","89365","0.0-2.0-1.1-0.1-0.1","60fe0aa942cdb85dc1404271","F1","batch6","[{""page_index"":0,""viewing_time"":4405},{""page_index"":1,""viewing_time"":3210},{""page_index"":2,""viewing_time"":2370},{""page_index"":3,""viewing_time"":8233},{""page_index"":4,""viewing_time"":7723},{""page_index"":5,""viewing_time"":7820},{""page_index"":6,""viewing_time"":2931.0000000000146}]","36692.000000000015","tol-instructions","","","","","","","","","","","","","","","","","","","","","","","","","","",""
"","","","","","html-button-response","11","90276","0.0-2.0-1.1-1.1-0.1","60fe0aa942cdb85dc1404271","F1","batch6","","910","tol_enter_quiz","<p class=block-text> Let's answer a few questions <br>","0","","","","","","","","","","","","","","","","","","","","","","","","",""
"","","","","","html-button-response","12","94750","0.0-2.0-1.1-1.1-1.1","60fe0aa942cdb85dc1404271","F1","batch6","","4472","tol_quiz","<p class = block-text>True or False: You can only move the ball on top of a peg. <br></p>","1","false","","","","","","","","","","","","","","","","","","","","","","","",""
"","","","","","html-button-response","13","95687","0.0-2.0-1.1-1.1-2.1","60fe0aa942cdb85dc1404271","F1","batch6","","936","tol_quiz_feedback","<p class = block-text>Incorrect. Remember, you can only move the ball on top of a peg.</p>","0","","","","","","","","","","","","","","","","","","","","","","","","",""
"","","","","","html-button-response","14","97632","0.0-2.0-1.1-1.1-3.1","60fe0aa942cdb85dc1404271","F1","batch6","","1943","tol_quiz","<p class = block-text>True or False: You should try to match your board with the target board with fewest moves possible. <br></p>","0","true","","","","","","","","","","","","","","","","","","","","","","","",""
"","","","","","html-button-response","15","98305","0.0-2.0-1.1-1.1-4.1","60fe0aa942cdb85dc1404271","F1","batch6","","673","tol_quiz_feedback","<p class = block-text>Correct! </p>","0","","","","","","","","","","","","","","","","","","","","","","","","",""
"","","","","","html-button-response","16","99051","0.0-2.0-1.1-2.1-0.1","60fe0aa942cdb85dc1404271","F1","batch6","","745","","<p class = block-text>You made too many incorrect choices.</p><p class = block-text>You will now repeat the instructions and quiz</p>","0","","","","","","","","","","","","","","","","","","","","","","","","",""
"","","","","","instructions","17","103899","0.0-2.0-1.2-0.2-0.2","60fe0aa942cdb85dc1404271","F1","batch6","[{""page_index"":0,""viewing_time"":1123},{""page_index"":1,""viewing_time"":552.0000000000146},{""page_index"":2,""viewing_time"":480.99999999998545},{""page_index"":3,""viewing_time"":558.0000000000146},{""page_index"":4,""viewing_time"":571.9999999999854},{""page_index"":5,""viewing_time"":519},{""page_index"":6,""viewing_time"":1040.0000000000146}]","4846","tol-instructions","","","","","","","","","","","","","","","","","","","","","","","","","","",""
"","","","","","html-button-response","18","104619","0.0-2.0-1.2-1.2-0.2","60fe0aa942cdb85dc1404271","F1","batch6","","719","tol_enter_quiz","<p class=block-text> Let's answer a few questions <br>","0","","","","","","","","","","","","","","","","","","","","","","","","",""
"","","","","","html-button-response","19","105548","0.0-2.0-1.2-1.2-1.2","60fe0aa942cdb85dc1404271","F1","batch6","","925","tol_quiz","<p class = block-text>True or False: You can only move the ball on top of a peg. <br></p>","0","true","","","","","","","","","","","","","","","","","","","","","","","",""
"","","","","","html-button-response","20","106532","0.0-2.0-1.2-1.2-2.2","60fe0aa942cdb85dc1404271","F1","batch6","","984","tol_quiz_feedback","<p class = block-text>Correct! You can only move the ball on top of a peg.</p>","0","","","","","","","","","","","","","","","","","","","","","","","","",""
"","","","","","html-button-response","21","108926","0.0-2.0-1.2-1.2-3.2","60fe0aa942cdb85dc1404271","F1","batch6","","2393","tol_quiz","<p class = block-text>True or False: You should try to match your board with the target board with fewest moves possible. <br></p>","0","true","","","","","","","","","","","","","","","","","","","","","","","",""
"","","","","","html-button-response","22","109646","0.0-2.0-1.2-1.2-4.2","60fe0aa942cdb85dc1404271","F1","batch6","","716.0000000000146","tol_quiz_feedback","<p class = block-text>Correct! </p>","0","","","","","","","","","","","","","","","","","","","","","","","","",""
"","","","","","html-button-response","23","111127","0.0-2.0-2.0","60fe0aa942cdb85dc1404271","F1","batch6","","1479","","<p class=block-text> Now that you've understood the game, let's practice a few easier examples before we start!<br> <br>","0","","","","","","","","","","","","","","","","","","","","","","","","",""
"","","","","","single-stim-button","24","116166","0.0-2.0-3.0-0.0","60fe0aa942cdb85dc1404271","F1","batch6","","5031","tol_practice","","","","tol_peg_2","5031","5031","0","[[1,2,0],[0,0],[0]]","1","[[1,2,0],[0,0],[3]]","practice","5031","","","","","","","","","","","","","","",""
"","","","","","single-stim-button","25","117707","0.0-2.0-3.0-1.0","60fe0aa942cdb85dc1404271","F1","batch6","","1538","tol_practice","","","","tol_peg_3","1538","1538","0","[[1,2,0],[0,0],[3]]","1","[[1,2,0],[0,0],[3]]","practice","1538","","","","","","","","","","","","","","",""
"","","","","","poldrack-single-stim","26","118713","0.0-2.0-4.0","60fe0aa942cdb85dc1404271","F1","batch6","","-1","tol_feedback","","","true","","1000","1000","500","","","","","","-1","none","true","","0","","","","","","","","","",""
"","","","","","single-stim-button","27","121835","0.0-2.0-5.0-0.0","60fe0aa942cdb85dc1404271","F1","batch6","","3117","tol_practice","","","","tol_peg_1","3117","3117","0","[[1,0,0],[3,0],[0]]","2","[[0,0,0],[3,1],[2]]","practice","3117","","","","","","","","","","","","","","",""
"","","","","","single-stim-button","28","122811","0.0-2.0-5.0-1.0","60fe0aa942cdb85dc1404271","F1","batch6","","973","tol_practice","","","","tol_peg_3","973","973","0","[[1,0,0],[3,0],[2]]","2","[[0,0,0],[3,1],[2]]","practice","973","","","","","","","","","","","","","","",""
"","","","","","single-stim-button","29","123786","0.0-2.0-5.1-0.1","60fe0aa942cdb85dc1404271","F1","batch6","","974","tol_practice","","","","tol_peg_1","974","974","0","[[0,0,0],[3,0],[2]]","3","[[0,0,0],[3,1],[2]]","practice","974","","","","","","","","","","","","","","",""
"","","","","","single-stim-button","30","124886","0.0-2.0-5.1-1.1","60fe0aa942cdb85dc1404271","F1","batch6","","1098","tol_practice","","","","tol_peg_2","1098","1098","0","[[0,0,0],[3,1],[2]]","3","[[0,0,0],[3,1],[2]]","practice","1098","","","","","","","","","","","","","","",""
"","","","","","poldrack-single-stim","31","125888","0.0-2.0-6.0","60fe0aa942cdb85dc1404271","F1","batch6","","-1","tol_feedback","","","true","","1000","1000","500","","","","","","-1","none","true","","0","","","","","","","","","",""
"","","","","","single-stim-button","32","129384","0.0-2.0-7.0-0.0","60fe0aa942cdb85dc1404271","F1","batch6","","3494","tol_practice","","","","tol_peg_2","3494","3494","0","[[1,2,0],[0,0],[0]]","4","[[1,0,0],[2,0],[3]]","practice","3494","","","","","","","","","","","","","","",""
"","","","","","single-stim-button","33","130054","0.0-2.0-7.0-1.0","60fe0aa942cdb85dc1404271","F1","batch6","","667","tol_practice","","","","tol_peg_3","667","667","0","[[1,2,0],[0,0],[3]]","4","[[1,0,0],[2,0],[3]]","practice","667","","","","","","","","","","","","","","",""
"","","","","","single-stim-button","34","130855","0.0-2.0-7.1-0.1","60fe0aa942cdb85dc1404271","F1","batch6","","798","tol_practice","","","","tol_peg_1","798","798","0","[[1,0,0],[0,0],[3]]","5","[[1,0,0],[2,0],[3]]","practice","798","","","","","","","","","","","","","","",""
"","","","","","single-stim-button","35","131567","0.0-2.0-7.1-1.1","60fe0aa942cdb85dc1404271","F1","batch6","","708","tol_practice","","","","tol_peg_2","708","708","0","[[1,0,0],[2,0],[3]]","5","[[1,0,0],[2,0],[3]]","practice","708","","","","","","","","","","","","","","",""
"","","","","","poldrack-single-stim","36","132569","0.0-2.0-8.0","60fe0aa942cdb85dc1404271","F1","batch6","","-1","tol_feedback","","","true","","1000","1000","500","","","","","","-1","none","true","","0","","","","","","","","","",""
"","","","","","html-button-response","37","133931","0.0-2.0-9.0","60fe0aa942cdb85dc1404271","F1","batch6","","1362","tol_instruction","<div class = centerbox><p class = center-block-text>Great job! You are done with practice trials<br>You are about to start official trials.<br> <br> Problem <strong>1</strong> out of 25 problems</p></div>","0","","","","","","","","","","","","","","","","","","","","","","","","",""
"","","","","","single-stim-button","38","141687","0.0-2.0-10.0-0.0","60fe0aa942cdb85dc1404271","F1","batch6","","6755","tol_tohand","","","","tol_peg_2","6755","6755","0","[[1,2,0],[0,0],[0]]","1","[[1,3,0],[2,0],[0]]","0","0","","","","","","3","","","","","","","","",""
"","","","","","single-stim-button","39","142547","0.0-2.0-10.0-1.0","60fe0aa942cdb85dc1404271","F1","batch6","","855","tol_toboard","","","","tol_peg_3","855","855","0","[[1,2,0],[0,0],[3]]","1","[[1,3,0],[2,0],[0]]","0","0","","","","","","3","","","","","","","","",""
"","","","","","single-stim-button","40","143455","0.0-2.0-10.1-0.1","60fe0aa942cdb85dc1404271","F1","batch6","","906","tol_tohand","","","","tol_peg_1","906","906","0","[[1,0,0],[0,0],[3]]","2","[[1,3,0],[2,0],[0]]","0","0","","","","","","3","","","","","","","","",""
"","","","","","single-stim-button","41","144279","0.0-2.0-10.1-1.1","60fe0aa942cdb85dc1404271","F1","batch6","","822","tol_toboard","","","","tol_peg_2","822","822","0","[[1,0,0],[2,0],[3]]","2","[[1,3,0],[2,0],[0]]","0","0","","","","","","3","","","","","","","","",""
"","","","","","single-stim-button","42","145039","0.0-2.0-10.2-0.2","60fe0aa942cdb85dc1404271","F1","batch6","","758","tol_tohand","","","","tol_peg_3","758","758","0","[[1,0,0],[2,0],[0]]","3","[[1,3,0],[2,0],[0]]","0","0","","","","","","3","","","","","","","","",""
"","","","","","single-stim-button","43","145990","0.0-2.0-10.2-1.2","60fe0aa942cdb85dc1404271","F1","batch6","","950","tol_toboard","","","","tol_peg_1","950","950","0","[[1,3,0],[2,0],[0]]","3","[[1,3,0],[2,0],[0]]","0","0","","","","","","3","","","","","","","","",""
"","","","","","poldrack-single-stim","44","146994","0.0-2.0-11.0","60fe0aa942cdb85dc1404271","F1","batch6","","-1","tol_feedback","","","true","","1000","1000","500","","","","","","-1","none","true","6755","8419","","","","","","","","","",""
"","","","","","html-button-response","45","147910","0.0-2.0-12.0","60fe0aa942cdb85dc1404271","F1","batch6","","914.0000000000291","tol_trial_num","<div class = centerbox><p class = center-block-text>problem <strong>2</strong> out of 25 problems</p></div>","0","","","","","","","","","","","","","","","","","","","","","","","","",""
"","","","","","single-stim-button","46","150656","0.0-2.0-13.0-0.0","60fe0aa942cdb85dc1404271","F1","batch6","","2746","tol_tohand","","","","tol_peg_1","2746","2746","0","[[1,0,0],[3,0],[0]]","1","[[2,1,3],[0,0],[0]]","1","0","","","","","","5","","","","","","","","",""
"","","","","","single-stim-button","47","154295","0.0-2.0-13.0-1.0","60fe0aa942cdb85dc1404271","F1","batch6","","3637","tol_toboard","","","","tol_peg_2","3637","3637","0","[[1,0,0],[3,2],[0]]","1","[[2,1,3],[0,0],[0]]","1","0","","","","","","5","","","","","","","","",""
"","","","","","single-stim-button","48","155137","0.0-2.0-13.1-0.1","60fe0aa942cdb85dc1404271","F1","batch6","","841","tol_tohand","","","","tol_peg_1","841","841","0","[[0,0,0],[3,2],[0]]","2","[[2,1,3],[0,0],[0]]","1","0","","","","","","5","","","","","","","","",""
"","","","","","single-stim-button","49","156426","0.0-2.0-13.1-1.1","60fe0aa942cdb85dc1404271","F1","batch6","","1286","tol_toboard","","","","tol_peg_3","1286","1286","0","[[0,0,0],[3,2],[1]]","2","[[2,1,3],[0,0],[0]]","1","0","","","","","","5","","","","","","","","",""
"","","","","","single-stim-button","50","157042","0.0-2.0-13.2-0.2","60fe0aa942cdb85dc1404271","F1","batch6","","614","tol_tohand","","","","tol_peg_2","614","614","0","[[0,0,0],[3,0],[1]]","3","[[2,1,3],[0,0],[0]]","1","0","","","","","","5","","","","","","","","",""
"","","","","","single-stim-button","51","157890","0.0-2.0-13.2-1.2","60fe0aa942cdb85dc1404271","F1","batch6","","845","tol_toboard","","","","tol_peg_1","845","845","0","[[2,0,0],[3,0],[1]]","3","[[2,1,3],[0,0],[0]]","1","0","","","","","","5","","","","","","","","",""
"","","","","","single-stim-button","52","158811","0.0-2.0-13.3-0.3","60fe0aa942cdb85dc1404271","F1","batch6","","918","tol_tohand","","","","tol_peg_3","918","918","0","[[2,0,0],[3,0],[0]]","4","[[2,1,3],[0,0],[0]]","1","0","","","","","","5","","","","","","","","",""
"","","","","","single-stim-button","53","159957","0.0-2.0-13.3-1.3","60fe0aa942cdb85dc1404271","F1","batch6","","1144","tol_toboard","","","","tol_peg_1","1144","1144","0","[[2,1,0],[3,0],[0]]","4","[[2,1,3],[0,0],[0]]","1","0","","","","","","5","","","","","","","","",""
"","","","","","single-stim-button","54","160651","0.0-2.0-13.4-0.4","60fe0aa942cdb85dc1404271","F1","batch6","","692","tol_tohand","","","","tol_peg_2","692","692","0","[[2,1,0],[0,0],[0]]","5","[[2,1,3],[0,0],[0]]","1","0","","","","","","5","","","","","","","","",""
"","","","","","single-stim-button","55","161379","0.0-2.0-13.4-1.4","60fe0aa942cdb85dc1404271","F1","batch6","","727","tol_toboard","","","","tol_peg_1","727","727","0","[[2,1,3],[0,0],[0]]","5","[[2,1,3],[0,0],[0]]","1","0","","","","","","5","","","","","","","","",""
"","","","","","poldrack-single-stim","56","162383","0.0-2.0-14.0","60fe0aa942cdb85dc1404271","F1","batch6","","-1","tol_feedback","","","true","","1000","1000","500","","","","","","-1","none","true","2746","5811","","","","","","","","","",""
"","","","","","html-button-response","57","163226","0.0-2.0-15.0","60fe0aa942cdb85dc1404271","F1","batch6","","843","tol_trial_num","<div class = centerbox><p class = center-block-text>problem <strong>3</strong> out of 25 problems</p></div>","0","","","","","","","","","","","","","","","","","","","","","","","","",""
"","","","","","single-stim-button","58","166150","0.0-2.0-16.0-0.0","60fe0aa942cdb85dc1404271","F1","batch6","","2922","tol_tohand","","","","tol_peg_1","2922","2922","0","[[2,0,0],[0,0],[1]]","1","[[1,2,0],[3,0],[0]]","2","0","","","","","","4","","","","","","","","",""
"","","","","","single-stim-button","59","167102","0.0-2.0-16.0-1.0","60fe0aa942cdb85dc1404271","F1","batch6","","950","tol_toboard","","","","tol_peg_2","950","950","0","[[2,0,0],[3,0],[1]]","1","[[1,2,0],[3,0],[0]]","2","0","","","","","","4","","","","","","","","",""
"","","","","","single-stim-button","60","167803","0.0-2.0-16.1-0.1","60fe0aa942cdb85dc1404271","F1","batch6","","695","tol_tohand","","","","tol_peg_1","695","695","0","[[0,0,0],[3,0],[1]]","2","[[1,2,0],[3,0],[0]]","2","0","","","","","","4","","","","","","","","",""
"","","","","","single-stim-button","61","168447","0.0-2.0-16.1-1.1","60fe0aa942cdb85dc1404271","F1","batch6","","642","tol_toboard","","","","tol_peg_2","642","642","0","[[0,0,0],[3,2],[1]]","2","[[1,2,0],[3,0],[0]]","2","0","","","","","","4","","","","","","","","",""
"","","","","","single-stim-button","62","169200","0.0-2.0-16.2-0.2","60fe0aa942cdb85dc1404271","F1","batch6","","751","tol_tohand","","","","tol_peg_3","751","751","0","[[0,0,0],[3,2],[0]]","3","[[1,2,0],[3,0],[0]]","2","0","","","","","","4","","","","","","","","",""
"","","","","","single-stim-button","63","170054","0.0-2.0-16.2-1.2","60fe0aa942cdb85dc1404271","F1","batch6","","850","tol_toboard","","","","tol_peg_1","850","850","0","[[1,0,0],[3,2],[0]]","3","[[1,2,0],[3,0],[0]]","2","0","","","","","","4","","","","","","","","",""
"","","","","","single-stim-button","64","170687","0.0-2.0-16.3-0.3","60fe0aa942cdb85dc1404271","F1","batch6","","630","tol_tohand","","","","tol_peg_2","630","630","0","[[1,0,0],[3,0],[0]]","4","[[1,2,0],[3,0],[0]]","2","0","","","","","","4","","","","","","","","",""
"","","","","","single-stim-button","65","171432","0.0-2.0-16.3-1.3","60fe0aa942cdb85dc1404271","F1","batch6","","743","tol_toboard","","","","tol_peg_1","743","743","0","[[1,2,0],[3,0],[0]]","4","[[1,2,0],[3,0],[0]]","2","0","","","","","","4","","","","","","","","",""
"","","","","","poldrack-single-stim","66","172436","0.0-2.0-17.0","60fe0aa942cdb85dc1404271","F1","batch6","","-1","tol_feedback","","","true","","1000","1000","500","","","","","","-1","none","true","2922","4998","","","","","","","","","",""
"","","","","","html-button-response","67","173408","0.0-2.0-18.0","60fe0aa942cdb85dc1404271","F1","batch6","","970","tol_trial_num","<div class = centerbox><p class = center-block-text>problem <strong>4</strong> out of 25 problems</p></div>","0","","","","","","","","","","","","","","","","","","","","","","","","",""
"","","","","","single-stim-button","68","177466","0.0-2.0-19.0-0.0","60fe0aa942cdb85dc1404271","F1","batch6","","4055","tol_tohand","","","","tol_peg_2","4055","4055","0","[[3,0,0],[2,0],[0]]","1","[[3,0,0],[1,0],[2]]","3","0","","","","","","3","","","","","","","","",""
"","","","","","single-stim-button","69","178306","0.0-2.0-19.0-1.0","60fe0aa942cdb85dc1404271","F1","batch6","","837","tol_toboard","","","","tol_peg_1","837","837","0","[[3,1,0],[2,0],[0]]","1","[[3,0,0],[1,0],[2]]","3","0","","","","","","3","","","","","","","","",""
"","","","","","single-stim-button","70","179090","0.0-2.0-19.1-0.1","60fe0aa942cdb85dc1404271","F1","batch6","","781","tol_tohand","","","","tol_peg_2","781","781","0","[[3,1,0],[0,0],[0]]","2","[[3,0,0],[1,0],[2]]","3","0","","","","","","3","","","","","","","","",""
"","","","","","single-stim-button","71","179996","0.0-2.0-19.1-1.1","60fe0aa942cdb85dc1404271","F1","batch6","","903","tol_toboard","","","","tol_peg_3","903","903","0","[[3,1,0],[0,0],[2]]","2","[[3,0,0],[1,0],[2]]","3","0","","","","","","3","","","","","","","","",""
"","","","","","single-stim-button","72","180658","0.0-2.0-19.2-0.2","60fe0aa942cdb85dc1404271","F1","batch6","","660","tol_tohand","","","","tol_peg_1","660","660","0","[[3,0,0],[0,0],[2]]","3","[[3,0,0],[1,0],[2]]","3","0","","","","","","3","","","","","","","","",""
"","","","","","single-stim-button","73","181307","0.0-2.0-19.2-1.2","60fe0aa942cdb85dc1404271","F1","batch6","","648","tol_toboard","","","","tol_peg_2","648","648","0","[[3,0,0],[1,0],[2]]","3","[[3,0,0],[1,0],[2]]","3","0","","","","","","3","","","","","","","","",""
"","","","","","poldrack-single-stim","74","182309","0.0-2.0-20.0","60fe0aa942cdb85dc1404271","F1","batch6","","-1","tol_feedback","","","true","","1000","1000","500","","","","","","-1","none","true","4055","5496","","","","","","","","","",""
"","","","","","html-button-response","75","183059","0.0-2.0-21.0","60fe0aa942cdb85dc1404271","F1","batch6","","749","tol_trial_num","<div class = centerbox><p class = center-block-text>problem <strong>5</strong> out of 25 problems</p></div>","0","","","","","","","","","","","","","","","","","","","","","","","","",""
"","","","","","single-stim-button","76","185879","0.0-2.0-22.0-0.0","60fe0aa942cdb85dc1404271","F1","batch6","","2816","tol_tohand","","","","tol_peg_2","2816","2816","0","[[1,0,0],[0,0],[3]]","1","[[0,0,0],[1,2],[3]]","4","0","","","","","","7","","","","","","","","",""
"","","","","","single-stim-button","77","188998","0.0-2.0-22.0-1.0","60fe0aa942cdb85dc1404271","F1","batch6","","3114","tol_toboard","","","","tol_peg_1","3114","3114","0","[[1,2,0],[0,0],[3]]","1","[[0,0,0],[1,2],[3]]","4","0","","","","","","7","","","","","","","","",""
"","","","","","single-stim-button","78","192407","0.0-2.0-22.1-0.1","60fe0aa942cdb85dc1404271","F1","batch6","","3408","tol_tohand","","","","tol_peg_1","3408","3408","0","[[1,0,0],[0,0],[3]]","2","[[0,0,0],[1,2],[3]]","4","0","","","","","","7","","","","","","","","",""
"","","","","","single-stim-button","79","194914","0.0-2.0-22.1-1.1","60fe0aa942cdb85dc1404271","F1","batch6","","2504","tol_toboard","","","","tol_peg_1","2504","2504","0","[[1,2,0],[0,0],[3]]","2","[[0,0,0],[1,2],[3]]","4","0","","","","","","7","","","","","","","","",""
"","","","","","single-stim-button","80","196304","0.0-2.0-22.2-0.2","60fe0aa942cdb85dc1404271","F1","batch6","","1388","tol_tohand","","","","tol_peg_1","1388","1388","0","[[1,0,0],[0,0],[3]]","3","[[0,0,0],[1,2],[3]]","4","0","","","","","","7","","","","","","","","",""
"","","","","","single-stim-button","81","197184","0.0-2.0-22.2-1.2","60fe0aa942cdb85dc1404271","F1","batch6","","878","tol_toboard","","","","tol_peg_2","878","878","0","[[1,0,0],[2,0],[3]]","3","[[0,0,0],[1,2],[3]]","4","0","","","","","","7","","","","","","","","",""
"","","","","","single-stim-button","82","198561","0.0-2.0-22.3-0.3","60fe0aa942cdb85dc1404271","F1","batch6","","1375","tol_tohand","","","","tol_peg_1","1375","1375","0","[[0,0,0],[2,0],[3]]","4","[[0,0,0],[1,2],[3]]","4","0","","","","","","7","","","","","","","","",""
"","","","","","single-stim-button","83","199233","0.0-2.0-22.3-1.3","60fe0aa942cdb85dc1404271","F1","batch6","","668","tol_toboard","","","","tol_peg_2","668","668","0","[[0,0,0],[2,1],[3]]","4","[[0,0,0],[1,2],[3]]","4","0","","","","","","7","","","","","","","","",""
"","","","","","single-stim-button","84","200763","0.0-2.0-22.4-0.4","60fe0aa942cdb85dc1404271","F1","batch6","","1528","tol_tohand","","","","tol_peg_3","1528","1528","0","[[0,0,0],[2,1],[0]]","5","[[0,0,0],[1,2],[3]]","4","0","","","","","","7","","","","","","","","",""
"","","","","","single-stim-button","85","201488","0.0-2.0-22.4-1.4","60fe0aa942cdb85dc1404271","F1","batch6","","722","tol_toboard","","","","tol_peg_1","722","722","0","[[3,0,0],[2,1],[0]]","5","[[0,0,0],[1,2],[3]]","4","0","","","","","","7","","","","","","","","",""
"","","","","","single-stim-button","86","202715","0.0-2.0-22.5-0.5","60fe0aa942cdb85dc1404271","F1","batch6","","1225","tol_tohand","","","","tol_peg_2","1225","1225","0","[[3,0,0],[2,0],[0]]","6","[[0,0,0],[1,2],[3]]","4","0","","","","","","7","","","","","","","","",""
"","","","","","single-stim-button","87","203627","0.0-2.0-22.5-1.5","60fe0aa942cdb85dc1404271","F1","batch6","","910","tol_toboard","","","","tol_peg_3","910","910","0","[[3,0,0],[2,0],[1]]","6","[[0,0,0],[1,2],[3]]","4","0","","","","","","7","","","","","","","","",""
"","","","","","single-stim-button","88","204658","0.0-2.0-22.6-0.6","60fe0aa942cdb85dc1404271","F1","batch6","","1028","tol_tohand","","","","tol_peg_2","1028","1028","0","[[3,0,0],[0,0],[1]]","7","[[0,0,0],[1,2],[3]]","4","0","","","","","","7","","","","","","","","",""
"","","","","","single-stim-button","89","205260","0.0-2.0-22.6-1.6","60fe0aa942cdb85dc1404271","F1","batch6","","598","tol_toboard","","","","tol_peg_1","598","598","0","[[3,2,0],[0,0],[1]]","7","[[0,0,0],[1,2],[3]]","4","0","","","","","","7","","","","","","","","",""
"","","","","","single-stim-button","90","206078","0.0-2.0-22.7-0.7","60fe0aa942cdb85dc1404271","F1","batch6","","817","tol_tohand","","","","tol_peg_3","817","817","0","[[3,2,0],[0,0],[0]]","8","[[0,0,0],[1,2],[3]]","4","0","","","","","","7","","","","","","","","",""
"","","","","","single-stim-button","91","206524","0.0-2.0-22.7-1.7","60fe0aa942cdb85dc1404271","F1","batch6","","444","tol_toboard","","","","tol_peg_2","444","444","0","[[3,2,0],[1,0],[0]]","8","[[0,0,0],[1,2],[3]]","4","0","","","","","","7","","","","","","","","",""
"","","","","","single-stim-button","92","207068","0.0-2.0-22.8-0.8","60fe0aa942cdb85dc1404271","F1","batch6","","542","tol_tohand","","","","tol_peg_1","542","542","0","[[3,0,0],[1,0],[0]]","9","[[0,0,0],[1,2],[3]]","4","0","","","","","","7","","","","","","","","",""
"","","","","","single-stim-button","93","207668","0.0-2.0-22.8-1.8","60fe0aa942cdb85dc1404271","F1","batch6","","599","tol_toboard","","","","tol_peg_2","599","599","0","[[3,0,0],[1,2],[0]]","9","[[0,0,0],[1,2],[3]]","4","0","","","","","","7","","","","","","","","",""
"","","","","","single-stim-button","94","208237","0.0-2.0-22.9-0.9","60fe0aa942cdb85dc1404271","F1","batch6","","566","tol_tohand","","","","tol_peg_1","566","566","0","[[0,0,0],[1,2],[0]]","10","[[0,0,0],[1,2],[3]]","4","0","","","","","","7","","","","","","","","",""
"","","","","","single-stim-button","95","209037","0.0-2.0-22.9-1.9","60fe0aa942cdb85dc1404271","F1","batch6","","798","tol_toboard","","","","tol_peg_3","798","798","0","[[0,0,0],[1,2],[3]]","10","[[0,0,0],[1,2],[3]]","4","0","","","","","","7","","","","","","","","",""
"","","","","","poldrack-single-stim","96","210040","0.0-2.0-23.0","60fe0aa942cdb85dc1404271","F1","batch6","","-1","tol_feedback","","","true","","1000","1000","500","","","","","","-1","none","true","2816","14693","","","","","","","","","",""
"","","","","","html-button-response","97","210901","0.0-2.0-24.0","60fe0aa942cdb85dc1404271","F1","batch6","","860","tol_trial_num","<div class = centerbox><p class = center-block-text>problem <strong>6</strong> out of 25 problems</p></div>","0","","","","","","","","","","","","","","","","","","","","","","","","",""
"","","","","","single-stim-button","98","222618","0.0-2.0-25.0-0.0","60fe0aa942cdb85dc1404271","F1","batch6","","11716","tol_tohand","","","","tol_peg_3","11716","11716","0","[[0,0,0],[1,2],[0]]","1","[[1,0,0],[2,3],[0]]","5","0","","","","","","6","","","","","","","","",""
"","","","","","single-stim-button","99","225043","0.0-2.0-25.0-1.0","60fe0aa942cdb85dc1404271","F1","batch6","","2424","tol_toboard","","","","tol_peg_1","2424","2424","0","[[3,0,0],[1,2],[0]]","1","[[1,0,0],[2,3],[0]]","5","0","","","","","","6","","","","","","","","",""
"","","","","","single-stim-button","100","228845","0.0-2.0-25.1-0.1","60fe0aa942cdb85dc1404271","F1","batch6","","3799","tol_tohand","","","","tol_peg_2","3799","3799","0","[[3,0,0],[1,0],[0]]","2","[[1,0,0],[2,3],[0]]","5","0","","","","","","6","","","","","","","","",""
"","","","","","single-stim-button","101","231074","0.0-2.0-25.1-1.1","60fe0aa942cdb85dc1404271","F1","batch6","","2227","tol_toboard","","","","tol_peg_1","2227","2227","0","[[3,2,0],[1,0],[0]]","2","[[1,0,0],[2,3],[0]]","5","0","","","","","","6","","","","","","","","",""
"","","","","","single-stim-button","102","231718","0.0-2.0-25.2-0.2","60fe0aa942cdb85dc1404271","F1","batch6","","643","tol_tohand","","","","tol_peg_2","643","643","0","[[3,2,0],[0,0],[0]]","3","[[1,0,0],[2,3],[0]]","5","0","","","","","","6","","","","","","","","",""
"","","","","","single-stim-button","103","232262","0.0-2.0-25.2-1.2","60fe0aa942cdb85dc1404271","F1","batch6","","541","tol_toboard","","","","tol_peg_3","541","541","0","[[3,2,0],[0,0],[1]]","3","[[1,0,0],[2,3],[0]]","5","0","","","","","","6","","","","","","","","",""
"","","","","","single-stim-button","104","232974","0.0-2.0-25.3-0.3","60fe0aa942cdb85dc1404271","F1","batch6","","709","tol_tohand","","","","tol_peg_1","709","709","0","[[3,0,0],[0,0],[1]]","4","[[1,0,0],[2,3],[0]]","5","0","","","","","","6","","","","","","","","",""
"","","","","","single-stim-button","105","233758","0.0-2.0-25.3-1.3","60fe0aa942cdb85dc1404271","F1","batch6","","782","tol_toboard","","","","tol_peg_2","782","782","0","[[3,0,0],[2,0],[1]]","4","[[1,0,0],[2,3],[0]]","5","0","","","","","","6","","","","","","","","",""
"","","","","","single-stim-button","106","234264","0.0-2.0-25.4-0.4","60fe0aa942cdb85dc1404271","F1","batch6","","503","tol_tohand","","","","tol_peg_1","503","503","0","[[0,0,0],[2,0],[1]]","5","[[1,0,0],[2,3],[0]]","5","0","","","","","","6","","","","","","","","",""
"","","","","","single-stim-button","107","234856","0.0-2.0-25.4-1.4","60fe0aa942cdb85dc1404271","F1","batch6","","588","tol_toboard","","","","tol_peg_2","588","588","0","[[0,0,0],[2,3],[1]]","5","[[1,0,0],[2,3],[0]]","5","0","","","","","","6","","","","","","","","",""
"","","","","","single-stim-button","108","235439","0.0-2.0-25.5-0.5","60fe0aa942cdb85dc1404271","F1","batch6","","580","tol_tohand","","","","tol_peg_3","580","580","0","[[0,0,0],[2,3],[0]]","6","[[1,0,0],[2,3],[0]]","5","0","","","","","","6","","","","","","","","",""
"","","","","","single-stim-button","109","236167","0.0-2.0-25.5-1.5","60fe0aa942cdb85dc1404271","F1","batch6","","727","tol_toboard","","","","tol_peg_1","727","727","0","[[1,0,0],[2,3],[0]]","6","[[1,0,0],[2,3],[0]]","5","0","","","","","","6","","","","","","","","",""
"","","","","","poldrack-single-stim","110","237170","0.0-2.0-26.0","60fe0aa942cdb85dc1404271","F1","batch6","","-1","tol_feedback","","","true","","1000","1000","500","","","","","","-1","none","true","11716","17950","","","","","","","","","",""
"","","","","","html-button-response","111","238024","0.0-2.0-27.0","60fe0aa942cdb85dc1404271","F1","batch6","","853.9999999999709","tol_trial_num","<div class = centerbox><p class = center-block-text>problem <strong>7</strong> out of 25 problems</p></div>","0","","","","","","","","","","","","","","","","","","","","","","","","",""
"","","","","","single-stim-button","112","239649","0.0-2.0-28.0-0.0","60fe0aa942cdb85dc1404271","F1","batch6","","1623","tol_tohand","","","","tol_peg_3","1623","1623","0","[[2,1,0],[0,0],[0]]","1","[[1,2,0],[3,0],[0]]","6","0","","","","","","5","","","","","","","","",""
"","","","","","single-stim-button","113","240625","0.0-2.0-28.0-1.0","60fe0aa942cdb85dc1404271","F1","batch6","","974","tol_toboard","","","","tol_peg_2","974","974","0","[[2,1,0],[3,0],[0]]","1","[[1,2,0],[3,0],[0]]","6","0","","","","","","5","","","","","","","","",""
"","","","","","single-stim-button","114","241961","0.0-2.0-28.1-0.1","60fe0aa942cdb85dc1404271","F1","batch6","","1334","tol_tohand","","","","tol_peg_1","1334","1334","0","[[2,0,0],[3,0],[0]]","2","[[1,2,0],[3,0],[0]]","6","0","","","","","","5","","","","","","","","",""
"","","","","","single-stim-button","115","243674","0.0-2.0-28.1-1.1","60fe0aa942cdb85dc1404271","F1","batch6","","1712","tol_toboard","","","","tol_peg_2","1712","1712","0","[[2,0,0],[3,1],[0]]","2","[[1,2,0],[3,0],[0]]","6","0","","","","","","5","","","","","","","","",""
"","","","","","single-stim-button","116","244307","0.0-2.0-28.2-0.2","60fe0aa942cdb85dc1404271","F1","batch6","","631","tol_tohand","","","","tol_peg_1","631","631","0","[[0,0,0],[3,1],[0]]","3","[[1,2,0],[3,0],[0]]","6","0","","","","","","5","","","","","","","","",""
"","","","","","single-stim-button","117","245179","0.0-2.0-28.2-1.2","60fe0aa942cdb85dc1404271","F1","batch6","","869","tol_toboard","","","","tol_peg_3","869","869","0","[[0,0,0],[3,1],[2]]","3","[[1,2,0],[3,0],[0]]","6","0","","","","","","5","","","","","","","","",""
"","","","","","single-stim-button","118","245981","0.0-2.0-28.3-0.3","60fe0aa942cdb85dc1404271","F1","batch6","","800","tol_tohand","","","","tol_peg_2","800","800","0","[[0,0,0],[3,0],[2]]","4","[[1,2,0],[3,0],[0]]","6","0","","","","","","5","","","","","","","","",""
"","","","","","single-stim-button","119","246667","0.0-2.0-28.3-1.3","60fe0aa942cdb85dc1404271","F1","batch6","","684","tol_toboard","","","","tol_peg_1","684","684","0","[[1,0,0],[3,0],[2]]","4","[[1,2,0],[3,0],[0]]","6","0","","","","","","5","","","","","","","","",""
"","","","","","single-stim-button","120","247517","0.0-2.0-28.4-0.4","60fe0aa942cdb85dc1404271","F1","batch6","","849","tol_tohand","","","","tol_peg_3","849","849","0","[[1,0,0],[3,0],[0]]","5","[[1,2,0],[3,0],[0]]","6","0","","","","","","5","","","","","","","","",""
"","","","","","single-stim-button","121","248060","0.0-2.0-28.4-1.4","60fe0aa942cdb85dc1404271","F1","batch6","","540","tol_toboard","","","","tol_peg_1","540","540","0","[[1,2,0],[3,0],[0]]","5","[[1,2,0],[3,0],[0]]","6","0","","","","","","5","","","","","","","","",""
"","","","","","poldrack-single-stim","122","249064","0.0-2.0-29.0","60fe0aa942cdb85dc1404271","F1","batch6","","-1","tol_feedback","","","true","","1000","1000","500","","","","","","-1","none","true","1623","5237","","","","","","","","","",""
"","","","","","html-button-response","123","249700","0.0-2.0-30.0","60fe0aa942cdb85dc1404271","F1","batch6","","635.0000000000291","tol_trial_num","<div class = centerbox><p class = center-block-text>problem <strong>8</strong> out of 25 problems</p></div>","0","","","","","","","","","","","","","","","","","","","","","","","","",""
"","","","","","single-stim-button","124","252316","0.0-2.0-31.0-0.0","60fe0aa942cdb85dc1404271","F1","batch6","","2615","tol_tohand","","","","tol_peg_3","2615","2615","0","[[0,0,0],[2,3],[0]]","1","[[1,2,0],[3,0],[0]]","7","0","","","","","","4","","","","","","","","",""
"","","","","","single-stim-button","125","253679","0.0-2.0-31.0-1.0","60fe0aa942cdb85dc1404271","F1","batch6","","1362","tol_toboard","","","","tol_peg_1","1362","1362","0","[[1,0,0],[2,3],[0]]","1","[[1,2,0],[3,0],[0]]","7","0","","","","","","4","","","","","","","","",""
"","","","","","single-stim-button","126","254326","0.0-2.0-31.1-0.1","60fe0aa942cdb85dc1404271","F1","batch6","","644","tol_tohand","","","","tol_peg_2","644","644","0","[[1,0,0],[2,0],[0]]","2","[[1,2,0],[3,0],[0]]","7","0","","","","","","4","","","","","","","","",""
"","","","","","single-stim-button","127","254958","0.0-2.0-31.1-1.1","60fe0aa942cdb85dc1404271","F1","batch6","","630","tol_toboard","","","","tol_peg_3","630","630","0","[[1,0,0],[2,0],[3]]","2","[[1,2,0],[3,0],[0]]","7","0","","","","","","4","","","","","","","","",""
"","","","","","single-stim-button","128","255487","0.0-2.0-31.2-0.2","60fe0aa942cdb85dc1404271","F1","batch6","","526","tol_tohand","","","","tol_peg_2","526","526","0","[[1,0,0],[0,0],[3]]","3","[[1,2,0],[3,0],[0]]","7","0","","","","","","4","","","","","","","","",""
"","","","","","single-stim-button","129","256079","0.0-2.0-31.2-1.2","60fe0aa942cdb85dc1404271","F1","batch6","","589","tol_toboard","","","","tol_peg_1","589","589","0","[[1,2,0],[0,0],[3]]","3","[[1,2,0],[3,0],[0]]","7","0","","","","","","4","","","","","","","","",""
"","","","","","single-stim-button","130","256728","0.0-2.0-31.3-0.3","60fe0aa942cdb85dc1404271","F1","batch6","","647","tol_tohand","","","","tol_peg_3","647","647","0","[[1,2,0],[0,0],[0]]","4","[[1,2,0],[3,0],[0]]","7","0","","","","","","4","","","","","","","","",""
"","","","","","single-stim-button","131","257367","0.0-2.0-31.3-1.3","60fe0aa942cdb85dc1404271","F1","batch6","","637","tol_toboard","","","","tol_peg_2","637","637","0","[[1,2,0],[3,0],[0]]","4","[[1,2,0],[3,0],[0]]","7","0","","","","","","4","","","","","","","","",""
"","","","","","poldrack-single-stim","132","258370","0.0-2.0-32.0","60fe0aa942cdb85dc1404271","F1","batch6","","-1","tol_feedback","","","true","","1000","1000","500","","","","","","-1","none","true","2615","4432","","","","","","","","","",""
"","","","","","html-button-response","133","259357","0.0-2.0-33.0","60fe0aa942cdb85dc1404271","F1","batch6","","985.0000000000291","tol_trial_num","<div class = centerbox><p class = center-block-text>problem <strong>9</strong> out of 25 problems</p></div>","0","","","","","","","","","","","","","","","","","","","","","","","","",""
"","","","","","single-stim-button","134","266908","0.0-2.0-34.0-0.0","60fe0aa942cdb85dc1404271","F1","batch6","","7549","tol_tohand","","","","tol_peg_1","7549","7549","0","[[3,0,0],[0,0],[1]]","1","[[2,1,0],[3,0],[0]]","8","0","","","","","","6","","","","","","","","",""
"","","","","","single-stim-button","135","267828","0.0-2.0-34.0-1.0","60fe0aa942cdb85dc1404271","F1","batch6","","918","tol_toboard","","","","tol_peg_2","918","918","0","[[3,0,0],[2,0],[1]]","1","[[2,1,0],[3,0],[0]]","8","0","","","","","","6","","","","","","","","",""
"","","","","","single-stim-button","136","268419","0.0-2.0-34.1-0.1","60fe0aa942cdb85dc1404271","F1","batch6","","589","tol_tohand","","","","tol_peg_1","589","589","0","[[0,0,0],[2,0],[1]]","2","[[2,1,0],[3,0],[0]]","8","0","","","","","","6","","","","","","","","",""
"","","","","","single-stim-button","137","269365","0.0-2.0-34.1-1.1","60fe0aa942cdb85dc1404271","F1","batch6","","944","tol_toboard","","","","tol_peg_2","944","944","0","[[0,0,0],[2,3],[1]]","2","[[2,1,0],[3,0],[0]]","8","0","","","","","","6","","","","","","","","",""
"","","","","","single-stim-button","138","270093","0.0-2.0-34.2-0.2","60fe0aa942cdb85dc1404271","F1","batch6","","725","tol_tohand","","","","tol_peg_3","725","725","0","[[0,0,0],[2,3],[0]]","3","[[2,1,0],[3,0],[0]]","8","0","","","","","","6","","","","","","","","",""
"","","","","","single-stim-button","139","271660","0.0-2.0-34.2-1.2","60fe0aa942cdb85dc1404271","F1","batch6","","1565","tol_toboard","","","","tol_peg_3","1565","1565","0","[[0,0,0],[2,3],[1]]","3","[[2,1,0],[3,0],[0]]","8","0","","","","","","6","","","","","","","","",""
"","","","","","single-stim-button","140","272581","0.0-2.0-34.3-0.3","60fe0aa942cdb85dc1404271","F1","batch6","","918","tol_tohand","","","","tol_peg_2","918","918","0","[[0,0,0],[2,0],[1]]","4","[[2,1,0],[3,0],[0]]","8","0","","","","","","6","","","","","","","","",""
"","","","","","single-stim-button","141","273781","0.0-2.0-34.3-1.3","60fe0aa942cdb85dc1404271","F1","batch6","","1199","tol_toboard","","","","tol_peg_1","1199","1199","0","[[3,0,0],[2,0],[1]]","4","[[2,1,0],[3,0],[0]]","8","0","","","","","","6","","","","","","","","",""
"","","","","","single-stim-button","142","274480","0.0-2.0-34.4-0.4","60fe0aa942cdb85dc1404271","F1","batch6","","696","tol_tohand","","","","tol_peg_3","696","696","0","[[3,0,0],[2,0],[0]]","5","[[2,1,0],[3,0],[0]]","8","0","","","","","","6","","","","","","","","",""
"","","","","","single-stim-button","143","275198","0.0-2.0-34.4-1.4","60fe0aa942cdb85dc1404271","F1","batch6","","716","tol_toboard","","","","tol_peg_1","716","716","0","[[3,1,0],[2,0],[0]]","5","[[2,1,0],[3,0],[0]]","8","0","","","","","","6","","","","","","","","",""
"","","","","","single-stim-button","144","275815","0.0-2.0-34.5-0.5","60fe0aa942cdb85dc1404271","F1","batch6","","614","tol_tohand","","","","tol_peg_2","614","614","0","[[3,1,0],[0,0],[0]]","6","[[2,1,0],[3,0],[0]]","8","0","","","","","","6","","","","","","","","",""
"","","","","","single-stim-button","145","276471","0.0-2.0-34.5-1.5","60fe0aa942cdb85dc1404271","F1","batch6","","655","tol_toboard","","","","tol_peg_3","655","655","0","[[3,1,0],[0,0],[2]]","6","[[2,1,0],[3,0],[0]]","8","0","","","","","","6","","","","","","","","",""
"","","","","","single-stim-button","146","277639","0.0-2.0-34.6-0.6","60fe0aa942cdb85dc1404271","F1","batch6","","1166","tol_tohand","","","","tol_peg_1","1166","1166","0","[[3,0,0],[0,0],[2]]","7","[[2,1,0],[3,0],[0]]","8","0","","","","","","6","","","","","","","","",""
"","","","","","single-stim-button","147","278481","0.0-2.0-34.6-1.6","60fe0aa942cdb85dc1404271","F1","batch6","","839","tol_toboard","","","","tol_peg_2","839","839","0","[[3,0,0],[1,0],[2]]","7","[[2,1,0],[3,0],[0]]","8","0","","","","","","6","","","","","","","","",""
"","","","","","single-stim-button","148","278995","0.0-2.0-34.7-0.7","60fe0aa942cdb85dc1404271","F1","batch6","","511","tol_tohand","","","","tol_peg_1","511","511","0","[[0,0,0],[1,0],[2]]","8","[[2,1,0],[3,0],[0]]","8","0","","","","","","6","","","","","","","","",""
"","","","","","single-stim-button","149","279608","0.0-2.0-34.7-1.7","60fe0aa942cdb85dc1404271","F1","batch6","","611","tol_toboard","","","","tol_peg_2","611","611","0","[[0,0,0],[1,3],[2]]","8","[[2,1,0],[3,0],[0]]","8","0","","","","","","6","","","","","","","","",""
"","","","","","single-stim-button","150","280297","0.0-2.0-34.8-0.8","60fe0aa942cdb85dc1404271","F1","batch6","","686","tol_tohand","","","","tol_peg_3","686","686","0","[[0,0,0],[1,3],[0]]","9","[[2,1,0],[3,0],[0]]","8","0","","","","","","6","","","","","","","","",""
"","","","","","single-stim-button","151","281153","0.0-2.0-34.8-1.8","60fe0aa942cdb85dc1404271","F1","batch6","","854","tol_toboard","","","","tol_peg_1","854","854","0","[[2,0,0],[1,3],[0]]","9","[[2,1,0],[3,0],[0]]","8","0","","","","","","6","","","","","","","","",""
"","","","","","single-stim-button","152","281775","0.0-2.0-34.9-0.9","60fe0aa942cdb85dc1404271","F1","batch6","","621","tol_tohand","","","","tol_peg_2","621","621","0","[[2,0,0],[1,0],[0]]","10","[[2,1,0],[3,0],[0]]","8","0","","","","","","6","","","","","","","","",""
"","","","","","single-stim-button","153","282570","0.0-2.0-34.9-1.9","60fe0aa942cdb85dc1404271","F1","batch6","","793","tol_toboard","","","","tol_peg_3","793","793","0","[[2,0,0],[1,0],[3]]","10","[[2,1,0],[3,0],[0]]","8","0","","","","","","6","","","","","","","","",""
"","","","","","single-stim-button","154","283145","0.0-2.0-34.10-0.10","60fe0aa942cdb85dc1404271","F1","batch6","","572","tol_tohand","","","","tol_peg_2","572","572","0","[[2,0,0],[0,0],[3]]","11","[[2,1,0],[3,0],[0]]","8","0","","","","","","6","","","","","","","","",""
"","","","","","single-stim-button","155","283793","0.0-2.0-34.10-1.10","60fe0aa942cdb85dc1404271","F1","batch6","","646","tol_toboard","","","","tol_peg_1","646","646","0","[[2,1,0],[0,0],[3]]","11","[[2,1,0],[3,0],[0]]","8","0","","","","","","6","","","","","","","","",""
"","","","","","single-stim-button","156","284476","0.0-2.0-34.11-0.11","60fe0aa942cdb85dc1404271","F1","batch6","","680","tol_tohand","","","","tol_peg_3","680","680","0","[[2,1,0],[0,0],[0]]","12","[[2,1,0],[3,0],[0]]","8","0","","","","","","6","","","","","","","","",""
"","","","","","single-stim-button","157","285035","0.0-2.0-34.11-1.11","60fe0aa942cdb85dc1404271","F1","batch6","","558","tol_toboard","","","","tol_peg_2","558","558","0","[[2,1,0],[3,0],[0]]","12","[[2,1,0],[3,0],[0]]","8","0","","","","","","6","","","","","","","","",""
"","","","","","poldrack-single-stim","158","286039","0.0-2.0-35.0","60fe0aa942cdb85dc1404271","F1","batch6","","-1","tol_feedback","","","true","","1000","1000","500","","","","","","-1","none","true","7549","15327","","","","","","","","","",""
"","","","","","html-button-response","159","286738","0.0-2.0-36.0","60fe0aa942cdb85dc1404271","F1","batch6","","698","tol_trial_num","<div class = centerbox><p class = center-block-text>problem <strong>10</strong> out of 25 problems</p></div>","0","","","","","","","","","","","","","","","","","","","","","","","","",""
"","","","","","single-stim-button","160","289307","0.0-2.0-37.0-0.0","60fe0aa942cdb85dc1404271","F1","batch6","","2567","tol_tohand","","","","tol_peg_2","2567","2567","0","[[3,0,0],[0,0],[2]]","1","[[3,0,0],[2,1],[0]]","9","0","","","","","","3","","","","","","","","",""
"","","","","","single-stim-button","161","289964","0.0-2.0-37.0-1.0","60fe0aa942cdb85dc1404271","F1","batch6","","654","tol_toboard","","","","tol_peg_1","654","654","0","[[3,1,0],[0,0],[2]]","1","[[3,0,0],[2,1],[0]]","9","0","","","","","","3","","","","","","","","",""
"","","","","","single-stim-button","162","290595","0.0-2.0-37.1-0.1","60fe0aa942cdb85dc1404271","F1","batch6","","630","tol_tohand","","","","tol_peg_3","630","630","0","[[3,1,0],[0,0],[0]]","2","[[3,0,0],[2,1],[0]]","9","0","","","","","","3","","","","","","","","",""
"","","","","","single-stim-button","163","291099","0.0-2.0-37.1-1.1","60fe0aa942cdb85dc1404271","F1","batch6","","503","tol_toboard","","","","tol_peg_2","503","503","0","[[3,1,0],[2,0],[0]]","2","[[3,0,0],[2,1],[0]]","9","0","","","","","","3","","","","","","","","",""
"","","","","","single-stim-button","164","291740","0.0-2.0-37.2-0.2","60fe0aa942cdb85dc1404271","F1","batch6","","638","tol_tohand","","","","tol_peg_1","638","638","0","[[3,0,0],[2,0],[0]]","3","[[3,0,0],[2,1],[0]]","9","0","","","","","","3","","","","","","","","",""
"","","","","","single-stim-button","165","292204","0.0-2.0-37.2-1.2","60fe0aa942cdb85dc1404271","F1","batch6","","462","tol_toboard","","","","tol_peg_2","462","462","0","[[3,0,0],[2,1],[0]]","3","[[3,0,0],[2,1],[0]]","9","0","","","","","","3","","","","","","","","",""
"","","","","","poldrack-single-stim","166","293207","0.0-2.0-38.0","60fe0aa942cdb85dc1404271","F1","batch6","","-1","tol_feedback","","","true","","1000","1000","500","","","","","","-1","none","true","2567","3835","","","","","","","","","",""
"","","","","","html-button-response","167","293982","0.0-2.0-39.0","60fe0aa942cdb85dc1404271","F1","batch6","","772","tol_trial_num","<div class = centerbox><p class = center-block-text>problem <strong>11</strong> out of 25 problems</p></div>","0","","","","","","","","","","","","","","","","","","","","","","","","",""
"","","","","","single-stim-button","168","295732","0.0-2.0-40.0-0.0","60fe0aa942cdb85dc1404271","F1","batch6","","1747","tol_tohand","","","","tol_peg_2","1747","1747","0","[[1,2,0],[0,0],[0]]","1","[[2,0,0],[1,3],[0]]","10","0","","","","","","6","","","","","","","","",""
"","","","","","single-stim-button","169","301686","0.0-2.0-40.0-1.0","60fe0aa942cdb85dc1404271","F1","batch6","","5952","tol_toboard","","","","tol_peg_3","5952","5952","0","[[1,2,0],[0,0],[3]]","1","[[2,0,0],[1,3],[0]]","10","0","","","","","","6","","","","","","","","",""
"","","","","","single-stim-button","170","304072","0.0-2.0-40.1-0.1","60fe0aa942cdb85dc1404271","F1","batch6","","2385","tol_tohand","","","","tol_peg_1","2385","2385","0","[[1,0,0],[0,0],[3]]","2","[[2,0,0],[1,3],[0]]","10","0","","","","","","6","","","","","","","","",""
"","","","","","single-stim-button","171","305016","0.0-2.0-40.1-1.1","60fe0aa942cdb85dc1404271","F1","batch6","","942","tol_toboard","","","","tol_peg_2","942","942","0","[[1,0,0],[2,0],[3]]","2","[[2,0,0],[1,3],[0]]","10","0","","","","","","6","","","","","","","","",""
"","","","","","single-stim-button","172","307666","0.0-2.0-40.2-0.2","60fe0aa942cdb85dc1404271","F1","batch6","","2647","tol_tohand","","","","tol_peg_1","2647","2647","0","[[0,0,0],[2,0],[3]]","3","[[2,0,0],[1,3],[0]]","10","0","","","","","","6","","","","","","","","",""
"","","","","","single-stim-button","173","308898","0.0-2.0-40.2-1.2","60fe0aa942cdb85dc1404271","F1","batch6","","1230","tol_toboard","","","","tol_peg_2","1230","1230","0","[[0,0,0],[2,1],[3]]","3","[[2,0,0],[1,3],[0]]","10","0","","","","","","6","","","","","","","","",""
"","","","","","single-stim-button","174","309547","0.0-2.0-40.3-0.3","60fe0aa942cdb85dc1404271","F1","batch6","","646","tol_tohand","","","","tol_peg_3","646","646","0","[[0,0,0],[2,1],[0]]","4","[[2,0,0],[1,3],[0]]","10","0","","","","","","6","","","","","","","","",""
"","","","","","single-stim-button","175","310387","0.0-2.0-40.3-1.3","60fe0aa942cdb85dc1404271","F1","batch6","","835","tol_toboard","","","","tol_peg_1","835","835","0","[[3,0,0],[2,1],[0]]","4","[[2,0,0],[1,3],[0]]","10","0","","","","","","6","","","","","","","","",""
"","","","","","single-stim-button","176","310826","0.0-2.0-40.4-0.4","60fe0aa942cdb85dc1404271","F1","batch6","","438","tol_tohand","","","","tol_peg_2","438","438","0","[[3,0,0],[2,0],[0]]","5","[[2,0,0],[1,3],[0]]","10","0","","","","","","6","","","","","","","","",""
"","","","","","single-stim-button","177","311482","0.0-2.0-40.4-1.4","60fe0aa942cdb85dc1404271","F1","batch6","","653","tol_toboard","","","","tol_peg_3","653","653","0","[[3,0,0],[2,0],[1]]","5","[[2,0,0],[1,3],[0]]","10","0","","","","","","6","","","","","","","","",""
"","","","","","single-stim-button","178","312341","0.0-2.0-40.5-0.5","60fe0aa942cdb85dc1404271","F1","batch6","","857","tol_tohand","","","","tol_peg_1","857","857","0","[[0,0,0],[2,0],[1]]","6","[[2,0,0],[1,3],[0]]","10","0","","","","","","6","","","","","","","","",""
"","","","","","single-stim-button","179","314077","0.0-2.0-40.5-1.5","60fe0aa942cdb85dc1404271","F1","batch6","","1735","tol_toboard","","","","tol_peg_1","1735","1735","0","[[3,0,0],[2,0],[1]]","6","[[2,0,0],[1,3],[0]]","10","0","","","","","","6","","","","","","","","",""
"","","","","","single-stim-button","180","315116","0.0-2.0-40.6-0.6","60fe0aa942cdb85dc1404271","F1","batch6","","1037","tol_tohand","","","","tol_peg_2","1037","1037","0","[[3,0,0],[0,0],[1]]","7","[[2,0,0],[1,3],[0]]","10","0","","","","","","6","","","","","","","","",""
"","","","","","single-stim-button","181","315866","0.0-2.0-40.6-1.6","60fe0aa942cdb85dc1404271","F1","batch6","","748","tol_toboard","","","","tol_peg_1","748","748","0","[[3,2,0],[0,0],[1]]","7","[[2,0,0],[1,3],[0]]","10","0","","","","","","6","","","","","","","","",""
"","","","","","single-stim-button","182","317119","0.0-2.0-40.7-0.7","60fe0aa942cdb85dc1404271","F1","batch6","","1252","tol_tohand","","","","tol_peg_3","1252","1252","0","[[3,2,0],[0,0],[0]]","8","[[2,0,0],[1,3],[0]]","10","0","","","","","","6","","","","","","","","",""
"","","","","","single-stim-button","183","317709","0.0-2.0-40.7-1.7","60fe0aa942cdb85dc1404271","F1","batch6","","586","tol_toboard","","","","tol_peg_2","586","586","0","[[3,2,0],[1,0],[0]]","8","[[2,0,0],[1,3],[0]]","10","0","","","","","","6","","","","","","","","",""
"","","","","","single-stim-button","184","318285","0.0-2.0-40.8-0.8","60fe0aa942cdb85dc1404271","F1","batch6","","575","tol_tohand","","","","tol_peg_1","575","575","0","[[3,0,0],[1,0],[0]]","9","[[2,0,0],[1,3],[0]]","10","0","","","","","","6","","","","","","","","",""
"","","","","","single-stim-button","185","319134","0.0-2.0-40.8-1.8","60fe0aa942cdb85dc1404271","F1","batch6","","846","tol_toboard","","","","tol_peg_3","846","846","0","[[3,0,0],[1,0],[2]]","9","[[2,0,0],[1,3],[0]]","10","0","","","","","","6","","","","","","","","",""
"","","","","","single-stim-button","186","319641","0.0-2.0-40.9-0.9","60fe0aa942cdb85dc1404271","F1","batch6","","505","tol_tohand","","","","tol_peg_1","505","505","0","[[0,0,0],[1,0],[2]]","10","[[2,0,0],[1,3],[0]]","10","0","","","","","","6","","","","","","","","",""
"","","","","","single-stim-button","187","320054","0.0-2.0-40.9-1.9","60fe0aa942cdb85dc1404271","F1","batch6","","409","tol_toboard","","","","tol_peg_2","409","409","0","[[0,0,0],[1,3],[2]]","10","[[2,0,0],[1,3],[0]]","10","0","","","","","","6","","","","","","","","",""
"","","","","","single-stim-button","188","321415","0.0-2.0-40.10-0.10","60fe0aa942cdb85dc1404271","F1","batch6","","1360","tol_tohand","","","","tol_peg_3","1360","1360","0","[[0,0,0],[1,3],[0]]","11","[[2,0,0],[1,3],[0]]","10","0","","","","","","6","","","","","","","","",""
"","","","","","single-stim-button","189","322239","0.0-2.0-40.10-1.10","60fe0aa942cdb85dc1404271","F1","batch6","","821","tol_toboard","","","","tol_peg_1","821","821","0","[[2,0,0],[1,3],[0]]","11","[[2,0,0],[1,3],[0]]","10","0","","","","","","6","","","","","","","","",""
"","","","","","poldrack-single-stim","190","323243","0.0-2.0-41.0","60fe0aa942cdb85dc1404271","F1","batch6","","-1","tol_feedback","","","true","","1000","1000","500","","","","","","-1","none","true","1747","13449","","","","","","","","","",""
"","","","","","html-button-response","191","323812","0.0-2.0-42.0","60fe0aa942cdb85dc1404271","F1","batch6","","566","tol_trial_num","<div class = centerbox><p class = center-block-text>problem <strong>12</strong> out of 25 problems</p></div>","0","","","","","","","","","","","","","","","","","","","","","","","","",""
"","","","","","single-stim-button","192","326698","0.0-2.0-43.0-0.0","60fe0aa942cdb85dc1404271","F1","batch6","","2884","tol_tohand","","","","tol_peg_1","2884","2884","0","[[1,0,0],[3,0],[0]]","1","[[2,3,0],[0,0],[1]]","11","0","","","","","","4","","","","","","","","",""
"","","","","","single-stim-button","193","327422","0.0-2.0-43.0-1.0","60fe0aa942cdb85dc1404271","F1","batch6","","720","tol_toboard","","","","tol_peg_2","720","720","0","[[1,0,0],[3,2],[0]]","1","[[2,3,0],[0,0],[1]]","11","0","","","","","","4","","","","","","","","",""
"","","","","","single-stim-button","194","327985","0.0-2.0-43.1-0.1","60fe0aa942cdb85dc1404271","F1","batch6","","562","tol_tohand","","","","tol_peg_1","562","562","0","[[0,0,0],[3,2],[0]]","2","[[2,3,0],[0,0],[1]]","11","0","","","","","","4","","","","","","","","",""
"","","","","","single-stim-button","195","328738","0.0-2.0-43.1-1.1","60fe0aa942cdb85dc1404271","F1","batch6","","750","tol_toboard","","","","tol_peg_3","750","750","0","[[0,0,0],[3,2],[1]]","2","[[2,3,0],[0,0],[1]]","11","0","","","","","","4","","","","","","","","",""
"","","","","","single-stim-button","196","329354","0.0-2.0-43.2-0.2","60fe0aa942cdb85dc1404271","F1","batch6","","613","tol_tohand","","","","tol_peg_2","613","613","0","[[0,0,0],[3,0],[1]]","3","[[2,3,0],[0,0],[1]]","11","0","","","","","","4","","","","","","","","",""
"","","","","","single-stim-button","197","330082","0.0-2.0-43.2-1.2","60fe0aa942cdb85dc1404271","F1","batch6","","727","tol_toboard","","","","tol_peg_1","727","727","0","[[2,0,0],[3,0],[1]]","3","[[2,3,0],[0,0],[1]]","11","0","","","","","","4","","","","","","","","",""
"","","","","","single-stim-button","198","330579","0.0-2.0-43.3-0.3","60fe0aa942cdb85dc1404271","F1","batch6","","494","tol_tohand","","","","tol_peg_2","494","494","0","[[2,0,0],[0,0],[1]]","4","[[2,3,0],[0,0],[1]]","11","0","","","","","","4","","","","","","","","",""
"","","","","","single-stim-button","199","331058","0.0-2.0-43.3-1.3","60fe0aa942cdb85dc1404271","F1","batch6","","477","tol_toboard","","","","tol_peg_1","477","477","0","[[2,3,0],[0,0],[1]]","4","[[2,3,0],[0,0],[1]]","11","0","","","","","","4","","","","","","","","",""
"","","","","","poldrack-single-stim","200","332061","0.0-2.0-44.0","60fe0aa942cdb85dc1404271","F1","batch6","","-1","tol_feedback","","","true","","1000","1000","500","","","","","","-1","none","true","2884","4553","","","","","","","","","",""
"","","","","","html-button-response","201","332826","0.0-2.0-45.0","60fe0aa942cdb85dc1404271","F1","batch6","","764","tol_trial_num","<div class = centerbox><p class = center-block-text>problem <strong>13</strong> out of 25 problems</p></div>","0","","","","","","","","","","","","","","","","","","","","","","","","",""
"","","","","","single-stim-button","202","334941","0.0-2.0-46.0-0.0","60fe0aa942cdb85dc1404271","F1","batch6","","2114","tol_tohand","","","","tol_peg_1","2114","2114","0","[[1,0,0],[3,0],[0]]","1","[[0,0,0],[2,3],[1]]","12","0","","","","","","4","","","","","","","","",""
"","","","","","single-stim-button","203","335502","0.0-2.0-46.0-1.0","60fe0aa942cdb85dc1404271","F1","batch6","","559","tol_toboard","","","","tol_peg_2","559","559","0","[[1,0,0],[3,2],[0]]","1","[[0,0,0],[2,3],[1]]","12","0","","","","","","4","","","","","","","","",""
"","","","","","single-stim-button","204","336092","0.0-2.0-46.1-0.1","60fe0aa942cdb85dc1404271","F1","batch6","","589","tol_tohand","","","","tol_peg_1","589","589","0","[[0,0,0],[3,2],[0]]","2","[[0,0,0],[2,3],[1]]","12","0","","","","","","4","","","","","","","","",""
"","","","","","single-stim-button","205","336708","0.0-2.0-46.1-1.1","60fe0aa942cdb85dc1404271","F1","batch6","","614","tol_toboard","","","","tol_peg_3","614","614","0","[[0,0,0],[3,2],[1]]","2","[[0,0,0],[2,3],[1]]","12","0","","","","","","4","","","","","","","","",""
"","","","","","single-stim-button","206","337453","0.0-2.0-46.2-0.2","60fe0aa942cdb85dc1404271","F1","batch6","","743","tol_tohand","","","","tol_peg_2","743","743","0","[[0,0,0],[3,0],[1]]","3","[[0,0,0],[2,3],[1]]","12","0","","","","","","4","","","","","","","","",""
"","","","","","single-stim-button","207","337893","0.0-2.0-46.2-1.2","60fe0aa942cdb85dc1404271","F1","batch6","","438","tol_toboard","","","","tol_peg_1","438","438","0","[[2,0,0],[3,0],[1]]","3","[[0,0,0],[2,3],[1]]","12","0","","","","","","4","","","","","","","","",""
"","","","","","single-stim-button","208","338620","0.0-2.0-46.3-0.3","60fe0aa942cdb85dc1404271","F1","batch6","","726","tol_tohand","","","","tol_peg_2","726","726","0","[[2,0,0],[0,0],[1]]","4","[[0,0,0],[2,3],[1]]","12","0","","","","","","4","","","","","","","","",""
"","","","","","single-stim-button","209","339549","0.0-2.0-46.3-1.3","60fe0aa942cdb85dc1404271","F1","batch6","","928","tol_toboard","","","","tol_peg_1","928","928","0","[[2,3,0],[0,0],[1]]","4","[[0,0,0],[2,3],[1]]","12","0","","","","","","4","","","","","","","","",""
"","","","","","single-stim-button","210","341709","0.0-2.0-46.4-0.4","60fe0aa942cdb85dc1404271","F1","batch6","","2157","tol_tohand","","","","tol_peg_3","2157","2157","0","[[2,3,0],[0,0],[0]]","5","[[0,0,0],[2,3],[1]]","12","0","","","","","","4","","","","","","","","",""
"","","","","","single-stim-button","211","342590","0.0-2.0-46.4-1.4","60fe0aa942cdb85dc1404271","F1","batch6","","880","tol_toboard","","","","tol_peg_1","880","880","0","[[2,3,1],[0,0],[0]]","5","[[0,0,0],[2,3],[1]]","12","0","","","","","","4","","","","","","","","",""
"","","","","","single-stim-button","212","344454","0.0-2.0-46.5-0.5","60fe0aa942cdb85dc1404271","F1","batch6","","1862","tol_tohand","","","","tol_peg_1","1862","1862","0","[[2,3,0],[0,0],[0]]","6","[[0,0,0],[2,3],[1]]","12","0","","","","","","4","","","","","","","","",""
"","","","","","single-stim-button","213","344830","0.0-2.0-46.5-1.5","60fe0aa942cdb85dc1404271","F1","batch6","","375","tol_toboard","","","","tol_peg_2","375","375","0","[[2,3,0],[1,0],[0]]","6","[[0,0,0],[2,3],[1]]","12","0","","","","","","4","","","","","","","","",""
"","","","","","single-stim-button","214","345302","0.0-2.0-46.6-0.6","60fe0aa942cdb85dc1404271","F1","batch6","","469","tol_tohand","","","","tol_peg_1","469","469","0","[[2,0,0],[1,0],[0]]","7","[[0,0,0],[2,3],[1]]","12","0","","","","","","4","","","","","","","","",""
"","","","","","single-stim-button","215","345756","0.0-2.0-46.6-1.6","60fe0aa942cdb85dc1404271","F1","batch6","","453","tol_toboard","","","","tol_peg_3","453","453","0","[[2,0,0],[1,0],[3]]","7","[[0,0,0],[2,3],[1]]","12","0","","","","","","4","","","","","","","","",""
"","","","","","single-stim-button","216","347847","0.0-2.0-46.7-0.7","60fe0aa942cdb85dc1404271","F1","batch6","","2089","tol_tohand","","","","tol_peg_1","2089","2089","0","[[0,0,0],[1,0],[3]]","8","[[0,0,0],[2,3],[1]]","12","0","","","","","","4","","","","","","","","",""
"","","","","","single-stim-button","217","348624","0.0-2.0-46.7-1.7","60fe0aa942cdb85dc1404271","F1","batch6","","776","tol_toboard","","","","tol_peg_2","776","776","0","[[0,0,0],[1,2],[3]]","8","[[0,0,0],[2,3],[1]]","12","0","","","","","","4","","","","","","","","",""
"","","","","","single-stim-button","218","350129","0.0-2.0-46.8-0.8","60fe0aa942cdb85dc1404271","F1","batch6","","1503","tol_tohand","","","","tol_peg_3","1503","1503","0","[[0,0,0],[1,2],[0]]","9","[[0,0,0],[2,3],[1]]","12","0","","","","","","4","","","","","","","","",""
"","","","","","single-stim-button","219","350736","0.0-2.0-46.8-1.8","60fe0aa942cdb85dc1404271","F1","batch6","","603","tol_toboard","","","","tol_peg_1","603","603","0","[[3,0,0],[1,2],[0]]","9","[[0,0,0],[2,3],[1]]","12","0","","","","","","4","","","","","","","","",""
"","","","","","single-stim-button","220","351313","0.0-2.0-46.9-0.9","60fe0aa942cdb85dc1404271","F1","batch6","","574","tol_tohand","","","","tol_peg_2","574","574","0","[[3,0,0],[1,0],[0]]","10","[[0,0,0],[2,3],[1]]","12","0","","","","","","4","","","","","","","","",""
"","","","","","single-stim-button","221","351998","0.0-2.0-46.9-1.9","60fe0aa942cdb85dc1404271","F1","batch6","","683","tol_toboard","","","","tol_peg_3","683","683","0","[[3,0,0],[1,0],[2]]","10","[[0,0,0],[2,3],[1]]","12","0","","","","","","4","","","","","","","","",""
"","","","","","single-stim-button","222","352519","0.0-2.0-46.10-0.10","60fe0aa942cdb85dc1404271","F1","batch6","","520","tol_tohand","","","","tol_peg_2","520","520","0","[[3,0,0],[0,0],[2]]","11","[[0,0,0],[2,3],[1]]","12","0","","","","","","4","","","","","","","","",""
"","","","","","single-stim-button","223","353112","0.0-2.0-46.10-1.10","60fe0aa942cdb85dc1404271","F1","batch6","","592","tol_toboard","","","","tol_peg_1","592","592","0","[[3,1,0],[0,0],[2]]","11","[[0,0,0],[2,3],[1]]","12","0","","","","","","4","","","","","","","","",""
"","","","","","single-stim-button","224","353913","0.0-2.0-46.11-0.11","60fe0aa942cdb85dc1404271","F1","batch6","","798","tol_tohand","","","","tol_peg_3","798","798","0","[[3,1,0],[0,0],[0]]","12","[[0,0,0],[2,3],[1]]","12","0","","","","","","4","","","","","","","","",""
"","","","","","single-stim-button","225","354345","0.0-2.0-46.11-1.11","60fe0aa942cdb85dc1404271","F1","batch6","","431","tol_toboard","","","","tol_peg_2","431","431","0","[[3,1,0],[2,0],[0]]","12","[[0,0,0],[2,3],[1]]","12","0","","","","","","4","","","","","","","","",""
"","","","","","single-stim-button","226","354849","0.0-2.0-46.12-0.12","60fe0aa942cdb85dc1404271","F1","batch6","","501","tol_tohand","","","","tol_peg_1","501","501","0","[[3,0,0],[2,0],[0]]","13","[[0,0,0],[2,3],[1]]","12","0","","","","","","4","","","","","","","","",""
"","","","","","single-stim-button","227","355681","0.0-2.0-46.12-1.12","60fe0aa942cdb85dc1404271","F1","batch6","","831","tol_toboard","","","","tol_peg_3","831","831","0","[[3,0,0],[2,0],[1]]","13","[[0,0,0],[2,3],[1]]","12","0","","","","","","4","","","","","","","","",""
"","","","","","single-stim-button","228","356146","0.0-2.0-46.13-0.13","60fe0aa942cdb85dc1404271","F1","batch6","","462","tol_tohand","","","","tol_peg_1","462","462","0","[[0,0,0],[2,0],[1]]","14","[[0,0,0],[2,3],[1]]","12","0","","","","","","4","","","","","","","","",""
"","","","","","single-stim-button","229","356842","0.0-2.0-46.13-1.13","60fe0aa942cdb85dc1404271","F1","batch6","","694","tol_toboard","","","","tol_peg_2","694","694","0","[[0,0,0],[2,3],[1]]","14","[[0,0,0],[2,3],[1]]","12","0","","","","","","4","","","","","","","","",""
"","","","","","poldrack-single-stim","230","357846","0.0-2.0-47.0","60fe0aa942cdb85dc1404271","F1","batch6","","-1","tol_feedback","","","true","","1000","1000","500","","","","","","-1","none","true","2114","15107","","","","","","","","","",""
"","","","","","html-button-response","231","360371","0.0-2.0-48.0","60fe0aa942cdb85dc1404271","F1","batch6","","2523","attention_check","<p class = block-text>How many balls are in your board<br></p>","1","true","","","","","","","","","","","","","","","","","","","","","","","",""
"","","","","","html-button-response","232","361154","0.0-2.0-49.0","60fe0aa942cdb85dc1404271","F1","batch6","","782.0000000000582","tol_trial_num","<div class = centerbox><p class = center-block-text>problem <strong>14</strong> out of 25 problems</p></div>","0","","","","","","","","","","","","","","","","","","","","","","","","",""
"","","","","","single-stim-button","233","363180","0.0-2.0-50.0-0.0","60fe0aa942cdb85dc1404271","F1","batch6","","2025","tol_tohand","","","","tol_peg_1","2025","2025","0","[[2,0,0],[3,0],[0]]","1","[[1,2,0],[3,0],[0]]","13","0","","","","","","4","","","","","","","","",""
"","","","","","single-stim-button","234","363678","0.0-2.0-50.0-1.0","60fe0aa942cdb85dc1404271","F1","batch6","","496","tol_toboard","","","","tol_peg_2","496","496","0","[[2,0,0],[3,1],[0]]","1","[[1,2,0],[3,0],[0]]","13","0","","","","","","4","","","","","","","","",""
"","","","","","single-stim-button","235","364811","0.0-2.0-50.1-0.1","60fe0aa942cdb85dc1404271","F1","batch6","","1130","tol_tohand","","","","tol_peg_1","1130","1130","0","[[0,0,0],[3,1],[0]]","2","[[1,2,0],[3,0],[0]]","13","0","","","","","","4","","","","","","","","",""
"","","","","","single-stim-button","236","365485","0.0-2.0-50.1-1.1","60fe0aa942cdb85dc1404271","F1","batch6","","672","tol_toboard","","","","tol_peg_3","672","672","0","[[0,0,0],[3,1],[2]]","2","[[1,2,0],[3,0],[0]]","13","0","","","","","","4","","","","","","","","",""
"","","","","","single-stim-button","237","366029","0.0-2.0-50.2-0.2","60fe0aa942cdb85dc1404271","F1","batch6","","543","tol_tohand","","","","tol_peg_2","543","543","0","[[0,0,0],[3,0],[2]]","3","[[1,2,0],[3,0],[0]]","13","0","","","","","","4","","","","","","","","",""
"","","","","","single-stim-button","238","366461","0.0-2.0-50.2-1.2","60fe0aa942cdb85dc1404271","F1","batch6","","430","tol_toboard","","","","tol_peg_1","430","430","0","[[1,0,0],[3,0],[2]]","3","[[1,2,0],[3,0],[0]]","13","0","","","","","","4","","","","","","","","",""
"","","","","","single-stim-button","239","367044","0.0-2.0-50.3-0.3","60fe0aa942cdb85dc1404271","F1","batch6","","581","tol_tohand","","","","tol_peg_3","581","581","0","[[1,0,0],[3,0],[0]]","4","[[1,2,0],[3,0],[0]]","13","0","","","","","","4","","","","","","","","",""
"","","","","","single-stim-button","240","367853","0.0-2.0-50.3-1.3","60fe0aa942cdb85dc1404271","F1","batch6","","808","tol_toboard","","","","tol_peg_1","808","808","0","[[1,2,0],[3,0],[0]]","4","[[1,2,0],[3,0],[0]]","13","0","","","","","","4","","","","","","","","",""
"","","","","","poldrack-single-stim","241","368857","0.0-2.0-51.0","60fe0aa942cdb85dc1404271","F1","batch6","","-1","tol_feedback","","","true","","1000","1000","500","","","","","","-1","none","true","2025","4279","","","","","","","","","",""
"","","","","","html-button-response","242","369814","0.0-2.0-52.0","60fe0aa942cdb85dc1404271","F1","batch6","","957","tol_trial_num","<div class = centerbox><p class = center-block-text>problem <strong>15</strong> out of 25 problems</p></div>","0","","","","","","","","","","","","","","","","","","","","","","","","",""
"","","","","","single-stim-button","243","371799","0.0-2.0-53.0-0.0","60fe0aa942cdb85dc1404271","F1","batch6","","1983","tol_tohand","","","","tol_peg_1","1983","1983","0","[[1,0,0],[3,0],[0]]","1","[[2,0,0],[3,0],[1]]","14","0","","","","","","3","","","","","","","","",""
"","","","","","single-stim-button","244","372367","0.0-2.0-53.0-1.0","60fe0aa942cdb85dc1404271","F1","batch6","","566","tol_toboard","","","","tol_peg_2","566","566","0","[[1,0,0],[3,2],[0]]","1","[[2,0,0],[3,0],[1]]","14","0","","","","","","3","","","","","","","","",""
"","","","","","single-stim-button","245","372799","0.0-2.0-53.1-0.1","60fe0aa942cdb85dc1404271","F1","batch6","","431","tol_tohand","","","","tol_peg_1","431","431","0","[[0,0,0],[3,2],[0]]","2","[[2,0,0],[3,0],[1]]","14","0","","","","","","3","","","","","","","","",""
"","","","","","single-stim-button","246","373286","0.0-2.0-53.1-1.1","60fe0aa942cdb85dc1404271","F1","batch6","","485","tol_toboard","","","","tol_peg_3","485","485","0","[[0,0,0],[3,2],[1]]","2","[[2,0,0],[3,0],[1]]","14","0","","","","","","3","","","","","","","","",""
"","","","","","single-stim-button","247","373839","0.0-2.0-53.2-0.2","60fe0aa942cdb85dc1404271","F1","batch6","","552","tol_tohand","","","","tol_peg_2","552","552","0","[[0,0,0],[3,0],[1]]","3","[[2,0,0],[3,0],[1]]","14","0","","","","","","3","","","","","","","","",""
"","","","","","single-stim-button","248","374295","0.0-2.0-53.2-1.2","60fe0aa942cdb85dc1404271","F1","batch6","","453","tol_toboard","","","","tol_peg_1","453","453","0","[[2,0,0],[3,0],[1]]","3","[[2,0,0],[3,0],[1]]","14","0","","","","","","3","","","","","","","","",""
"","","","","","poldrack-single-stim","249","375299","0.0-2.0-54.0","60fe0aa942cdb85dc1404271","F1","batch6","","-1","tol_feedback","","","true","","1000","1000","500","","","","","","-1","none","true","1983","2966","","","","","","","","","",""
"","","","","","html-button-response","250","378354","0.0-2.0-55.0","60fe0aa942cdb85dc1404271","F1","batch6","","3055","tol_trial_num","<div class = centerbox><p class = center-block-text>problem <strong>16</strong> out of 25 problems</p></div>","0","","","","","","","","","","","","","","","","","","","","","","","","",""
"","","","","","single-stim-button","251","380106","0.0-2.0-56.0-0.0","60fe0aa942cdb85dc1404271","F1","batch6","","1749","tol_tohand","","","","tol_peg_2","1749","1749","0","[[0,0,0],[2,0],[1]]","1","[[2,3,0],[1,0],[0]]","15","0","","","","","","7","","","","","","","","",""
"","","","","","single-stim-button","252","384043","0.0-2.0-56.0-1.0","60fe0aa942cdb85dc1404271","F1","batch6","","3936","tol_toboard","","","","tol_peg_2","3936","3936","0","[[0,0,0],[2,3],[1]]","1","[[2,3,0],[1,0],[0]]","15","0","","","","","","7","","","","","","","","",""
"","","","","","single-stim-button","253","384523","0.0-2.0-56.1-0.1","60fe0aa942cdb85dc1404271","F1","batch6","","477","tol_tohand","","","","tol_peg_3","477","477","0","[[0,0,0],[2,3],[0]]","2","[[2,3,0],[1,0],[0]]","15","0","","","","","","7","","","","","","","","",""
"","","","","","single-stim-button","254","385333","0.0-2.0-56.1-1.1","60fe0aa942cdb85dc1404271","F1","batch6","","808","tol_toboard","","","","tol_peg_1","808","808","0","[[1,0,0],[2,3],[0]]","2","[[2,3,0],[1,0],[0]]","15","0","","","","","","7","","","","","","","","",""
"","","","","","single-stim-button","255","386100","0.0-2.0-56.2-0.2","60fe0aa942cdb85dc1404271","F1","batch6","","766","tol_tohand","","","","tol_peg_2","766","766","0","[[1,0,0],[2,0],[0]]","3","[[2,3,0],[1,0],[0]]","15","0","","","","","","7","","","","","","","","",""
"","","","","","single-stim-button","256","391988","0.0-2.0-56.2-1.2","60fe0aa942cdb85dc1404271","F1","batch6","","5886","tol_toboard","","","","tol_peg_1","5886","5886","0","[[1,3,0],[2,0],[0]]","3","[[2,3,0],[1,0],[0]]","15","0","","","","","","7","","","","","","","","",""
"","","","","","single-stim-button","257","393014","0.0-2.0-56.3-0.3","60fe0aa942cdb85dc1404271","F1","batch6","","1024","tol_tohand","","","","tol_peg_2","1024","1024","0","[[1,3,0],[0,0],[0]]","4","[[2,3,0],[1,0],[0]]","15","0","","","","","","7","","","","","","","","",""
"","","","","","single-stim-button","258","393654","0.0-2.0-56.3-1.3","60fe0aa942cdb85dc1404271","F1","batch6","","638","tol_toboard","","","","tol_peg_3","638","638","0","[[1,3,0],[0,0],[2]]","4","[[2,3,0],[1,0],[0]]","15","0","","","","","","7","","","","","","","","",""
"","","","","","single-stim-button","259","394598","0.0-2.0-56.4-0.4","60fe0aa942cdb85dc1404271","F1","batch6","","941","tol_tohand","","","","tol_peg_1","941","941","0","[[1,0,0],[0,0],[2]]","5","[[2,3,0],[1,0],[0]]","15","0","","","","","","7","","","","","","","","",""
"","","","","","single-stim-button","260","395390","0.0-2.0-56.4-1.4","60fe0aa942cdb85dc1404271","F1","batch6","","791","tol_toboard","","","","tol_peg_2","791","791","0","[[1,0,0],[3,0],[2]]","5","[[2,3,0],[1,0],[0]]","15","0","","","","","","7","","","","","","","","",""
"","","","","","single-stim-button","261","396711","0.0-2.0-56.5-0.5","60fe0aa942cdb85dc1404271","F1","batch6","","1318","tol_tohand","","","","tol_peg_1","1318","1318","0","[[0,0,0],[3,0],[2]]","6","[[2,3,0],[1,0],[0]]","15","0","","","","","","7","","","","","","","","",""
"","","","","","single-stim-button","262","397503","0.0-2.0-56.5-1.5","60fe0aa942cdb85dc1404271","F1","batch6","","791","tol_toboard","","","","tol_peg_2","791","791","0","[[0,0,0],[3,1],[2]]","6","[[2,3,0],[1,0],[0]]","15","0","","","","","","7","","","","","","","","",""
"","","","","","single-stim-button","263","398193","0.0-2.0-56.6-0.6","60fe0aa942cdb85dc1404271","F1","batch6","","687","tol_tohand","","","","tol_peg_3","687","687","0","[[0,0,0],[3,1],[0]]","7","[[2,3,0],[1,0],[0]]","15","0","","","","","","7","","","","","","","","",""
"","","","","","single-stim-button","264","398984","0.0-2.0-56.6-1.6","60fe0aa942cdb85dc1404271","F1","batch6","","789","tol_toboard","","","","tol_peg_1","789","789","0","[[2,0,0],[3,1],[0]]","7","[[2,3,0],[1,0],[0]]","15","0","","","","","","7","","","","","","","","",""
"","","","","","single-stim-button","265","399632","0.0-2.0-56.7-0.7","60fe0aa942cdb85dc1404271","F1","batch6","","647","tol_tohand","","","","tol_peg_2","647","647","0","[[2,0,0],[3,0],[0]]","8","[[2,3,0],[1,0],[0]]","15","0","","","","","","7","","","","","","","","",""
"","","","","","single-stim-button","266","400384","0.0-2.0-56.7-1.7","60fe0aa942cdb85dc1404271","F1","batch6","","751","tol_toboard","","","","tol_peg_3","751","751","0","[[2,0,0],[3,0],[1]]","8","[[2,3,0],[1,0],[0]]","15","0","","","","","","7","","","","","","","","",""
"","","","","","single-stim-button","267","400816","0.0-2.0-56.8-0.8","60fe0aa942cdb85dc1404271","F1","batch6","","429","tol_tohand","","","","tol_peg_2","429","429","0","[[2,0,0],[0,0],[1]]","9","[[2,3,0],[1,0],[0]]","15","0","","","","","","7","","","","","","","","",""
"","","","","","single-stim-button","268","401489","0.0-2.0-56.8-1.8","60fe0aa942cdb85dc1404271","F1","batch6","","672","tol_toboard","","","","tol_peg_1","672","672","0","[[2,3,0],[0,0],[1]]","9","[[2,3,0],[1,0],[0]]","15","0","","","","","","7","","","","","","","","",""
"","","","","","single-stim-button","269","402113","0.0-2.0-56.9-0.9","60fe0aa942cdb85dc1404271","F1","batch6","","621","tol_tohand","","","","tol_peg_3","621","621","0","[[2,3,0],[0,0],[0]]","10","[[2,3,0],[1,0],[0]]","15","0","","","","","","7","","","","","","","","",""
"","","","","","single-stim-button","270","402593","0.0-2.0-56.9-1.9","60fe0aa942cdb85dc1404271","F1","batch6","","478","tol_toboard","","","","tol_peg_2","478","478","0","[[2,3,0],[1,0],[0]]","10","[[2,3,0],[1,0],[0]]","15","0","","","","","","7","","","","","","","","",""
"","","","","","poldrack-single-stim","271","403596","0.0-2.0-57.0","60fe0aa942cdb85dc1404271","F1","batch6","","-1","tol_feedback","","","true","","1000","1000","500","","","","","","-1","none","true","1749","8659","","","","","","","","","",""
"","","","","","html-button-response","272","404346","0.0-2.0-58.0","60fe0aa942cdb85dc1404271","F1","batch6","","749","tol_trial_num","<div class = centerbox><p class = center-block-text>problem <strong>17</strong> out of 25 problems</p></div>","0","","","","","","","","","","","","","","","","","","","","","","","","",""
"","","","","","single-stim-button","273","406626","0.0-2.0-59.0-0.0","60fe0aa942cdb85dc1404271","F1","batch6","","2278","tol_tohand","","","","tol_peg_1","2278","2278","0","[[1,0,0],[3,0],[0]]","1","[[3,1,0],[2,0],[0]]","16","0","","","","","","5","","","","","","","","",""
"","","","","","single-stim-button","274","407426","0.0-2.0-59.0-1.0","60fe0aa942cdb85dc1404271","F1","batch6","","798","tol_toboard","","","","tol_peg_3","798","798","0","[[1,0,0],[3,0],[2]]","1","[[3,1,0],[2,0],[0]]","16","0","","","","","","5","","","","","","","","",""
"","","","","","single-stim-button","275","408667","0.0-2.0-59.1-0.1","60fe0aa942cdb85dc1404271","F1","batch6","","1239","tol_tohand","","","","tol_peg_1","1239","1239","0","[[0,0,0],[3,0],[2]]","2","[[3,1,0],[2,0],[0]]","16","0","","","","","","5","","","","","","","","",""
"","","","","","single-stim-button","276","410637","0.0-2.0-59.1-1.1","60fe0aa942cdb85dc1404271","F1","batch6","","1967","tol_toboard","","","","tol_peg_1","1967","1967","0","[[1,0,0],[3,0],[2]]","2","[[3,1,0],[2,0],[0]]","16","0","","","","","","5","","","","","","","","",""
"","","","","","single-stim-button","277","411637","0.0-2.0-59.2-0.2","60fe0aa942cdb85dc1404271","F1","batch6","","998","tol_tohand","","","","tol_peg_3","998","998","0","[[1,0,0],[3,0],[0]]","3","[[3,1,0],[2,0],[0]]","16","0","","","","","","5","","","","","","","","",""
"","","","","","single-stim-button","278","415613","0.0-2.0-59.2-1.2","60fe0aa942cdb85dc1404271","F1","batch6","","3972","tol_toboard","","","","tol_peg_2","3972","3972","0","[[1,0,0],[3,2],[0]]","3","[[3,1,0],[2,0],[0]]","16","0","","","","","","5","","","","","","","","",""
"","","","","","single-stim-button","279","416103","0.0-2.0-59.3-0.3","60fe0aa942cdb85dc1404271","F1","batch6","","488","tol_tohand","","","","tol_peg_1","488","488","0","[[0,0,0],[3,2],[0]]","4","[[3,1,0],[2,0],[0]]","16","0","","","","","","5","","","","","","","","",""
"","","","","","single-stim-button","280","416573","0.0-2.0-59.3-1.3","60fe0aa942cdb85dc1404271","F1","batch6","","468","tol_toboard","","","","tol_peg_3","468","468","0","[[0,0,0],[3,2],[1]]","4","[[3,1,0],[2,0],[0]]","16","0","","","","","","5","","","","","","","","",""
"","","","","","single-stim-button","281","417061","0.0-2.0-59.4-0.4","60fe0aa942cdb85dc1404271","F1","batch6","","487","tol_tohand","","","","tol_peg_2","487","487","0","[[0,0,0],[3,0],[1]]","5","[[3,1,0],[2,0],[0]]","16","0","","","","","","5","","","","","","","","",""
"","","","","","single-stim-button","282","419439","0.0-2.0-59.4-1.4","60fe0aa942cdb85dc1404271","F1","batch6","","2375","tol_toboard","","","","tol_peg_2","2375","2375","0","[[0,0,0],[3,2],[1]]","5","[[3,1,0],[2,0],[0]]","16","0","","","","","","5","","","","","","","","",""
"","","","","","single-stim-button","283","421383","0.0-2.0-59.5-0.5","60fe0aa942cdb85dc1404271","F1","batch6","","1943","tol_tohand","","","","tol_peg_3","1943","1943","0","[[0,0,0],[3,2],[0]]","6","[[3,1,0],[2,0],[0]]","16","0","","","","","","5","","","","","","","","",""
"","","","","","single-stim-button","284","421975","0.0-2.0-59.5-1.5","60fe0aa942cdb85dc1404271","F1","batch6","","589","tol_toboard","","","","tol_peg_1","589","589","0","[[1,0,0],[3,2],[0]]","6","[[3,1,0],[2,0],[0]]","16","0","","","","","","5","","","","","","","","",""
"","","","","","single-stim-button","285","422576","0.0-2.0-59.6-0.6","60fe0aa942cdb85dc1404271","F1","batch6","","599","tol_tohand","","","","tol_peg_2","599","599","0","[[1,0,0],[3,0],[0]]","7","[[3,1,0],[2,0],[0]]","16","0","","","","","","5","","","","","","","","",""
"","","","","","single-stim-button","286","423088","0.0-2.0-59.6-1.6","60fe0aa942cdb85dc1404271","F1","batch6","","508","tol_toboard","","","","tol_peg_3","508","508","0","[[1,0,0],[3,0],[2]]","7","[[3,1,0],[2,0],[0]]","16","0","","","","","","5","","","","","","","","",""
"","","","","","single-stim-button","287","425328","0.0-2.0-59.7-0.7","60fe0aa942cdb85dc1404271","F1","batch6","","2238","tol_tohand","","","","tol_peg_2","2238","2238","0","[[1,0,0],[0,0],[2]]","8","[[3,1,0],[2,0],[0]]","16","0","","","","","","5","","","","","","","","",""
"","","","","","single-stim-button","288","426033","0.0-2.0-59.7-1.7","60fe0aa942cdb85dc1404271","F1","batch6","","704","tol_toboard","","","","tol_peg_1","704","704","0","[[1,3,0],[0,0],[2]]","8","[[3,1,0],[2,0],[0]]","16","0","","","","","","5","","","","","","","","",""
"","","","","","single-stim-button","289","426995","0.0-2.0-59.8-0.8","60fe0aa942cdb85dc1404271","F1","batch6","","959","tol_tohand","","","","tol_peg_3","959","959","0","[[1,3,0],[0,0],[0]]","9","[[3,1,0],[2,0],[0]]","16","0","","","","","","5","","","","","","","","",""
"","","","","","single-stim-button","290","427489","0.0-2.0-59.8-1.8","60fe0aa942cdb85dc1404271","F1","batch6","","489","tol_toboard","","","","tol_peg_2","489","489","0","[[1,3,0],[2,0],[0]]","9","[[3,1,0],[2,0],[0]]","16","0","","","","","","5","","","","","","","","",""
"","","","","","single-stim-button","291","427970","0.0-2.0-59.9-0.9","60fe0aa942cdb85dc1404271","F1","batch6","","478","tol_tohand","","","","tol_peg_1","478","478","0","[[1,0,0],[2,0],[0]]","10","[[3,1,0],[2,0],[0]]","16","0","","","","","","5","","","","","","","","",""
"","","","","","single-stim-button","292","428489","0.0-2.0-59.9-1.9","60fe0aa942cdb85dc1404271","F1","batch6","","518","tol_toboard","","","","tol_peg_2","518","518","0","[[1,0,0],[2,3],[0]]","10","[[3,1,0],[2,0],[0]]","16","0","","","","","","5","","","","","","","","",""
"","","","","","single-stim-button","293","429017","0.0-2.0-59.10-0.10","60fe0aa942cdb85dc1404271","F1","batch6","","525","tol_tohand","","","","tol_peg_1","525","525","0","[[0,0,0],[2,3],[0]]","11","[[3,1,0],[2,0],[0]]","16","0","","","","","","5","","","","","","","","",""
"","","","","","single-stim-button","294","429619","0.0-2.0-59.10-1.10","60fe0aa942cdb85dc1404271","F1","batch6","","600","tol_toboard","","","","tol_peg_3","600","600","0","[[0,0,0],[2,3],[1]]","11","[[3,1,0],[2,0],[0]]","16","0","","","","","","5","","","","","","","","",""
"","","","","","single-stim-button","295","430058","0.0-2.0-59.11-0.11","60fe0aa942cdb85dc1404271","F1","batch6","","438","tol_tohand","","","","tol_peg_2","438","438","0","[[0,0,0],[2,0],[1]]","12","[[3,1,0],[2,0],[0]]","16","0","","","","","","5","","","","","","","","",""
"","","","","","single-stim-button","296","430476","0.0-2.0-59.11-1.11","60fe0aa942cdb85dc1404271","F1","batch6","","415","tol_toboard","","","","tol_peg_1","415","415","0","[[3,0,0],[2,0],[1]]","12","[[3,1,0],[2,0],[0]]","16","0","","","","","","5","","","","","","","","",""
"","","","","","single-stim-button","297","431084","0.0-2.0-59.12-0.12","60fe0aa942cdb85dc1404271","F1","batch6","","606","tol_tohand","","","","tol_peg_3","606","606","0","[[3,0,0],[2,0],[0]]","13","[[3,1,0],[2,0],[0]]","16","0","","","","","","5","","","","","","","","",""
"","","","","","single-stim-button","298","431498","0.0-2.0-59.12-1.12","60fe0aa942cdb85dc1404271","F1","batch6","","413","tol_toboard","","","","tol_peg_1","413","413","0","[[3,1,0],[2,0],[0]]","13","[[3,1,0],[2,0],[0]]","16","0","","","","","","5","","","","","","","","",""
"","","","","","poldrack-single-stim","299","432502","0.0-2.0-60.0","60fe0aa942cdb85dc1404271","F1","batch6","","-1","tol_feedback","","","true","","1000","1000","500","","","","","","-1","none","true","2278","13276","","","","","","","","","",""
"","","","","","html-button-response","300","433443","0.0-2.0-61.0","60fe0aa942cdb85dc1404271","F1","batch6","","940","tol_trial_num","<div class = centerbox><p class = center-block-text>problem <strong>18</strong> out of 25 problems</p></div>","0","","","","","","","","","","","","","","","","","","","","","","","","",""
"","","","","","single-stim-button","301","435980","0.0-2.0-62.0-0.0","60fe0aa942cdb85dc1404271","F1","batch6","","2535","tol_tohand","","","","tol_peg_1","2535","2535","0","[[1,0,0],[3,0],[0]]","1","[[3,0,0],[2,0],[1]]","17","0","","","","","","5","","","","","","","","",""
"","","","","","single-stim-button","302","436547","0.0-2.0-62.0-1.0","60fe0aa942cdb85dc1404271","F1","batch6","","566","tol_toboard","","","","tol_peg_2","566","566","0","[[1,0,0],[3,2],[0]]","1","[[3,0,0],[2,0],[1]]","17","0","","","","","","5","","","","","","","","",""
"","","","","","single-stim-button","303","437084","0.0-2.0-62.1-0.1","60fe0aa942cdb85dc1404271","F1","batch6","","535","tol_tohand","","","","tol_peg_1","535","535","0","[[0,0,0],[3,2],[0]]","2","[[3,0,0],[2,0],[1]]","17","0","","","","","","5","","","","","","","","",""
"","","","","","single-stim-button","304","437556","0.0-2.0-62.1-1.1","60fe0aa942cdb85dc1404271","F1","batch6","","471","tol_toboard","","","","tol_peg_3","471","471","0","[[0,0,0],[3,2],[1]]","2","[[3,0,0],[2,0],[1]]","17","0","","","","","","5","","","","","","","","",""
"","","","","","single-stim-button","305","438082","0.0-2.0-62.2-0.2","60fe0aa942cdb85dc1404271","F1","batch6","","524","tol_tohand","","","","tol_peg_2","524","524","0","[[0,0,0],[3,0],[1]]","3","[[3,0,0],[2,0],[1]]","17","0","","","","","","5","","","","","","","","",""
"","","","","","single-stim-button","306","438734","0.0-2.0-62.2-1.2","60fe0aa942cdb85dc1404271","F1","batch6","","650","tol_toboard","","","","tol_peg_1","650","650","0","[[2,0,0],[3,0],[1]]","3","[[3,0,0],[2,0],[1]]","17","0","","","","","","5","","","","","","","","",""
"","","","","","single-stim-button","307","440449","0.0-2.0-62.3-0.3","60fe0aa942cdb85dc1404271","F1","batch6","","1713","tol_tohand","","","","tol_peg_1","1713","1713","0","[[0,0,0],[3,0],[1]]","4","[[3,0,0],[2,0],[1]]","17","0","","","","","","5","","","","","","","","",""
"","","","","","single-stim-button","308","442144","0.0-2.0-62.3-1.3","60fe0aa942cdb85dc1404271","F1","batch6","","1693","tol_toboard","","","","tol_peg_1","1693","1693","0","[[2,0,0],[3,0],[1]]","4","[[3,0,0],[2,0],[1]]","17","0","","","","","","5","","","","","","","","",""
"","","","","","single-stim-button","309","442823","0.0-2.0-62.4-0.4","60fe0aa942cdb85dc1404271","F1","batch6","","677","tol_tohand","","","","tol_peg_2","677","677","0","[[2,0,0],[0,0],[1]]","5","[[3,0,0],[2,0],[1]]","17","0","","","","","","5","","","","","","","","",""
"","","","","","single-stim-button","310","446864","0.0-2.0-62.4-1.4","60fe0aa942cdb85dc1404271","F1","batch6","","4039","tol_toboard","","","","tol_peg_2","4039","4039","0","[[2,0,0],[3,0],[1]]","5","[[3,0,0],[2,0],[1]]","17","0","","","","","","5","","","","","","","","",""
"","","","","","single-stim-button","311","447672","0.0-2.0-62.5-0.5","60fe0aa942cdb85dc1404271","F1","batch6","","807","tol_tohand","","","","tol_peg_3","807","807","0","[[2,0,0],[3,0],[0]]","6","[[3,0,0],[2,0],[1]]","17","0","","","","","","5","","","","","","","","",""
"","","","","","single-stim-button","312","448264","0.0-2.0-62.5-1.5","60fe0aa942cdb85dc1404271","F1","batch6","","590","tol_toboard","","","","tol_peg_1","590","590","0","[[2,1,0],[3,0],[0]]","6","[[3,0,0],[2,0],[1]]","17","0","","","","","","5","","","","","","","","",""
"","","","","","single-stim-button","313","448769","0.0-2.0-62.6-0.6","60fe0aa942cdb85dc1404271","F1","batch6","","502","tol_tohand","","","","tol_peg_2","502","502","0","[[2,1,0],[0,0],[0]]","7","[[3,0,0],[2,0],[1]]","17","0","","","","","","5","","","","","","","","",""
"","","","","","single-stim-button","314","449480","0.0-2.0-62.6-1.6","60fe0aa942cdb85dc1404271","F1","batch6","","710","tol_toboard","","","","tol_peg_3","710","710","0","[[2,1,0],[0,0],[3]]","7","[[3,0,0],[2,0],[1]]","17","0","","","","","","5","","","","","","","","",""
"","","","","","single-stim-button","315","450113","0.0-2.0-62.7-0.7","60fe0aa942cdb85dc1404271","F1","batch6","","630","tol_tohand","","","","tol_peg_1","630","630","0","[[2,0,0],[0,0],[3]]","8","[[3,0,0],[2,0],[1]]","17","0","","","","","","5","","","","","","","","",""
"","","","","","single-stim-button","316","450810","0.0-2.0-62.7-1.7","60fe0aa942cdb85dc1404271","F1","batch6","","695","tol_toboard","","","","tol_peg_2","695","695","0","[[2,0,0],[1,0],[3]]","8","[[3,0,0],[2,0],[1]]","17","0","","","","","","5","","","","","","","","",""
"","","","","","single-stim-button","317","459669","0.0-2.0-62.8-0.8","60fe0aa942cdb85dc1404271","F1","batch6","","8858","tol_tohand","","","","tol_peg_3","8858","8858","0","[[2,0,0],[1,0],[0]]","9","[[3,0,0],[2,0],[1]]","17","0","","","","","","5","","","","","","","","",""
"","","","","","single-stim-button","318","460326","0.0-2.0-62.8-1.8","60fe0aa942cdb85dc1404271","F1","batch6","","654","tol_toboard","","","","tol_peg_1","654","654","0","[[2,3,0],[1,0],[0]]","9","[[3,0,0],[2,0],[1]]","17","0","","","","","","5","","","","","","","","",""
"","","","","","single-stim-button","319","460869","0.0-2.0-62.9-0.9","60fe0aa942cdb85dc1404271","F1","batch6","","542","tol_tohand","","","","tol_peg_2","542","542","0","[[2,3,0],[0,0],[0]]","10","[[3,0,0],[2,0],[1]]","17","0","","","","","","5","","","","","","","","",""
"","","","","","single-stim-button","320","461598","0.0-2.0-62.9-1.9","60fe0aa942cdb85dc1404271","F1","batch6","","727","tol_toboard","","","","tol_peg_3","727","727","0","[[2,3,0],[0,0],[1]]","10","[[3,0,0],[2,0],[1]]","17","0","","","","","","5","","","","","","","","",""
"","","","","","single-stim-button","321","462567","0.0-2.0-62.10-0.10","60fe0aa942cdb85dc1404271","F1","batch6","","966","tol_tohand","","","","tol_peg_1","966","966","0","[[2,0,0],[0,0],[1]]","11","[[3,0,0],[2,0],[1]]","17","0","","","","","","5","","","","","","","","",""
"","","","","","single-stim-button","322","467208","0.0-2.0-62.10-1.10","60fe0aa942cdb85dc1404271","F1","batch6","","4639","tol_toboard","","","","tol_peg_1","4639","4639","0","[[2,3,0],[0,0],[1]]","11","[[3,0,0],[2,0],[1]]","17","0","","","","","","5","","","","","","","","",""
"","","","","","single-stim-button","323","468065","0.0-2.0-62.11-0.11","60fe0aa942cdb85dc1404271","F1","batch6","","854","tol_tohand","","","","tol_peg_3","854","854","0","[[2,3,0],[0,0],[0]]","12","[[3,0,0],[2,0],[1]]","17","0","","","","","","5","","","","","","","","",""
"","","","","","single-stim-button","324","468609","0.0-2.0-62.11-1.11","60fe0aa942cdb85dc1404271","F1","batch6","","542","tol_toboard","","","","tol_peg_2","542","542","0","[[2,3,0],[1,0],[0]]","12","[[3,0,0],[2,0],[1]]","17","0","","","","","","5","","","","","","","","",""
"","","","","","single-stim-button","325","469225","0.0-2.0-62.12-0.12","60fe0aa942cdb85dc1404271","F1","batch6","","615","tol_tohand","","","","tol_peg_1","615","615","0","[[2,0,0],[1,0],[0]]","13","[[3,0,0],[2,0],[1]]","17","0","","","","","","5","","","","","","","","",""
"","","","","","single-stim-button","326","470482","0.0-2.0-62.12-1.12","60fe0aa942cdb85dc1404271","F1","batch6","","1254","tol_toboard","","","","tol_peg_3","1254","1254","0","[[2,0,0],[1,0],[3]]","13","[[3,0,0],[2,0],[1]]","17","0","","","","","","5","","","","","","","","",""
"","","","","","single-stim-button","327","471075","0.0-2.0-62.13-0.13","60fe0aa942cdb85dc1404271","F1","batch6","","591","tol_tohand","","","","tol_peg_1","591","591","0","[[0,0,0],[1,0],[3]]","14","[[3,0,0],[2,0],[1]]","17","0","","","","","","5","","","","","","","","",""
"","","","","","single-stim-button","328","471644","0.0-2.0-62.13-1.13","60fe0aa942cdb85dc1404271","F1","batch6","","564","tol_toboard","","","","tol_peg_2","564","564","0","[[0,0,0],[1,2],[3]]","14","[[3,0,0],[2,0],[1]]","17","0","","","","","","5","","","","","","","","",""
"","","","","","single-stim-button","329","472318","0.0-2.0-62.14-0.14","60fe0aa942cdb85dc1404271","F1","batch6","","673","tol_tohand","","","","tol_peg_3","673","673","0","[[0,0,0],[1,2],[0]]","15","[[3,0,0],[2,0],[1]]","17","0","","","","","","5","","","","","","","","",""
"","","","","","single-stim-button","330","472851","0.0-2.0-62.14-1.14","60fe0aa942cdb85dc1404271","F1","batch6","","531","tol_toboard","","","","tol_peg_1","531","531","0","[[3,0,0],[1,2],[0]]","15","[[3,0,0],[2,0],[1]]","17","0","","","","","","5","","","","","","","","",""
"","","","","","single-stim-button","331","473450","0.0-2.0-62.15-0.15","60fe0aa942cdb85dc1404271","F1","batch6","","598","tol_tohand","","","","tol_peg_2","598","598","0","[[3,0,0],[1,0],[0]]","16","[[3,0,0],[2,0],[1]]","17","0","","","","","","5","","","","","","","","",""
"","","","","","single-stim-button","332","475011","0.0-2.0-62.15-1.15","60fe0aa942cdb85dc1404271","F1","batch6","","1558","tol_toboard","","","","tol_peg_1","1558","1558","0","[[3,2,0],[1,0],[0]]","16","[[3,0,0],[2,0],[1]]","17","0","","","","","","5","","","","","","","","",""
"","","","","","single-stim-button","333","475475","0.0-2.0-62.16-0.16","60fe0aa942cdb85dc1404271","F1","batch6","","463","tol_tohand","","","","tol_peg_2","463","463","0","[[3,2,0],[0,0],[0]]","17","[[3,0,0],[2,0],[1]]","17","0","","","","","","5","","","","","","","","",""
"","","","","","single-stim-button","334","476179","0.0-2.0-62.16-1.16","60fe0aa942cdb85dc1404271","F1","batch6","","702","tol_toboard","","","","tol_peg_3","702","702","0","[[3,2,0],[0,0],[1]]","17","[[3,0,0],[2,0],[1]]","17","0","","","","","","5","","","","","","","","",""
"","","","","","single-stim-button","335","476772","0.0-2.0-62.17-0.17","60fe0aa942cdb85dc1404271","F1","batch6","","590","tol_tohand","","","","tol_peg_1","590","590","0","[[3,0,0],[0,0],[1]]","18","[[3,0,0],[2,0],[1]]","17","0","","","","","","5","","","","","","","","",""
"","","","","","single-stim-button","336","477180","0.0-2.0-62.17-1.17","60fe0aa942cdb85dc1404271","F1","batch6","","406","tol_toboard","","","","tol_peg_2","406","406","0","[[3,0,0],[2,0],[1]]","18","[[3,0,0],[2,0],[1]]","17","0","","","","","","5","","","","","","","","",""
"","","","","","poldrack-single-stim","337","478184","0.0-2.0-63.0","60fe0aa942cdb85dc1404271","F1","batch6","","-1","tol_feedback","","","true","","1000","1000","500","","","","","","-1","none","true","2535","22673","","","","","","","","","",""
"","","","","","html-button-response","338","478846","0.0-2.0-64.0","60fe0aa942cdb85dc1404271","F1","batch6","","661","tol_trial_num","<div class = centerbox><p class = center-block-text>problem <strong>19</strong> out of 25 problems</p></div>","0","","","","","","","","","","","","","","","","","","","","","","","","",""
"","","","","","single-stim-button","339","480053","0.0-2.0-65.0-0.0","60fe0aa942cdb85dc1404271","F1","batch6","","1205","tol_tohand","","","","tol_peg_2","1205","1205","0","[[1,2,0],[0,0],[0]]","1","[[0,0,0],[1,2],[3]]","18","0","","","","","","7","","","","","","","","",""
"","","","","","single-stim-button","340","480745","0.0-2.0-65.0-1.0","60fe0aa942cdb85dc1404271","F1","batch6","","690","tol_toboard","","","","tol_peg_3","690","690","0","[[1,2,0],[0,0],[3]]","1","[[0,0,0],[1,2],[3]]","18","0","","","","","","7","","","","","","","","",""
"","","","","","single-stim-button","341","481797","0.0-2.0-65.1-0.1","60fe0aa942cdb85dc1404271","F1","batch6","","1050","tol_tohand","","","","tol_peg_1","1050","1050","0","[[1,0,0],[0,0],[3]]","2","[[0,0,0],[1,2],[3]]","18","0","","","","","","7","","","","","","","","",""
"","","","","","single-stim-button","342","486655","0.0-2.0-65.1-1.1","60fe0aa942cdb85dc1404271","F1","batch6","","4855","tol_toboard","","","","tol_peg_1","4855","4855","0","[[1,2,0],[0,0],[3]]","2","[[0,0,0],[1,2],[3]]","18","0","","","","","","7","","","","","","","","",""
"","","","","","single-stim-button","343","487207","0.0-2.0-65.2-0.2","60fe0aa942cdb85dc1404271","F1","batch6","","550","tol_tohand","","","","tol_peg_3","550","550","0","[[1,2,0],[0,0],[0]]","3","[[0,0,0],[1,2],[3]]","18","0","","","","","","7","","","","","","","","",""
"","","","","","single-stim-button","344","487791","0.0-2.0-65.2-1.2","60fe0aa942cdb85dc1404271","F1","batch6","","582","tol_toboard","","","","tol_peg_2","582","582","0","[[1,2,0],[3,0],[0]]","3","[[0,0,0],[1,2],[3]]","18","0","","","","","","7","","","","","","","","",""
"","","","","","single-stim-button","345","488408","0.0-2.0-65.3-0.3","60fe0aa942cdb85dc1404271","F1","batch6","","615","tol_tohand","","","","tol_peg_1","615","615","0","[[1,0,0],[3,0],[0]]","4","[[0,0,0],[1,2],[3]]","18","0","","","","","","7","","","","","","","","",""
"","","","","","single-stim-button","346","489096","0.0-2.0-65.3-1.3","60fe0aa942cdb85dc1404271","F1","batch6","","686","tol_toboard","","","","tol_peg_2","686","686","0","[[1,0,0],[3,2],[0]]","4","[[0,0,0],[1,2],[3]]","18","0","","","","","","7","","","","","","","","",""
"","","","","","single-stim-button","347","490479","0.0-2.0-65.4-0.4","60fe0aa942cdb85dc1404271","F1","batch6","","1381","tol_tohand","","","","tol_peg_1","1381","1381","0","[[0,0,0],[3,2],[0]]","5","[[0,0,0],[1,2],[3]]","18","0","","","","","","7","","","","","","","","",""
"","","","","","single-stim-button","348","491176","0.0-2.0-65.4-1.4","60fe0aa942cdb85dc1404271","F1","batch6","","694","tol_toboard","","","","tol_peg_3","694","694","0","[[0,0,0],[3,2],[1]]","5","[[0,0,0],[1,2],[3]]","18","0","","","","","","7","","","","","","","","",""
"","","","","","single-stim-button","349","491587","0.0-2.0-65.5-0.5","60fe0aa942cdb85dc1404271","F1","batch6","","408","tol_tohand","","","","tol_peg_2","408","408","0","[[0,0,0],[3,0],[1]]","6","[[0,0,0],[1,2],[3]]","18","0","","","","","","7","","","","","","","","",""
"","","","","","single-stim-button","350","492113","0.0-2.0-65.5-1.5","60fe0aa942cdb85dc1404271","F1","batch6","","524","tol_toboard","","","","tol_peg_1","524","524","0","[[2,0,0],[3,0],[1]]","6","[[0,0,0],[1,2],[3]]","18","0","","","","","","7","","","","","","","","",""
"","","","","","single-stim-button","351","492570","0.0-2.0-65.6-0.6","60fe0aa942cdb85dc1404271","F1","batch6","","455","tol_tohand","","","","tol_peg_2","455","455","0","[[2,0,0],[0,0],[1]]","7","[[0,0,0],[1,2],[3]]","18","0","","","","","","7","","","","","","","","",""
"","","","","","single-stim-button","352","493729","0.0-2.0-65.6-1.6","60fe0aa942cdb85dc1404271","F1","batch6","","1157","tol_toboard","","","","tol_peg_1","1157","1157","0","[[2,3,0],[0,0],[1]]","7","[[0,0,0],[1,2],[3]]","18","0","","","","","","7","","","","","","","","",""
"","","","","","single-stim-button","353","494290","0.0-2.0-65.7-0.7","60fe0aa942cdb85dc1404271","F1","batch6","","558","tol_tohand","","","","tol_peg_3","558","558","0","[[2,3,0],[0,0],[0]]","8","[[0,0,0],[1,2],[3]]","18","0","","","","","","7","","","","","","","","",""
