"success","timeout","failed_images","failed_audio","failed_video","trial_type","trial_index","time_elapsed","internal_node_id","subject_id","study_id","session_id","task","rt","stimulus","response","item","answer","correct","spm_correct","spm_rt","view_history","mouse_click","stim_duration","block_duration","timing_post_trial","current_position","tol_num_moves_made","tol_target","tol_problem_id","tol_rt","key_press","possible_responses","tol_correct","preplanning","tol_rt_per_trial","tol_min_moves","fiar_detect_rt","fiar_detect_correct","total_correct_fiar_detect","post_trial_gap","choices"
"true","false","[]","[]","[]","preload","0","3884","0.0-0.0","60fe326ef1dbd49c6bcce651","D2","batch4","","","","","","","","","","","","","","","","","","","","","","","","","","","","","",""
"true","","","","","fullscreen","1","8345","0.0-1.0-0.0","60fe326ef1dbd49c6bcce651","D2","batch4","","","","","","","","","","","","","","","","","","","","","","","","","","","","","",""
"true","","","","","fullscreen","2","14374","0.0-2.0-0.0","60fe326ef1dbd49c6bcce651","D2","batch4","spm_fullscreen","","","","","","","","","","","","","","","","","","","","","","","","","","","","",""
"","","","","","html-button-response","3","122256","0.0-2.0-1.0","60fe326ef1dbd49c6bcce651","D2","batch4","","107885","<p class = block-text><b>Instructions</b> <br>This is a widely used intelligence test in research. <br>In this test, a figure with a missing piece will be presented.<br>Below the figure are alternative pieces to complete the figure, only one of which is correct.<br> Different figures might involve different principles for obtaining the missing piece<br>Your job is to select the most logical piece to complete the figure.</p>","0","","","","","","","","","","","","","","","","","","","","","","","","","",""
"","","","","","html-keyboard-response","4","123058","0.0-2.0-2.0-0.0","60fe326ef1dbd49c6bcce651","D2","batch4","spm_show_trial_num","null","<p class=block-text>Trial 1 out of 60</p>","null","","","","","","","","","","","","","","","","","","","","","","","","","",""
"","","","","","image-button-response","5","129853","0.0-2.0-2.0-1.0","60fe326ef1dbd49c6bcce651","D2","batch4","spm_respsonse","6783.000000000029","img/question_1_1.jpeg","3","mat_01","4","1","1","6783.000000000029","","","","","","","","","","","","","","","","","","","","",""
"","","","","","html-keyboard-response","6","130906","0.0-2.0-2.0-0.1","60fe326ef1dbd49c6bcce651","D2","batch4","spm_show_trial_num","null","<p class=block-text>Trial 2 out of 60</p>","null","","","","","","","","","","","","","","","","","","","","","","","","","",""
"","","","","","image-button-response","7","134253","0.0-2.0-2.0-1.1","60fe326ef1dbd49c6bcce651","D2","batch4","spm_respsonse","3340","img/question_1_2.jpeg","4","mat_02","5","1","1","3340","","","","","","","","","","","","","","","","","","","","",""
"","","","","","html-keyboard-response","8","135306","0.0-2.0-2.0-0.2","60fe326ef1dbd49c6bcce651","D2","batch4","spm_show_trial_num","null","<p class=block-text>Trial 3 out of 60</p>","null","","","","","","","","","","","","","","","","","","","","","","","","","",""
"","","","","","image-button-response","9","138236","0.0-2.0-2.0-1.2","60fe326ef1dbd49c6bcce651","D2","batch4","spm_respsonse","2925","img/question_1_3.jpeg","0","mat_03","1","1","1","2925","","","","","","","","","","","","","","","","","","","","",""
"","","","","","html-keyboard-response","10","139289","0.0-2.0-2.0-0.3","60fe326ef1dbd49c6bcce651","D2","batch4","spm_show_trial_num","null","<p class=block-text>Trial 4 out of 60</p>","null","","","","","","","","","","","","","","","","","","","","","","","","","",""
"","","","","","image-button-response","11","144236","0.0-2.0-2.0-1.3","60fe326ef1dbd49c6bcce651","D2","batch4","spm_respsonse","4941","img/question_1_4.jpeg","1","mat_04","2","1","1","4941","","","","","","","","","","","","","","","","","","","","",""
"","","","","","html-keyboard-response","12","145289","0.0-2.0-2.0-0.4","60fe326ef1dbd49c6bcce651","D2","batch4","spm_show_trial_num","null","<p class=block-text>Trial 5 out of 60</p>","null","","","","","","","","","","","","","","","","","","","","","","","","","",""
"","","","","","image-button-response","13","149169","0.0-2.0-2.0-1.4","60fe326ef1dbd49c6bcce651","D2","batch4","spm_respsonse","3875","img/question_1_5.jpeg","5","mat_05","6","1","1","3875","","","","","","","","","","","","","","","","","","","","",""
"","","","","","html-keyboard-response","14","150222","0.0-2.0-2.0-0.5","60fe326ef1dbd49c6bcce651","D2","batch4","spm_show_trial_num","null","<p class=block-text>Trial 6 out of 60</p>","null","","","","","","","","","","","","","","","","","","","","","","","","","",""
"","","","","","image-button-response","15","152853","0.0-2.0-2.0-1.5","60fe326ef1dbd49c6bcce651","D2","batch4","spm_respsonse","2627.000000000029","img/question_1_6.jpeg","2","mat_06","3","1","1","2627.000000000029","","","","","","","","","","","","","","","","","","","","",""
"","","","","","html-keyboard-response","16","153905","0.0-2.0-2.0-0.6","60fe326ef1dbd49c6bcce651","D2","batch4","spm_show_trial_num","null","<p class=block-text>Trial 7 out of 60</p>","null","","","","","","","","","","","","","","","","","","","","","","","","","",""
"","","","","","image-button-response","17","159254","0.0-2.0-2.0-1.6","60fe326ef1dbd49c6bcce651","D2","batch4","spm_respsonse","5343","img/question_1_7.jpeg","5","mat_07","6","1","1","5343","","","","","","","","","","","","","","","","","","","","",""
"","","","","","html-keyboard-response","18","160306","0.0-2.0-2.0-0.7","60fe326ef1dbd49c6bcce651","D2","batch4","spm_show_trial_num","null","<p class=block-text>Trial 8 out of 60</p>","null","","","","","","","","","","","","","","","","","","","","","","","","","",""
"","","","","","image-button-response","19","162919","0.0-2.0-2.0-1.7","60fe326ef1dbd49c6bcce651","D2","batch4","spm_respsonse","2608","img/question_1_8.jpeg","1","mat_08","2","1","1","2608","","","","","","","","","","","","","","","","","","","","",""
"","","","","","html-keyboard-response","20","163972","0.0-2.0-2.0-0.8","60fe326ef1dbd49c6bcce651","D2","batch4","spm_show_trial_num","null","<p class=block-text>Trial 9 out of 60</p>","null","","","","","","","","","","","","","","","","","","","","","","","","","",""
"","","","","","image-button-response","21","167870","0.0-2.0-2.0-1.8","60fe326ef1dbd49c6bcce651","D2","batch4","spm_respsonse","3894.000000000029","img/question_1_9.jpeg","4","mat_09","1","0","0","3894.000000000029","","","","","","","","","","","","","","","","","","","","",""
"","","","","","html-keyboard-response","22","168922","0.0-2.0-2.0-0.9","60fe326ef1dbd49c6bcce651","D2","batch4","spm_show_trial_num","null","<p class=block-text>Trial 10 out of 60</p>","null","","","","","","","","","","","","","","","","","","","","","","","","","",""
"","","","","","image-button-response","23","174402","0.0-2.0-2.0-1.9","60fe326ef1dbd49c6bcce651","D2","batch4","spm_respsonse","5476","img/question_1_10.jpeg","2","mat_10","3","1","1","5476","","","","","","","","","","","","","","","","","","","","",""
"","","","","","html-keyboard-response","24","175454","0.0-2.0-2.0-0.10","60fe326ef1dbd49c6bcce651","D2","batch4","spm_show_trial_num","null","<p class=block-text>Trial 11 out of 60</p>","null","","","","","","","","","","","","","","","","","","","","","","","","","",""
"","","","","","image-button-response","25","183470","0.0-2.0-2.0-1.10","60fe326ef1dbd49c6bcce651","D2","batch4","spm_respsonse","8010","img/question_1_11.jpeg","3","mat_11","4","1","1","8010","","","","","","","","","","","","","","","","","","","","",""
"","","","","","html-keyboard-response","26","184521","0.0-2.0-2.0-0.11","60fe326ef1dbd49c6bcce651","D2","batch4","spm_show_trial_num","null","<p class=block-text>Trial 12 out of 60</p>","null","","","","","","","","","","","","","","","","","","","","","","","","","",""
"","","","","","image-button-response","27","189870","0.0-2.0-2.0-1.11","60fe326ef1dbd49c6bcce651","D2","batch4","spm_respsonse","5343.000000000029","img/question_1_12.jpeg","4","mat_12","5","1","1","5343.000000000029","","","","","","","","","","","","","","","","","","","","",""
"","","","","","html-keyboard-response","28","190921","0.0-2.0-2.0-0.12","60fe326ef1dbd49c6bcce651","D2","batch4","spm_show_trial_num","null","<p class=block-text>Trial 13 out of 60</p>","null","","","","","","","","","","","","","","","","","","","","","","","","","",""
"","","","","","image-button-response","29","193386","0.0-2.0-2.0-1.12","60fe326ef1dbd49c6bcce651","D2","batch4","spm_respsonse","2459","img/question_2_1.jpeg","1","mat_13","2","1","1","2459","","","","","","","","","","","","","","","","","","","","",""
"","","","","","html-keyboard-response","30","194439","0.0-2.0-2.0-0.13","60fe326ef1dbd49c6bcce651","D2","batch4","spm_show_trial_num","null","<p class=block-text>Trial 14 out of 60</p>","null","","","","","","","","","","","","","","","","","","","","","","","","","",""
"","","","","","image-button-response","31","198402","0.0-2.0-2.0-1.13","60fe326ef1dbd49c6bcce651","D2","batch4","spm_respsonse","3959","img/question_2_2.jpeg","5","mat_14","6","1","1","3959","","","","","","","","","","","","","","","","","","","","",""
"","","","","","html-keyboard-response","32","199455","0.0-2.0-2.0-0.14","60fe326ef1dbd49c6bcce651","D2","batch4","spm_show_trial_num","null","<p class=block-text>Trial 15 out of 60</p>","null","","","","","","","","","","","","","","","","","","","","","","","","","",""
"","","","","","image-button-response","33","203170","0.0-2.0-2.0-1.14","60fe326ef1dbd49c6bcce651","D2","batch4","spm_respsonse","3713","img/question_2_3.jpeg","0","mat_15","1","1","1","3713","","","","","","","","","","","","","","","","","","","","",""
"","","","","","html-keyboard-response","34","204223","0.0-2.0-2.0-0.15","60fe326ef1dbd49c6bcce651","D2","batch4","spm_show_trial_num","null","<p class=block-text>Trial 16 out of 60</p>","null","","","","","","","","","","","","","","","","","","","","","","","","","",""
"","","","","","image-button-response","35","207286","0.0-2.0-2.0-1.15","60fe326ef1dbd49c6bcce651","D2","batch4","spm_respsonse","3058.000000000029","img/question_2_4.jpeg","1","mat_16","2","1","1","3058.000000000029","","","","","","","","","","","","","","","","","","","","",""
"","","","","","html-keyboard-response","36","208339","0.0-2.0-2.0-0.16","60fe326ef1dbd49c6bcce651","D2","batch4","spm_show_trial_num","null","<p class=block-text>Trial 17 out of 60</p>","null","","","","","","","","","","","","","","","","","","","","","","","","","",""
"","","","","","image-button-response","37","219452","0.0-2.0-2.0-1.16","60fe326ef1dbd49c6bcce651","D2","batch4","spm_respsonse","11108","img/question_2_5.jpeg","0","mat_17","1","1","1","11108","","","","","","","","","","","","","","","","","","","","",""
"","","","","","html-keyboard-response","38","220505","0.0-2.0-2.0-0.17","60fe326ef1dbd49c6bcce651","D2","batch4","spm_show_trial_num","null","<p class=block-text>Trial 18 out of 60</p>","null","","","","","","","","","","","","","","","","","","","","","","","","","",""
"","","","","","image-button-response","39","222853","0.0-2.0-2.0-1.17","60fe326ef1dbd49c6bcce651","D2","batch4","spm_respsonse","2343","img/question_2_6.jpeg","2","mat_18","3","1","1","2343","","","","","","","","","","","","","","","","","","","","",""
"","","","","","html-keyboard-response","40","223906","0.0-2.0-2.0-0.18","60fe326ef1dbd49c6bcce651","D2","batch4","spm_show_trial_num","null","<p class=block-text>Trial 19 out of 60</p>","null","","","","","","","","","","","","","","","","","","","","","","","","","",""
"","","","","","image-button-response","41","230603","0.0-2.0-2.0-1.18","60fe326ef1dbd49c6bcce651","D2","batch4","spm_respsonse","6691.999999999971","img/question_2_7.jpeg","3","mat_19","5","0","0","6691.999999999971","","","","","","","","","","","","","","","","","","","","",""
"","","","","","html-keyboard-response","42","231655","0.0-2.0-2.0-0.19","60fe326ef1dbd49c6bcce651","D2","batch4","spm_show_trial_num","null","<p class=block-text>Trial 20 out of 60</p>","null","","","","","","","","","","","","","","","","","","","","","","","","","",""
"","","","","","image-button-response","43","239053","0.0-2.0-2.0-1.19","60fe326ef1dbd49c6bcce651","D2","batch4","spm_respsonse","7395","img/question_2_8.jpeg","5","mat_20","6","1","1","7395","","","","","","","","","","","","","","","","","","","","",""
"","","","","","html-keyboard-response","44","240105","0.0-2.0-2.0-0.20","60fe326ef1dbd49c6bcce651","D2","batch4","spm_show_trial_num","null","<p class=block-text>Trial 21 out of 60</p>","null","","","","","","","","","","","","","","","","","","","","","","","","","",""
"","","","","","image-button-response","45","244454","0.0-2.0-2.0-1.20","60fe326ef1dbd49c6bcce651","D2","batch4","spm_respsonse","4340.999999999971","img/question_2_9.jpeg","5","mat_21","4","0","0","4340.999999999971","","","","","","","","","","","","","","","","","","","","",""
"","","","","","html-keyboard-response","46","245506","0.0-2.0-2.0-0.21","60fe326ef1dbd49c6bcce651","D2","batch4","spm_show_trial_num","null","<p class=block-text>Trial 22 out of 60</p>","null","","","","","","","","","","","","","","","","","","","","","","","","","",""
"","","","","","image-button-response","47","249069","0.0-2.0-2.0-1.21","60fe326ef1dbd49c6bcce651","D2","batch4","spm_respsonse","3559","img/question_2_10.jpeg","2","mat_22","3","1","1","3559","","","","","","","","","","","","","","","","","","","","",""
"","","","","","html-keyboard-response","48","250122","0.0-2.0-2.0-0.22","60fe326ef1dbd49c6bcce651","D2","batch4","spm_show_trial_num","null","<p class=block-text>Trial 23 out of 60</p>","null","","","","","","","","","","","","","","","","","","","","","","","","","",""
"","","","","","image-button-response","49","256953","0.0-2.0-2.0-1.22","60fe326ef1dbd49c6bcce651","D2","batch4","spm_respsonse","6827","img/question_2_11.jpeg","5","mat_23","4","0","0","6827","","","","","","","","","","","","","","","","","","","","",""
"","","","","","html-keyboard-response","50","258005","0.0-2.0-2.0-0.23","60fe326ef1dbd49c6bcce651","D2","batch4","spm_show_trial_num","null","<p class=block-text>Trial 24 out of 60</p>","null","","","","","","","","","","","","","","","","","","","","","","","","","",""
"","","","","","image-button-response","51","264020","0.0-2.0-2.0-1.23","60fe326ef1dbd49c6bcce651","D2","batch4","spm_respsonse","6011.000000000029","img/question_2_12.jpeg","5","mat_24","5","0","0","6011.000000000029","","","","","","","","","","","","","","","","","","","","",""
"","","","","","html-button-response","52","266136","0.0-2.0-3.0","60fe326ef1dbd49c6bcce651","D2","batch4","attention_check","1864","<p class = block-text>Attention check: Please choose 1<br></p>","0","","","true","","","","","","","","","","","","","","","","","","","","","","",""
"","","","","","html-keyboard-response","53","266937","0.0-2.0-4.0-0.0","60fe326ef1dbd49c6bcce651","D2","batch4","spm_show_trial_num","null","<p class=block-text>Trial 25 out of 60</p>","null","","","","","","","","","","","","","","","","","","","","","","","","","",""
"","","","","","image-button-response","54","272020","0.0-2.0-4.0-1.0","60fe326ef1dbd49c6bcce651","D2","batch4","spm_respsonse","5080","img/question_3_1.jpeg","1","mat_25","8","0","0","5080","","","","","","","","","","","","","","","","","","","","",""
"","","","","","html-keyboard-response","55","273073","0.0-2.0-4.0-0.1","60fe326ef1dbd49c6bcce651","D2","batch4","spm_show_trial_num","null","<p class=block-text>Trial 26 out of 60</p>","null","","","","","","","","","","","","","","","","","","","","","","","","","",""
"","","","","","image-button-response","56","276669","0.0-2.0-4.0-1.1","60fe326ef1dbd49c6bcce651","D2","batch4","spm_respsonse","3591","img/question_3_2.jpeg","1","mat_26","2","1","1","3591","","","","","","","","","","","","","","","","","","","","",""
"","","","","","html-keyboard-response","57","277722","0.0-2.0-4.0-0.2","60fe326ef1dbd49c6bcce651","D2","batch4","spm_show_trial_num","null","<p class=block-text>Trial 27 out of 60</p>","null","","","","","","","","","","","","","","","","","","","","","","","","","",""
"","","","","","image-button-response","58","282202","0.0-2.0-4.0-1.2","60fe326ef1dbd49c6bcce651","D2","batch4","spm_respsonse","4475","img/question_3_3.jpeg","2","mat_27","3","1","1","4475","","","","","","","","","","","","","","","","","","","","",""
"","","","","","html-keyboard-response","59","283255","0.0-2.0-4.0-0.3","60fe326ef1dbd49c6bcce651","D2","batch4","spm_show_trial_num","null","<p class=block-text>Trial 28 out of 60</p>","null","","","","","","","","","","","","","","","","","","","","","","","","","",""
"","","","","","image-button-response","60","290436","0.0-2.0-4.0-1.3","60fe326ef1dbd49c6bcce651","D2","batch4","spm_respsonse","7177.000000000058","img/question_3_4.jpeg","7","mat_28","8","1","1","7177.000000000058","","","","","","","","","","","","","","","","","","","","",""
"","","","","","html-keyboard-response","61","291488","0.0-2.0-4.0-0.4","60fe326ef1dbd49c6bcce651","D2","batch4","spm_show_trial_num","null","<p class=block-text>Trial 29 out of 60</p>","null","","","","","","","","","","","","","","","","","","","","","","","","","",""
"","","","","","image-button-response","62","297052","0.0-2.0-4.0-1.4","60fe326ef1dbd49c6bcce651","D2","batch4","spm_respsonse","5560","img/question_3_5.jpeg","6","mat_29","7","1","1","5560","","","","","","","","","","","","","","","","","","","","",""
"","","","","","html-keyboard-response","63","298105","0.0-2.0-4.0-0.5","60fe326ef1dbd49c6bcce651","D2","batch4","spm_show_trial_num","null","<p class=block-text>Trial 30 out of 60</p>","null","","","","","","","","","","","","","","","","","","","","","","","","","",""
"","","","","","image-button-response","64","304120","0.0-2.0-4.0-1.5","60fe326ef1dbd49c6bcce651","D2","batch4","spm_respsonse","6009","img/question_3_6.jpeg","3","mat_30","4","1","1","6009","","","","","","","","","","","","","","","","","","","","",""
"","","","","","html-keyboard-response","65","305172","0.0-2.0-4.0-0.6","60fe326ef1dbd49c6bcce651","D2","batch4","spm_show_trial_num","null","<p class=block-text>Trial 31 out of 60</p>","null","","","","","","","","","","","","","","","","","","","","","","","","","",""
"","","","","","image-button-response","66","311252","0.0-2.0-4.0-1.6","60fe326ef1dbd49c6bcce651","D2","batch4","spm_respsonse","6076","img/question_3_7.jpeg","4","mat_31","5","1","1","6076","","","","","","","","","","","","","","","","","","","","",""
"","","","","","html-keyboard-response","67","312305","0.0-2.0-4.0-0.7","60fe326ef1dbd49c6bcce651","D2","batch4","spm_show_trial_num","null","<p class=block-text>Trial 32 out of 60</p>","null","","","","","","","","","","","","","","","","","","","","","","","","","",""
"","","","","","image-button-response","68","322052","0.0-2.0-4.0-1.7","60fe326ef1dbd49c6bcce651","D2","batch4","spm_respsonse","9742","img/question_3_8.jpeg","1","mat_32","1","0","0","9742","","","","","","","","","","","","","","","","","","","","",""
"","","","","","html-keyboard-response","69","323105","0.0-2.0-4.0-0.8","60fe326ef1dbd49c6bcce651","D2","batch4","spm_show_trial_num","null","<p class=block-text>Trial 33 out of 60</p>","null","","","","","","","","","","","","","","","","","","","","","","","","","",""
"","","","","","image-button-response","70","345419","0.0-2.0-4.0-1.8","60fe326ef1dbd49c6bcce651","D2","batch4","spm_respsonse","22308","img/question_3_9.jpeg","6","mat_33","7","1","1","22308","","","","","","","","","","","","","","","","","","","","",""
"","","","","","html-keyboard-response","71","346472","0.0-2.0-4.0-0.9","60fe326ef1dbd49c6bcce651","D2","batch4","spm_show_trial_num","null","<p class=block-text>Trial 34 out of 60</p>","null","","","","","","","","","","","","","","","","","","","","","","","","","",""
"","","","","","image-button-response","72","351187","0.0-2.0-4.0-1.9","60fe326ef1dbd49c6bcce651","D2","batch4","spm_respsonse","4709","img/question_3_10.jpeg","7","mat_34","6","0","0","4709","","","","","","","","","","","","","","","","","","","","",""
"","","","","","html-keyboard-response","73","352239","0.0-2.0-4.0-0.10","60fe326ef1dbd49c6bcce651","D2","batch4","spm_show_trial_num","null","<p class=block-text>Trial 35 out of 60</p>","null","","","","","","","","","","","","","","","","","","","","","","","","","",""
"","","","","","image-button-response","74","358337","0.0-2.0-4.0-1.10","60fe326ef1dbd49c6bcce651","D2","batch4","spm_respsonse","6091.999999999942","img/question_3_11.jpeg","6","mat_35","1","0","0","6091.999999999942","","","","","","","","","","","","","","","","","","","","",""
"","","","","","html-keyboard-response","75","359390","0.0-2.0-4.0-0.11","60fe326ef1dbd49c6bcce651","D2","batch4","spm_show_trial_num","null","<p class=block-text>Trial 36 out of 60</p>","null","","","","","","","","","","","","","","","","","","","","","","","","","",""
"","","","","","image-button-response","76","363320","0.0-2.0-4.0-1.11","60fe326ef1dbd49c6bcce651","D2","batch4","spm_respsonse","3925","img/question_3_12.jpeg","6","mat_36","2","0","0","3925","","","","","","","","","","","","","","","","","","","","",""
"","","","","","html-keyboard-response","77","364372","0.0-2.0-4.0-0.12","60fe326ef1dbd49c6bcce651","D2","batch4","spm_show_trial_num","null","<p class=block-text>Trial 37 out of 60</p>","null","","","","","","","","","","","","","","","","","","","","","","","","","",""
"","","","","","image-button-response","78","367802","0.0-2.0-4.0-1.12","60fe326ef1dbd49c6bcce651","D2","batch4","spm_respsonse","3425","img/question_4_1.jpeg","2","mat_37","3","1","1","3425","","","","","","","","","","","","","","","","","","","","",""
"","","","","","html-keyboard-response","79","368855","0.0-2.0-4.0-0.13","60fe326ef1dbd49c6bcce651","D2","batch4","spm_show_trial_num","null","<p class=block-text>Trial 38 out of 60</p>","null","","","","","","","","","","","","","","","","","","","","","","","","","",""
"","","","","","image-button-response","80","373803","0.0-2.0-4.0-1.13","60fe326ef1dbd49c6bcce651","D2","batch4","spm_respsonse","4943","img/question_4_2.jpeg","3","mat_38","4","1","1","4943","","","","","","","","","","","","","","","","","","","","",""
"","","","","","html-keyboard-response","81","374855","0.0-2.0-4.0-0.14","60fe326ef1dbd49c6bcce651","D2","batch4","spm_show_trial_num","null","<p class=block-text>Trial 39 out of 60</p>","null","","","","","","","","","","","","","","","","","","","","","","","","","",""
"","","","","","image-button-response","82","383104","0.0-2.0-4.0-1.14","60fe326ef1dbd49c6bcce651","D2","batch4","spm_respsonse","8244","img/question_4_3.jpeg","2","mat_39","3","1","1","8244","","","","","","","","","","","","","","","","","","","","",""
"","","","","","html-keyboard-response","83","384156","0.0-2.0-4.0-0.15","60fe326ef1dbd49c6bcce651","D2","batch4","spm_show_trial_num","null","<p class=block-text>Trial 40 out of 60</p>","null","","","","","","","","","","","","","","","","","","","","","","","","","",""
"","","","","","image-button-response","84","392219","0.0-2.0-4.0-1.15","60fe326ef1dbd49c6bcce651","D2","batch4","spm_respsonse","8058.999999999942","img/question_4_4.jpeg","5","mat_40","7","0","0","8058.999999999942","","","","","","","","","","","","","","","","","","","","",""
"","","","","","html-keyboard-response","85","393271","0.0-2.0-4.0-0.16","60fe326ef1dbd49c6bcce651","D2","batch4","spm_show_trial_num","null","<p class=block-text>Trial 41 out of 60</p>","null","","","","","","","","","","","","","","","","","","","","","","","","","",""
"","","","","","image-button-response","86","403119","0.0-2.0-4.0-1.16","60fe326ef1dbd49c6bcce651","D2","batch4","spm_respsonse","9844.000000000058","img/question_4_5.jpeg","7","mat_41","8","1","1","9844.000000000058","","","","","","","","","","","","","","","","","","","","",""
"","","","","","html-keyboard-response","87","404171","0.0-2.0-4.0-0.17","60fe326ef1dbd49c6bcce651","D2","batch4","spm_show_trial_num","null","<p class=block-text>Trial 42 out of 60</p>","null","","","","","","","","","","","","","","","","","","","","","","","","","",""
"","","","","","image-button-response","88","410669","0.0-2.0-4.0-1.17","60fe326ef1dbd49c6bcce651","D2","batch4","spm_respsonse","6493","img/question_4_6.jpeg","6","mat_42","6","0","0","6493","","","","","","","","","","","","","","","","","","","","",""
"","","","","","html-keyboard-response","89","411721","0.0-2.0-4.0-0.18","60fe326ef1dbd49c6bcce651","D2","batch4","spm_show_trial_num","null","<p class=block-text>Trial 43 out of 60</p>","null","","","","","","","","","","","","","","","","","","","","","","","","","",""
"","","","","","image-button-response","90","417403","0.0-2.0-4.0-1.18","60fe326ef1dbd49c6bcce651","D2","batch4","spm_respsonse","5677","img/question_4_7.jpeg","4","mat_43","5","1","1","5677","","","","","","","","","","","","","","","","","","","","",""
"","","","","","html-keyboard-response","91","418456","0.0-2.0-4.0-0.19","60fe326ef1dbd49c6bcce651","D2","batch4","spm_show_trial_num","null","<p class=block-text>Trial 44 out of 60</p>","null","","","","","","","","","","","","","","","","","","","","","","","","","",""
"","","","","","image-button-response","92","426103","0.0-2.0-4.0-1.19","60fe326ef1dbd49c6bcce651","D2","batch4","spm_respsonse","7642","img/question_4_8.jpeg","3","mat_44","4","1","1","7642","","","","","","","","","","","","","","","","","","","","",""
"","","","","","html-keyboard-response","93","427155","0.0-2.0-4.0-0.20","60fe326ef1dbd49c6bcce651","D2","batch4","spm_show_trial_num","null","<p class=block-text>Trial 45 out of 60</p>","null","","","","","","","","","","","","","","","","","","","","","","","","","",""
"","","","","","image-button-response","94","434787","0.0-2.0-4.0-1.20","60fe326ef1dbd49c6bcce651","D2","batch4","spm_respsonse","7626","img/question_4_9.jpeg","3","mat_45","1","0","0","7626","","","","","","","","","","","","","","","","","","","","",""
"","","","","","html-keyboard-response","95","435839","0.0-2.0-4.0-0.21","60fe326ef1dbd49c6bcce651","D2","batch4","spm_show_trial_num","null","<p class=block-text>Trial 46 out of 60</p>","null","","","","","","","","","","","","","","","","","","","","","","","","","",""
"","","","","","image-button-response","96","438103","0.0-2.0-4.0-1.21","60fe326ef1dbd49c6bcce651","D2","batch4","spm_respsonse","2260","img/question_4_10.jpeg","3","mat_46","2","0","0","2260","","","","","","","","","","","","","","","","","","","","",""
"","","","","","html-keyboard-response","97","439156","0.0-2.0-4.0-0.22","60fe326ef1dbd49c6bcce651","D2","batch4","spm_show_trial_num","null","<p class=block-text>Trial 47 out of 60</p>","null","","","","","","","","","","","","","","","","","","","","","","","","","",""
"","","","","","image-button-response","98","441636","0.0-2.0-4.0-1.22","60fe326ef1dbd49c6bcce651","D2","batch4","spm_respsonse","2475.000000000058","img/question_4_11.jpeg","4","mat_47","5","1","1","2475.000000000058","","","","","","","","","","","","","","","","","","","","",""
"","","","","","html-keyboard-response","99","442688","0.0-2.0-4.0-0.23","60fe326ef1dbd49c6bcce651","D2","batch4","spm_show_trial_num","null","<p class=block-text>Trial 48 out of 60</p>","null","","","","","","","","","","","","","","","","","","","","","","","","","",""
"","","","","","image-button-response","100","454486","0.0-2.0-4.0-1.23","60fe326ef1dbd49c6bcce651","D2","batch4","spm_respsonse","11794.000000000058","img/question_4_12.jpeg","7","mat_48","6","0","0","11794.000000000058","","","","","","","","","","","","","","","","","","","","",""
"","","","","","html-keyboard-response","101","455538","0.0-2.0-4.0-0.24","60fe326ef1dbd49c6bcce651","D2","batch4","spm_show_trial_num","null","<p class=block-text>Trial 49 out of 60</p>","null","","","","","","","","","","","","","","","","","","","","","","","","","",""
"","","","","","image-button-response","102","460202","0.0-2.0-4.0-1.24","60fe326ef1dbd49c6bcce651","D2","batch4","spm_respsonse","4659.000000000058","img/question_5_1.jpeg","6","mat_49","7","1","1","4659.000000000058","","","","","","","","","","","","","","","","","","","","",""
"","","","","","html-keyboard-response","103","461254","0.0-2.0-4.0-0.25","60fe326ef1dbd49c6bcce651","D2","batch4","spm_show_trial_num","null","<p class=block-text>Trial 50 out of 60</p>","null","","","","","","","","","","","","","","","","","","","","","","","","","",""
"","","","","","image-button-response","104","466719","0.0-2.0-4.0-1.25","60fe326ef1dbd49c6bcce651","D2","batch4","spm_respsonse","5461.000000000058","img/question_5_2.jpeg","2","mat_50","6","0","0","5461.000000000058","","","","","","","","","","","","","","","","","","","","",""
"","","","","","html-keyboard-response","105","467771","0.0-2.0-4.0-0.26","60fe326ef1dbd49c6bcce651","D2","batch4","spm_show_trial_num","null","<p class=block-text>Trial 51 out of 60</p>","null","","","","","","","","","","","","","","","","","","","","","","","","","",""
"","","","","","image-button-response","106","475869","0.0-2.0-4.0-1.26","60fe326ef1dbd49c6bcce651","D2","batch4","spm_respsonse","8093","img/question_5_3.jpeg","7","mat_51","8","1","1","8093","","","","","","","","","","","","","","","","","","","","",""
"","","","","","html-keyboard-response","107","476921","0.0-2.0-4.0-0.27","60fe326ef1dbd49c6bcce651","D2","batch4","spm_show_trial_num","null","<p class=block-text>Trial 52 out of 60</p>","null","","","","","","","","","","","","","","","","","","","","","","","","","",""
"","","","","","image-button-response","108","480953","0.0-2.0-4.0-1.27","60fe326ef1dbd49c6bcce651","D2","batch4","spm_respsonse","4027","img/question_5_4.jpeg","3","mat_52","2","0","0","4027","","","","","","","","","","","","","","","","","","","","",""
"","","","","","html-keyboard-response","109","482006","0.0-2.0-4.0-0.28","60fe326ef1dbd49c6bcce651","D2","batch4","spm_show_trial_num","null","<p class=block-text>Trial 53 out of 60</p>","null","","","","","","","","","","","","","","","","","","","","","","","","","",""
"","","","","","image-button-response","110","486620","0.0-2.0-4.0-1.28","60fe326ef1dbd49c6bcce651","D2","batch4","spm_respsonse","4607","img/question_5_5.jpeg","2","mat_53","1","0","0","4607","","","","","","","","","","","","","","","","","","","","",""
"","","","","","html-keyboard-response","111","487673","0.0-2.0-4.0-0.29","60fe326ef1dbd49c6bcce651","D2","batch4","spm_show_trial_num","null","<p class=block-text>Trial 54 out of 60</p>","null","","","","","","","","","","","","","","","","","","","","","","","","","",""
"","","","","","image-button-response","112","496236","0.0-2.0-4.0-1.29","60fe326ef1dbd49c6bcce651","D2","batch4","spm_respsonse","8558","img/question_5_6.jpeg","6","mat_54","5","0","0","8558","","","","","","","","","","","","","","","","","","","","",""
"","","","","","html-keyboard-response","113","497288","0.0-2.0-4.0-0.30","60fe326ef1dbd49c6bcce651","D2","batch4","spm_show_trial_num","null","<p class=block-text>Trial 55 out of 60</p>","null","","","","","","","","","","","","","","","","","","","","","","","","","",""
"","","","","","image-button-response","114","505821","0.0-2.0-4.0-1.30","60fe326ef1dbd49c6bcce651","D2","batch4","spm_respsonse","8527","img/question_5_7.jpeg","1","mat_55","1","0","0","8527","","","","","","","","","","","","","","","","","","","","",""
"","","","","","html-keyboard-response","115","506874","0.0-2.0-4.0-0.31","60fe326ef1dbd49c6bcce651","D2","batch4","spm_show_trial_num","null","<p class=block-text>Trial 56 out of 60</p>","null","","","","","","","","","","","","","","","","","","","","","","","","","",""
"","","","","","image-button-response","116","516086","0.0-2.0-4.0-1.31","60fe326ef1dbd49c6bcce651","D2","batch4","spm_respsonse","9210","img/question_5_8.jpeg","0","mat_56","6","0","0","9210","","","","","","","","","","","","","","","","","","","","",""
"","","","","","html-keyboard-response","117","517139","0.0-2.0-4.0-0.32","60fe326ef1dbd49c6bcce651","D2","batch4","spm_show_trial_num","null","<p class=block-text>Trial 57 out of 60</p>","null","","","","","","","","","","","","","","","","","","","","","","","","","",""
"","","","","","image-button-response","118","526602","0.0-2.0-4.0-1.32","60fe326ef1dbd49c6bcce651","D2","batch4","spm_respsonse","9456.999999999942","img/question_5_9.jpeg","7","mat_57","3","0","0","9456.999999999942","","","","","","","","","","","","","","","","","","","","",""
"","","","","","html-keyboard-response","119","527655","0.0-2.0-4.0-0.33","60fe326ef1dbd49c6bcce651","D2","batch4","spm_show_trial_num","null","<p class=block-text>Trial 58 out of 60</p>","null","","","","","","","","","","","","","","","","","","","","","","","","","",""
"","","","","","image-button-response","120","537619","0.0-2.0-4.0-1.33","60fe326ef1dbd49c6bcce651","D2","batch4","spm_respsonse","9962","img/question_5_10.jpeg","5","mat_58","2","0","0","9962","","","","","","","","","","","","","","","","","","","","",""
"","","","","","html-keyboard-response","121","538671","0.0-2.0-4.0-0.34","60fe326ef1dbd49c6bcce651","D2","batch4","spm_show_trial_num","null","<p class=block-text>Trial 59 out of 60</p>","null","","","","","","","","","","","","","","","","","","","","","","","","","",""
"","","","","","image-button-response","122","548386","0.0-2.0-4.0-1.34","60fe326ef1dbd49c6bcce651","D2","batch4","spm_respsonse","9711","img/question_5_11.jpeg","0","mat_59","4","0","0","9711","","","","","","","","","","","","","","","","","","","","",""
"","","","","","html-keyboard-response","123","549438","0.0-2.0-4.0-0.35","60fe326ef1dbd49c6bcce651","D2","batch4","spm_show_trial_num","null","<p class=block-text>Trial 60 out of 60</p>","null","","","","","","","","","","","","","","","","","","","","","","","","","",""
"","","","","","image-button-response","124","556585","0.0-2.0-4.0-1.35","60fe326ef1dbd49c6bcce651","D2","batch4","spm_respsonse","7142","img/question_5_12.jpeg","6","mat_60","5","0","0","7142","","","","","","","","","","","","","","","","","","","","",""
"","","","","","html-button-response","125","558486","0.0-2.0-5.0","60fe326ef1dbd49c6bcce651","D2","batch4","spm_goodbye","1649","<p class= block-text>This concludes the Standard Progressive Matrix game. Thank you for your responses!<br> When you are ready, click the button continue</p>","0","","","","","","","","","","","","","","","","","","","","","","","","","",""
"true","","","","","fullscreen","126","656456","0.0-3.0-0.0","60fe326ef1dbd49c6bcce651","D2","batch4","","","","","","","","","","","","","","","","","","","","","","","","","","","","","",""
"","","","","","instructions","127","692053","0.0-3.0-1.0-0.0-0.0","60fe326ef1dbd49c6bcce651","D2","batch4","tol-instructions","35593","","","","","","","","[{""page_index"":0,""viewing_time"":10076.000000000116},{""page_index"":1,""viewing_time"":4817},{""page_index"":2,""viewing_time"":3066.9999999998836},{""page_index"":3,""viewing_time"":6799},{""page_index"":4,""viewing_time"":5117},{""page_index"":5,""viewing_time"":2783},{""page_index"":6,""viewing_time"":2934}]","","","","","","","","","","","","","","","","","","","",""
"","","","","","html-button-response","128","692986","0.0-3.0-1.0-1.0-0.0","60fe326ef1dbd49c6bcce651","D2","batch4","tol_enter_quiz","931.9999999998836","<p class=block-text> Let's answer a few questions <br>","0","","","","","","","","","","","","","","","","","","","","","","","","","",""
"","","","","","html-button-response","129","695869","0.0-3.0-1.0-1.0-1.0","60fe326ef1dbd49c6bcce651","D2","batch4","tol_quiz","2881","<p class = block-text>True or False: You can only move the ball on top of a peg. <br></p>","1","","","false","","","","","","","","","","","","","","","","","","","","","","",""
"","","","","","html-button-response","130","696769","0.0-3.0-1.0-1.0-2.0","60fe326ef1dbd49c6bcce651","D2","batch4","tol_quiz_feedback","899","<p class = block-text>Incorrect. Remember, you can only move the ball on top of a peg.</p>","0","","","","","","","","","","","","","","","","","","","","","","","","","",""
"","","","","","html-button-response","131","698937","0.0-3.0-1.0-1.0-3.0","60fe326ef1dbd49c6bcce651","D2","batch4","tol_quiz","2167","<p class = block-text>True or False: You should try to match your board with the target board with fewest moves possible. <br></p>","0","","","true","","","","","","","","","","","","","","","","","","","","","","",""
"","","","","","html-button-response","132","699803","0.0-3.0-1.0-1.0-4.0","60fe326ef1dbd49c6bcce651","D2","batch4","tol_quiz_feedback","864","<p class = block-text>Correct! </p>","0","","","","","","","","","","","","","","","","","","","","","","","","","",""
"","","","","","html-button-response","133","700986","0.0-3.0-1.0-2.0-0.0","60fe326ef1dbd49c6bcce651","D2","batch4","","1183","<p class = block-text>You made too many incorrect choices.</p><p class = block-text>You will now repeat the instructions and quiz</p>","0","","","","","","","","","","","","","","","","","","","","","","","","","",""
"","","","","","instructions","134","708752","0.0-3.0-1.1-0.1-0.1","60fe326ef1dbd49c6bcce651","D2","batch4","tol-instructions","7765","","","","","","","","[{""page_index"":0,""viewing_time"":1583},{""page_index"":1,""viewing_time"":499},{""page_index"":2,""viewing_time"":450},{""page_index"":3,""viewing_time"":533},{""page_index"":4,""viewing_time"":833},{""page_index"":5,""viewing_time"":1117},{""page_index"":6,""viewing_time"":2750}]","","","","","","","","","","","","","","","","","","","",""
"","","","","","html-button-response","135","709552","0.0-3.0-1.1-1.1-0.1","60fe326ef1dbd49c6bcce651","D2","batch4","tol_enter_quiz","799","<p class=block-text> Let's answer a few questions <br>","0","","","","","","","","","","","","","","","","","","","","","","","","","",""
"","","","","","html-button-response","136","711452","0.0-3.0-1.1-1.1-1.1","60fe326ef1dbd49c6bcce651","D2","batch4","tol_quiz","1900.0000000001164","<p class = block-text>True or False: You can only move the ball on top of a peg. <br></p>","0","","","true","","","","","","","","","","","","","","","","","","","","","","",""
"","","","","","html-button-response","137","712352","0.0-3.0-1.1-1.1-2.1","60fe326ef1dbd49c6bcce651","D2","batch4","tol_quiz_feedback","899","<p class = block-text>Correct! You can only move the ball on top of a peg.</p>","0","","","","","","","","","","","","","","","","","","","","","","","","","",""
"","","","","","html-button-response","138","713852","0.0-3.0-1.1-1.1-3.1","60fe326ef1dbd49c6bcce651","D2","batch4","tol_quiz","1499.0000000001164","<p class = block-text>True or False: You should try to match your board with the target board with fewest moves possible. <br></p>","0","","","true","","","","","","","","","","","","","","","","","","","","","","",""
"","","","","","html-button-response","139","714719","0.0-3.0-1.1-1.1-4.1","60fe326ef1dbd49c6bcce651","D2","batch4","tol_quiz_feedback","866","<p class = block-text>Correct! </p>","0","","","","","","","","","","","","","","","","","","","","","","","","","",""
"","","","","","html-button-response","140","715369","0.0-3.0-2.0","60fe326ef1dbd49c6bcce651","D2","batch4","","649","<p class=block-text> Now that you've understood the game, let's practice a few easier examples before we start!<br> <br>","0","","","","","","","","","","","","","","","","","","","","","","","","","",""
"","","","","","single-stim-button","141","719805","0.0-3.0-3.0-0.0","60fe326ef1dbd49c6bcce651","D2","batch4","tol_practice","4433","","","","","","","","","tol_peg_2","4433","4433","0","[[1,2,0],[0,0],[0]]","1","[[1,2,0],[0,0],[3]]","practice","4433","","","","","","","","","","",""
"","","","","","single-stim-button","142","722336","0.0-3.0-3.0-1.0","60fe326ef1dbd49c6bcce651","D2","batch4","tol_practice","2529","","","","","","","","","tol_peg_3","2529","2529","0","[[1,2,0],[0,0],[3]]","1","[[1,2,0],[0,0],[3]]","practice","2529","","","","","","","","","","",""
"","","","","","poldrack-single-stim","143","723339","0.0-3.0-4.0","60fe326ef1dbd49c6bcce651","D2","batch4","tol_feedback","-1","","","","","true","","","","","1000","1000","500","","","","","","-1","none","true","","0","","","","","",""
"","","","","","single-stim-button","144","728986","0.0-3.0-5.0-0.0","60fe326ef1dbd49c6bcce651","D2","batch4","tol_practice","5647","","","","","","","","","tol_peg_1","5647","5647","0","[[1,0,0],[3,0],[0]]","2","[[0,0,0],[3,1],[2]]","practice","5647","","","","","","","","","","",""
"","","","","","single-stim-button","145","729837","0.0-3.0-5.0-1.0","60fe326ef1dbd49c6bcce651","D2","batch4","tol_practice","849","","","","","","","","","tol_peg_3","849","849","0","[[1,0,0],[3,0],[2]]","2","[[0,0,0],[3,1],[2]]","practice","849","","","","","","","","","","",""
"","","","","","single-stim-button","146","731004","0.0-3.0-5.1-0.1","60fe326ef1dbd49c6bcce651","D2","batch4","tol_practice","1165","","","","","","","","","tol_peg_1","1165","1165","0","[[0,0,0],[3,0],[2]]","3","[[0,0,0],[3,1],[2]]","practice","1165","","","","","","","","","","",""
"","","","","","single-stim-button","147","731819","0.0-3.0-5.1-1.1","60fe326ef1dbd49c6bcce651","D2","batch4","tol_practice","814","","","","","","","","","tol_peg_2","814","814","0","[[0,0,0],[3,1],[2]]","3","[[0,0,0],[3,1],[2]]","practice","814","","","","","","","","","","",""
"","","","","","poldrack-single-stim","148","732822","0.0-3.0-6.0","60fe326ef1dbd49c6bcce651","D2","batch4","tol_feedback","-1","","","","","true","","","","","1000","1000","500","","","","","","-1","none","true","","0","","","","","",""
"","","","","","single-stim-button","149","736036","0.0-3.0-7.0-0.0","60fe326ef1dbd49c6bcce651","D2","batch4","tol_practice","3213","","","","","","","","","tol_peg_2","3213","3213","0","[[1,2,0],[0,0],[0]]","4","[[1,0,0],[2,0],[3]]","practice","3213","","","","","","","","","","",""
"","","","","","single-stim-button","150","736770","0.0-3.0-7.0-1.0","60fe326ef1dbd49c6bcce651","D2","batch4","tol_practice","732","","","","","","","","","tol_peg_3","732","732","0","[[1,2,0],[0,0],[3]]","4","[[1,0,0],[2,0],[3]]","practice","732","","","","","","","","","","",""
"","","","","","single-stim-button","151","737919","0.0-3.0-7.1-0.1","60fe326ef1dbd49c6bcce651","D2","batch4","tol_practice","1146","","","","","","","","","tol_peg_1","1146","1146","0","[[1,0,0],[0,0],[3]]","5","[[1,0,0],[2,0],[3]]","practice","1146","","","","","","","","","","",""
"","","","","","single-stim-button","152","738653","0.0-3.0-7.1-1.1","60fe326ef1dbd49c6bcce651","D2","batch4","tol_practice","733","","","","","","","","","tol_peg_2","733","733","0","[[1,0,0],[2,0],[3]]","5","[[1,0,0],[2,0],[3]]","practice","733","","","","","","","","","","",""
"","","","","","poldrack-single-stim","153","739656","0.0-3.0-8.0","60fe326ef1dbd49c6bcce651","D2","batch4","tol_feedback","-1","","","","","true","","","","","1000","1000","500","","","","","","-1","none","true","","0","","","","","",""
"","","","","","html-button-response","154","741052","0.0-3.0-9.0","60fe326ef1dbd49c6bcce651","D2","batch4","tol_instruction","1396","<div class = centerbox><p class = center-block-text>Great job! You are done with practice trials<br>You are about to start official trials.<br> <br> Problem <strong>1</strong> out of 25 problems</p></div>","0","","","","","","","","","","","","","","","","","","","","","","","","","",""
"","","","","","single-stim-button","155","753919","0.0-3.0-10.0-0.0","60fe326ef1dbd49c6bcce651","D2","batch4","tol_tohand","11864","","","","","","","","","tol_peg_2","11864","11864","0","[[1,2,0],[0,0],[0]]","1","[[1,3,0],[2,0],[0]]","0","0","","","","","","3","","","","",""
"","","","","","single-stim-button","156","755586","0.0-3.0-10.0-1.0","60fe326ef1dbd49c6bcce651","D2","batch4","tol_toboard","1666","","","","","","","","","tol_peg_3","1666","1666","0","[[1,2,0],[0,0],[3]]","1","[[1,3,0],[2,0],[0]]","0","0","","","","","","3","","","","",""
"","","","","","single-stim-button","157","756519","0.0-3.0-10.1-0.1","60fe326ef1dbd49c6bcce651","D2","batch4","tol_tohand","932","","","","","","","","","tol_peg_1","932","932","0","[[1,0,0],[0,0],[3]]","2","[[1,3,0],[2,0],[0]]","0","0","","","","","","3","","","","",""
"","","","","","single-stim-button","158","757086","0.0-3.0-10.1-1.1","60fe326ef1dbd49c6bcce651","D2","batch4","tol_toboard","566","","","","","","","","","tol_peg_2","566","566","0","[[1,0,0],[2,0],[3]]","2","[[1,3,0],[2,0],[0]]","0","0","","","","","","3","","","","",""
"","","","","","single-stim-button","159","757886","0.0-3.0-10.2-0.2","60fe326ef1dbd49c6bcce651","D2","batch4","tol_tohand","799","","","","","","","","","tol_peg_3","799","799","0","[[1,0,0],[2,0],[0]]","3","[[1,3,0],[2,0],[0]]","0","0","","","","","","3","","","","",""
"","","","","","single-stim-button","160","758820","0.0-3.0-10.2-1.2","60fe326ef1dbd49c6bcce651","D2","batch4","tol_toboard","931","","","","","","","","","tol_peg_1","931","931","0","[[1,3,0],[2,0],[0]]","3","[[1,3,0],[2,0],[0]]","0","0","","","","","","3","","","","",""
"","","","","","poldrack-single-stim","161","759824","0.0-3.0-11.0","60fe326ef1dbd49c6bcce651","D2","batch4","tol_feedback","-1","","","","","true","","","","","1000","1000","500","","","","","","-1","none","true","11864","13595","","","","","",""
"","","","","","html-button-response","162","760870","0.0-3.0-12.0","60fe326ef1dbd49c6bcce651","D2","batch4","tol_trial_num","1045.0000000001164","<div class = centerbox><p class = center-block-text>problem <strong>2</strong> out of 25 problems</p></div>","0","","","","","","","","","","","","","","","","","","","","","","","","","",""
"","","","","","single-stim-button","163","763553","0.0-3.0-13.0-0.0","60fe326ef1dbd49c6bcce651","D2","batch4","tol_tohand","2683","","","","","","","","","tol_peg_1","2683","2683","0","[[1,0,0],[3,0],[0]]","1","[[2,1,3],[0,0],[0]]","1","0","","","","","","5","","","","",""
"","","","","","single-stim-button","164","764786","0.0-3.0-13.0-1.0","60fe326ef1dbd49c6bcce651","D2","batch4","tol_toboard","1231","","","","","","","","","tol_peg_3","1231","1231","0","[[1,0,0],[3,0],[2]]","1","[[2,1,3],[0,0],[0]]","1","0","","","","","","5","","","","",""
"","","","","","single-stim-button","165","766436","0.0-3.0-13.1-0.1","60fe326ef1dbd49c6bcce651","D2","batch4","tol_tohand","1647","","","","","","","","","tol_peg_2","1647","1647","0","[[1,0,0],[0,0],[2]]","2","[[2,1,3],[0,0],[0]]","1","0","","","","","","5","","","","",""
"","","","","","single-stim-button","166","767186","0.0-3.0-13.1-1.1","60fe326ef1dbd49c6bcce651","D2","batch4","tol_toboard","749","","","","","","","","","tol_peg_1","749","749","0","[[1,3,0],[0,0],[2]]","2","[[2,1,3],[0,0],[0]]","1","0","","","","","","5","","","","",""
"","","","","","single-stim-button","167","767902","0.0-3.0-13.2-0.2","60fe326ef1dbd49c6bcce651","D2","batch4","tol_tohand","715","","","","","","","","","tol_peg_3","715","715","0","[[1,3,0],[0,0],[0]]","3","[[2,1,3],[0,0],[0]]","1","0","","","","","","5","","","","",""
"","","","","","single-stim-button","168","772919","0.0-3.0-13.2-1.2","60fe326ef1dbd49c6bcce651","D2","batch4","tol_toboard","5015","","","","","","","","","tol_peg_2","5015","5015","0","[[1,3,0],[2,0],[0]]","3","[[2,1,3],[0,0],[0]]","1","0","","","","","","5","","","","",""
"","","","","","single-stim-button","169","773719","0.0-3.0-13.3-0.3","60fe326ef1dbd49c6bcce651","D2","batch4","tol_tohand","800","","","","","","","","","tol_peg_1","800","800","0","[[1,0,0],[2,0],[0]]","4","[[2,1,3],[0,0],[0]]","1","0","","","","","","5","","","","",""
"","","","","","single-stim-button","170","774302","0.0-3.0-13.3-1.3","60fe326ef1dbd49c6bcce651","D2","batch4","tol_toboard","581","","","","","","","","","tol_peg_2","581","581","0","[[1,0,0],[2,3],[0]]","4","[[2,1,3],[0,0],[0]]","1","0","","","","","","5","","","","",""
"","","","","","single-stim-button","171","775086","0.0-3.0-13.4-0.4","60fe326ef1dbd49c6bcce651","D2","batch4","tol_tohand","781","","","","","","","","","tol_peg_1","781","781","0","[[0,0,0],[2,3],[0]]","5","[[2,1,3],[0,0],[0]]","1","0","","","","","","5","","","","",""
"","","","","","single-stim-button","172","776336","0.0-3.0-13.4-1.4","60fe326ef1dbd49c6bcce651","D2","batch4","tol_toboard","1248","","","","","","","","","tol_peg_3","1248","1248","0","[[0,0,0],[2,3],[1]]","5","[[2,1,3],[0,0],[0]]","1","0","","","","","","5","","","","",""
"","","","","","single-stim-button","173","777069","0.0-3.0-13.5-0.5","60fe326ef1dbd49c6bcce651","D2","batch4","tol_tohand","732","","","","","","","","","tol_peg_2","732","732","0","[[0,0,0],[2,0],[1]]","6","[[2,1,3],[0,0],[0]]","1","0","","","","","","5","","","","",""
"","","","","","single-stim-button","174","783469","0.0-3.0-13.5-1.5","60fe326ef1dbd49c6bcce651","D2","batch4","tol_toboard","6399","","","","","","","","","tol_peg_1","6399","6399","0","[[3,0,0],[2,0],[1]]","6","[[2,1,3],[0,0],[0]]","1","0","","","","","","5","","","","",""
"","","","","","single-stim-button","175","784969","0.0-3.0-13.6-0.6","60fe326ef1dbd49c6bcce651","D2","batch4","tol_tohand","1498","","","","","","","","","tol_peg_2","1498","1498","0","[[3,0,0],[0,0],[1]]","7","[[2,1,3],[0,0],[0]]","1","0","","","","","","5","","","","",""
"","","","","","single-stim-button","176","785836","0.0-3.0-13.6-1.6","60fe326ef1dbd49c6bcce651","D2","batch4","tol_toboard","865","","","","","","","","","tol_peg_1","865","865","0","[[3,2,0],[0,0],[1]]","7","[[2,1,3],[0,0],[0]]","1","0","","","","","","5","","","","",""
"","","","","","single-stim-button","177","786736","0.0-3.0-13.7-0.7","60fe326ef1dbd49c6bcce651","D2","batch4","tol_tohand","899","","","","","","","","","tol_peg_3","899","899","0","[[3,2,0],[0,0],[0]]","8","[[2,1,3],[0,0],[0]]","1","0","","","","","","5","","","","",""
"","","","","","single-stim-button","178","787786","0.0-3.0-13.7-1.7","60fe326ef1dbd49c6bcce651","D2","batch4","tol_toboard","1050","","","","","","","","","tol_peg_1","1050","1050","0","[[3,2,1],[0,0],[0]]","8","[[2,1,3],[0,0],[0]]","1","0","","","","","","5","","","","",""
"","","","","","single-stim-button","179","789653","0.0-3.0-13.8-0.8","60fe326ef1dbd49c6bcce651","D2","batch4","tol_tohand","1864","","","","","","","","","tol_peg_1","1864","1864","0","[[3,2,0],[0,0],[0]]","9","[[2,1,3],[0,0],[0]]","1","0","","","","","","5","","","","",""
"","","","","","single-stim-button","180","790203","0.0-3.0-13.8-1.8","60fe326ef1dbd49c6bcce651","D2","batch4","tol_toboard","549","","","","","","","","","tol_peg_2","549","549","0","[[3,2,0],[1,0],[0]]","9","[[2,1,3],[0,0],[0]]","1","0","","","","","","5","","","","",""
"","","","","","single-stim-button","181","790836","0.0-3.0-13.9-0.9","60fe326ef1dbd49c6bcce651","D2","batch4","tol_tohand","632","","","","","","","","","tol_peg_1","632","632","0","[[3,0,0],[1,0],[0]]","10","[[2,1,3],[0,0],[0]]","1","0","","","","","","5","","","","",""
"","","","","","single-stim-button","182","791586","0.0-3.0-13.9-1.9","60fe326ef1dbd49c6bcce651","D2","batch4","tol_toboard","747","","","","","","","","","tol_peg_3","747","747","0","[[3,0,0],[1,0],[2]]","10","[[2,1,3],[0,0],[0]]","1","0","","","","","","5","","","","",""
"","","","","","single-stim-button","183","792437","0.0-3.0-13.10-0.10","60fe326ef1dbd49c6bcce651","D2","batch4","tol_tohand","849","","","","","","","","","tol_peg_1","849","849","0","[[0,0,0],[1,0],[2]]","11","[[2,1,3],[0,0],[0]]","1","0","","","","","","5","","","","",""
"","","","","","single-stim-button","184","793319","0.0-3.0-13.10-1.10","60fe326ef1dbd49c6bcce651","D2","batch4","tol_toboard","881","","","","","","","","","tol_peg_2","881","881","0","[[0,0,0],[1,3],[2]]","11","[[2,1,3],[0,0],[0]]","1","0","","","","","","5","","","","",""
"","","","","","single-stim-button","185","793935","0.0-3.0-13.11-0.11","60fe326ef1dbd49c6bcce651","D2","batch4","tol_tohand","615","","","","","","","","","tol_peg_3","615","615","0","[[0,0,0],[1,3],[0]]","12","[[2,1,3],[0,0],[0]]","1","0","","","","","","5","","","","",""
"","","","","","single-stim-button","186","794603","0.0-3.0-13.11-1.11","60fe326ef1dbd49c6bcce651","D2","batch4","tol_toboard","667","","","","","","","","","tol_peg_1","667","667","0","[[2,0,0],[1,3],[0]]","12","[[2,1,3],[0,0],[0]]","1","0","","","","","","5","","","","",""
"","","","","","single-stim-button","187","796403","0.0-3.0-13.12-0.12","60fe326ef1dbd49c6bcce651","D2","batch4","tol_tohand","1799","","","","","","","","","tol_peg_2","1799","1799","0","[[2,0,0],[1,0],[0]]","13","[[2,1,3],[0,0],[0]]","1","0","","","","","","5","","","","",""
"","","","","","single-stim-button","188","796952","0.0-3.0-13.12-1.12","60fe326ef1dbd49c6bcce651","D2","batch4","tol_toboard","548","","","","","","","","","tol_peg_3","548","548","0","[[2,0,0],[1,0],[3]]","13","[[2,1,3],[0,0],[0]]","1","0","","","","","","5","","","","",""
"","","","","","single-stim-button","189","797969","0.0-3.0-13.13-0.13","60fe326ef1dbd49c6bcce651","D2","batch4","tol_tohand","1016","","","","","","","","","tol_peg_2","1016","1016","0","[[2,0,0],[0,0],[3]]","14","[[2,1,3],[0,0],[0]]","1","0","","","","","","5","","","","",""
"","","","","","single-stim-button","190","798603","0.0-3.0-13.13-1.13","60fe326ef1dbd49c6bcce651","D2","batch4","tol_toboard","632","","","","","","","","","tol_peg_1","632","632","0","[[2,1,0],[0,0],[3]]","14","[[2,1,3],[0,0],[0]]","1","0","","","","","","5","","","","",""
"","","","","","single-stim-button","191","799352","0.0-3.0-13.14-0.14","60fe326ef1dbd49c6bcce651","D2","batch4","tol_tohand","748","","","","","","","","","tol_peg_3","748","748","0","[[2,1,0],[0,0],[0]]","15","[[2,1,3],[0,0],[0]]","1","0","","","","","","5","","","","",""
"","","","","","single-stim-button","192","799969","0.0-3.0-13.14-1.14","60fe326ef1dbd49c6bcce651","D2","batch4","tol_toboard","616","","","","","","","","","tol_peg_1","616","616","0","[[2,1,3],[0,0],[0]]","15","[[2,1,3],[0,0],[0]]","1","0","","","","","","5","","","","",""
"","","","","","poldrack-single-stim","193","800972","0.0-3.0-14.0","60fe326ef1dbd49c6bcce651","D2","batch4","tol_feedback","-1","","","","","true","","","","","1000","1000","500","","","","","","-1","none","true","2683","17278","","","","","",""
"","","","","","html-button-response","194","802069","0.0-3.0-15.0","60fe326ef1dbd49c6bcce651","D2","batch4","tol_trial_num","1097","<div class = centerbox><p class = center-block-text>problem <strong>3</strong> out of 25 problems</p></div>","0","","","","","","","","","","","","","","","","","","","","","","","","","",""
"","","","","","single-stim-button","195","806469","0.0-3.0-16.0-0.0","60fe326ef1dbd49c6bcce651","D2","batch4","tol_tohand","4399","","","","","","","","","tol_peg_1","4399","4399","0","[[2,0,0],[0,0],[1]]","1","[[1,2,0],[3,0],[0]]","2","0","","","","","","4","","","","",""
"","","","","","single-stim-button","196","807919","0.0-3.0-16.0-1.0","60fe326ef1dbd49c6bcce651","D2","batch4","tol_toboard","1448","","","","","","","","","tol_peg_2","1448","1448","0","[[2,0,0],[3,0],[1]]","1","[[1,2,0],[3,0],[0]]","2","0","","","","","","4","","","","",""
"","","","","","single-stim-button","197","808702","0.0-3.0-16.1-0.1","60fe326ef1dbd49c6bcce651","D2","batch4","tol_tohand","782","","","","","","","","","tol_peg_1","782","782","0","[[0,0,0],[3,0],[1]]","2","[[1,2,0],[3,0],[0]]","2","0","","","","","","4","","","","",""
"","","","","","single-stim-button","198","809304","0.0-3.0-16.1-1.1","60fe326ef1dbd49c6bcce651","D2","batch4","tol_toboard","601","","","","","","","","","tol_peg_2","601","601","0","[[0,0,0],[3,2],[1]]","2","[[1,2,0],[3,0],[0]]","2","0","","","","","","4","","","","",""
"","","","","","single-stim-button","199","809887","0.0-3.0-16.2-0.2","60fe326ef1dbd49c6bcce651","D2","batch4","tol_tohand","581","","","","","","","","","tol_peg_3","581","581","0","[[0,0,0],[3,2],[0]]","3","[[1,2,0],[3,0],[0]]","2","0","","","","","","4","","","","",""
"","","","","","single-stim-button","200","810887","0.0-3.0-16.2-1.2","60fe326ef1dbd49c6bcce651","D2","batch4","tol_toboard","999","","","","","","","","","tol_peg_1","999","999","0","[[1,0,0],[3,2],[0]]","3","[[1,2,0],[3,0],[0]]","2","0","","","","","","4","","","","",""
"","","","","","single-stim-button","201","811985","0.0-3.0-16.3-0.3","60fe326ef1dbd49c6bcce651","D2","batch4","tol_tohand","1096","","","","","","","","","tol_peg_2","1096","1096","0","[[1,0,0],[3,0],[0]]","4","[[1,2,0],[3,0],[0]]","2","0","","","","","","4","","","","",""
"","","","","","single-stim-button","202","812552","0.0-3.0-16.3-1.3","60fe326ef1dbd49c6bcce651","D2","batch4","tol_toboard","565","","","","","","","","","tol_peg_1","565","565","0","[[1,2,0],[3,0],[0]]","4","[[1,2,0],[3,0],[0]]","2","0","","","","","","4","","","","",""
"","","","","","poldrack-single-stim","203","813555","0.0-3.0-17.0","60fe326ef1dbd49c6bcce651","D2","batch4","tol_feedback","-1","","","","","true","","","","","1000","1000","500","","","","","","-1","none","true","4399","6858","","","","","",""
"","","","","","html-button-response","204","814603","0.0-3.0-18.0","60fe326ef1dbd49c6bcce651","D2","batch4","tol_trial_num","1047","<div class = centerbox><p class = center-block-text>problem <strong>4</strong> out of 25 problems</p></div>","0","","","","","","","","","","","","","","","","","","","","","","","","","",""
"","","","","","single-stim-button","205","817902","0.0-3.0-19.0-0.0","60fe326ef1dbd49c6bcce651","D2","batch4","tol_tohand","3299","","","","","","","","","tol_peg_2","3299","3299","0","[[3,0,0],[2,0],[0]]","1","[[3,0,0],[1,0],[2]]","3","0","","","","","","3","","","","",""
"","","","","","single-stim-button","206","818786","0.0-3.0-19.0-1.0","60fe326ef1dbd49c6bcce651","D2","batch4","tol_toboard","883","","","","","","","","","tol_peg_1","883","883","0","[[3,1,0],[2,0],[0]]","1","[[3,0,0],[1,0],[2]]","3","0","","","","","","3","","","","",""
"","","","","","single-stim-button","207","819586","0.0-3.0-19.1-0.1","60fe326ef1dbd49c6bcce651","D2","batch4","tol_tohand","798","","","","","","","","","tol_peg_2","798","798","0","[[3,1,0],[0,0],[0]]","2","[[3,0,0],[1,0],[2]]","3","0","","","","","","3","","","","",""
"","","","","","single-stim-button","208","820353","0.0-3.0-19.1-1.1","60fe326ef1dbd49c6bcce651","D2","batch4","tol_toboard","765","","","","","","","","","tol_peg_3","765","765","0","[[3,1,0],[0,0],[2]]","2","[[3,0,0],[1,0],[2]]","3","0","","","","","","3","","","","",""
"","","","","","single-stim-button","209","821069","0.0-3.0-19.2-0.2","60fe326ef1dbd49c6bcce651","D2","batch4","tol_tohand","714","","","","","","","","","tol_peg_1","714","714","0","[[3,0,0],[0,0],[2]]","3","[[3,0,0],[1,0],[2]]","3","0","","","","","","3","","","","",""
"","","","","","single-stim-button","210","821586","0.0-3.0-19.2-1.2","60fe326ef1dbd49c6bcce651","D2","batch4","tol_toboard","517","","","","","","","","","tol_peg_2","517","517","0","[[3,0,0],[1,0],[2]]","3","[[3,0,0],[1,0],[2]]","3","0","","","","","","3","","","","",""
"","","","","","poldrack-single-stim","211","822590","0.0-3.0-20.0","60fe326ef1dbd49c6bcce651","D2","batch4","tol_feedback","-1","","","","","true","","","","","1000","1000","500","","","","","","-1","none","true","3299","4811","","","","","",""
"","","","","","html-button-response","212","823603","0.0-3.0-21.0","60fe326ef1dbd49c6bcce651","D2","batch4","tol_trial_num","1012","<div class = centerbox><p class = center-block-text>problem <strong>5</strong> out of 25 problems</p></div>","0","","","","","","","","","","","","","","","","","","","","","","","","","",""
"","","","","","single-stim-button","213","831102","0.0-3.0-22.0-0.0","60fe326ef1dbd49c6bcce651","D2","batch4","tol_tohand","7499","","","","","","","","","tol_peg_3","7499","7499","0","[[1,0,0],[2,0],[0]]","1","[[0,0,0],[1,2],[3]]","4","0","","","","","","7","","","","",""
"","","","","","single-stim-button","214","837386","0.0-3.0-22.0-1.0","60fe326ef1dbd49c6bcce651","D2","batch4","tol_toboard","6283","","","","","","","","","tol_peg_3","6283","6283","0","[[1,0,0],[2,0],[3]]","1","[[0,0,0],[1,2],[3]]","4","0","","","","","","7","","","","",""
"","","","","","single-stim-button","215","838819","0.0-3.0-22.1-0.1","60fe326ef1dbd49c6bcce651","D2","batch4","tol_tohand","1432","","","","","","","","","tol_peg_2","1432","1432","0","[[1,0,0],[0,0],[3]]","2","[[0,0,0],[1,2],[3]]","4","0","","","","","","7","","","","",""
"","","","","","single-stim-button","216","839802","0.0-3.0-22.1-1.1","60fe326ef1dbd49c6bcce651","D2","batch4","tol_toboard","982","","","","","","","","","tol_peg_1","982","982","0","[[1,2,0],[0,0],[3]]","2","[[0,0,0],[1,2],[3]]","4","0","","","","","","7","","","","",""
"","","","","","single-stim-button","217","841402","0.0-3.0-22.2-0.2","60fe326ef1dbd49c6bcce651","D2","batch4","tol_tohand","1599","","","","","","","","","tol_peg_1","1599","1599","0","[[1,0,0],[0,0],[3]]","3","[[0,0,0],[1,2],[3]]","4","0","","","","","","7","","","","",""
"","","","","","single-stim-button","218","842269","0.0-3.0-22.2-1.2","60fe326ef1dbd49c6bcce651","D2","batch4","tol_toboard","865","","","","","","","","","tol_peg_2","865","865","0","[[1,0,0],[2,0],[3]]","3","[[0,0,0],[1,2],[3]]","4","0","","","","","","7","","","","",""
"","","","","","single-stim-button","219","844286","0.0-3.0-22.3-0.3","60fe326ef1dbd49c6bcce651","D2","batch4","tol_tohand","2016","","","","","","","","","tol_peg_3","2016","2016","0","[[1,0,0],[2,0],[0]]","4","[[0,0,0],[1,2],[3]]","4","0","","","","","","7","","","","",""
"","","","","","single-stim-button","220","845203","0.0-3.0-22.3-1.3","60fe326ef1dbd49c6bcce651","D2","batch4","tol_toboard","915","","","","","","","","","tol_peg_1","915","915","0","[[1,3,0],[2,0],[0]]","4","[[0,0,0],[1,2],[3]]","4","0","","","","","","7","","","","",""
"","","","","","single-stim-button","221","846119","0.0-3.0-22.4-0.4","60fe326ef1dbd49c6bcce651","D2","batch4","tol_tohand","914","","","","","","","","","tol_peg_2","914","914","0","[[1,3,0],[0,0],[0]]","5","[[0,0,0],[1,2],[3]]","4","0","","","","","","7","","","","",""
"","","","","","single-stim-button","222","847319","0.0-3.0-22.4-1.4","60fe326ef1dbd49c6bcce651","D2","batch4","tol_toboard","1200","","","","","","","","","tol_peg_3","1200","1200","0","[[1,3,0],[0,0],[2]]","5","[[0,0,0],[1,2],[3]]","4","0","","","","","","7","","","","",""
"","","","","","single-stim-button","223","850402","0.0-3.0-22.5-0.5","60fe326ef1dbd49c6bcce651","D2","batch4","tol_tohand","3081","","","","","","","","","tol_peg_1","3081","3081","0","[[1,0,0],[0,0],[2]]","6","[[0,0,0],[1,2],[3]]","4","0","","","","","","7","","","","",""
"","","","","","single-stim-button","224","850985","0.0-3.0-22.5-1.5","60fe326ef1dbd49c6bcce651","D2","batch4","tol_toboard","582","","","","","","","","","tol_peg_2","582","582","0","[[1,0,0],[3,0],[2]]","6","[[0,0,0],[1,2],[3]]","4","0","","","","","","7","","","","",""
"","","","","","single-stim-button","225","851919","0.0-3.0-22.6-0.6","60fe326ef1dbd49c6bcce651","D2","batch4","tol_tohand","933","","","","","","","","","tol_peg_1","933","933","0","[[0,0,0],[3,0],[2]]","7","[[0,0,0],[1,2],[3]]","4","0","","","","","","7","","","","",""
"","","","","","single-stim-button","226","852436","0.0-3.0-22.6-1.6","60fe326ef1dbd49c6bcce651","D2","batch4","tol_toboard","516","","","","","","","","","tol_peg_2","516","516","0","[[0,0,0],[3,1],[2]]","7","[[0,0,0],[1,2],[3]]","4","0","","","","","","7","","","","",""
"","","","","","single-stim-button","227","860869","0.0-3.0-22.7-0.7","60fe326ef1dbd49c6bcce651","D2","batch4","tol_tohand","8433","","","","","","","","","tol_peg_3","8433","8433","0","[[0,0,0],[3,1],[0]]","8","[[0,0,0],[1,2],[3]]","4","0","","","","","","7","","","","",""
"","","","","","single-stim-button","228","862203","0.0-3.0-22.7-1.7","60fe326ef1dbd49c6bcce651","D2","batch4","tol_toboard","1333","","","","","","","","","tol_peg_1","1333","1333","0","[[2,0,0],[3,1],[0]]","8","[[0,0,0],[1,2],[3]]","4","0","","","","","","7","","","","",""
"","","","","","single-stim-button","229","862936","0.0-3.0-22.8-0.8","60fe326ef1dbd49c6bcce651","D2","batch4","tol_tohand","731","","","","","","","","","tol_peg_2","731","731","0","[[2,0,0],[3,0],[0]]","9","[[0,0,0],[1,2],[3]]","4","0","","","","","","7","","","","",""
"","","","","","single-stim-button","230","863420","0.0-3.0-22.8-1.8","60fe326ef1dbd49c6bcce651","D2","batch4","tol_toboard","482","","","","","","","","","tol_peg_1","482","482","0","[[2,1,0],[3,0],[0]]","9","[[0,0,0],[1,2],[3]]","4","0","","","","","","7","","","","",""
"","","","","","single-stim-button","231","864002","0.0-3.0-22.9-0.9","60fe326ef1dbd49c6bcce651","D2","batch4","tol_tohand","580","","","","","","","","","tol_peg_2","580","580","0","[[2,1,0],[0,0],[0]]","10","[[0,0,0],[1,2],[3]]","4","0","","","","","","7","","","","",""
"","","","","","single-stim-button","232","864736","0.0-3.0-22.9-1.9","60fe326ef1dbd49c6bcce651","D2","batch4","tol_toboard","731","","","","","","","","","tol_peg_3","731","731","0","[[2,1,0],[0,0],[3]]","10","[[0,0,0],[1,2],[3]]","4","0","","","","","","7","","","","",""
"","","","","","single-stim-button","233","865720","0.0-3.0-22.10-0.10","60fe326ef1dbd49c6bcce651","D2","batch4","tol_tohand","980","","","","","","","","","tol_peg_1","980","980","0","[[2,0,0],[0,0],[3]]","11","[[0,0,0],[1,2],[3]]","4","0","","","","","","7","","","","",""
"","","","","","single-stim-button","234","866186","0.0-3.0-22.10-1.10","60fe326ef1dbd49c6bcce651","D2","batch4","tol_toboard","463","","","","","","","","","tol_peg_2","463","463","0","[[2,0,0],[1,0],[3]]","11","[[0,0,0],[1,2],[3]]","4","0","","","","","","7","","","","",""
"","","","","","single-stim-button","235","866869","0.0-3.0-22.11-0.11","60fe326ef1dbd49c6bcce651","D2","batch4","tol_tohand","683","","","","","","","","","tol_peg_1","683","683","0","[[0,0,0],[1,0],[3]]","12","[[0,0,0],[1,2],[3]]","4","0","","","","","","7","","","","",""
"","","","","","single-stim-button","236","867320","0.0-3.0-22.11-1.11","60fe326ef1dbd49c6bcce651","D2","batch4","tol_toboard","448","","","","","","","","","tol_peg_2","448","448","0","[[0,0,0],[1,2],[3]]","12","[[0,0,0],[1,2],[3]]","4","0","","","","","","7","","","","",""
"","","","","","poldrack-single-stim","237","868322","0.0-3.0-23.0","60fe326ef1dbd49c6bcce651","D2","batch4","tol_feedback","-1","","","","","true","","","","","1000","1000","500","","","","","","-1","none","true","7499","28881","","","","","",""
"","","","","","html-button-response","238","869368","0.0-3.0-24.0","60fe326ef1dbd49c6bcce651","D2","batch4","tol_trial_num","1046","<div class = centerbox><p class = center-block-text>problem <strong>6</strong> out of 25 problems</p></div>","0","","","","","","","","","","","","","","","","","","","","","","","","","",""
"","","","","","single-stim-button","239","873286","0.0-3.0-25.0-0.0","60fe326ef1dbd49c6bcce651","D2","batch4","tol_tohand","3917","","","","","","","","","tol_peg_3","3917","3917","0","[[0,0,0],[1,2],[0]]","1","[[1,0,0],[2,3],[0]]","5","0","","","","","","6","","","","",""
"","","","","","single-stim-button","240","881169","0.0-3.0-25.0-1.0","60fe326ef1dbd49c6bcce651","D2","batch4","tol_toboard","7881","","","","","","","","","tol_peg_3","7881","7881","0","[[0,0,0],[1,2],[3]]","1","[[1,0,0],[2,3],[0]]","5","0","","","","","","6","","","","",""
"","","","","","single-stim-button","241","881770","0.0-3.0-25.1-0.1","60fe326ef1dbd49c6bcce651","D2","batch4","tol_tohand","600","","","","","","","","","tol_peg_2","600","600","0","[[0,0,0],[1,0],[3]]","2","[[1,0,0],[2,3],[0]]","5","0","","","","","","6","","","","",""
"","","","","","single-stim-button","242","882385","0.0-3.0-25.1-1.1","60fe326ef1dbd49c6bcce651","D2","batch4","tol_toboard","614","","","","","","","","","tol_peg_1","614","614","0","[[2,0,0],[1,0],[3]]","2","[[1,0,0],[2,3],[0]]","5","0","","","","","","6","","","","",""
"","","","","","single-stim-button","243","883002","0.0-3.0-25.2-0.2","60fe326ef1dbd49c6bcce651","D2","batch4","tol_tohand","615","","","","","","","","","tol_peg_3","615","615","0","[[2,0,0],[1,0],[0]]","3","[[1,0,0],[2,3],[0]]","5","0","","","","","","6","","","","",""
"","","","","","single-stim-button","244","883889","0.0-3.0-25.2-1.2","60fe326ef1dbd49c6bcce651","D2","batch4","tol_toboard","884","","","","","","","","","tol_peg_1","884","884","0","[[2,3,0],[1,0],[0]]","3","[[1,0,0],[2,3],[0]]","5","0","","","","","","6","","","","",""
"","","","","","single-stim-button","245","885703","0.0-3.0-25.3-0.3","60fe326ef1dbd49c6bcce651","D2","batch4","tol_tohand","1814","","","","","","","","","tol_peg_2","1814","1814","0","[[2,3,0],[0,0],[0]]","4","[[1,0,0],[2,3],[0]]","5","0","","","","","","6","","","","",""
"","","","","","single-stim-button","246","886253","0.0-3.0-25.3-1.3","60fe326ef1dbd49c6bcce651","D2","batch4","tol_toboard","548","","","","","","","","","tol_peg_3","548","548","0","[[2,3,0],[0,0],[1]]","4","[[1,0,0],[2,3],[0]]","5","0","","","","","","6","","","","",""
"","","","","","single-stim-button","247","889753","0.0-3.0-25.4-0.4","60fe326ef1dbd49c6bcce651","D2","batch4","tol_tohand","3499","","","","","","","","","tol_peg_1","3499","3499","0","[[2,0,0],[0,0],[1]]","5","[[1,0,0],[2,3],[0]]","5","0","","","","","","6","","","","",""
"","","","","","single-stim-button","248","890435","0.0-3.0-25.4-1.4","60fe326ef1dbd49c6bcce651","D2","batch4","tol_toboard","681","","","","","","","","","tol_peg_2","681","681","0","[[2,0,0],[3,0],[1]]","5","[[1,0,0],[2,3],[0]]","5","0","","","","","","6","","","","",""
"","","","","","single-stim-button","249","892135","0.0-3.0-25.5-0.5","60fe326ef1dbd49c6bcce651","D2","batch4","tol_tohand","1699","","","","","","","","","tol_peg_3","1699","1699","0","[[2,0,0],[3,0],[0]]","6","[[1,0,0],[2,3],[0]]","5","0","","","","","","6","","","","",""
"","","","","","single-stim-button","250","894053","0.0-3.0-25.5-1.5","60fe326ef1dbd49c6bcce651","D2","batch4","tol_toboard","1917","","","","","","","","","tol_peg_3","1917","1917","0","[[2,0,0],[3,0],[1]]","6","[[1,0,0],[2,3],[0]]","5","0","","","","","","6","","","","",""
"","","","","","single-stim-button","251","894803","0.0-3.0-25.6-0.6","60fe326ef1dbd49c6bcce651","D2","batch4","tol_tohand","748","","","","","","","","","tol_peg_1","748","748","0","[[0,0,0],[3,0],[1]]","7","[[1,0,0],[2,3],[0]]","5","0","","","","","","6","","","","",""
"","","","","","single-stim-button","252","895369","0.0-3.0-25.6-1.6","60fe326ef1dbd49c6bcce651","D2","batch4","tol_toboard","563","","","","","","","","","tol_peg_2","563","563","0","[[0,0,0],[3,2],[1]]","7","[[1,0,0],[2,3],[0]]","5","0","","","","","","6","","","","",""
"","","","","","single-stim-button","253","899619","0.0-3.0-25.7-0.7","60fe326ef1dbd49c6bcce651","D2","batch4","tol_tohand","4248","","","","","","","","","tol_peg_2","4248","4248","0","[[0,0,0],[3,0],[1]]","8","[[1,0,0],[2,3],[0]]","5","0","","","","","","6","","","","",""
"","","","","","single-stim-button","254","900752","0.0-3.0-25.7-1.7","60fe326ef1dbd49c6bcce651","D2","batch4","tol_toboard","1132","","","","","","","","","tol_peg_2","1132","1132","0","[[0,0,0],[3,2],[1]]","8","[[1,0,0],[2,3],[0]]","5","0","","","","","","6","","","","",""
"","","","","","single-stim-button","255","903269","0.0-3.0-25.8-0.8","60fe326ef1dbd49c6bcce651","D2","batch4","tol_tohand","2514","","","","","","","","","tol_peg_3","2514","2514","0","[[0,0,0],[3,2],[0]]","9","[[1,0,0],[2,3],[0]]","5","0","","","","","","6","","","","",""
"","","","","","single-stim-button","256","904769","0.0-3.0-25.8-1.8","60fe326ef1dbd49c6bcce651","D2","batch4","tol_toboard","1500","","","","","","","","","tol_peg_3","1500","1500","0","[[0,0,0],[3,2],[1]]","9","[[1,0,0],[2,3],[0]]","5","0","","","","","","6","","","","",""
"","","","","","single-stim-button","257","908303","0.0-3.0-25.9-0.9","60fe326ef1dbd49c6bcce651","D2","batch4","tol_tohand","3533","","","","","","","","","tol_peg_3","3533","3533","0","[[0,0,0],[3,2],[0]]","10","[[1,0,0],[2,3],[0]]","5","0","","","","","","6","","","","",""
"","","","","","single-stim-button","258","909636","0.0-3.0-25.9-1.9","60fe326ef1dbd49c6bcce651","D2","batch4","tol_toboard","1331","","","","","","","","","tol_peg_1","1331","1331","0","[[1,0,0],[3,2],[0]]","10","[[1,0,0],[2,3],[0]]","5","0","","","","","","6","","","","",""
"","","","","","single-stim-button","259","913119","0.0-3.0-25.10-0.10","60fe326ef1dbd49c6bcce651","D2","batch4","tol_tohand","3482","","","","","","","","","tol_peg_2","3482","3482","0","[[1,0,0],[3,0],[0]]","11","[[1,0,0],[2,3],[0]]","5","0","","","","","","6","","","","",""
"","","","","","single-stim-button","260","913752","0.0-3.0-25.10-1.10","60fe326ef1dbd49c6bcce651","D2","batch4","tol_toboard","632","","","","","","","","","tol_peg_3","632","632","0","[[1,0,0],[3,0],[2]]","11","[[1,0,0],[2,3],[0]]","5","0","","","","","","6","","","","",""
"","","","","","single-stim-button","261","914370","0.0-3.0-25.11-0.11","60fe326ef1dbd49c6bcce651","D2","batch4","tol_tohand","616","","","","","","","","","tol_peg_2","616","616","0","[[1,0,0],[0,0],[2]]","12","[[1,0,0],[2,3],[0]]","5","0","","","","","","6","","","","",""
"","","","","","single-stim-button","262","914936","0.0-3.0-25.11-1.11","60fe326ef1dbd49c6bcce651","D2","batch4","tol_toboard","564","","","","","","","","","tol_peg_1","564","564","0","[[1,3,0],[0,0],[2]]","12","[[1,0,0],[2,3],[0]]","5","0","","","","","","6","","","","",""
"","","","","","single-stim-button","263","915571","0.0-3.0-25.12-0.12","60fe326ef1dbd49c6bcce651","D2","batch4","tol_tohand","634","","","","","","","","","tol_peg_3","634","634","0","[[1,3,0],[0,0],[0]]","13","[[1,0,0],[2,3],[0]]","5","0","","","","","","6","","","","",""
"","","","","","single-stim-button","264","916703","0.0-3.0-25.12-1.12","60fe326ef1dbd49c6bcce651","D2","batch4","tol_toboard","1130","","","","","","","","","tol_peg_1","1130","1130","0","[[1,3,2],[0,0],[0]]","13","[[1,0,0],[2,3],[0]]","5","0","","","","","","6","","","","",""
"","","","","","single-stim-button","265","918319","0.0-3.0-25.13-0.13","60fe326ef1dbd49c6bcce651","D2","batch4","tol_tohand","1615","","","","","","","","","tol_peg_1","1615","1615","0","[[1,3,0],[0,0],[0]]","14","[[1,0,0],[2,3],[0]]","5","0","","","","","","6","","","","",""
"","","","","","single-stim-button","266","918852","0.0-3.0-25.13-1.13","60fe326ef1dbd49c6bcce651","D2","batch4","tol_toboard","532","","","","","","","","","tol_peg_2","532","532","0","[[1,3,0],[2,0],[0]]","14","[[1,0,0],[2,3],[0]]","5","0","","","","","","6","","","","",""
"","","","","","single-stim-button","267","920019","0.0-3.0-25.14-0.14","60fe326ef1dbd49c6bcce651","D2","batch4","tol_tohand","1165","","","","","","","","","tol_peg_1","1165","1165","0","[[1,0,0],[2,0],[0]]","15","[[1,0,0],[2,3],[0]]","5","0","","","","","","6","","","","",""
"","","","","","single-stim-button","268","920535","0.0-3.0-25.14-1.14","60fe326ef1dbd49c6bcce651","D2","batch4","tol_toboard","516","","","","","","","","","tol_peg_2","516","516","0","[[1,0,0],[2,3],[0]]","15","[[1,0,0],[2,3],[0]]","5","0","","","","","","6","","","","",""
"","","","","","poldrack-single-stim","269","921537","0.0-3.0-26.0","60fe326ef1dbd49c6bcce651","D2","batch4","tol_feedback","-1","","","","","true","","","","","1000","1000","500","","","","","","-1","none","true","3917","30699","","","","","",""
"","","","","","html-button-response","270","922468","0.0-3.0-27.0","60fe326ef1dbd49c6bcce651","D2","batch4","tol_trial_num","931","<div class = centerbox><p class = center-block-text>problem <strong>7</strong> out of 25 problems</p></div>","0","","","","","","","","","","","","","","","","","","","","","","","","","",""
"","","","","","single-stim-button","271","926635","0.0-3.0-28.0-0.0","60fe326ef1dbd49c6bcce651","D2","batch4","tol_tohand","4166","","","","","","","","","tol_peg_1","4166","4166","0","[[2,0,0],[0,0],[3]]","1","[[1,2,0],[3,0],[0]]","6","0","","","","","","5","","","","",""
"","","","","","single-stim-button","272","929135","0.0-3.0-28.0-1.0","60fe326ef1dbd49c6bcce651","D2","batch4","tol_toboard","2498","","","","","","","","","tol_peg_2","2498","2498","0","[[2,0,0],[1,0],[3]]","1","[[1,2,0],[3,0],[0]]","6","0","","","","","","5","","","","",""
"","","","","","single-stim-button","273","934403","0.0-3.0-28.1-0.1","60fe326ef1dbd49c6bcce651","D2","batch4","tol_tohand","5265","","","","","","","","","tol_peg_2","5265","5265","0","[[2,0,0],[0,0],[3]]","2","[[1,2,0],[3,0],[0]]","6","0","","","","","","5","","","","",""
"","","","","","single-stim-button","274","934935","0.0-3.0-28.1-1.1","60fe326ef1dbd49c6bcce651","D2","batch4","tol_toboard","531","","","","","","","","","tol_peg_1","531","531","0","[[2,1,0],[0,0],[3]]","2","[[1,2,0],[3,0],[0]]","6","0","","","","","","5","","","","",""
"","","","","","single-stim-button","275","935719","0.0-3.0-28.2-0.2","60fe326ef1dbd49c6bcce651","D2","batch4","tol_tohand","782","","","","","","","","","tol_peg_3","782","782","0","[[2,1,0],[0,0],[0]]","3","[[1,2,0],[3,0],[0]]","6","0","","","","","","5","","","","",""
"","","","","","single-stim-button","276","936303","0.0-3.0-28.2-1.2","60fe326ef1dbd49c6bcce651","D2","batch4","tol_toboard","583","","","","","","","","","tol_peg_2","583","583","0","[[2,1,0],[3,0],[0]]","3","[[1,2,0],[3,0],[0]]","6","0","","","","","","5","","","","",""
"","","","","","single-stim-button","277","937369","0.0-3.0-28.3-0.3","60fe326ef1dbd49c6bcce651","D2","batch4","tol_tohand","1064","","","","","","","","","tol_peg_1","1064","1064","0","[[2,0,0],[3,0],[0]]","4","[[1,2,0],[3,0],[0]]","6","0","","","","","","5","","","","",""
"","","","","","single-stim-button","278","938202","0.0-3.0-28.3-1.3","60fe326ef1dbd49c6bcce651","D2","batch4","tol_toboard","831","","","","","","","","","tol_peg_3","831","831","0","[[2,0,0],[3,0],[1]]","4","[[1,2,0],[3,0],[0]]","6","0","","","","","","5","","","","",""
"","","","","","single-stim-button","279","939869","0.0-3.0-28.4-0.4","60fe326ef1dbd49c6bcce651","D2","batch4","tol_tohand","1664","","","","","","","","","tol_peg_1","1664","1664","0","[[0,0,0],[3,0],[1]]","5","[[1,2,0],[3,0],[0]]","6","0","","","","","","5","","","","",""
"","","","","","single-stim-button","280","941154","0.0-3.0-28.4-1.4","60fe326ef1dbd49c6bcce651","D2","batch4","tol_toboard","1284","","","","","","","","","tol_peg_2","1284","1284","0","[[0,0,0],[3,2],[1]]","5","[[1,2,0],[3,0],[0]]","6","0","","","","","","5","","","","",""
"","","","","","single-stim-button","281","941852","0.0-3.0-28.5-0.5","60fe326ef1dbd49c6bcce651","D2","batch4","tol_tohand","696","","","","","","","","","tol_peg_3","696","696","0","[[0,0,0],[3,2],[0]]","6","[[1,2,0],[3,0],[0]]","6","0","","","","","","5","","","","",""
"","","","","","single-stim-button","282","942936","0.0-3.0-28.5-1.5","60fe326ef1dbd49c6bcce651","D2","batch4","tol_toboard","1082","","","","","","","","","tol_peg_1","1082","1082","0","[[1,0,0],[3,2],[0]]","6","[[1,2,0],[3,0],[0]]","6","0","","","","","","5","","","","",""
"","","","","","single-stim-button","283","943536","0.0-3.0-28.6-0.6","60fe326ef1dbd49c6bcce651","D2","batch4","tol_tohand","599","","","","","","","","","tol_peg_2","599","599","0","[[1,0,0],[3,0],[0]]","7","[[1,2,0],[3,0],[0]]","6","0","","","","","","5","","","","",""
"","","","","","single-stim-button","284","944119","0.0-3.0-28.6-1.6","60fe326ef1dbd49c6bcce651","D2","batch4","tol_toboard","580","","","","","","","","","tol_peg_1","580","580","0","[[1,2,0],[3,0],[0]]","7","[[1,2,0],[3,0],[0]]","6","0","","","","","","5","","","","",""
"","","","","","poldrack-single-stim","285","945121","0.0-3.0-29.0","60fe326ef1dbd49c6bcce651","D2","batch4","tol_feedback","-1","","","","","true","","","","","1000","1000","500","","","","","","-1","none","true","4166","14236","","","","","",""
"","","","","","html-button-response","286","946369","0.0-3.0-30.0","60fe326ef1dbd49c6bcce651","D2","batch4","tol_trial_num","1247","<div class = centerbox><p class = center-block-text>problem <strong>8</strong> out of 25 problems</p></div>","0","","","","","","","","","","","","","","","","","","","","","","","","","",""
"","","","","","single-stim-button","287","950203","0.0-3.0-31.0-0.0","60fe326ef1dbd49c6bcce651","D2","batch4","tol_tohand","3832","","","","","","","","","tol_peg_3","3832","3832","0","[[0,0,0],[2,3],[0]]","1","[[1,2,0],[3,0],[0]]","7","0","","","","","","4","","","","",""
"","","","","","single-stim-button","288","951169","0.0-3.0-31.0-1.0","60fe326ef1dbd49c6bcce651","D2","batch4","tol_toboard","966","","","","","","","","","tol_peg_1","966","966","0","[[1,0,0],[2,3],[0]]","1","[[1,2,0],[3,0],[0]]","7","0","","","","","","4","","","","",""
"","","","","","single-stim-button","289","951719","0.0-3.0-31.1-0.1","60fe326ef1dbd49c6bcce651","D2","batch4","tol_tohand","547","","","","","","","","","tol_peg_2","547","547","0","[[1,0,0],[2,0],[0]]","2","[[1,2,0],[3,0],[0]]","7","0","","","","","","4","","","","",""
"","","","","","single-stim-button","290","952402","0.0-3.0-31.1-1.1","60fe326ef1dbd49c6bcce651","D2","batch4","tol_toboard","683","","","","","","","","","tol_peg_3","683","683","0","[[1,0,0],[2,0],[3]]","2","[[1,2,0],[3,0],[0]]","7","0","","","","","","4","","","","",""
"","","","","","single-stim-button","291","952903","0.0-3.0-31.2-0.2","60fe326ef1dbd49c6bcce651","D2","batch4","tol_tohand","499","","","","","","","","","tol_peg_2","499","499","0","[[1,0,0],[0,0],[3]]","3","[[1,2,0],[3,0],[0]]","7","0","","","","","","4","","","","",""
"","","","","","single-stim-button","292","953486","0.0-3.0-31.2-1.2","60fe326ef1dbd49c6bcce651","D2","batch4","tol_toboard","580","","","","","","","","","tol_peg_1","580","580","0","[[1,2,0],[0,0],[3]]","3","[[1,2,0],[3,0],[0]]","7","0","","","","","","4","","","","",""
"","","","","","single-stim-button","293","954919","0.0-3.0-31.3-0.3","60fe326ef1dbd49c6bcce651","D2","batch4","tol_tohand","1432","","","","","","","","","tol_peg_3","1432","1432","0","[[1,2,0],[0,0],[0]]","4","[[1,2,0],[3,0],[0]]","7","0","","","","","","4","","","","",""
"","","","","","single-stim-button","294","955469","0.0-3.0-31.3-1.3","60fe326ef1dbd49c6bcce651","D2","batch4","tol_toboard","549","","","","","","","","","tol_peg_2","549","549","0","[[1,2,0],[3,0],[0]]","4","[[1,2,0],[3,0],[0]]","7","0","","","","","","4","","","","",""
"","","","","","poldrack-single-stim","295","956471","0.0-3.0-32.0","60fe326ef1dbd49c6bcce651","D2","batch4","tol_feedback","-1","","","","","true","","","","","1000","1000","500","","","","","","-1","none","true","3832","6310","","","","","",""
"","","","","","html-button-response","296","957519","0.0-3.0-33.0","60fe326ef1dbd49c6bcce651","D2","batch4","tol_trial_num","1048","<div class = centerbox><p class = center-block-text>problem <strong>9</strong> out of 25 problems</p></div>","0","","","","","","","","","","","","","","","","","","","","","","","","","",""
"","","","","","single-stim-button","297","965852","0.0-3.0-34.0-0.0","60fe326ef1dbd49c6bcce651","D2","batch4","tol_tohand","8332","","","","","","","","","tol_peg_3","8332","8332","0","[[3,2,0],[0,0],[0]]","1","[[2,1,0],[3,0],[0]]","8","0","","","","","","6","","","","",""
"","","","","","single-stim-button","298","966519","0.0-3.0-34.0-1.0","60fe326ef1dbd49c6bcce651","D2","batch4","tol_toboard","666","","","","","","","","","tol_peg_2","666","666","0","[[3,2,0],[1,0],[0]]","1","[[2,1,0],[3,0],[0]]","8","0","","","","","","6","","","","",""
"","","","","","single-stim-button","299","967236","0.0-3.0-34.1-0.1","60fe326ef1dbd49c6bcce651","D2","batch4","tol_tohand","715","","","","","","","","","tol_peg_1","715","715","0","[[3,0,0],[1,0],[0]]","2","[[2,1,0],[3,0],[0]]","8","0","","","","","","6","","","","",""
"","","","","","single-stim-button","300","968086","0.0-3.0-34.1-1.1","60fe326ef1dbd49c6bcce651","D2","batch4","tol_toboard","848","","","","","","","","","tol_peg_2","848","848","0","[[3,0,0],[1,2],[0]]","2","[[2,1,0],[3,0],[0]]","8","0","","","","","","6","","","","",""
"","","","","","single-stim-button","301","968803","0.0-3.0-34.2-0.2","60fe326ef1dbd49c6bcce651","D2","batch4","tol_tohand","716","","","","","","","","","tol_peg_1","716","716","0","[[0,0,0],[1,2],[0]]","3","[[2,1,0],[3,0],[0]]","8","0","","","","","","6","","","","",""
"","","","","","single-stim-button","302","969836","0.0-3.0-34.2-1.2","60fe326ef1dbd49c6bcce651","D2","batch4","tol_toboard","1031","","","","","","","","","tol_peg_3","1031","1031","0","[[0,0,0],[1,2],[3]]","3","[[2,1,0],[3,0],[0]]","8","0","","","","","","6","","","","",""
"","","","","","single-stim-button","303","970469","0.0-3.0-34.3-0.3","60fe326ef1dbd49c6bcce651","D2","batch4","tol_tohand","632","","","","","","","","","tol_peg_2","632","632","0","[[0,0,0],[1,0],[3]]","4","[[2,1,0],[3,0],[0]]","8","0","","","","","","6","","","","",""
"","","","","","single-stim-button","304","970952","0.0-3.0-34.3-1.3","60fe326ef1dbd49c6bcce651","D2","batch4","tol_toboard","481","","","","","","","","","tol_peg_1","481","481","0","[[2,0,0],[1,0],[3]]","4","[[2,1,0],[3,0],[0]]","8","0","","","","","","6","","","","",""
"","","","","","single-stim-button","305","971469","0.0-3.0-34.4-0.4","60fe326ef1dbd49c6bcce651","D2","batch4","tol_tohand","516","","","","","","","","","tol_peg_2","516","516","0","[[2,0,0],[0,0],[3]]","5","[[2,1,0],[3,0],[0]]","8","0","","","","","","6","","","","",""
"","","","","","single-stim-button","306","972386","0.0-3.0-34.4-1.4","60fe326ef1dbd49c6bcce651","D2","batch4","tol_toboard","915","","","","","","","","","tol_peg_1","915","915","0","[[2,1,0],[0,0],[3]]","5","[[2,1,0],[3,0],[0]]","8","0","","","","","","6","","","","",""
"","","","","","single-stim-button","307","973470","0.0-3.0-34.5-0.5","60fe326ef1dbd49c6bcce651","D2","batch4","tol_tohand","1082","","","","","","","","","tol_peg_3","1082","1082","0","[[2,1,0],[0,0],[0]]","6","[[2,1,0],[3,0],[0]]","8","0","","","","","","6","","","","",""
"","","","","","single-stim-button","308","974003","0.0-3.0-34.5-1.5","60fe326ef1dbd49c6bcce651","D2","batch4","tol_toboard","532","","","","","","","","","tol_peg_2","532","532","0","[[2,1,0],[3,0],[0]]","6","[[2,1,0],[3,0],[0]]","8","0","","","","","","6","","","","",""
"","","","","","poldrack-single-stim","309","975005","0.0-3.0-35.0","60fe326ef1dbd49c6bcce651","D2","batch4","tol_feedback","-1","","","","","true","","","","","1000","1000","500","","","","","","-1","none","true","8332","11993","","","","","",""
"","","","","","html-button-response","310","975936","0.0-3.0-36.0","60fe326ef1dbd49c6bcce651","D2","batch4","tol_trial_num","929.9999999998836","<div class = centerbox><p class = center-block-text>problem <strong>10</strong> out of 25 problems</p></div>","0","","","","","","","","","","","","","","","","","","","","","","","","","",""
"","","","","","single-stim-button","311","978970","0.0-3.0-37.0-0.0","60fe326ef1dbd49c6bcce651","D2","batch4","tol_tohand","3033","","","","","","","","","tol_peg_2","3033","3033","0","[[3,0,0],[0,0],[2]]","1","[[3,0,0],[2,1],[0]]","9","0","","","","","","3","","","","",""
"","","","","","single-stim-button","312","979769","0.0-3.0-37.0-1.0","60fe326ef1dbd49c6bcce651","D2","batch4","tol_toboard","798","","","","","","","","","tol_peg_1","798","798","0","[[3,1,0],[0,0],[2]]","1","[[3,0,0],[2,1],[0]]","9","0","","","","","","3","","","","",""
"","","","","","single-stim-button","313","980386","0.0-3.0-37.1-0.1","60fe326ef1dbd49c6bcce651","D2","batch4","tol_tohand","616","","","","","","","","","tol_peg_3","616","616","0","[[3,1,0],[0,0],[0]]","2","[[3,0,0],[2,1],[0]]","9","0","","","","","","3","","","","",""
"","","","","","single-stim-button","314","980952","0.0-3.0-37.1-1.1","60fe326ef1dbd49c6bcce651","D2","batch4","tol_toboard","566","","","","","","","","","tol_peg_2","566","566","0","[[3,1,0],[2,0],[0]]","2","[[3,0,0],[2,1],[0]]","9","0","","","","","","3","","","","",""
"","","","","","single-stim-button","315","981585","0.0-3.0-37.2-0.2","60fe326ef1dbd49c6bcce651","D2","batch4","tol_tohand","632","","","","","","","","","tol_peg_1","632","632","0","[[3,0,0],[2,0],[0]]","3","[[3,0,0],[2,1],[0]]","9","0","","","","","","3","","","","",""
"","","","","","single-stim-button","316","982085","0.0-3.0-37.2-1.2","60fe326ef1dbd49c6bcce651","D2","batch4","tol_toboard","499","","","","","","","","","tol_peg_2","499","499","0","[[3,0,0],[2,1],[0]]","3","[[3,0,0],[2,1],[0]]","9","0","","","","","","3","","","","",""
"","","","","","poldrack-single-stim","317","983088","0.0-3.0-38.0","60fe326ef1dbd49c6bcce651","D2","batch4","tol_feedback","-1","","","","","true","","","","","1000","1000","500","","","","","","-1","none","true","3033","4281","","","","","",""
"","","","","","html-button-response","318","984152","0.0-3.0-39.0","60fe326ef1dbd49c6bcce651","D2","batch4","tol_trial_num","1064","<div class = centerbox><p class = center-block-text>problem <strong>11</strong> out of 25 problems</p></div>","0","","","","","","","","","","","","","","","","","","","","","","","","","",""
"","","","","","single-stim-button","319","986352","0.0-3.0-40.0-0.0","60fe326ef1dbd49c6bcce651","D2","batch4","tol_tohand","2200","","","","","","","","","tol_peg_2","2200","2200","0","[[1,2,0],[0,0],[0]]","1","[[2,0,0],[1,3],[0]]","10","0","","","","","","6","","","","",""
"","","","","","single-stim-button","320","989437","0.0-3.0-40.0-1.0","60fe326ef1dbd49c6bcce651","D2","batch4","tol_toboard","3084","","","","","","","","","tol_peg_3","3084","3084","0","[[1,2,0],[0,0],[3]]","1","[[2,0,0],[1,3],[0]]","10","0","","","","","","6","","","","",""
"","","","","","single-stim-button","321","990703","0.0-3.0-40.1-0.1","60fe326ef1dbd49c6bcce651","D2","batch4","tol_tohand","1263","","","","","","","","","tol_peg_1","1263","1263","0","[[1,0,0],[0,0],[3]]","2","[[2,0,0],[1,3],[0]]","10","0","","","","","","6","","","","",""
"","","","","","single-stim-button","322","993952","0.0-3.0-40.1-1.1","60fe326ef1dbd49c6bcce651","D2","batch4","tol_toboard","3247","","","","","","","","","tol_peg_1","3247","3247","0","[[1,2,0],[0,0],[3]]","2","[[2,0,0],[1,3],[0]]","10","0","","","","","","6","","","","",""
"","","","","","single-stim-button","323","994985","0.0-3.0-40.2-0.2","60fe326ef1dbd49c6bcce651","D2","batch4","tol_tohand","1032","","","","","","","","","tol_peg_3","1032","1032","0","[[1,2,0],[0,0],[0]]","3","[[2,0,0],[1,3],[0]]","10","0","","","","","","6","","","","",""
"","","","","","single-stim-button","324","995603","0.0-3.0-40.2-1.2","60fe326ef1dbd49c6bcce651","D2","batch4","tol_toboard","616","","","","","","","","","tol_peg_2","616","616","0","[[1,2,0],[3,0],[0]]","3","[[2,0,0],[1,3],[0]]","10","0","","","","","","6","","","","",""
"","","","","","single-stim-button","325","996469","0.0-3.0-40.3-0.3","60fe326ef1dbd49c6bcce651","D2","batch4","tol_tohand","865","","","","","","","","","tol_peg_1","865","865","0","[[1,0,0],[3,0],[0]]","4","[[2,0,0],[1,3],[0]]","10","0","","","","","","6","","","","",""
"","","","","","single-stim-button","326","997085","0.0-3.0-40.3-1.3","60fe326ef1dbd49c6bcce651","D2","batch4","tol_toboard","615","","","","","","","","","tol_peg_2","615","615","0","[[1,0,0],[3,2],[0]]","4","[[2,0,0],[1,3],[0]]","10","0","","","","","","6","","","","",""
"","","","","","single-stim-button","327","997936","0.0-3.0-40.4-0.4","60fe326ef1dbd49c6bcce651","D2","batch4","tol_tohand","849","","","","","","","","","tol_peg_1","849","849","0","[[0,0,0],[3,2],[0]]","5","[[2,0,0],[1,3],[0]]","10","0","","","","","","6","","","","",""
"","","","","","single-stim-button","328","998653","0.0-3.0-40.4-1.4","60fe326ef1dbd49c6bcce651","D2","batch4","tol_toboard","716","","","","","","","","","tol_peg_3","716","716","0","[[0,0,0],[3,2],[1]]","5","[[2,0,0],[1,3],[0]]","10","0","","","","","","6","","","","",""
"","","","","","single-stim-button","329","999235","0.0-3.0-40.5-0.5","60fe326ef1dbd49c6bcce651","D2","batch4","tol_tohand","581","","","","","","","","","tol_peg_2","581","581","0","[[0,0,0],[3,0],[1]]","6","[[2,0,0],[1,3],[0]]","10","0","","","","","","6","","","","",""
"","","","","","single-stim-button","330","999785","0.0-3.0-40.5-1.5","60fe326ef1dbd49c6bcce651","D2","batch4","tol_toboard","549","","","","","","","","","tol_peg_1","549","549","0","[[2,0,0],[3,0],[1]]","6","[[2,0,0],[1,3],[0]]","10","0","","","","","","6","","","","",""
"","","","","","single-stim-button","331","1002620","0.0-3.0-40.6-0.6","60fe326ef1dbd49c6bcce651","D2","batch4","tol_tohand","2833","","","","","","","","","tol_peg_3","2833","2833","0","[[2,0,0],[3,0],[0]]","7","[[2,0,0],[1,3],[0]]","10","0","","","","","","6","","","","",""
"","","","","","single-stim-button","332","1003736","0.0-3.0-40.6-1.6","60fe326ef1dbd49c6bcce651","D2","batch4","tol_toboard","1114","","","","","","","","","tol_peg_3","1114","1114","0","[[2,0,0],[3,0],[1]]","7","[[2,0,0],[1,3],[0]]","10","0","","","","","","6","","","","",""
"","","","","","single-stim-button","333","1004402","0.0-3.0-40.7-0.7","60fe326ef1dbd49c6bcce651","D2","batch4","tol_tohand","664","","","","","","","","","tol_peg_2","664","664","0","[[2,0,0],[0,0],[1]]","8","[[2,0,0],[1,3],[0]]","10","0","","","","","","6","","","","",""
"","","","","","single-stim-button","334","1004953","0.0-3.0-40.7-1.7","60fe326ef1dbd49c6bcce651","D2","batch4","tol_toboard","549","","","","","","","","","tol_peg_1","549","549","0","[[2,3,0],[0,0],[1]]","8","[[2,0,0],[1,3],[0]]","10","0","","","","","","6","","","","",""
"","","","","","single-stim-button","335","1006320","0.0-3.0-40.8-0.8","60fe326ef1dbd49c6bcce651","D2","batch4","tol_tohand","1365","","","","","","","","","tol_peg_3","1365","1365","0","[[2,3,0],[0,0],[0]]","9","[[2,0,0],[1,3],[0]]","10","0","","","","","","6","","","","",""
"","","","","","single-stim-button","336","1006836","0.0-3.0-40.8-1.8","60fe326ef1dbd49c6bcce651","D2","batch4","tol_toboard","514","","","","","","","","","tol_peg_2","514","514","0","[[2,3,0],[1,0],[0]]","9","[[2,0,0],[1,3],[0]]","10","0","","","","","","6","","","","",""
"","","","","","single-stim-button","337","1007452","0.0-3.0-40.9-0.9","60fe326ef1dbd49c6bcce651","D2","batch4","tol_tohand","615","","","","","","","","","tol_peg_1","615","615","0","[[2,0,0],[1,0],[0]]","10","[[2,0,0],[1,3],[0]]","10","0","","","","","","6","","","","",""
"","","","","","single-stim-button","338","1008003","0.0-3.0-40.9-1.9","60fe326ef1dbd49c6bcce651","D2","batch4","tol_toboard","550","","","","","","","","","tol_peg_2","550","550","0","[[2,0,0],[1,3],[0]]","10","[[2,0,0],[1,3],[0]]","10","0","","","","","","6","","","","",""
"","","","","","poldrack-single-stim","339","1009007","0.0-3.0-41.0","60fe326ef1dbd49c6bcce651","D2","batch4","tol_feedback","-1","","","","","true","","","","","1000","1000","500","","","","","","-1","none","true","2200","12267","","","","","",""
"","","","","","html-button-response","340","1010086","0.0-3.0-42.0","60fe326ef1dbd49c6bcce651","D2","batch4","tol_trial_num","1079","<div class = centerbox><p class = center-block-text>problem <strong>12</strong> out of 25 problems</p></div>","0","","","","","","","","","","","","","","","","","","","","","","","","","",""
"","","","","","single-stim-button","341","1016769","0.0-3.0-43.0-0.0","60fe326ef1dbd49c6bcce651","D2","batch4","tol_tohand","6682","","","","","","","","","tol_peg_1","6682","6682","0","[[1,0,0],[3,0],[0]]","1","[[2,3,0],[0,0],[1]]","11","0","","","","","","4","","","","",""
"","","","","","single-stim-button","342","1017285","0.0-3.0-43.0-1.0","60fe326ef1dbd49c6bcce651","D2","batch4","tol_toboard","515","","","","","","","","","tol_peg_2","515","515","0","[[1,0,0],[3,2],[0]]","1","[[2,3,0],[0,0],[1]]","11","0","","","","","","4","","","","",""
"","","","","","single-stim-button","343","1017955","0.0-3.0-43.1-0.1","60fe326ef1dbd49c6bcce651","D2","batch4","tol_tohand","668","","","","","","","","","tol_peg_1","668","668","0","[[0,0,0],[3,2],[0]]","2","[[2,3,0],[0,0],[1]]","11","0","","","","","","4","","","","",""
"","","","","","single-stim-button","344","1018953","0.0-3.0-43.1-1.1","60fe326ef1dbd49c6bcce651","D2","batch4","tol_toboard","997","","","","","","","","","tol_peg_3","997","997","0","[[0,0,0],[3,2],[1]]","2","[[2,3,0],[0,0],[1]]","11","0","","","","","","4","","","","",""
"","","","","","single-stim-button","345","1020419","0.0-3.0-43.2-0.2","60fe326ef1dbd49c6bcce651","D2","batch4","tol_tohand","1463","","","","","","","","","tol_peg_2","1463","1463","0","[[0,0,0],[3,0],[1]]","3","[[2,3,0],[0,0],[1]]","11","0","","","","","","4","","","","",""
"","","","","","single-stim-button","346","1021219","0.0-3.0-43.2-1.2","60fe326ef1dbd49c6bcce651","D2","batch4","tol_toboard","799","","","","","","","","","tol_peg_1","799","799","0","[[2,0,0],[3,0],[1]]","3","[[2,3,0],[0,0],[1]]","11","0","","","","","","4","","","","",""
"","","","","","single-stim-button","347","1021752","0.0-3.0-43.3-0.3","60fe326ef1dbd49c6bcce651","D2","batch4","tol_tohand","532","","","","","","","","","tol_peg_2","532","532","0","[[2,0,0],[0,0],[1]]","4","[[2,3,0],[0,0],[1]]","11","0","","","","","","4","","","","",""
"","","","","","single-stim-button","348","1022336","0.0-3.0-43.3-1.3","60fe326ef1dbd49c6bcce651","D2","batch4","tol_toboard","581","","","","","","","","","tol_peg_1","581","581","0","[[2,3,0],[0,0],[1]]","4","[[2,3,0],[0,0],[1]]","11","0","","","","","","4","","","","",""
"","","","","","poldrack-single-stim","349","1023338","0.0-3.0-44.0","60fe326ef1dbd49c6bcce651","D2","batch4","tol_feedback","-1","","","","","true","","","","","1000","1000","500","","","","","","-1","none","true","6682","9345","","","","","",""
"","","","","","html-button-response","350","1024419","0.0-3.0-45.0","60fe326ef1dbd49c6bcce651","D2","batch4","tol_trial_num","1079.9999999998836","<div class = centerbox><p class = center-block-text>problem <strong>13</strong> out of 25 problems</p></div>","0","","","","","","","","","","","","","","","","","","","","","","","","","",""
"","","","","","single-stim-button","351","1026902","0.0-3.0-46.0-0.0","60fe326ef1dbd49c6bcce651","D2","batch4","tol_tohand","2483","","","","","","","","","tol_peg_2","2483","2483","0","[[1,2,0],[0,0],[0]]","1","[[0,0,0],[2,3],[1]]","12","0","","","","","","4","","","","",""
"","","","","","single-stim-button","352","1027952","0.0-3.0-46.0-1.0","60fe326ef1dbd49c6bcce651","D2","batch4","tol_toboard","1048","","","","","","","","","tol_peg_3","1048","1048","0","[[1,2,0],[0,0],[3]]","1","[[0,0,0],[2,3],[1]]","12","0","","","","","","4","","","","",""
"","","","","","single-stim-button","353","1028936","0.0-3.0-46.1-0.1","60fe326ef1dbd49c6bcce651","D2","batch4","tol_tohand","981","","","","","","","","","tol_peg_1","981","981","0","[[1,0,0],[0,0],[3]]","2","[[0,0,0],[2,3],[1]]","12","0","","","","","","4","","","","",""
"","","","","","single-stim-button","354","1029435","0.0-3.0-46.1-1.1","60fe326ef1dbd49c6bcce651","D2","batch4","tol_toboard","498","","","","","","","","","tol_peg_2","498","498","0","[[1,0,0],[2,0],[3]]","2","[[0,0,0],[2,3],[1]]","12","0","","","","","","4","","","","",""
"","","","","","single-stim-button","355","1030869","0.0-3.0-46.2-0.2","60fe326ef1dbd49c6bcce651","D2","batch4","tol_tohand","1433","","","","","","","","","tol_peg_3","1433","1433","0","[[1,0,0],[2,0],[0]]","3","[[0,0,0],[2,3],[1]]","12","0","","","","","","4","","","","",""
"","","","","","single-stim-button","356","1031436","0.0-3.0-46.2-1.2","60fe326ef1dbd49c6bcce651","D2","batch4","tol_toboard","565","","","","","","","","","tol_peg_2","565","565","0","[[1,0,0],[2,3],[0]]","3","[[0,0,0],[2,3],[1]]","12","0","","","","","","4","","","","",""
"","","","","","single-stim-button","357","1031969","0.0-3.0-46.3-0.3","60fe326ef1dbd49c6bcce651","D2","batch4","tol_tohand","532","","","","","","","","","tol_peg_1","532","532","0","[[0,0,0],[2,3],[0]]","4","[[0,0,0],[2,3],[1]]","12","0","","","","","","4","","","","",""
