"success","timeout","failed_images","failed_audio","failed_video","trial_type","trial_index","time_elapsed","internal_node_id","subject_id","study_id","session_id","view_history","rt","task","stimulus","response","correct","mouse_click","stim_duration","block_duration","timing_post_trial","current_position","tol_num_moves_made","tol_target","tol_problem_id","tol_rt","key_press","possible_responses","tol_correct","preplanning","tol_rt_per_trial","tol_min_moves","item","answer","spm_correct","spm_rt","fiar_detect_rt","fiar_detect_correct","total_correct_fiar_detect","post_trial_gap","choices"
"true","false","[]","[]","[]","preload","0","29907","0.0-0.0","60feb622ae107ad3083ebde6","D2","batch4","","","","","","","","","","","","","","","","","","","","","","","","","","","","","",""
"true","","","","","fullscreen","1","41222","0.0-1.0-0.0","60feb622ae107ad3083ebde6","D2","batch4","","","","","","","","","","","","","","","","","","","","","","","","","","","","","",""
"true","","","","","fullscreen","2","43632","0.0-2.0-0.0","60feb622ae107ad3083ebde6","D2","batch4","","","","","","","","","","","","","","","","","","","","","","","","","","","","","",""
"","","","","","instructions","3","85201","0.0-2.0-1.0-0.0-0.0","60feb622ae107ad3083ebde6","D2","batch4","[{""page_index"":0,""viewing_time"":9208},{""page_index"":1,""viewing_time"":3905.2999999821186},{""page_index"":2,""viewing_time"":3746.600000023842},{""page_index"":3,""viewing_time"":6666.5},{""page_index"":4,""viewing_time"":6172.5},{""page_index"":5,""viewing_time"":10260.5},{""page_index"":6,""viewing_time"":1609.199999988079}]","41568.90000000596","tol-instructions","","","","","","","","","","","","","","","","","","","","","","","","","","",""
"","","","","","html-button-response","4","86225","0.0-2.0-1.0-1.0-0.0","60feb622ae107ad3083ebde6","D2","batch4","","1023.3000000119209","tol_enter_quiz","<p class=block-text> Let's answer a few questions <br>","0","","","","","","","","","","","","","","","","","","","","","","","","",""
"","","","","","html-button-response","5","89162","0.0-2.0-1.0-1.0-1.0","60feb622ae107ad3083ebde6","D2","batch4","","2935.7000000178814","tol_quiz","<p class = block-text>True or False: You can only move the ball on top of a peg. <br></p>","0","true","","","","","","","","","","","","","","","","","","","","","","","",""
"","","","","","html-button-response","6","89932","0.0-2.0-1.0-1.0-2.0","60feb622ae107ad3083ebde6","D2","batch4","","768.1999999880791","tol_quiz_feedback","<p class = block-text>Correct! You can only move the ball on top of a peg.</p>","0","","","","","","","","","","","","","","","","","","","","","","","","",""
"","","","","","html-button-response","7","91707","0.0-2.0-1.0-1.0-3.0","60feb622ae107ad3083ebde6","D2","batch4","","1773.9000000059605","tol_quiz","<p class = block-text>True or False: You should try to match your board with the target board with fewest moves possible. <br></p>","0","true","","","","","","","","","","","","","","","","","","","","","","","",""
"","","","","","html-button-response","8","92256","0.0-2.0-1.0-1.0-4.0","60feb622ae107ad3083ebde6","D2","batch4","","547.5999999940395","tol_quiz_feedback","<p class = block-text>Correct! </p>","0","","","","","","","","","","","","","","","","","","","","","","","","",""
"","","","","","html-button-response","9","93135","0.0-2.0-2.0","60feb622ae107ad3083ebde6","D2","batch4","","877.5","","<p class=block-text> Now that you've understood the game, let's practice a few easier examples before we start!<br> <br>","0","","","","","","","","","","","","","","","","","","","","","","","","",""
"","","","","","single-stim-button","10","94545","0.0-2.0-3.0-0.0","60feb622ae107ad3083ebde6","D2","batch4","","1407","tol_practice","","","","tol_peg_2","1407","1407","0","[[1,2,0],[0,0],[0]]","1","[[1,2,0],[0,0],[3]]","practice","1407","","","","","","","","","","","","","","",""
"","","","","","single-stim-button","11","95584","0.0-2.0-3.0-1.0","60feb622ae107ad3083ebde6","D2","batch4","","1038","tol_practice","","","","tol_peg_3","1038","1038","0","[[1,2,0],[0,0],[3]]","1","[[1,2,0],[0,0],[3]]","practice","1038","","","","","","","","","","","","","","",""
"","","","","","poldrack-single-stim","12","96592","0.0-2.0-4.0","60feb622ae107ad3083ebde6","D2","batch4","","-1","tol_feedback","","","true","","1000","1000","500","","","","","","-1","none","true","","0","","","","","","","","","",""
"","","","","","single-stim-button","13","99227","0.0-2.0-5.0-0.0","60feb622ae107ad3083ebde6","D2","batch4","","2633","tol_practice","","","","tol_peg_1","2633","2633","0","[[1,0,0],[3,0],[0]]","2","[[0,0,0],[3,1],[2]]","practice","2633","","","","","","","","","","","","","","",""
"","","","","","single-stim-button","14","100074","0.0-2.0-5.0-1.0","60feb622ae107ad3083ebde6","D2","batch4","","846","tol_practice","","","","tol_peg_3","846","846","0","[[1,0,0],[3,0],[2]]","2","[[0,0,0],[3,1],[2]]","practice","846","","","","","","","","","","","","","","",""
"","","","","","single-stim-button","15","101809","0.0-2.0-5.1-0.1","60feb622ae107ad3083ebde6","D2","batch4","","1734","tol_practice","","","","tol_peg_1","1734","1734","0","[[0,0,0],[3,0],[2]]","3","[[0,0,0],[3,1],[2]]","practice","1734","","","","","","","","","","","","","","",""
"","","","","","single-stim-button","16","103083","0.0-2.0-5.1-1.1","60feb622ae107ad3083ebde6","D2","batch4","","1273","tol_practice","","","","tol_peg_2","1273","1273","0","[[0,0,0],[3,1],[2]]","3","[[0,0,0],[3,1],[2]]","practice","1273","","","","","","","","","","","","","","",""
"","","","","","poldrack-single-stim","17","104093","0.0-2.0-6.0","60feb622ae107ad3083ebde6","D2","batch4","","-1","tol_feedback","","","true","","1000","1000","500","","","","","","-1","none","true","","0","","","","","","","","","",""
"","","","","","single-stim-button","18","106391","0.0-2.0-7.0-0.0","60feb622ae107ad3083ebde6","D2","batch4","","2297","tol_practice","","","","tol_peg_2","2297","2297","0","[[1,2,0],[0,0],[0]]","4","[[1,0,0],[2,0],[3]]","practice","2297","","","","","","","","","","","","","","",""
"","","","","","single-stim-button","19","107094","0.0-2.0-7.0-1.0","60feb622ae107ad3083ebde6","D2","batch4","","701","tol_practice","","","","tol_peg_3","701","701","0","[[1,2,0],[0,0],[3]]","4","[[1,0,0],[2,0],[3]]","practice","701","","","","","","","","","","","","","","",""
"","","","","","single-stim-button","20","108084","0.0-2.0-7.1-0.1","60feb622ae107ad3083ebde6","D2","batch4","","989","tol_practice","","","","tol_peg_1","989","989","0","[[1,0,0],[0,0],[3]]","5","[[1,0,0],[2,0],[3]]","practice","989","","","","","","","","","","","","","","",""
"","","","","","single-stim-button","21","108842","0.0-2.0-7.1-1.1","60feb622ae107ad3083ebde6","D2","batch4","","757","tol_practice","","","","tol_peg_2","757","757","0","[[1,0,0],[2,0],[3]]","5","[[1,0,0],[2,0],[3]]","practice","757","","","","","","","","","","","","","","",""
"","","","","","poldrack-single-stim","22","109855","0.0-2.0-8.0","60feb622ae107ad3083ebde6","D2","batch4","","-1","tol_feedback","","","true","","1000","1000","500","","","","","","-1","none","true","","0","","","","","","","","","",""
"","","","","","html-button-response","23","110968","0.0-2.0-9.0","60feb622ae107ad3083ebde6","D2","batch4","","1112","tol_instruction","<div class = centerbox><p class = center-block-text>Great job! You are done with practice trials<br>You are about to start official trials.<br> <br> Problem <strong>1</strong> out of 25 problems</p></div>","0","","","","","","","","","","","","","","","","","","","","","","","","",""
"","","","","","single-stim-button","24","119258","0.0-2.0-10.0-0.0","60feb622ae107ad3083ebde6","D2","batch4","","7284","tol_tohand","","","","tol_peg_1","7284","7284","0","[[1,0,0],[3,0],[0]]","1","[[1,3,0],[2,0],[0]]","0","0","","","","","","3","","","","","","","","",""
"","","","","","single-stim-button","25","120080","0.0-2.0-10.0-1.0","60feb622ae107ad3083ebde6","D2","batch4","","821","tol_toboard","","","","tol_peg_3","821","821","0","[[1,0,0],[3,0],[2]]","1","[[1,3,0],[2,0],[0]]","0","0","","","","","","3","","","","","","","","",""
"","","","","","single-stim-button","26","120726","0.0-2.0-10.1-0.1","60feb622ae107ad3083ebde6","D2","batch4","","644","tol_tohand","","","","tol_peg_2","644","644","0","[[1,0,0],[0,0],[2]]","2","[[1,3,0],[2,0],[0]]","0","0","","","","","","3","","","","","","","","",""
"","","","","","single-stim-button","27","121634","0.0-2.0-10.1-1.1","60feb622ae107ad3083ebde6","D2","batch4","","908","tol_toboard","","","","tol_peg_1","908","908","0","[[1,3,0],[0,0],[2]]","2","[[1,3,0],[2,0],[0]]","0","0","","","","","","3","","","","","","","","",""
"","","","","","single-stim-button","28","122311","0.0-2.0-10.2-0.2","60feb622ae107ad3083ebde6","D2","batch4","","676","tol_tohand","","","","tol_peg_3","676","676","0","[[1,3,0],[0,0],[0]]","3","[[1,3,0],[2,0],[0]]","0","0","","","","","","3","","","","","","","","",""
"","","","","","single-stim-button","29","122981","0.0-2.0-10.2-1.2","60feb622ae107ad3083ebde6","D2","batch4","","669","tol_toboard","","","","tol_peg_2","669","669","0","[[1,3,0],[2,0],[0]]","3","[[1,3,0],[2,0],[0]]","0","0","","","","","","3","","","","","","","","",""
"","","","","","poldrack-single-stim","30","123992","0.0-2.0-11.0","60feb622ae107ad3083ebde6","D2","batch4","","-1","tol_feedback","","","true","","1000","1000","500","","","","","","-1","none","true","7284","8604","","","","","","","","","",""
"","","","","","html-button-response","31","124926","0.0-2.0-12.0","60feb622ae107ad3083ebde6","D2","batch4","","933.4000000059605","tol_trial_num","<div class = centerbox><p class = center-block-text>problem <strong>2</strong> out of 25 problems</p></div>","0","","","","","","","","","","","","","","","","","","","","","","","","",""
"","","","","","single-stim-button","32","126582","0.0-2.0-13.0-0.0","60feb622ae107ad3083ebde6","D2","batch4","","1655","tol_tohand","","","","tol_peg_2","1655","1655","0","[[1,2,0],[0,0],[0]]","1","[[2,1,3],[0,0],[0]]","1","0","","","","","","5","","","","","","","","",""
"","","","","","single-stim-button","33","129914","0.0-2.0-13.0-1.0","60feb622ae107ad3083ebde6","D2","batch4","","3331","tol_toboard","","","","tol_peg_2","3331","3331","0","[[1,2,0],[3,0],[0]]","1","[[2,1,3],[0,0],[0]]","1","0","","","","","","5","","","","","","","","",""
"","","","","","single-stim-button","34","130580","0.0-2.0-13.1-0.1","60feb622ae107ad3083ebde6","D2","batch4","","664","tol_tohand","","","","tol_peg_1","664","664","0","[[1,0,0],[3,0],[0]]","2","[[2,1,3],[0,0],[0]]","1","0","","","","","","5","","","","","","","","",""
"","","","","","single-stim-button","35","131903","0.0-2.0-13.1-1.1","60feb622ae107ad3083ebde6","D2","batch4","","1323","tol_toboard","","","","tol_peg_3","1323","1323","0","[[1,0,0],[3,0],[2]]","2","[[2,1,3],[0,0],[0]]","1","0","","","","","","5","","","","","","","","",""
"","","","","","single-stim-button","36","132912","0.0-2.0-13.2-0.2","60feb622ae107ad3083ebde6","D2","batch4","","1008","tol_tohand","","","","tol_peg_1","1008","1008","0","[[0,0,0],[3,0],[2]]","3","[[2,1,3],[0,0],[0]]","1","0","","","","","","5","","","","","","","","",""
"","","","","","single-stim-button","37","134016","0.0-2.0-13.2-1.2","60feb622ae107ad3083ebde6","D2","batch4","","1103","tol_toboard","","","","tol_peg_2","1103","1103","0","[[0,0,0],[3,1],[2]]","3","[[2,1,3],[0,0],[0]]","1","0","","","","","","5","","","","","","","","",""
"","","","","","single-stim-button","38","134493","0.0-2.0-13.3-0.3","60feb622ae107ad3083ebde6","D2","batch4","","475","tol_tohand","","","","tol_peg_3","475","475","0","[[0,0,0],[3,1],[0]]","4","[[2,1,3],[0,0],[0]]","1","0","","","","","","5","","","","","","","","",""
"","","","","","single-stim-button","39","135271","0.0-2.0-13.3-1.3","60feb622ae107ad3083ebde6","D2","batch4","","777","tol_toboard","","","","tol_peg_1","777","777","0","[[2,0,0],[3,1],[0]]","4","[[2,1,3],[0,0],[0]]","1","0","","","","","","5","","","","","","","","",""
"","","","","","single-stim-button","40","135715","0.0-2.0-13.4-0.4","60feb622ae107ad3083ebde6","D2","batch4","","443","tol_tohand","","","","tol_peg_2","443","443","0","[[2,0,0],[3,0],[0]]","5","[[2,1,3],[0,0],[0]]","1","0","","","","","","5","","","","","","","","",""
"","","","","","single-stim-button","41","136190","0.0-2.0-13.4-1.4","60feb622ae107ad3083ebde6","D2","batch4","","475","tol_toboard","","","","tol_peg_1","475","475","0","[[2,1,0],[3,0],[0]]","5","[[2,1,3],[0,0],[0]]","1","0","","","","","","5","","","","","","","","",""
"","","","","","single-stim-button","42","136626","0.0-2.0-13.5-0.5","60feb622ae107ad3083ebde6","D2","batch4","","435","tol_tohand","","","","tol_peg_2","435","435","0","[[2,1,0],[0,0],[0]]","6","[[2,1,3],[0,0],[0]]","1","0","","","","","","5","","","","","","","","",""
"","","","","","single-stim-button","43","137401","0.0-2.0-13.5-1.5","60feb622ae107ad3083ebde6","D2","batch4","","773","tol_toboard","","","","tol_peg_1","773","773","0","[[2,1,3],[0,0],[0]]","6","[[2,1,3],[0,0],[0]]","1","0","","","","","","5","","","","","","","","",""
"","","","","","poldrack-single-stim","44","138404","0.0-2.0-14.0","60feb622ae107ad3083ebde6","D2","batch4","","-1","tol_feedback","","","true","","1000","1000","500","","","","","","-1","none","true","1655","4680","","","","","","","","","",""
"","","","","","html-button-response","45","139519","0.0-2.0-15.0","60feb622ae107ad3083ebde6","D2","batch4","","1114","tol_trial_num","<div class = centerbox><p class = center-block-text>problem <strong>3</strong> out of 25 problems</p></div>","0","","","","","","","","","","","","","","","","","","","","","","","","",""
"","","","","","single-stim-button","46","143582","0.0-2.0-16.0-0.0","60feb622ae107ad3083ebde6","D2","batch4","","4062","tol_tohand","","","","tol_peg_1","4062","4062","0","[[2,0,0],[0,0],[1]]","1","[[1,2,0],[3,0],[0]]","2","0","","","","","","4","","","","","","","","",""
"","","","","","single-stim-button","47","143762","0.0-2.0-16.0-1.0","60feb622ae107ad3083ebde6","D2","batch4","","180","tol_toboard","","","","tol_peg_1","180","180","0","[[2,3,0],[0,0],[1]]","1","[[1,2,0],[3,0],[0]]","2","0","","","","","","4","","","","","","","","",""
"","","","","","single-stim-button","48","144537","0.0-2.0-16.1-0.1","60feb622ae107ad3083ebde6","D2","batch4","","773","tol_tohand","","","","tol_peg_1","773","773","0","[[2,0,0],[0,0],[1]]","2","[[1,2,0],[3,0],[0]]","2","0","","","","","","4","","","","","","","","",""
"","","","","","single-stim-button","49","145246","0.0-2.0-16.1-1.1","60feb622ae107ad3083ebde6","D2","batch4","","709","tol_toboard","","","","tol_peg_2","709","709","0","[[2,0,0],[3,0],[1]]","2","[[1,2,0],[3,0],[0]]","2","0","","","","","","4","","","","","","","","",""
"","","","","","single-stim-button","50","146698","0.0-2.0-16.2-0.2","60feb622ae107ad3083ebde6","D2","batch4","","1451","tol_tohand","","","","tol_peg_1","1451","1451","0","[[0,0,0],[3,0],[1]]","3","[[1,2,0],[3,0],[0]]","2","0","","","","","","4","","","","","","","","",""
"","","","","","single-stim-button","51","147976","0.0-2.0-16.2-1.2","60feb622ae107ad3083ebde6","D2","batch4","","1277","tol_toboard","","","","tol_peg_2","1277","1277","0","[[0,0,0],[3,2],[1]]","3","[[1,2,0],[3,0],[0]]","2","0","","","","","","4","","","","","","","","",""
"","","","","","single-stim-button","52","148413","0.0-2.0-16.3-0.3","60feb622ae107ad3083ebde6","D2","batch4","","435","tol_tohand","","","","tol_peg_3","435","435","0","[[0,0,0],[3,2],[0]]","4","[[1,2,0],[3,0],[0]]","2","0","","","","","","4","","","","","","","","",""
"","","","","","single-stim-button","53","149203","0.0-2.0-16.3-1.3","60feb622ae107ad3083ebde6","D2","batch4","","789","tol_toboard","","","","tol_peg_1","789","789","0","[[1,0,0],[3,2],[0]]","4","[[1,2,0],[3,0],[0]]","2","0","","","","","","4","","","","","","","","",""
"","","","","","single-stim-button","54","149655","0.0-2.0-16.4-0.4","60feb622ae107ad3083ebde6","D2","batch4","","452","tol_tohand","","","","tol_peg_2","452","452","0","[[1,0,0],[3,0],[0]]","5","[[1,2,0],[3,0],[0]]","2","0","","","","","","4","","","","","","","","",""
"","","","","","single-stim-button","55","150292","0.0-2.0-16.4-1.4","60feb622ae107ad3083ebde6","D2","batch4","","636","tol_toboard","","","","tol_peg_1","636","636","0","[[1,2,0],[3,0],[0]]","5","[[1,2,0],[3,0],[0]]","2","0","","","","","","4","","","","","","","","",""
"","","","","","poldrack-single-stim","56","151299","0.0-2.0-17.0","60feb622ae107ad3083ebde6","D2","batch4","","-1","tol_feedback","","","true","","1000","1000","500","","","","","","-1","none","true","4062","7173","","","","","","","","","",""
"","","","","","html-button-response","57","152611","0.0-2.0-18.0","60feb622ae107ad3083ebde6","D2","batch4","","1311.1000000238419","tol_trial_num","<div class = centerbox><p class = center-block-text>problem <strong>4</strong> out of 25 problems</p></div>","0","","","","","","","","","","","","","","","","","","","","","","","","",""
"","","","","","single-stim-button","58","156113","0.0-2.0-19.0-0.0","60feb622ae107ad3083ebde6","D2","batch4","","3500","tol_tohand","","","","tol_peg_2","3500","3500","0","[[3,0,0],[2,0],[0]]","1","[[3,0,0],[1,0],[2]]","3","0","","","","","","3","","","","","","","","",""
"","","","","","single-stim-button","59","156749","0.0-2.0-19.0-1.0","60feb622ae107ad3083ebde6","D2","batch4","","636","tol_toboard","","","","tol_peg_1","636","636","0","[[3,1,0],[2,0],[0]]","1","[[3,0,0],[1,0],[2]]","3","0","","","","","","3","","","","","","","","",""
"","","","","","single-stim-button","60","157536","0.0-2.0-19.1-0.1","60feb622ae107ad3083ebde6","D2","batch4","","786","tol_tohand","","","","tol_peg_2","786","786","0","[[3,1,0],[0,0],[0]]","2","[[3,0,0],[1,0],[2]]","3","0","","","","","","3","","","","","","","","",""
"","","","","","single-stim-button","61","158158","0.0-2.0-19.1-1.1","60feb622ae107ad3083ebde6","D2","batch4","","620","tol_toboard","","","","tol_peg_3","620","620","0","[[3,1,0],[0,0],[2]]","2","[[3,0,0],[1,0],[2]]","3","0","","","","","","3","","","","","","","","",""
"","","","","","single-stim-button","62","158794","0.0-2.0-19.2-0.2","60feb622ae107ad3083ebde6","D2","batch4","","636","tol_tohand","","","","tol_peg_1","636","636","0","[[3,0,0],[0,0],[2]]","3","[[3,0,0],[1,0],[2]]","3","0","","","","","","3","","","","","","","","",""
"","","","","","single-stim-button","63","159359","0.0-2.0-19.2-1.2","60feb622ae107ad3083ebde6","D2","batch4","","564","tol_toboard","","","","tol_peg_2","564","564","0","[[3,0,0],[1,0],[2]]","3","[[3,0,0],[1,0],[2]]","3","0","","","","","","3","","","","","","","","",""
"","","","","","poldrack-single-stim","64","160368","0.0-2.0-20.0","60feb622ae107ad3083ebde6","D2","batch4","","-1","tol_feedback","","","true","","1000","1000","500","","","","","","-1","none","true","3500","4922","","","","","","","","","",""
"","","","","","html-button-response","65","161190","0.0-2.0-21.0","60feb622ae107ad3083ebde6","D2","batch4","","822","tol_trial_num","<div class = centerbox><p class = center-block-text>problem <strong>5</strong> out of 25 problems</p></div>","0","","","","","","","","","","","","","","","","","","","","","","","","",""
"","","","","","single-stim-button","66","167696","0.0-2.0-22.0-0.0","60feb622ae107ad3083ebde6","D2","batch4","","6504","tol_tohand","","","","tol_peg_3","6504","6504","0","[[1,0,0],[2,0],[0]]","1","[[0,0,0],[1,2],[3]]","4","0","","","","","","7","","","","","","","","",""
"","","","","","single-stim-button","67","169342","0.0-2.0-22.0-1.0","60feb622ae107ad3083ebde6","D2","batch4","","1645","tol_toboard","","","","tol_peg_1","1645","1645","0","[[1,3,0],[2,0],[0]]","1","[[0,0,0],[1,2],[3]]","4","0","","","","","","7","","","","","","","","",""
"","","","","","single-stim-button","68","170019","0.0-2.0-22.1-0.1","60feb622ae107ad3083ebde6","D2","batch4","","677","tol_tohand","","","","tol_peg_2","677","677","0","[[1,3,0],[0,0],[0]]","2","[[0,0,0],[1,2],[3]]","4","0","","","","","","7","","","","","","","","",""
"","","","","","single-stim-button","69","172205","0.0-2.0-22.1-1.1","60feb622ae107ad3083ebde6","D2","batch4","","2184","tol_toboard","","","","tol_peg_3","2184","2184","0","[[1,3,0],[0,0],[2]]","2","[[0,0,0],[1,2],[3]]","4","0","","","","","","7","","","","","","","","",""
"","","","","","single-stim-button","70","173318","0.0-2.0-22.2-0.2","60feb622ae107ad3083ebde6","D2","batch4","","1113","tol_tohand","","","","tol_peg_1","1113","1113","0","[[1,0,0],[0,0],[2]]","3","[[0,0,0],[1,2],[3]]","4","0","","","","","","7","","","","","","","","",""
"","","","","","single-stim-button","71","175419","0.0-2.0-22.2-1.2","60feb622ae107ad3083ebde6","D2","batch4","","2100","tol_toboard","","","","tol_peg_2","2100","2100","0","[[1,0,0],[3,0],[2]]","3","[[0,0,0],[1,2],[3]]","4","0","","","","","","7","","","","","","","","",""
"","","","","","single-stim-button","72","177380","0.0-2.0-22.3-0.3","60feb622ae107ad3083ebde6","D2","batch4","","1959","tol_tohand","","","","tol_peg_1","1959","1959","0","[[0,0,0],[3,0],[2]]","4","[[0,0,0],[1,2],[3]]","4","0","","","","","","7","","","","","","","","",""
"","","","","","single-stim-button","73","178921","0.0-2.0-22.3-1.3","60feb622ae107ad3083ebde6","D2","batch4","","1540","tol_toboard","","","","tol_peg_1","1540","1540","0","[[1,0,0],[3,0],[2]]","4","[[0,0,0],[1,2],[3]]","4","0","","","","","","7","","","","","","","","",""
"","","","","","single-stim-button","74","179808","0.0-2.0-22.4-0.4","60feb622ae107ad3083ebde6","D2","batch4","","886","tol_tohand","","","","tol_peg_3","886","886","0","[[1,0,0],[3,0],[0]]","5","[[0,0,0],[1,2],[3]]","4","0","","","","","","7","","","","","","","","",""
"","","","","","single-stim-button","75","180651","0.0-2.0-22.4-1.4","60feb622ae107ad3083ebde6","D2","batch4","","843","tol_toboard","","","","tol_peg_1","843","843","0","[[1,2,0],[3,0],[0]]","5","[[0,0,0],[1,2],[3]]","4","0","","","","","","7","","","","","","","","",""
"","","","","","single-stim-button","76","181360","0.0-2.0-22.5-0.5","60feb622ae107ad3083ebde6","D2","batch4","","708","tol_tohand","","","","tol_peg_2","708","708","0","[[1,2,0],[0,0],[0]]","6","[[0,0,0],[1,2],[3]]","4","0","","","","","","7","","","","","","","","",""
"","","","","","single-stim-button","77","181934","0.0-2.0-22.5-1.5","60feb622ae107ad3083ebde6","D2","batch4","","572","tol_toboard","","","","tol_peg_3","572","572","0","[[1,2,0],[0,0],[3]]","6","[[0,0,0],[1,2],[3]]","4","0","","","","","","7","","","","","","","","",""
"","","","","","single-stim-button","78","184091","0.0-2.0-22.6-0.6","60feb622ae107ad3083ebde6","D2","batch4","","2157","tol_tohand","","","","tol_peg_1","2157","2157","0","[[1,0,0],[0,0],[3]]","7","[[0,0,0],[1,2],[3]]","4","0","","","","","","7","","","","","","","","",""
"","","","","","single-stim-button","79","187229","0.0-2.0-22.6-1.6","60feb622ae107ad3083ebde6","D2","batch4","","3137","tol_toboard","","","","tol_peg_2","3137","3137","0","[[1,0,0],[2,0],[3]]","7","[[0,0,0],[1,2],[3]]","4","0","","","","","","7","","","","","","","","",""
"","","","","","single-stim-button","80","188004","0.0-2.0-22.7-0.7","60feb622ae107ad3083ebde6","D2","batch4","","774","tol_tohand","","","","tol_peg_1","774","774","0","[[0,0,0],[2,0],[3]]","8","[[0,0,0],[1,2],[3]]","4","0","","","","","","7","","","","","","","","",""
"","","","","","single-stim-button","81","189173","0.0-2.0-22.7-1.7","60feb622ae107ad3083ebde6","D2","batch4","","1167","tol_toboard","","","","tol_peg_2","1167","1167","0","[[0,0,0],[2,1],[3]]","8","[[0,0,0],[1,2],[3]]","4","0","","","","","","7","","","","","","","","",""
"","","","","","single-stim-button","82","189779","0.0-2.0-22.8-0.8","60feb622ae107ad3083ebde6","D2","batch4","","605","tol_tohand","","","","tol_peg_3","605","605","0","[[0,0,0],[2,1],[0]]","9","[[0,0,0],[1,2],[3]]","4","0","","","","","","7","","","","","","","","",""
"","","","","","single-stim-button","83","190738","0.0-2.0-22.8-1.8","60feb622ae107ad3083ebde6","D2","batch4","","959","tol_toboard","","","","tol_peg_1","959","959","0","[[3,0,0],[2,1],[0]]","9","[[0,0,0],[1,2],[3]]","4","0","","","","","","7","","","","","","","","",""
"","","","","","single-stim-button","84","194855","0.0-2.0-22.9-0.9","60feb622ae107ad3083ebde6","D2","batch4","","4115","tol_tohand","","","","tol_peg_2","4115","4115","0","[[3,0,0],[2,0],[0]]","10","[[0,0,0],[1,2],[3]]","4","0","","","","","","7","","","","","","","","",""
"","","","","","single-stim-button","85","195501","0.0-2.0-22.9-1.9","60feb622ae107ad3083ebde6","D2","batch4","","645","tol_toboard","","","","tol_peg_3","645","645","0","[[3,0,0],[2,0],[1]]","10","[[0,0,0],[1,2],[3]]","4","0","","","","","","7","","","","","","","","",""
"","","","","","single-stim-button","86","195921","0.0-2.0-22.10-0.10","60feb622ae107ad3083ebde6","D2","batch4","","418","tol_tohand","","","","tol_peg_2","418","418","0","[[3,0,0],[0,0],[1]]","11","[[0,0,0],[1,2],[3]]","4","0","","","","","","7","","","","","","","","",""
"","","","","","single-stim-button","87","196517","0.0-2.0-22.10-1.10","60feb622ae107ad3083ebde6","D2","batch4","","596","tol_toboard","","","","tol_peg_1","596","596","0","[[3,2,0],[0,0],[1]]","11","[[0,0,0],[1,2],[3]]","4","0","","","","","","7","","","","","","","","",""
"","","","","","single-stim-button","88","196969","0.0-2.0-22.11-0.11","60feb622ae107ad3083ebde6","D2","batch4","","451","tol_tohand","","","","tol_peg_3","451","451","0","[[3,2,0],[0,0],[0]]","12","[[0,0,0],[1,2],[3]]","4","0","","","","","","7","","","","","","","","",""
"","","","","","single-stim-button","89","197276","0.0-2.0-22.11-1.11","60feb622ae107ad3083ebde6","D2","batch4","","305","tol_toboard","","","","tol_peg_2","305","305","0","[[3,2,0],[1,0],[0]]","12","[[0,0,0],[1,2],[3]]","4","0","","","","","","7","","","","","","","","",""
"","","","","","single-stim-button","90","198725","0.0-2.0-22.12-0.12","60feb622ae107ad3083ebde6","D2","batch4","","1448","tol_tohand","","","","tol_peg_1","1448","1448","0","[[3,0,0],[1,0],[0]]","13","[[0,0,0],[1,2],[3]]","4","0","","","","","","7","","","","","","","","",""
"","","","","","single-stim-button","91","199159","0.0-2.0-22.12-1.12","60feb622ae107ad3083ebde6","D2","batch4","","434","tol_toboard","","","","tol_peg_2","434","434","0","[[3,0,0],[1,2],[0]]","13","[[0,0,0],[1,2],[3]]","4","0","","","","","","7","","","","","","","","",""
"","","","","","single-stim-button","92","199652","0.0-2.0-22.13-0.13","60feb622ae107ad3083ebde6","D2","batch4","","491","tol_tohand","","","","tol_peg_1","491","491","0","[[0,0,0],[1,2],[0]]","14","[[0,0,0],[1,2],[3]]","4","0","","","","","","7","","","","","","","","",""
"","","","","","single-stim-button","93","200111","0.0-2.0-22.13-1.13","60feb622ae107ad3083ebde6","D2","batch4","","459","tol_toboard","","","","tol_peg_3","459","459","0","[[0,0,0],[1,2],[3]]","14","[[0,0,0],[1,2],[3]]","4","0","","","","","","7","","","","","","","","",""
"","","","","","poldrack-single-stim","94","201112","0.0-2.0-23.0","60feb622ae107ad3083ebde6","D2","batch4","","-1","tol_feedback","","","true","","1000","1000","500","","","","","","-1","none","true","6504","22306","","","","","","","","","",""
"","","","","","html-button-response","95","201627","0.0-2.0-24.0","60feb622ae107ad3083ebde6","D2","batch4","","513.5","tol_trial_num","<div class = centerbox><p class = center-block-text>problem <strong>6</strong> out of 25 problems</p></div>","0","","","","","","","","","","","","","","","","","","","","","","","","",""
"","","","","","single-stim-button","96","206314","0.0-2.0-25.0-0.0","60feb622ae107ad3083ebde6","D2","batch4","","4685","tol_tohand","","","","tol_peg_3","4685","4685","0","[[0,0,0],[1,2],[0]]","1","[[1,0,0],[2,3],[0]]","5","0","","","","","","6","","","","","","","","",""
"","","","","","single-stim-button","97","207144","0.0-2.0-25.0-1.0","60feb622ae107ad3083ebde6","D2","batch4","","829","tol_toboard","","","","tol_peg_1","829","829","0","[[3,0,0],[1,2],[0]]","1","[[1,0,0],[2,3],[0]]","5","0","","","","","","6","","","","","","","","",""
"","","","","","single-stim-button","98","209032","0.0-2.0-25.1-0.1","60feb622ae107ad3083ebde6","D2","batch4","","1886","tol_tohand","","","","tol_peg_2","1886","1886","0","[[3,0,0],[1,0],[0]]","2","[[1,0,0],[2,3],[0]]","5","0","","","","","","6","","","","","","","","",""
"","","","","","single-stim-button","99","217485","0.0-2.0-25.1-1.1","60feb622ae107ad3083ebde6","D2","batch4","","8453","tol_toboard","","","","tol_peg_1","8453","8453","0","[[3,2,0],[1,0],[0]]","2","[[1,0,0],[2,3],[0]]","5","0","","","","","","6","","","","","","","","",""
"","","","","","single-stim-button","100","217989","0.0-2.0-25.2-0.2","60feb622ae107ad3083ebde6","D2","batch4","","503","tol_tohand","","","","tol_peg_2","503","503","0","[[3,2,0],[0,0],[0]]","3","[[1,0,0],[2,3],[0]]","5","0","","","","","","6","","","","","","","","",""
"","","","","","single-stim-button","101","218723","0.0-2.0-25.2-1.2","60feb622ae107ad3083ebde6","D2","batch4","","733","tol_toboard","","","","tol_peg_3","733","733","0","[[3,2,0],[0,0],[1]]","3","[[1,0,0],[2,3],[0]]","5","0","","","","","","6","","","","","","","","",""
"","","","","","single-stim-button","102","219320","0.0-2.0-25.3-0.3","60feb622ae107ad3083ebde6","D2","batch4","","596","tol_tohand","","","","tol_peg_1","596","596","0","[[3,0,0],[0,0],[1]]","4","[[1,0,0],[2,3],[0]]","5","0","","","","","","6","","","","","","","","",""
"","","","","","single-stim-button","103","219828","0.0-2.0-25.3-1.3","60feb622ae107ad3083ebde6","D2","batch4","","506","tol_toboard","","","","tol_peg_2","506","506","0","[[3,0,0],[2,0],[1]]","4","[[1,0,0],[2,3],[0]]","5","0","","","","","","6","","","","","","","","",""
"","","","","","single-stim-button","104","220385","0.0-2.0-25.4-0.4","60feb622ae107ad3083ebde6","D2","batch4","","557","tol_tohand","","","","tol_peg_1","557","557","0","[[0,0,0],[2,0],[1]]","5","[[1,0,0],[2,3],[0]]","5","0","","","","","","6","","","","","","","","",""
"","","","","","single-stim-button","105","220949","0.0-2.0-25.4-1.4","60feb622ae107ad3083ebde6","D2","batch4","","563","tol_toboard","","","","tol_peg_2","563","563","0","[[0,0,0],[2,3],[1]]","5","[[1,0,0],[2,3],[0]]","5","0","","","","","","6","","","","","","","","",""
"","","","","","single-stim-button","106","221385","0.0-2.0-25.5-0.5","60feb622ae107ad3083ebde6","D2","batch4","","435","tol_tohand","","","","tol_peg_3","435","435","0","[[0,0,0],[2,3],[0]]","6","[[1,0,0],[2,3],[0]]","5","0","","","","","","6","","","","","","","","",""
"","","","","","single-stim-button","107","221836","0.0-2.0-25.5-1.5","60feb622ae107ad3083ebde6","D2","batch4","","450","tol_toboard","","","","tol_peg_1","450","450","0","[[1,0,0],[2,3],[0]]","6","[[1,0,0],[2,3],[0]]","5","0","","","","","","6","","","","","","","","",""
"","","","","","poldrack-single-stim","108","222843","0.0-2.0-26.0","60feb622ae107ad3083ebde6","D2","batch4","","-1","tol_feedback","","","true","","1000","1000","500","","","","","","-1","none","true","4685","8662","","","","","","","","","",""
"","","","","","html-button-response","109","223260","0.0-2.0-27.0","60feb622ae107ad3083ebde6","D2","batch4","","416.59999999403954","tol_trial_num","<div class = centerbox><p class = center-block-text>problem <strong>7</strong> out of 25 problems</p></div>","0","","","","","","","","","","","","","","","","","","","","","","","","",""
"","","","","","single-stim-button","110","226423","0.0-2.0-28.0-0.0","60feb622ae107ad3083ebde6","D2","batch4","","3161","tol_tohand","","","","tol_peg_1","3161","3161","0","[[2,0,0],[0,0],[3]]","1","[[1,2,0],[3,0],[0]]","6","0","","","","","","5","","","","","","","","",""
"","","","","","single-stim-button","111","229228","0.0-2.0-28.0-1.0","60feb622ae107ad3083ebde6","D2","batch4","","2805","tol_toboard","","","","tol_peg_2","2805","2805","0","[[2,0,0],[1,0],[3]]","1","[[1,2,0],[3,0],[0]]","6","0","","","","","","5","","","","","","","","",""
"","","","","","single-stim-button","112","234706","0.0-2.0-28.1-0.1","60feb622ae107ad3083ebde6","D2","batch4","","5476","tol_tohand","","","","tol_peg_2","5476","5476","0","[[2,0,0],[0,0],[3]]","2","[[1,2,0],[3,0],[0]]","6","0","","","","","","5","","","","","","","","",""
"","","","","","single-stim-button","113","235310","0.0-2.0-28.1-1.1","60feb622ae107ad3083ebde6","D2","batch4","","604","tol_toboard","","","","tol_peg_1","604","604","0","[[2,1,0],[0,0],[3]]","2","[[1,2,0],[3,0],[0]]","6","0","","","","","","5","","","","","","","","",""
"","","","","","single-stim-button","114","235987","0.0-2.0-28.2-0.2","60feb622ae107ad3083ebde6","D2","batch4","","676","tol_tohand","","","","tol_peg_3","676","676","0","[[2,1,0],[0,0],[0]]","3","[[1,2,0],[3,0],[0]]","6","0","","","","","","5","","","","","","","","",""
"","","","","","single-stim-button","115","239067","0.0-2.0-28.2-1.2","60feb622ae107ad3083ebde6","D2","batch4","","3079","tol_toboard","","","","tol_peg_2","3079","3079","0","[[2,1,0],[3,0],[0]]","3","[[1,2,0],[3,0],[0]]","6","0","","","","","","5","","","","","","","","",""
"","","","","","single-stim-button","116","239564","0.0-2.0-28.3-0.3","60feb622ae107ad3083ebde6","D2","batch4","","496","tol_tohand","","","","tol_peg_1","496","496","0","[[2,0,0],[3,0],[0]]","4","[[1,2,0],[3,0],[0]]","6","0","","","","","","5","","","","","","","","",""
"","","","","","single-stim-button","117","241145","0.0-2.0-28.3-1.3","60feb622ae107ad3083ebde6","D2","batch4","","1580","tol_toboard","","","","tol_peg_3","1580","1580","0","[[2,0,0],[3,0],[1]]","4","[[1,2,0],[3,0],[0]]","6","0","","","","","","5","","","","","","","","",""
"","","","","","single-stim-button","118","242161","0.0-2.0-28.4-0.4","60feb622ae107ad3083ebde6","D2","batch4","","1015","tol_tohand","","","","tol_peg_1","1015","1015","0","[[0,0,0],[3,0],[1]]","5","[[1,2,0],[3,0],[0]]","6","0","","","","","","5","","","","","","","","",""
"","","","","","single-stim-button","119","242596","0.0-2.0-28.4-1.4","60feb622ae107ad3083ebde6","D2","batch4","","434","tol_toboard","","","","tol_peg_2","434","434","0","[[0,0,0],[3,2],[1]]","5","[[1,2,0],[3,0],[0]]","6","0","","","","","","5","","","","","","","","",""
"","","","","","single-stim-button","120","243105","0.0-2.0-28.5-0.5","60feb622ae107ad3083ebde6","D2","batch4","","507","tol_tohand","","","","tol_peg_3","507","507","0","[[0,0,0],[3,2],[0]]","6","[[1,2,0],[3,0],[0]]","6","0","","","","","","5","","","","","","","","",""
"","","","","","single-stim-button","121","243702","0.0-2.0-28.5-1.5","60feb622ae107ad3083ebde6","D2","batch4","","597","tol_toboard","","","","tol_peg_1","597","597","0","[[1,0,0],[3,2],[0]]","6","[[1,2,0],[3,0],[0]]","6","0","","","","","","5","","","","","","","","",""
"","","","","","single-stim-button","122","244096","0.0-2.0-28.6-0.6","60feb622ae107ad3083ebde6","D2","batch4","","394","tol_tohand","","","","tol_peg_2","394","394","0","[[1,0,0],[3,0],[0]]","7","[[1,2,0],[3,0],[0]]","6","0","","","","","","5","","","","","","","","",""
"","","","","","single-stim-button","123","244557","0.0-2.0-28.6-1.6","60feb622ae107ad3083ebde6","D2","batch4","","459","tol_toboard","","","","tol_peg_1","459","459","0","[[1,2,0],[3,0],[0]]","7","[[1,2,0],[3,0],[0]]","6","0","","","","","","5","","","","","","","","",""
"","","","","","poldrack-single-stim","124","245565","0.0-2.0-29.0","60feb622ae107ad3083ebde6","D2","batch4","","-1","tol_feedback","","","true","","1000","1000","500","","","","","","-1","none","true","3161","11725","","","","","","","","","",""
"","","","","","html-button-response","125","246181","0.0-2.0-30.0","60feb622ae107ad3083ebde6","D2","batch4","","615.3000000119209","tol_trial_num","<div class = centerbox><p class = center-block-text>problem <strong>8</strong> out of 25 problems</p></div>","0","","","","","","","","","","","","","","","","","","","","","","","","",""
"","","","","","single-stim-button","126","249089","0.0-2.0-31.0-0.0","60feb622ae107ad3083ebde6","D2","batch4","","2906","tol_tohand","","","","tol_peg_3","2906","2906","0","[[0,0,0],[2,3],[0]]","1","[[1,2,0],[3,0],[0]]","7","0","","","","","","4","","","","","","","","",""
"","","","","","single-stim-button","127","249984","0.0-2.0-31.0-1.0","60feb622ae107ad3083ebde6","D2","batch4","","894","tol_toboard","","","","tol_peg_1","894","894","0","[[1,0,0],[2,3],[0]]","1","[[1,2,0],[3,0],[0]]","7","0","","","","","","4","","","","","","","","",""
"","","","","","single-stim-button","128","250363","0.0-2.0-31.1-0.1","60feb622ae107ad3083ebde6","D2","batch4","","378","tol_tohand","","","","tol_peg_2","378","378","0","[[1,0,0],[2,0],[0]]","2","[[1,2,0],[3,0],[0]]","7","0","","","","","","4","","","","","","","","",""
"","","","","","single-stim-button","129","250734","0.0-2.0-31.1-1.1","60feb622ae107ad3083ebde6","D2","batch4","","371","tol_toboard","","","","tol_peg_3","371","371","0","[[1,0,0],[2,0],[3]]","2","[[1,2,0],[3,0],[0]]","7","0","","","","","","4","","","","","","","","",""
"","","","","","single-stim-button","130","251363","0.0-2.0-31.2-0.2","60feb622ae107ad3083ebde6","D2","batch4","","627","tol_tohand","","","","tol_peg_2","627","627","0","[[1,0,0],[0,0],[3]]","3","[[1,2,0],[3,0],[0]]","7","0","","","","","","4","","","","","","","","",""
"","","","","","single-stim-button","131","251726","0.0-2.0-31.2-1.2","60feb622ae107ad3083ebde6","D2","batch4","","363","tol_toboard","","","","tol_peg_1","363","363","0","[[1,2,0],[0,0],[3]]","3","[[1,2,0],[3,0],[0]]","7","0","","","","","","4","","","","","","","","",""
"","","","","","single-stim-button","132","252508","0.0-2.0-31.3-0.3","60feb622ae107ad3083ebde6","D2","batch4","","780","tol_tohand","","","","tol_peg_3","780","780","0","[[1,2,0],[0,0],[0]]","4","[[1,2,0],[3,0],[0]]","7","0","","","","","","4","","","","","","","","",""
"","","","","","single-stim-button","133","252790","0.0-2.0-31.3-1.3","60feb622ae107ad3083ebde6","D2","batch4","","282","tol_toboard","","","","tol_peg_2","282","282","0","[[1,2,0],[3,0],[0]]","4","[[1,2,0],[3,0],[0]]","7","0","","","","","","4","","","","","","","","",""
"","","","","","poldrack-single-stim","134","253798","0.0-2.0-32.0","60feb622ae107ad3083ebde6","D2","batch4","","-1","tol_feedback","","","true","","1000","1000","500","","","","","","-1","none","true","2906","4691","","","","","","","","","",""
"","","","","","html-button-response","135","254447","0.0-2.0-33.0","60feb622ae107ad3083ebde6","D2","batch4","","648.5999999940395","tol_trial_num","<div class = centerbox><p class = center-block-text>problem <strong>9</strong> out of 25 problems</p></div>","0","","","","","","","","","","","","","","","","","","","","","","","","",""
"","","","","","single-stim-button","136","258153","0.0-2.0-34.0-0.0","60feb622ae107ad3083ebde6","D2","batch4","","3705","tol_tohand","","","","tol_peg_1","3705","3705","0","[[3,0,0],[0,0],[1]]","1","[[2,1,0],[3,0],[0]]","8","0","","","","","","6","","","","","","","","",""
"","","","","","single-stim-button","137","259718","0.0-2.0-34.0-1.0","60feb622ae107ad3083ebde6","D2","batch4","","1564","tol_toboard","","","","tol_peg_2","1564","1564","0","[[3,0,0],[2,0],[1]]","1","[[2,1,0],[3,0],[0]]","8","0","","","","","","6","","","","","","","","",""
"","","","","","single-stim-button","138","263699","0.0-2.0-34.1-0.1","60feb622ae107ad3083ebde6","D2","batch4","","3979","tol_tohand","","","","tol_peg_1","3979","3979","0","[[0,0,0],[2,0],[1]]","2","[[2,1,0],[3,0],[0]]","8","0","","","","","","6","","","","","","","","",""
"","","","","","single-stim-button","139","264118","0.0-2.0-34.1-1.1","60feb622ae107ad3083ebde6","D2","batch4","","417","tol_toboard","","","","tol_peg_2","417","417","0","[[0,0,0],[2,3],[1]]","2","[[2,1,0],[3,0],[0]]","8","0","","","","","","6","","","","","","","","",""
"","","","","","single-stim-button","140","266360","0.0-2.0-34.2-0.2","60feb622ae107ad3083ebde6","D2","batch4","","2241","tol_tohand","","","","tol_peg_2","2241","2241","0","[[0,0,0],[2,0],[1]]","3","[[2,1,0],[3,0],[0]]","8","0","","","","","","6","","","","","","","","",""
"","","","","","single-stim-button","141","267086","0.0-2.0-34.2-1.2","60feb622ae107ad3083ebde6","D2","batch4","","725","tol_toboard","","","","tol_peg_2","725","725","0","[[0,0,0],[2,3],[1]]","3","[[2,1,0],[3,0],[0]]","8","0","","","","","","6","","","","","","","","",""
"","","","","","single-stim-button","142","267813","0.0-2.0-34.3-0.3","60feb622ae107ad3083ebde6","D2","batch4","","725","tol_tohand","","","","tol_peg_3","725","725","0","[[0,0,0],[2,3],[0]]","4","[[2,1,0],[3,0],[0]]","8","0","","","","","","6","","","","","","","","",""
"","","","","","single-stim-button","143","268353","0.0-2.0-34.3-1.3","60feb622ae107ad3083ebde6","D2","batch4","","539","tol_toboard","","","","tol_peg_1","539","539","0","[[1,0,0],[2,3],[0]]","4","[[2,1,0],[3,0],[0]]","8","0","","","","","","6","","","","","","","","",""
"","","","","","single-stim-button","144","270413","0.0-2.0-34.4-0.4","60feb622ae107ad3083ebde6","D2","batch4","","2059","tol_tohand","","","","tol_peg_2","2059","2059","0","[[1,0,0],[2,0],[0]]","5","[[2,1,0],[3,0],[0]]","8","0","","","","","","6","","","","","","","","",""
"","","","","","single-stim-button","145","271187","0.0-2.0-34.4-1.4","60feb622ae107ad3083ebde6","D2","batch4","","772","tol_toboard","","","","tol_peg_1","772","772","0","[[1,3,0],[2,0],[0]]","5","[[2,1,0],[3,0],[0]]","8","0","","","","","","6","","","","","","","","",""
"","","","","","single-stim-button","146","272131","0.0-2.0-34.5-0.5","60feb622ae107ad3083ebde6","D2","batch4","","943","tol_tohand","","","","tol_peg_2","943","943","0","[[1,3,0],[0,0],[0]]","6","[[2,1,0],[3,0],[0]]","8","0","","","","","","6","","","","","","","","",""
"","","","","","single-stim-button","147","272848","0.0-2.0-34.5-1.5","60feb622ae107ad3083ebde6","D2","batch4","","716","tol_toboard","","","","tol_peg_3","716","716","0","[[1,3,0],[0,0],[2]]","6","[[2,1,0],[3,0],[0]]","8","0","","","","","","6","","","","","","","","",""
"","","","","","single-stim-button","148","273736","0.0-2.0-34.6-0.6","60feb622ae107ad3083ebde6","D2","batch4","","886","tol_tohand","","","","tol_peg_1","886","886","0","[[1,0,0],[0,0],[2]]","7","[[2,1,0],[3,0],[0]]","8","0","","","","","","6","","","","","","","","",""
"","","","","","single-stim-button","149","274703","0.0-2.0-34.6-1.6","60feb622ae107ad3083ebde6","D2","batch4","","967","tol_toboard","","","","tol_peg_2","967","967","0","[[1,0,0],[3,0],[2]]","7","[[2,1,0],[3,0],[0]]","8","0","","","","","","6","","","","","","","","",""
"","","","","","single-stim-button","150","275755","0.0-2.0-34.7-0.7","60feb622ae107ad3083ebde6","D2","batch4","","1051","tol_tohand","","","","tol_peg_1","1051","1051","0","[[0,0,0],[3,0],[2]]","8","[[2,1,0],[3,0],[0]]","8","0","","","","","","6","","","","","","","","",""
"","","","","","single-stim-button","151","276175","0.0-2.0-34.7-1.7","60feb622ae107ad3083ebde6","D2","batch4","","419","tol_toboard","","","","tol_peg_2","419","419","0","[[0,0,0],[3,1],[2]]","8","[[2,1,0],[3,0],[0]]","8","0","","","","","","6","","","","","","","","",""
"","","","","","single-stim-button","152","276667","0.0-2.0-34.8-0.8","60feb622ae107ad3083ebde6","D2","batch4","","490","tol_tohand","","","","tol_peg_3","490","490","0","[[0,0,0],[3,1],[0]]","9","[[2,1,0],[3,0],[0]]","8","0","","","","","","6","","","","","","","","",""
"","","","","","single-stim-button","153","277553","0.0-2.0-34.8-1.8","60feb622ae107ad3083ebde6","D2","batch4","","886","tol_toboard","","","","tol_peg_1","886","886","0","[[2,0,0],[3,1],[0]]","9","[[2,1,0],[3,0],[0]]","8","0","","","","","","6","","","","","","","","",""
"","","","","","single-stim-button","154","277941","0.0-2.0-34.9-0.9","60feb622ae107ad3083ebde6","D2","batch4","","387","tol_tohand","","","","tol_peg_2","387","387","0","[[2,0,0],[3,0],[0]]","10","[[2,1,0],[3,0],[0]]","8","0","","","","","","6","","","","","","","","",""
"","","","","","single-stim-button","155","278570","0.0-2.0-34.9-1.9","60feb622ae107ad3083ebde6","D2","batch4","","628","tol_toboard","","","","tol_peg_1","628","628","0","[[2,1,0],[3,0],[0]]","10","[[2,1,0],[3,0],[0]]","8","0","","","","","","6","","","","","","","","",""
"","","","","","poldrack-single-stim","156","279577","0.0-2.0-35.0","60feb622ae107ad3083ebde6","D2","batch4","","-1","tol_feedback","","","true","","1000","1000","500","","","","","","-1","none","true","3705","16466","","","","","","","","","",""
"","","","","","html-button-response","157","280364","0.0-2.0-36.0","60feb622ae107ad3083ebde6","D2","batch4","","786.3000000119209","tol_trial_num","<div class = centerbox><p class = center-block-text>problem <strong>10</strong> out of 25 problems</p></div>","0","","","","","","","","","","","","","","","","","","","","","","","","",""
"","","","","","single-stim-button","158","283267","0.0-2.0-37.0-0.0","60feb622ae107ad3083ebde6","D2","batch4","","2902","tol_tohand","","","","tol_peg_2","2902","2902","0","[[3,0,0],[0,0],[2]]","1","[[3,0,0],[2,1],[0]]","9","0","","","","","","3","","","","","","","","",""
"","","","","","single-stim-button","159","283905","0.0-2.0-37.0-1.0","60feb622ae107ad3083ebde6","D2","batch4","","637","tol_toboard","","","","tol_peg_1","637","637","0","[[3,1,0],[0,0],[2]]","1","[[3,0,0],[2,1],[0]]","9","0","","","","","","3","","","","","","","","",""
"","","","","","single-stim-button","160","284365","0.0-2.0-37.1-0.1","60feb622ae107ad3083ebde6","D2","batch4","","458","tol_tohand","","","","tol_peg_3","458","458","0","[[3,1,0],[0,0],[0]]","2","[[3,0,0],[2,1],[0]]","9","0","","","","","","3","","","","","","","","",""
"","","","","","single-stim-button","161","284800","0.0-2.0-37.1-1.1","60feb622ae107ad3083ebde6","D2","batch4","","434","tol_toboard","","","","tol_peg_2","434","434","0","[[3,1,0],[2,0],[0]]","2","[[3,0,0],[2,1],[0]]","9","0","","","","","","3","","","","","","","","",""
"","","","","","single-stim-button","162","285312","0.0-2.0-37.2-0.2","60feb622ae107ad3083ebde6","D2","batch4","","512","tol_tohand","","","","tol_peg_1","512","512","0","[[3,0,0],[2,0],[0]]","3","[[3,0,0],[2,1],[0]]","9","0","","","","","","3","","","","","","","","",""
"","","","","","single-stim-button","163","285626","0.0-2.0-37.2-1.2","60feb622ae107ad3083ebde6","D2","batch4","","313","tol_toboard","","","","tol_peg_2","313","313","0","[[3,0,0],[2,1],[0]]","3","[[3,0,0],[2,1],[0]]","9","0","","","","","","3","","","","","","","","",""
"","","","","","poldrack-single-stim","164","286637","0.0-2.0-38.0","60feb622ae107ad3083ebde6","D2","batch4","","-1","tol_feedback","","","true","","1000","1000","500","","","","","","-1","none","true","2902","3872","","","","","","","","","",""
"","","","","","html-button-response","165","287375","0.0-2.0-39.0","60feb622ae107ad3083ebde6","D2","batch4","","737.4000000059605","tol_trial_num","<div class = centerbox><p class = center-block-text>problem <strong>11</strong> out of 25 problems</p></div>","0","","","","","","","","","","","","","","","","","","","","","","","","",""
"","","","","","single-stim-button","166","291808","0.0-2.0-40.0-0.0","60feb622ae107ad3083ebde6","D2","batch4","","4432","tol_tohand","","","","tol_peg_2","4432","4432","0","[[1,2,0],[0,0],[0]]","1","[[2,0,0],[1,3],[0]]","10","0","","","","","","6","","","","","","","","",""
"","","","","","single-stim-button","167","292226","0.0-2.0-40.0-1.0","60feb622ae107ad3083ebde6","D2","batch4","","417","tol_toboard","","","","tol_peg_3","417","417","0","[[1,2,0],[0,0],[3]]","1","[[2,0,0],[1,3],[0]]","10","0","","","","","","6","","","","","","","","",""
"","","","","","single-stim-button","168","293170","0.0-2.0-40.1-0.1","60feb622ae107ad3083ebde6","D2","batch4","","943","tol_tohand","","","","tol_peg_1","943","943","0","[[1,0,0],[0,0],[3]]","2","[[2,0,0],[1,3],[0]]","10","0","","","","","","6","","","","","","","","",""
"","","","","","single-stim-button","169","300509","0.0-2.0-40.1-1.1","60feb622ae107ad3083ebde6","D2","batch4","","7338","tol_toboard","","","","tol_peg_2","7338","7338","0","[[1,0,0],[2,0],[3]]","2","[[2,0,0],[1,3],[0]]","10","0","","","","","","6","","","","","","","","",""
"","","","","","single-stim-button","170","302456","0.0-2.0-40.2-0.2","60feb622ae107ad3083ebde6","D2","batch4","","1945","tol_tohand","","","","tol_peg_1","1945","1945","0","[[0,0,0],[2,0],[3]]","3","[[2,0,0],[1,3],[0]]","10","0","","","","","","6","","","","","","","","",""
"","","","","","single-stim-button","171","303408","0.0-2.0-40.2-1.2","60feb622ae107ad3083ebde6","D2","batch4","","952","tol_toboard","","","","tol_peg_2","952","952","0","[[0,0,0],[2,1],[3]]","3","[[2,0,0],[1,3],[0]]","10","0","","","","","","6","","","","","","","","",""
"","","","","","single-stim-button","172","308431","0.0-2.0-40.3-0.3","60feb622ae107ad3083ebde6","D2","batch4","","5022","tol_tohand","","","","tol_peg_3","5022","5022","0","[[0,0,0],[2,1],[0]]","4","[[2,0,0],[1,3],[0]]","10","0","","","","","","6","","","","","","","","",""
"","","","","","single-stim-button","173","308908","0.0-2.0-40.3-1.3","60feb622ae107ad3083ebde6","D2","batch4","","475","tol_toboard","","","","tol_peg_1","475","475","0","[[3,0,0],[2,1],[0]]","4","[[2,0,0],[1,3],[0]]","10","0","","","","","","6","","","","","","","","",""
"","","","","","single-stim-button","174","309480","0.0-2.0-40.4-0.4","60feb622ae107ad3083ebde6","D2","batch4","","571","tol_tohand","","","","tol_peg_2","571","571","0","[[3,0,0],[2,0],[0]]","5","[[2,0,0],[1,3],[0]]","10","0","","","","","","6","","","","","","","","",""
"","","","","","single-stim-button","175","309940","0.0-2.0-40.4-1.4","60feb622ae107ad3083ebde6","D2","batch4","","459","tol_toboard","","","","tol_peg_3","459","459","0","[[3,0,0],[2,0],[1]]","5","[[2,0,0],[1,3],[0]]","10","0","","","","","","6","","","","","","","","",""
"","","","","","single-stim-button","176","314971","0.0-2.0-40.5-0.5","60feb622ae107ad3083ebde6","D2","batch4","","5030","tol_tohand","","","","tol_peg_2","5030","5030","0","[[3,0,0],[0,0],[1]]","6","[[2,0,0],[1,3],[0]]","10","0","","","","","","6","","","","","","","","",""
"","","","","","single-stim-button","177","315697","0.0-2.0-40.5-1.5","60feb622ae107ad3083ebde6","D2","batch4","","726","tol_toboard","","","","tol_peg_1","726","726","0","[[3,2,0],[0,0],[1]]","6","[[2,0,0],[1,3],[0]]","10","0","","","","","","6","","","","","","","","",""
"","","","","","single-stim-button","178","317681","0.0-2.0-40.6-0.6","60feb622ae107ad3083ebde6","D2","batch4","","1983","tol_tohand","","","","tol_peg_1","1983","1983","0","[[3,0,0],[0,0],[1]]","7","[[2,0,0],[1,3],[0]]","10","0","","","","","","6","","","","","","","","",""
"","","","","","single-stim-button","179","320744","0.0-2.0-40.6-1.6","60feb622ae107ad3083ebde6","D2","batch4","","3062","tol_toboard","","","","tol_peg_1","3062","3062","0","[[3,2,0],[0,0],[1]]","7","[[2,0,0],[1,3],[0]]","10","0","","","","","","6","","","","","","","","",""
"","","","","","single-stim-button","180","321253","0.0-2.0-40.7-0.7","60feb622ae107ad3083ebde6","D2","batch4","","507","tol_tohand","","","","tol_peg_3","507","507","0","[[3,2,0],[0,0],[0]]","8","[[2,0,0],[1,3],[0]]","10","0","","","","","","6","","","","","","","","",""
"","","","","","single-stim-button","181","321930","0.0-2.0-40.7-1.7","60feb622ae107ad3083ebde6","D2","batch4","","676","tol_toboard","","","","tol_peg_1","676","676","0","[[3,2,1],[0,0],[0]]","8","[[2,0,0],[1,3],[0]]","10","0","","","","","","6","","","","","","","","",""
"","","","","","single-stim-button","182","322926","0.0-2.0-40.8-0.8","60feb622ae107ad3083ebde6","D2","batch4","","996","tol_tohand","","","","tol_peg_1","996","996","0","[[3,2,0],[0,0],[0]]","9","[[2,0,0],[1,3],[0]]","10","0","","","","","","6","","","","","","","","",""
"","","","","","single-stim-button","183","325498","0.0-2.0-40.8-1.8","60feb622ae107ad3083ebde6","D2","batch4","","2571","tol_toboard","","","","tol_peg_2","2571","2571","0","[[3,2,0],[1,0],[0]]","9","[[2,0,0],[1,3],[0]]","10","0","","","","","","6","","","","","","","","",""
"","","","","","single-stim-button","184","326007","0.0-2.0-40.9-0.9","60feb622ae107ad3083ebde6","D2","batch4","","507","tol_tohand","","","","tol_peg_1","507","507","0","[[3,0,0],[1,0],[0]]","10","[[2,0,0],[1,3],[0]]","10","0","","","","","","6","","","","","","","","",""
"","","","","","single-stim-button","185","326796","0.0-2.0-40.9-1.9","60feb622ae107ad3083ebde6","D2","batch4","","789","tol_toboard","","","","tol_peg_3","789","789","0","[[3,0,0],[1,0],[2]]","10","[[2,0,0],[1,3],[0]]","10","0","","","","","","6","","","","","","","","",""
"","","","","","single-stim-button","186","327555","0.0-2.0-40.10-0.10","60feb622ae107ad3083ebde6","D2","batch4","","757","tol_tohand","","","","tol_peg_1","757","757","0","[[0,0,0],[1,0],[2]]","11","[[2,0,0],[1,3],[0]]","10","0","","","","","","6","","","","","","","","",""
"","","","","","single-stim-button","187","327933","0.0-2.0-40.10-1.10","60feb622ae107ad3083ebde6","D2","batch4","","378","tol_toboard","","","","tol_peg_2","378","378","0","[[0,0,0],[1,3],[2]]","11","[[2,0,0],[1,3],[0]]","10","0","","","","","","6","","","","","","","","",""
"","","","","","single-stim-button","188","328611","0.0-2.0-40.11-0.11","60feb622ae107ad3083ebde6","D2","batch4","","677","tol_tohand","","","","tol_peg_3","677","677","0","[[0,0,0],[1,3],[0]]","12","[[2,0,0],[1,3],[0]]","10","0","","","","","","6","","","","","","","","",""
"","","","","","single-stim-button","189","328982","0.0-2.0-40.11-1.11","60feb622ae107ad3083ebde6","D2","batch4","","370","tol_toboard","","","","tol_peg_1","370","370","0","[[2,0,0],[1,3],[0]]","12","[[2,0,0],[1,3],[0]]","10","0","","","","","","6","","","","","","","","",""
"","","","","","poldrack-single-stim","190","329986","0.0-2.0-41.0","60feb622ae107ad3083ebde6","D2","batch4","","-1","tol_feedback","","","true","","1000","1000","500","","","","","","-1","none","true","4432","23370","","","","","","","","","",""
"","","","","","html-button-response","191","330478","0.0-2.0-42.0","60feb622ae107ad3083ebde6","D2","batch4","","491","tol_trial_num","<div class = centerbox><p class = center-block-text>problem <strong>12</strong> out of 25 problems</p></div>","0","","","","","","","","","","","","","","","","","","","","","","","","",""
"","","","","","single-stim-button","192","335271","0.0-2.0-43.0-0.0","60feb622ae107ad3083ebde6","D2","batch4","","4792","tol_tohand","","","","tol_peg_2","4792","4792","0","[[1,2,0],[0,0],[0]]","1","[[2,3,0],[0,0],[1]]","11","0","","","","","","4","","","","","","","","",""
"","","","","","single-stim-button","193","335804","0.0-2.0-43.0-1.0","60feb622ae107ad3083ebde6","D2","batch4","","531","tol_toboard","","","","tol_peg_3","531","531","0","[[1,2,0],[0,0],[3]]","1","[[2,3,0],[0,0],[1]]","11","0","","","","","","4","","","","","","","","",""
"","","","","","single-stim-button","194","337271","0.0-2.0-43.1-0.1","60feb622ae107ad3083ebde6","D2","batch4","","1467","tol_tohand","","","","tol_peg_1","1467","1467","0","[[1,0,0],[0,0],[3]]","2","[[2,3,0],[0,0],[1]]","11","0","","","","","","4","","","","","","","","",""
"","","","","","single-stim-button","195","338489","0.0-2.0-43.1-1.1","60feb622ae107ad3083ebde6","D2","batch4","","1217","tol_toboard","","","","tol_peg_2","1217","1217","0","[[1,0,0],[2,0],[3]]","2","[[2,3,0],[0,0],[1]]","11","0","","","","","","4","","","","","","","","",""
"","","","","","single-stim-button","196","340911","0.0-2.0-43.2-0.2","60feb622ae107ad3083ebde6","D2","batch4","","2421","tol_tohand","","","","tol_peg_1","2421","2421","0","[[0,0,0],[2,0],[3]]","3","[[2,3,0],[0,0],[1]]","11","0","","","","","","4","","","","","","","","",""
"","","","","","single-stim-button","197","341597","0.0-2.0-43.2-1.2","60feb622ae107ad3083ebde6","D2","batch4","","685","tol_toboard","","","","tol_peg_2","685","685","0","[[0,0,0],[2,1],[3]]","3","[[2,3,0],[0,0],[1]]","11","0","","","","","","4","","","","","","","","",""
"","","","","","single-stim-button","198","346983","0.0-2.0-43.3-0.3","60feb622ae107ad3083ebde6","D2","batch4","","5385","tol_tohand","","","","tol_peg_3","5385","5385","0","[[0,0,0],[2,1],[0]]","4","[[2,3,0],[0,0],[1]]","11","0","","","","","","4","","","","","","","","",""
"","","","","","single-stim-button","199","347636","0.0-2.0-43.3-1.3","60feb622ae107ad3083ebde6","D2","batch4","","652","tol_toboard","","","","tol_peg_1","652","652","0","[[3,0,0],[2,1],[0]]","4","[[2,3,0],[0,0],[1]]","11","0","","","","","","4","","","","","","","","",""
"","","","","","single-stim-button","200","349447","0.0-2.0-43.4-0.4","60feb622ae107ad3083ebde6","D2","batch4","","1809","tol_tohand","","","","tol_peg_2","1809","1809","0","[[3,0,0],[2,0],[0]]","5","[[2,3,0],[0,0],[1]]","11","0","","","","","","4","","","","","","","","",""
"","","","","","single-stim-button","201","350237","0.0-2.0-43.4-1.4","60feb622ae107ad3083ebde6","D2","batch4","","790","tol_toboard","","","","tol_peg_3","790","790","0","[[3,0,0],[2,0],[1]]","5","[[2,3,0],[0,0],[1]]","11","0","","","","","","4","","","","","","","","",""
"","","","","","single-stim-button","202","353930","0.0-2.0-43.5-0.5","60feb622ae107ad3083ebde6","D2","batch4","","3691","tol_tohand","","","","tol_peg_3","3691","3691","0","[[3,0,0],[2,0],[0]]","6","[[2,3,0],[0,0],[1]]","11","0","","","","","","4","","","","","","","","",""
"","","","","","single-stim-button","203","354438","0.0-2.0-43.5-1.5","60feb622ae107ad3083ebde6","D2","batch4","","507","tol_toboard","","","","tol_peg_1","507","507","0","[[3,1,0],[2,0],[0]]","6","[[2,3,0],[0,0],[1]]","11","0","","","","","","4","","","","","","","","",""
"","","","","","single-stim-button","204","354876","0.0-2.0-43.6-0.6","60feb622ae107ad3083ebde6","D2","batch4","","437","tol_tohand","","","","tol_peg_2","437","437","0","[[3,1,0],[0,0],[0]]","7","[[2,3,0],[0,0],[1]]","11","0","","","","","","4","","","","","","","","",""
"","","","","","single-stim-button","205","355196","0.0-2.0-43.6-1.6","60feb622ae107ad3083ebde6","D2","batch4","","319","tol_toboard","","","","tol_peg_1","319","319","0","[[3,1,2],[0,0],[0]]","7","[[2,3,0],[0,0],[1]]","11","0","","","","","","4","","","","","","","","",""
"","","","","","single-stim-button","206","360187","0.0-2.0-43.7-0.7","60feb622ae107ad3083ebde6","D2","batch4","","4989","tol_tohand","","","","tol_peg_1","4989","4989","0","[[3,1,0],[0,0],[0]]","8","[[2,3,0],[0,0],[1]]","11","0","","","","","","4","","","","","","","","",""
"","","","","","single-stim-button","207","361920","0.0-2.0-43.7-1.7","60feb622ae107ad3083ebde6","D2","batch4","","1733","tol_toboard","","","","tol_peg_2","1733","1733","0","[[3,1,0],[2,0],[0]]","8","[[2,3,0],[0,0],[1]]","11","0","","","","","","4","","","","","","","","",""
"","","","","","single-stim-button","208","362904","0.0-2.0-43.8-0.8","60feb622ae107ad3083ebde6","D2","batch4","","982","tol_tohand","","","","tol_peg_1","982","982","0","[[3,0,0],[2,0],[0]]","9","[[2,3,0],[0,0],[1]]","11","0","","","","","","4","","","","","","","","",""
"","","","","","single-stim-button","209","367396","0.0-2.0-43.8-1.8","60feb622ae107ad3083ebde6","D2","batch4","","4492","tol_toboard","","","","tol_peg_2","4492","4492","0","[[3,0,0],[2,1],[0]]","9","[[2,3,0],[0,0],[1]]","11","0","","","","","","4","","","","","","","","",""
"","","","","","single-stim-button","210","367968","0.0-2.0-43.9-0.9","60feb622ae107ad3083ebde6","D2","batch4","","570","tol_tohand","","","","tol_peg_1","570","570","0","[[0,0,0],[2,1],[0]]","10","[[2,3,0],[0,0],[1]]","11","0","","","","","","4","","","","","","","","",""
"","","","","","single-stim-button","211","368412","0.0-2.0-43.9-1.9","60feb622ae107ad3083ebde6","D2","batch4","","443","tol_toboard","","","","tol_peg_3","443","443","0","[[0,0,0],[2,1],[3]]","10","[[2,3,0],[0,0],[1]]","11","0","","","","","","4","","","","","","","","",""
"","","","","","single-stim-button","212","369451","0.0-2.0-43.10-0.10","60feb622ae107ad3083ebde6","D2","batch4","","1039","tol_tohand","","","","tol_peg_2","1039","1039","0","[[0,0,0],[2,0],[3]]","11","[[2,3,0],[0,0],[1]]","11","0","","","","","","4","","","","","","","","",""
"","","","","","single-stim-button","213","370121","0.0-2.0-43.10-1.10","60feb622ae107ad3083ebde6","D2","batch4","","669","tol_toboard","","","","tol_peg_1","669","669","0","[[1,0,0],[2,0],[3]]","11","[[2,3,0],[0,0],[1]]","11","0","","","","","","4","","","","","","","","",""
"","","","","","single-stim-button","214","376509","0.0-2.0-43.11-0.11","60feb622ae107ad3083ebde6","D2","batch4","","6387","tol_tohand","","","","tol_peg_3","6387","6387","0","[[1,0,0],[2,0],[0]]","12","[[2,3,0],[0,0],[1]]","11","0","","","","","","4","","","","","","","","",""
"","","","","","single-stim-button","215","378630","0.0-2.0-43.11-1.11","60feb622ae107ad3083ebde6","D2","batch4","","2120","tol_toboard","","","","tol_peg_3","2120","2120","0","[[1,0,0],[2,0],[3]]","12","[[2,3,0],[0,0],[1]]","11","0","","","","","","4","","","","","","","","",""
"","","","","","single-stim-button","216","379186","0.0-2.0-43.12-0.12","60feb622ae107ad3083ebde6","D2","batch4","","554","tol_tohand","","","","tol_peg_1","554","554","0","[[0,0,0],[2,0],[3]]","13","[[2,3,0],[0,0],[1]]","11","0","","","","","","4","","","","","","","","",""
"","","","","","single-stim-button","217","379702","0.0-2.0-43.12-1.12","60feb622ae107ad3083ebde6","D2","batch4","","515","tol_toboard","","","","tol_peg_2","515","515","0","[[0,0,0],[2,1],[3]]","13","[[2,3,0],[0,0],[1]]","11","0","","","","","","4","","","","","","","","",""
"","","","","","single-stim-button","218","382057","0.0-2.0-43.13-0.13","60feb622ae107ad3083ebde6","D2","batch4","","2354","tol_tohand","","","","tol_peg_2","2354","2354","0","[[0,0,0],[2,0],[3]]","14","[[2,3,0],[0,0],[1]]","11","0","","","","","","4","","","","","","","","",""
"","","","","","single-stim-button","219","384000","0.0-2.0-43.13-1.13","60feb622ae107ad3083ebde6","D2","batch4","","1942","tol_toboard","","","","tol_peg_1","1942","1942","0","[[1,0,0],[2,0],[3]]","14","[[2,3,0],[0,0],[1]]","11","0","","","","","","4","","","","","","","","",""
"","","","","","single-stim-button","220","386016","0.0-2.0-43.14-0.14","60feb622ae107ad3083ebde6","D2","batch4","","2015","tol_tohand","","","","tol_peg_2","2015","2015","0","[[1,0,0],[0,0],[3]]","15","[[2,3,0],[0,0],[1]]","11","0","","","","","","4","","","","","","","","",""
"","","","","","single-stim-button","221","386898","0.0-2.0-43.14-1.14","60feb622ae107ad3083ebde6","D2","batch4","","881","tol_toboard","","","","tol_peg_1","881","881","0","[[1,2,0],[0,0],[3]]","15","[[2,3,0],[0,0],[1]]","11","0","","","","","","4","","","","","","","","",""
"","","","","","single-stim-button","222","387463","0.0-2.0-43.15-0.15","60feb622ae107ad3083ebde6","D2","batch4","","563","tol_tohand","","","","tol_peg_3","563","563","0","[[1,2,0],[0,0],[0]]","16","[[2,3,0],[0,0],[1]]","11","0","","","","","","4","","","","","","","","",""
"","","","","","single-stim-button","223","387955","0.0-2.0-43.15-1.15","60feb622ae107ad3083ebde6","D2","batch4","","492","tol_toboard","","","","tol_peg_1","492","492","0","[[1,2,3],[0,0],[0]]","16","[[2,3,0],[0,0],[1]]","11","0","","","","","","4","","","","","","","","",""
"","","","","","single-stim-button","224","389390","0.0-2.0-43.16-0.16","60feb622ae107ad3083ebde6","D2","batch4","","1434","tol_tohand","","","","tol_peg_1","1434","1434","0","[[1,2,0],[0,0],[0]]","17","[[2,3,0],[0,0],[1]]","11","0","","","","","","4","","","","","","","","",""
"","","","","","single-stim-button","225","390059","0.0-2.0-43.16-1.16","60feb622ae107ad3083ebde6","D2","batch4","","668","tol_toboard","","","","tol_peg_2","668","668","0","[[1,2,0],[3,0],[0]]","17","[[2,3,0],[0,0],[1]]","11","0","","","","","","4","","","","","","","","",""
"","","","","","single-stim-button","226","391112","0.0-2.0-43.17-0.17","60feb622ae107ad3083ebde6","D2","batch4","","1052","tol_tohand","","","","tol_peg_1","1052","1052","0","[[1,0,0],[3,0],[0]]","18","[[2,3,0],[0,0],[1]]","11","0","","","","","","4","","","","","","","","",""
"","","","","","single-stim-button","227","391660","0.0-2.0-43.17-1.17","60feb622ae107ad3083ebde6","D2","batch4","","546","tol_toboard","","","","tol_peg_3","546","546","0","[[1,0,0],[3,0],[2]]","18","[[2,3,0],[0,0],[1]]","11","0","","","","","","4","","","","","","","","",""
"","","","","","single-stim-button","228","392644","0.0-2.0-43.18-0.18","60feb622ae107ad3083ebde6","D2","batch4","","984","tol_tohand","","","","tol_peg_1","984","984","0","[[0,0,0],[3,0],[2]]","19","[[2,3,0],[0,0],[1]]","11","0","","","","","","4","","","","","","","","",""
"","","","","","single-stim-button","229","393014","0.0-2.0-43.18-1.18","60feb622ae107ad3083ebde6","D2","batch4","","370","tol_toboard","","","","tol_peg_2","370","370","0","[[0,0,0],[3,1],[2]]","19","[[2,3,0],[0,0],[1]]","11","0","","","","","","4","","","","","","","","",""
"","","","","","single-stim-button","230","393465","0.0-2.0-43.19-0.19","60feb622ae107ad3083ebde6","D2","batch4","","450","tol_tohand","","","","tol_peg_3","450","450","0","[[0,0,0],[3,1],[0]]","20","[[2,3,0],[0,0],[1]]","11","0","","","","","","4","","","","","","","","",""
"","","","","","single-stim-button","231","393910","0.0-2.0-43.19-1.19","60feb622ae107ad3083ebde6","D2","batch4","","443","tol_toboard","","","","tol_peg_1","443","443","0","[[2,0,0],[3,1],[0]]","20","[[2,3,0],[0,0],[1]]","11","0","","","","","","4","","","","","","","","",""
"","","","","","single-stim-button","232","394312","0.0-2.0-43.20-0.20","60feb622ae107ad3083ebde6","D2","batch4","","402","tol_tohand","","","","tol_peg_2","402","402","0","[[2,0,0],[3,0],[0]]","21","[[2,3,0],[0,0],[1]]","11","0","","","","","","4","","","","","","","","",""
"","","","","","single-stim-button","233","395021","0.0-2.0-43.20-1.20","60feb622ae107ad3083ebde6","D2","batch4","","708","tol_toboard","","","","tol_peg_2","708","708","0","[[2,0,0],[3,1],[0]]","21","[[2,3,0],[0,0],[1]]","11","0","","","","","","4","","","","","","","","",""
"","","","","","single-stim-button","234","395699","0.0-2.0-43.21-0.21","60feb622ae107ad3083ebde6","D2","batch4","","677","tol_tohand","","","","tol_peg_2","677","677","0","[[2,0,0],[3,0],[0]]","22","[[2,3,0],[0,0],[1]]","11","0","","","","","","4","","","","","","","","",""
"","","","","","single-stim-button","235","396054","0.0-2.0-43.21-1.21","60feb622ae107ad3083ebde6","D2","batch4","","354","tol_toboard","","","","tol_peg_3","354","354","0","[[2,0,0],[3,0],[1]]","22","[[2,3,0],[0,0],[1]]","11","0","","","","","","4","","","","","","","","",""
"","","","","","single-stim-button","236","396526","0.0-2.0-43.22-0.22","60feb622ae107ad3083ebde6","D2","batch4","","471","tol_tohand","","","","tol_peg_2","471","471","0","[[2,0,0],[0,0],[1]]","23","[[2,3,0],[0,0],[1]]","11","0","","","","","","4","","","","","","","","",""
"","","","","","single-stim-button","237","397058","0.0-2.0-43.22-1.22","60feb622ae107ad3083ebde6","D2","batch4","","531","tol_toboard","","","","tol_peg_1","531","531","0","[[2,3,0],[0,0],[1]]","23","[[2,3,0],[0,0],[1]]","11","0","","","","","","4","","","","","","","","",""
"","","","","","poldrack-single-stim","238","398063","0.0-2.0-44.0","60feb622ae107ad3083ebde6","D2","batch4","","-1","tol_feedback","","","true","","1000","1000","500","","","","","","-1","none","true","4792","44925","","","","","","","","","",""
"","","","","","html-button-response","239","399453","0.0-2.0-45.0","60feb622ae107ad3083ebde6","D2","batch4","","1389","tol_trial_num","<div class = centerbox><p class = center-block-text>problem <strong>13</strong> out of 25 problems</p></div>","0","","","","","","","","","","","","","","","","","","","","","","","","",""
"","","","","","single-stim-button","240","402165","0.0-2.0-46.0-0.0","60feb622ae107ad3083ebde6","D2","batch4","","2711","tol_tohand","","","","tol_peg_2","2711","2711","0","[[1,2,0],[0,0],[0]]","1","[[0,0,0],[2,3],[1]]","12","0","","","","","","4","","","","","","","","",""
"","","","","","single-stim-button","241","402787","0.0-2.0-46.0-1.0","60feb622ae107ad3083ebde6","D2","batch4","","620","tol_toboard","","","","tol_peg_3","620","620","0","[[1,2,0],[0,0],[3]]","1","[[0,0,0],[2,3],[1]]","12","0","","","","","","4","","","","","","","","",""
"","","","","","single-stim-button","242","403827","0.0-2.0-46.1-0.1","60feb622ae107ad3083ebde6","D2","batch4","","1040","tol_tohand","","","","tol_peg_1","1040","1040","0","[[1,0,0],[0,0],[3]]","2","[[0,0,0],[2,3],[1]]","12","0","","","","","","4","","","","","","","","",""
"","","","","","single-stim-button","243","404238","0.0-2.0-46.1-1.1","60feb622ae107ad3083ebde6","D2","batch4","","410","tol_toboard","","","","tol_peg_2","410","410","0","[[1,0,0],[2,0],[3]]","2","[[0,0,0],[2,3],[1]]","12","0","","","","","","4","","","","","","","","",""
"","","","","","single-stim-button","244","404658","0.0-2.0-46.2-0.2","60feb622ae107ad3083ebde6","D2","batch4","","418","tol_tohand","","","","tol_peg_3","418","418","0","[[1,0,0],[2,0],[0]]","3","[[0,0,0],[2,3],[1]]","12","0","","","","","","4","","","","","","","","",""
"","","","","","single-stim-button","245","405140","0.0-2.0-46.2-1.2","60feb622ae107ad3083ebde6","D2","batch4","","482","tol_toboard","","","","tol_peg_2","482","482","0","[[1,0,0],[2,3],[0]]","3","[[0,0,0],[2,3],[1]]","12","0","","","","","","4","","","","","","","","",""
"","","","","","single-stim-button","246","405963","0.0-2.0-46.3-0.3","60feb622ae107ad3083ebde6","D2","batch4","","822","tol_tohand","","","","tol_peg_1","822","822","0","[[0,0,0],[2,3],[0]]","4","[[0,0,0],[2,3],[1]]","12","0","","","","","","4","","","","","","","","",""
"","","","","","single-stim-button","247","406495","0.0-2.0-46.3-1.3","60feb622ae107ad3083ebde6","D2","batch4","","531","tol_toboard","","","","tol_peg_3","531","531","0","[[0,0,0],[2,3],[1]]","4","[[0,0,0],[2,3],[1]]","12","0","","","","","","4","","","","","","","","",""
"","","","","","poldrack-single-stim","248","407505","0.0-2.0-47.0","60feb622ae107ad3083ebde6","D2","batch4","","-1","tol_feedback","","","true","","1000","1000","500","","","","","","-1","none","true","2711","4991","","","","","","","","","",""
"","","","","","html-button-response","249","409385","0.0-2.0-48.0","60feb622ae107ad3083ebde6","D2","batch4","","1879.5","attention_check","<p class = block-text>How many balls are in your board<br></p>","1","true","","","","","","","","","","","","","","","","","","","","","","","",""
"","","","","","html-button-response","250","410127","0.0-2.0-49.0","60feb622ae107ad3083ebde6","D2","batch4","","740.5","tol_trial_num","<div class = centerbox><p class = center-block-text>problem <strong>14</strong> out of 25 problems</p></div>","0","","","","","","","","","","","","","","","","","","","","","","","","",""
"","","","","","single-stim-button","251","413034","0.0-2.0-50.0-0.0","60feb622ae107ad3083ebde6","D2","batch4","","2906","tol_tohand","","","","tol_peg_1","2906","2906","0","[[2,0,0],[3,0],[0]]","1","[[1,2,0],[3,0],[0]]","13","0","","","","","","4","","","","","","","","",""
"","","","","","single-stim-button","252","413445","0.0-2.0-50.0-1.0","60feb622ae107ad3083ebde6","D2","batch4","","410","tol_toboard","","","","tol_peg_2","410","410","0","[[2,0,0],[3,1],[0]]","1","[[1,2,0],[3,0],[0]]","13","0","","","","","","4","","","","","","","","",""
"","","","","","single-stim-button","253","413889","0.0-2.0-50.1-0.1","60feb622ae107ad3083ebde6","D2","batch4","","442","tol_tohand","","","","tol_peg_1","442","442","0","[[0,0,0],[3,1],[0]]","2","[[1,2,0],[3,0],[0]]","13","0","","","","","","4","","","","","","","","",""
"","","","","","single-stim-button","254","414283","0.0-2.0-50.1-1.1","60feb622ae107ad3083ebde6","D2","batch4","","394","tol_toboard","","","","tol_peg_3","394","394","0","[[0,0,0],[3,1],[2]]","2","[[1,2,0],[3,0],[0]]","13","0","","","","","","4","","","","","","","","",""
"","","","","","single-stim-button","255","415747","0.0-2.0-50.2-0.2","60feb622ae107ad3083ebde6","D2","batch4","","1463","tol_tohand","","","","tol_peg_2","1463","1463","0","[[0,0,0],[3,0],[2]]","3","[[1,2,0],[3,0],[0]]","13","0","","","","","","4","","","","","","","","",""
"","","","","","single-stim-button","256","416143","0.0-2.0-50.2-1.2","60feb622ae107ad3083ebde6","D2","batch4","","394","tol_toboard","","","","tol_peg_1","394","394","0","[[1,0,0],[3,0],[2]]","3","[[1,2,0],[3,0],[0]]","13","0","","","","","","4","","","","","","","","",""
"","","","","","single-stim-button","257","416964","0.0-2.0-50.3-0.3","60feb622ae107ad3083ebde6","D2","batch4","","821","tol_tohand","","","","tol_peg_3","821","821","0","[[1,0,0],[3,0],[0]]","4","[[1,2,0],[3,0],[0]]","13","0","","","","","","4","","","","","","","","",""
"","","","","","single-stim-button","258","418013","0.0-2.0-50.3-1.3","60feb622ae107ad3083ebde6","D2","batch4","","1048","tol_toboard","","","","tol_peg_1","1048","1048","0","[[1,2,0],[3,0],[0]]","4","[[1,2,0],[3,0],[0]]","13","0","","","","","","4","","","","","","","","",""
"","","","","","poldrack-single-stim","259","419024","0.0-2.0-51.0","60feb622ae107ad3083ebde6","D2","batch4","","-1","tol_feedback","","","true","","1000","1000","500","","","","","","-1","none","true","2906","5632","","","","","","","","","",""
"","","","","","html-button-response","260","419735","0.0-2.0-52.0","60feb622ae107ad3083ebde6","D2","batch4","","709.6999999880791","tol_trial_num","<div class = centerbox><p class = center-block-text>problem <strong>15</strong> out of 25 problems</p></div>","0","","","","","","","","","","","","","","","","","","","","","","","","",""
"","","","","","single-stim-button","261","421968","0.0-2.0-53.0-0.0","60feb622ae107ad3083ebde6","D2","batch4","","2232","tol_tohand","","","","tol_peg_1","2232","2232","0","[[1,0,0],[3,0],[0]]","1","[[2,0,0],[3,0],[1]]","14","0","","","","","","3","","","","","","","","",""
"","","","","","single-stim-button","262","423242","0.0-2.0-53.0-1.0","60feb622ae107ad3083ebde6","D2","batch4","","1273","tol_toboard","","","","tol_peg_2","1273","1273","0","[[1,0,0],[3,2],[0]]","1","[[2,0,0],[3,0],[1]]","14","0","","","","","","3","","","","","","","","",""
"","","","","","single-stim-button","263","423843","0.0-2.0-53.1-0.1","60feb622ae107ad3083ebde6","D2","batch4","","599","tol_tohand","","","","tol_peg_1","599","599","0","[[0,0,0],[3,2],[0]]","2","[[2,0,0],[3,0],[1]]","14","0","","","","","","3","","","","","","","","",""
"","","","","","single-stim-button","264","424375","0.0-2.0-53.1-1.1","60feb622ae107ad3083ebde6","D2","batch4","","531","tol_toboard","","","","tol_peg_3","531","531","0","[[0,0,0],[3,2],[1]]","2","[[2,0,0],[3,0],[1]]","14","0","","","","","","3","","","","","","","","",""
"","","","","","single-stim-button","265","425350","0.0-2.0-53.2-0.2","60feb622ae107ad3083ebde6","D2","batch4","","974","tol_tohand","","","","tol_peg_2","974","974","0","[[0,0,0],[3,0],[1]]","3","[[2,0,0],[3,0],[1]]","14","0","","","","","","3","","","","","","","","",""
"","","","","","single-stim-button","266","425818","0.0-2.0-53.2-1.2","60feb622ae107ad3083ebde6","D2","batch4","","467","tol_toboard","","","","tol_peg_1","467","467","0","[[2,0,0],[3,0],[1]]","3","[[2,0,0],[3,0],[1]]","14","0","","","","","","3","","","","","","","","",""
"","","","","","poldrack-single-stim","267","426825","0.0-2.0-54.0","60feb622ae107ad3083ebde6","D2","batch4","","-1","tol_feedback","","","true","","1000","1000","500","","","","","","-1","none","true","2232","3805","","","","","","","","","",""
"","","","","","html-button-response","268","427793","0.0-2.0-55.0","60feb622ae107ad3083ebde6","D2","batch4","","968","tol_trial_num","<div class = centerbox><p class = center-block-text>problem <strong>16</strong> out of 25 problems</p></div>","0","","","","","","","","","","","","","","","","","","","","","","","","",""
"","","","","","single-stim-button","269","432013","0.0-2.0-56.0-0.0","60feb622ae107ad3083ebde6","D2","batch4","","4219","tol_tohand","","","","tol_peg_3","4219","4219","0","[[0,0,0],[2,3],[0]]","1","[[2,3,0],[1,0],[0]]","15","0","","","","","","7","","","","","","","","",""
"","","","","","single-stim-button","270","432667","0.0-2.0-56.0-1.0","60feb622ae107ad3083ebde6","D2","batch4","","653","tol_toboard","","","","tol_peg_1","653","653","0","[[1,0,0],[2,3],[0]]","1","[[2,3,0],[1,0],[0]]","15","0","","","","","","7","","","","","","","","",""
"","","","","","single-stim-button","271","433179","0.0-2.0-56.1-0.1","60feb622ae107ad3083ebde6","D2","batch4","","510","tol_tohand","","","","tol_peg_2","510","510","0","[[1,0,0],[2,0],[0]]","2","[[2,3,0],[1,0],[0]]","15","0","","","","","","7","","","","","","","","",""
"","","","","","single-stim-button","272","434453","0.0-2.0-56.1-1.1","60feb622ae107ad3083ebde6","D2","batch4","","1274","tol_toboard","","","","tol_peg_1","1274","1274","0","[[1,3,0],[2,0],[0]]","2","[[2,3,0],[1,0],[0]]","15","0","","","","","","7","","","","","","","","",""
"","","","","","single-stim-button","273","434912","0.0-2.0-56.2-0.2","60feb622ae107ad3083ebde6","D2","batch4","","458","tol_tohand","","","","tol_peg_2","458","458","0","[[1,3,0],[0,0],[0]]","3","[[2,3,0],[1,0],[0]]","15","0","","","","","","7","","","","","","","","",""
"","","","","","single-stim-button","274","437606","0.0-2.0-56.2-1.2","60feb622ae107ad3083ebde6","D2","batch4","","2692","tol_toboard","","","","tol_peg_3","2692","2692","0","[[1,3,0],[0,0],[2]]","3","[[2,3,0],[1,0],[0]]","15","0","","","","","","7","","","","","","","","",""
"","","","","","single-stim-button","275","438606","0.0-2.0-56.3-0.3","60feb622ae107ad3083ebde6","D2","batch4","","998","tol_tohand","","","","tol_peg_1","998","998","0","[[1,0,0],[0,0],[2]]","4","[[2,3,0],[1,0],[0]]","15","0","","","","","","7","","","","","","","","",""
"","","","","","single-stim-button","276","438985","0.0-2.0-56.3-1.3","60feb622ae107ad3083ebde6","D2","batch4","","378","tol_toboard","","","","tol_peg_2","378","378","0","[[1,0,0],[3,0],[2]]","4","[[2,3,0],[1,0],[0]]","15","0","","","","","","7","","","","","","","","",""
"","","","","","single-stim-button","277","439372","0.0-2.0-56.4-0.4","60feb622ae107ad3083ebde6","D2","batch4","","387","tol_tohand","","","","tol_peg_1","387","387","0","[[0,0,0],[3,0],[2]]","5","[[2,3,0],[1,0],[0]]","15","0","","","","","","7","","","","","","","","",""
"","","","","","single-stim-button","278","439767","0.0-2.0-56.4-1.4","60feb622ae107ad3083ebde6","D2","batch4","","394","tol_toboard","","","","tol_peg_2","394","394","0","[[0,0,0],[3,1],[2]]","5","[[2,3,0],[1,0],[0]]","15","0","","","","","","7","","","","","","","","",""
"","","","","","single-stim-button","279","440371","0.0-2.0-56.5-0.5","60feb622ae107ad3083ebde6","D2","batch4","","603","tol_tohand","","","","tol_peg_3","603","603","0","[[0,0,0],[3,1],[0]]","6","[[2,3,0],[1,0],[0]]","15","0","","","","","","7","","","","","","","","",""
"","","","","","single-stim-button","280","440970","0.0-2.0-56.5-1.5","60feb622ae107ad3083ebde6","D2","batch4","","597","tol_toboard","","","","tol_peg_1","597","597","0","[[2,0,0],[3,1],[0]]","6","[[2,3,0],[1,0],[0]]","15","0","","","","","","7","","","","","","","","",""
"","","","","","single-stim-button","281","441602","0.0-2.0-56.6-0.6","60feb622ae107ad3083ebde6","D2","batch4","","631","tol_tohand","","","","tol_peg_2","631","631","0","[[2,0,0],[3,0],[0]]","7","[[2,3,0],[1,0],[0]]","15","0","","","","","","7","","","","","","","","",""
"","","","","","single-stim-button","282","442569","0.0-2.0-56.6-1.6","60feb622ae107ad3083ebde6","D2","batch4","","967","tol_toboard","","","","tol_peg_3","967","967","0","[[2,0,0],[3,0],[1]]","7","[[2,3,0],[1,0],[0]]","15","0","","","","","","7","","","","","","","","",""
"","","","","","single-stim-button","283","443149","0.0-2.0-56.7-0.7","60feb622ae107ad3083ebde6","D2","batch4","","579","tol_tohand","","","","tol_peg_2","579","579","0","[[2,0,0],[0,0],[1]]","8","[[2,3,0],[1,0],[0]]","15","0","","","","","","7","","","","","","","","",""
"","","","","","single-stim-button","284","443580","0.0-2.0-56.7-1.7","60feb622ae107ad3083ebde6","D2","batch4","","430","tol_toboard","","","","tol_peg_1","430","430","0","[[2,3,0],[0,0],[1]]","8","[[2,3,0],[1,0],[0]]","15","0","","","","","","7","","","","","","","","",""
"","","","","","single-stim-button","285","443988","0.0-2.0-56.8-0.8","60feb622ae107ad3083ebde6","D2","batch4","","406","tol_tohand","","","","tol_peg_3","406","406","0","[[2,3,0],[0,0],[0]]","9","[[2,3,0],[1,0],[0]]","15","0","","","","","","7","","","","","","","","",""
"","","","","","single-stim-button","286","444303","0.0-2.0-56.8-1.8","60feb622ae107ad3083ebde6","D2","batch4","","314","tol_toboard","","","","tol_peg_2","314","314","0","[[2,3,0],[1,0],[0]]","9","[[2,3,0],[1,0],[0]]","15","0","","","","","","7","","","","","","","","",""
"","","","","","poldrack-single-stim","287","445313","0.0-2.0-57.0","60feb622ae107ad3083ebde6","D2","batch4","","-1","tol_feedback","","","true","","1000","1000","500","","","","","","-1","none","true","4219","8791","","","","","","","","","",""
"","","","","","html-button-response","288","446112","0.0-2.0-58.0","60feb622ae107ad3083ebde6","D2","batch4","","798.5","tol_trial_num","<div class = centerbox><p class = center-block-text>problem <strong>17</strong> out of 25 problems</p></div>","0","","","","","","","","","","","","","","","","","","","","","","","","",""
"","","","","","single-stim-button","289","450115","0.0-2.0-59.0-0.0","60feb622ae107ad3083ebde6","D2","batch4","","4002","tol_tohand","","","","tol_peg_1","4002","4002","0","[[1,0,0],[3,0],[0]]","1","[[3,1,0],[2,0],[0]]","16","0","","","","","","5","","","","","","","","",""
"","","","","","single-stim-button","290","450745","0.0-2.0-59.0-1.0","60feb622ae107ad3083ebde6","D2","batch4","","629","tol_toboard","","","","tol_peg_3","629","629","0","[[1,0,0],[3,0],[2]]","1","[[3,1,0],[2,0],[0]]","16","0","","","","","","5","","","","","","","","",""
"","","","","","single-stim-button","291","452720","0.0-2.0-59.1-0.1","60feb622ae107ad3083ebde6","D2","batch4","","1974","tol_tohand","","","","tol_peg_1","1974","1974","0","[[0,0,0],[3,0],[2]]","2","[[3,1,0],[2,0],[0]]","16","0","","","","","","5","","","","","","","","",""
"","","","","","single-stim-button","292","453575","0.0-2.0-59.1-1.1","60feb622ae107ad3083ebde6","D2","batch4","","853","tol_toboard","","","","tol_peg_1","853","853","0","[[1,0,0],[3,0],[2]]","2","[[3,1,0],[2,0],[0]]","16","0","","","","","","5","","","","","","","","",""
"","","","","","single-stim-button","293","454252","0.0-2.0-59.2-0.2","60feb622ae107ad3083ebde6","D2","batch4","","676","tol_tohand","","","","tol_peg_3","676","676","0","[[1,0,0],[3,0],[0]]","3","[[3,1,0],[2,0],[0]]","16","0","","","","","","5","","","","","","","","",""
"","","","","","single-stim-button","294","454841","0.0-2.0-59.2-1.2","60feb622ae107ad3083ebde6","D2","batch4","","588","tol_toboard","","","","tol_peg_2","588","588","0","[[1,0,0],[3,2],[0]]","3","[[3,1,0],[2,0],[0]]","16","0","","","","","","5","","","","","","","","",""
"","","","","","single-stim-button","295","455272","0.0-2.0-59.3-0.3","60feb622ae107ad3083ebde6","D2","batch4","","430","tol_tohand","","","","tol_peg_1","430","430","0","[[0,0,0],[3,2],[0]]","4","[[3,1,0],[2,0],[0]]","16","0","","","","","","5","","","","","","","","",""
"","","","","","single-stim-button","296","455716","0.0-2.0-59.3-1.3","60feb622ae107ad3083ebde6","D2","batch4","","442","tol_toboard","","","","tol_peg_3","442","442","0","[[0,0,0],[3,2],[1]]","4","[[3,1,0],[2,0],[0]]","16","0","","","","","","5","","","","","","","","",""
"","","","","","single-stim-button","297","457022","0.0-2.0-59.4-0.4","60feb622ae107ad3083ebde6","D2","batch4","","1306","tol_tohand","","","","tol_peg_2","1306","1306","0","[[0,0,0],[3,0],[1]]","5","[[3,1,0],[2,0],[0]]","16","0","","","","","","5","","","","","","","","",""
"","","","","","single-stim-button","298","458466","0.0-2.0-59.4-1.4","60feb622ae107ad3083ebde6","D2","batch4","","1442","tol_toboard","","","","tol_peg_1","1442","1442","0","[[2,0,0],[3,0],[1]]","5","[[3,1,0],[2,0],[0]]","16","0","","","","","","5","","","","","","","","",""
"","","","","","single-stim-button","299","458933","0.0-2.0-59.5-0.5","60feb622ae107ad3083ebde6","D2","batch4","","467","tol_tohand","","","","tol_peg_2","467","467","0","[[2,0,0],[0,0],[1]]","6","[[3,1,0],[2,0],[0]]","16","0","","","","","","5","","","","","","","","",""
"","","","","","single-stim-button","300","459217","0.0-2.0-59.5-1.5","60feb622ae107ad3083ebde6","D2","batch4","","282","tol_toboard","","","","tol_peg_2","282","282","0","[[2,0,0],[3,0],[1]]","6","[[3,1,0],[2,0],[0]]","16","0","","","","","","5","","","","","","","","",""
"","","","","","single-stim-button","301","459727","0.0-2.0-59.6-0.6","60feb622ae107ad3083ebde6","D2","batch4","","510","tol_tohand","","","","tol_peg_1","510","510","0","[[0,0,0],[3,0],[1]]","7","[[3,1,0],[2,0],[0]]","16","0","","","","","","5","","","","","","","","",""
"","","","","","single-stim-button","302","461944","0.0-2.0-59.6-1.6","60feb622ae107ad3083ebde6","D2","batch4","","2216","tol_toboard","","","","tol_peg_2","2216","2216","0","[[0,0,0],[3,2],[1]]","7","[[3,1,0],[2,0],[0]]","16","0","","","","","","5","","","","","","","","",""
"","","","","","single-stim-button","303","462799","0.0-2.0-59.7-0.7","60feb622ae107ad3083ebde6","D2","batch4","","854","tol_tohand","","","","tol_peg_2","854","854","0","[[0,0,0],[3,0],[1]]","8","[[3,1,0],[2,0],[0]]","16","0","","","","","","5","","","","","","","","",""
"","","","","","single-stim-button","304","463274","0.0-2.0-59.7-1.7","60feb622ae107ad3083ebde6","D2","batch4","","474","tol_toboard","","","","tol_peg_1","474","474","0","[[2,0,0],[3,0],[1]]","8","[[3,1,0],[2,0],[0]]","16","0","","","","","","5","","","","","","","","",""
"","","","","","single-stim-button","305","463872","0.0-2.0-59.8-0.8","60feb622ae107ad3083ebde6","D2","batch4","","596","tol_tohand","","","","tol_peg_2","596","596","0","[[2,0,0],[0,0],[1]]","9","[[3,1,0],[2,0],[0]]","16","0","","","","","","5","","","","","","","","",""
"","","","","","single-stim-button","306","464290","0.0-2.0-59.8-1.8","60feb622ae107ad3083ebde6","D2","batch4","","418","tol_toboard","","","","tol_peg_1","418","418","0","[[2,3,0],[0,0],[1]]","9","[[3,1,0],[2,0],[0]]","16","0","","","","","","5","","","","","","","","",""
"","","","","","single-stim-button","307","465149","0.0-2.0-59.9-0.9","60feb622ae107ad3083ebde6","D2","batch4","","858","tol_tohand","","","","tol_peg_1","858","858","0","[[2,0,0],[0,0],[1]]","10","[[3,1,0],[2,0],[0]]","16","0","","","","","","5","","","","","","","","",""
"","","","","","single-stim-button","308","466318","0.0-2.0-59.9-1.9","60feb622ae107ad3083ebde6","D2","batch4","","1168","tol_toboard","","","","tol_peg_2","1168","1168","0","[[2,0,0],[3,0],[1]]","10","[[3,1,0],[2,0],[0]]","16","0","","","","","","5","","","","","","","","",""
"","","","","","single-stim-button","309","467012","0.0-2.0-59.10-0.10","60feb622ae107ad3083ebde6","D2","batch4","","693","tol_tohand","","","","tol_peg_3","693","693","0","[[2,0,0],[3,0],[0]]","11","[[3,1,0],[2,0],[0]]","16","0","","","","","","5","","","","","","","","",""
"","","","","","single-stim-button","310","468069","0.0-2.0-59.10-1.10","60feb622ae107ad3083ebde6","D2","batch4","","1055","tol_toboard","","","","tol_peg_1","1055","1055","0","[[2,1,0],[3,0],[0]]","11","[[3,1,0],[2,0],[0]]","16","0","","","","","","5","","","","","","","","",""
"","","","","","single-stim-button","311","468680","0.0-2.0-59.11-0.11","60feb622ae107ad3083ebde6","D2","batch4","","611","tol_tohand","","","","tol_peg_2","611","611","0","[[2,1,0],[0,0],[0]]","12","[[3,1,0],[2,0],[0]]","16","0","","","","","","5","","","","","","","","",""
"","","","","","single-stim-button","312","469165","0.0-2.0-59.11-1.11","60feb622ae107ad3083ebde6","D2","batch4","","483","tol_toboard","","","","tol_peg_3","483","483","0","[[2,1,0],[0,0],[3]]","12","[[3,1,0],[2,0],[0]]","16","0","","","","","","5","","","","","","","","",""
"","","","","","single-stim-button","313","469841","0.0-2.0-59.12-0.12","60feb622ae107ad3083ebde6","D2","batch4","","675","tol_tohand","","","","tol_peg_1","675","675","0","[[2,0,0],[0,0],[3]]","13","[[3,1,0],[2,0],[0]]","16","0","","","","","","5","","","","","","","","",""
"","","","","","single-stim-button","314","470576","0.0-2.0-59.12-1.12","60feb622ae107ad3083ebde6","D2","batch4","","733","tol_toboard","","","","tol_peg_2","733","733","0","[[2,0,0],[1,0],[3]]","13","[[3,1,0],[2,0],[0]]","16","0","","","","","","5","","","","","","","","",""
"","","","","","single-stim-button","315","470986","0.0-2.0-59.13-0.13","60feb622ae107ad3083ebde6","D2","batch4","","410","tol_tohand","","","","tol_peg_1","410","410","0","[[0,0,0],[1,0],[3]]","14","[[3,1,0],[2,0],[0]]","16","0","","","","","","5","","","","","","","","",""
"","","","","","single-stim-button","316","471414","0.0-2.0-59.13-1.13","60feb622ae107ad3083ebde6","D2","batch4","","427","tol_toboard","","","","tol_peg_2","427","427","0","[[0,0,0],[1,2],[3]]","14","[[3,1,0],[2,0],[0]]","16","0","","","","","","5","","","","","","","","",""
"","","","","","single-stim-button","317","471801","0.0-2.0-59.14-0.14","60feb622ae107ad3083ebde6","D2","batch4","","386","tol_tohand","","","","tol_peg_3","386","386","0","[[0,0,0],[1,2],[0]]","15","[[3,1,0],[2,0],[0]]","16","0","","","","","","5","","","","","","","","",""
"","","","","","single-stim-button","318","472349","0.0-2.0-59.14-1.14","60feb622ae107ad3083ebde6","D2","batch4","","546","tol_toboard","","","","tol_peg_1","546","546","0","[[3,0,0],[1,2],[0]]","15","[[3,1,0],[2,0],[0]]","16","0","","","","","","5","","","","","","","","",""
"","","","","","single-stim-button","319","472906","0.0-2.0-59.15-0.15","60feb622ae107ad3083ebde6","D2","batch4","","556","tol_tohand","","","","tol_peg_2","556","556","0","[[3,0,0],[1,0],[0]]","16","[[3,1,0],[2,0],[0]]","16","0","","","","","","5","","","","","","","","",""
"","","","","","single-stim-button","320","473946","0.0-2.0-59.15-1.15","60feb622ae107ad3083ebde6","D2","batch4","","1039","tol_toboard","","","","tol_peg_3","1039","1039","0","[[3,0,0],[1,0],[2]]","16","[[3,1,0],[2,0],[0]]","16","0","","","","","","5","","","","","","","","",""
"","","","","","single-stim-button","321","474300","0.0-2.0-59.16-0.16","60feb622ae107ad3083ebde6","D2","batch4","","354","tol_tohand","","","","tol_peg_2","354","354","0","[[3,0,0],[0,0],[2]]","17","[[3,1,0],[2,0],[0]]","16","0","","","","","","5","","","","","","","","",""
"","","","","","single-stim-button","322","474687","0.0-2.0-59.16-1.16","60feb622ae107ad3083ebde6","D2","batch4","","386","tol_toboard","","","","tol_peg_1","386","386","0","[[3,1,0],[0,0],[2]]","17","[[3,1,0],[2,0],[0]]","16","0","","","","","","5","","","","","","","","",""
"","","","","","single-stim-button","323","475325","0.0-2.0-59.17-0.17","60feb622ae107ad3083ebde6","D2","batch4","","636","tol_tohand","","","","tol_peg_3","636","636","0","[[3,1,0],[0,0],[0]]","18","[[3,1,0],[2,0],[0]]","16","0","","","","","","5","","","","","","","","",""
"","","","","","single-stim-button","324","475816","0.0-2.0-59.17-1.17","60feb622ae107ad3083ebde6","D2","batch4","","491","tol_toboard","","","","tol_peg_2","491","491","0","[[3,1,0],[2,0],[0]]","18","[[3,1,0],[2,0],[0]]","16","0","","","","","","5","","","","","","","","",""
"","","","","","poldrack-single-stim","325","476826","0.0-2.0-60.0","60feb622ae107ad3083ebde6","D2","batch4","","-1","tol_feedback","","","true","","1000","1000","500","","","","","","-1","none","true","4002","15994","","","","","","","","","",""
"","","","","","html-button-response","326","478198","0.0-2.0-61.0","60feb622ae107ad3083ebde6","D2","batch4","","1371.5","tol_trial_num","<div class = centerbox><p class = center-block-text>problem <strong>18</strong> out of 25 problems</p></div>","0","","","","","","","","","","","","","","","","","","","","","","","","",""
"","","","","","single-stim-button","327","483894","0.0-2.0-62.0-0.0","60feb622ae107ad3083ebde6","D2","batch4","","5695","tol_tohand","","","","tol_peg_1","5695","5695","0","[[1,0,0],[3,0],[0]]","1","[[3,0,0],[2,0],[1]]","17","0","","","","","","5","","","","","","","","",""
"","","","","","single-stim-button","328","484258","0.0-2.0-62.0-1.0","60feb622ae107ad3083ebde6","D2","batch4","","362","tol_toboard","","","","tol_peg_2","362","362","0","[[1,0,0],[3,2],[0]]","1","[[3,0,0],[2,0],[1]]","17","0","","","","","","5","","","","","","","","",""
"","","","","","single-stim-button","329","485209","0.0-2.0-62.1-0.1","60feb622ae107ad3083ebde6","D2","batch4","","950","tol_tohand","","","","tol_peg_1","950","950","0","[[0,0,0],[3,2],[0]]","2","[[3,0,0],[2,0],[1]]","17","0","","","","","","5","","","","","","","","",""
"","","","","","single-stim-button","330","488482","0.0-2.0-62.1-1.1","60feb622ae107ad3083ebde6","D2","batch4","","3272","tol_toboard","","","","tol_peg_1","3272","3272","0","[[1,0,0],[3,2],[0]]","2","[[3,0,0],[2,0],[1]]","17","0","","","","","","5","","","","","","","","",""
"","","","","","single-stim-button","331","491348","0.0-2.0-62.2-0.2","60feb622ae107ad3083ebde6","D2","batch4","","2865","tol_tohand","","","","tol_peg_2","2865","2865","0","[[1,0,0],[3,0],[0]]","3","[[3,0,0],[2,0],[1]]","17","0","","","","","","5","","","","","","","","",""
"","","","","","single-stim-button","332","491896","0.0-2.0-62.2-1.2","60feb622ae107ad3083ebde6","D2","batch4","","547","tol_toboard","","","","tol_peg_1","547","547","0","[[1,2,0],[3,0],[0]]","3","[[3,0,0],[2,0],[1]]","17","0","","","","","","5","","","","","","","","",""
"","","","","","single-stim-button","333","492381","0.0-2.0-62.3-0.3","60feb622ae107ad3083ebde6","D2","batch4","","483","tol_tohand","","","","tol_peg_2","483","483","0","[[1,2,0],[0,0],[0]]","4","[[3,0,0],[2,0],[1]]","17","0","","","","","","5","","","","","","","","",""
"","","","","","single-stim-button","334","492840","0.0-2.0-62.3-1.3","60feb622ae107ad3083ebde6","D2","batch4","","458","tol_toboard","","","","tol_peg_3","458","458","0","[[1,2,0],[0,0],[3]]","4","[[3,0,0],[2,0],[1]]","17","0","","","","","","5","","","","","","","","",""
"","","","","","single-stim-button","335","493768","0.0-2.0-62.4-0.4","60feb622ae107ad3083ebde6","D2","batch4","","927","tol_tohand","","","","tol_peg_1","927","927","0","[[1,0,0],[0,0],[3]]","5","[[3,0,0],[2,0],[1]]","17","0","","","","","","5","","","","","","","","",""
"","","","","","single-stim-button","336","494163","0.0-2.0-62.4-1.4","60feb622ae107ad3083ebde6","D2","batch4","","394","tol_toboard","","","","tol_peg_2","394","394","0","[[1,0,0],[2,0],[3]]","5","[[3,0,0],[2,0],[1]]","17","0","","","","","","5","","","","","","","","",""
"","","","","","single-stim-button","337","494873","0.0-2.0-62.5-0.5","60feb622ae107ad3083ebde6","D2","batch4","","709","tol_tohand","","","","tol_peg_1","709","709","0","[[0,0,0],[2,0],[3]]","6","[[3,0,0],[2,0],[1]]","17","0","","","","","","5","","","","","","","","",""
"","","","","","single-stim-button","338","495445","0.0-2.0-62.5-1.5","60feb622ae107ad3083ebde6","D2","batch4","","571","tol_toboard","","","","tol_peg_2","571","571","0","[[0,0,0],[2,1],[3]]","6","[[3,0,0],[2,0],[1]]","17","0","","","","","","5","","","","","","","","",""
"","","","","","single-stim-button","339","496025","0.0-2.0-62.6-0.6","60feb622ae107ad3083ebde6","D2","batch4","","580","tol_tohand","","","","tol_peg_3","580","580","0","[[0,0,0],[2,1],[0]]","7","[[3,0,0],[2,0],[1]]","17","0","","","","","","5","","","","","","","","",""
"","","","","","single-stim-button","340","496648","0.0-2.0-62.6-1.6","60feb622ae107ad3083ebde6","D2","batch4","","622","tol_toboard","","","","tol_peg_1","622","622","0","[[3,0,0],[2,1],[0]]","7","[[3,0,0],[2,0],[1]]","17","0","","","","","","5","","","","","","","","",""
"","","","","","single-stim-button","341","497025","0.0-2.0-62.7-0.7","60feb622ae107ad3083ebde6","D2","batch4","","376","tol_tohand","","","","tol_peg_2","376","376","0","[[3,0,0],[2,0],[0]]","8","[[3,0,0],[2,0],[1]]","17","0","","","","","","5","","","","","","","","",""
"","","","","","single-stim-button","342","497445","0.0-2.0-62.7-1.7","60feb622ae107ad3083ebde6","D2","batch4","","419","tol_toboard","","","","tol_peg_3","419","419","0","[[3,0,0],[2,0],[1]]","8","[[3,0,0],[2,0],[1]]","17","0","","","","","","5","","","","","","","","",""
"","","","","","poldrack-single-stim","343","498454","0.0-2.0-63.0","60feb622ae107ad3083ebde6","D2","batch4","","-1","tol_feedback","","","true","","1000","1000","500","","","","","","-1","none","true","5695","12585","","","","","","","","","",""
"","","","","","html-button-response","344","499319","0.0-2.0-64.0","60feb622ae107ad3083ebde6","D2","batch4","","864.3999999761581","tol_trial_num","<div class = centerbox><p class = center-block-text>problem <strong>19</strong> out of 25 problems</p></div>","0","","","","","","","","","","","","","","","","","","","","","","","","",""
"","","","","","single-stim-button","345","501682","0.0-2.0-65.0-0.0","60feb622ae107ad3083ebde6","D2","batch4","","2361","tol_tohand","","","","tol_peg_2","2361","2361","0","[[1,2,0],[0,0],[0]]","1","[[0,0,0],[1,2],[3]]","18","0","","","","","","7","","","","","","","","",""
"","","","","","single-stim-button","346","502464","0.0-2.0-65.0-1.0","60feb622ae107ad3083ebde6","D2","batch4","","781","tol_toboard","","","","tol_peg_3","781","781","0","[[1,2,0],[0,0],[3]]","1","[[0,0,0],[1,2],[3]]","18","0","","","","","","7","","","","","","","","",""
"","","","","","single-stim-button","347","504919","0.0-2.0-65.1-0.1","60feb622ae107ad3083ebde6","D2","batch4","","2454","tol_tohand","","","","tol_peg_1","2454","2454","0","[[1,0,0],[0,0],[3]]","2","[[0,0,0],[1,2],[3]]","18","0","","","","","","7","","","","","","","","",""
"","","","","","single-stim-button","348","505628","0.0-2.0-65.1-1.1","60feb622ae107ad3083ebde6","D2","batch4","","708","tol_toboard","","","","tol_peg_2","708","708","0","[[1,0,0],[2,0],[3]]","2","[[0,0,0],[1,2],[3]]","18","0","","","","","","7","","","","","","","","",""
"","","","","","single-stim-button","349","506209","0.0-2.0-65.2-0.2","60feb622ae107ad3083ebde6","D2","batch4","","580","tol_tohand","","","","tol_peg_1","580","580","0","[[0,0,0],[2,0],[3]]","3","[[0,0,0],[1,2],[3]]","18","0","","","","","","7","","","","","","","","",""
"","","","","","single-stim-button","350","507032","0.0-2.0-65.2-1.2","60feb622ae107ad3083ebde6","D2","batch4","","821","tol_toboard","","","","tol_peg_1","821","821","0","[[1,0,0],[2,0],[3]]","3","[[0,0,0],[1,2],[3]]","18","0","","","","","","7","","","","","","","","",""
"","","","","","single-stim-button","351","507910","0.0-2.0-65.3-0.3","60feb622ae107ad3083ebde6","D2","batch4","","878","tol_tohand","","","","tol_peg_2","878","878","0","[[1,0,0],[0,0],[3]]","4","[[0,0,0],[1,2],[3]]","18","0","","","","","","7","","","","","","","","",""
"","","","","","single-stim-button","352","509277","0.0-2.0-65.3-1.3","60feb622ae107ad3083ebde6","D2","batch4","","1366","tol_toboard","","","","tol_peg_2","1366","1366","0","[[1,0,0],[2,0],[3]]","4","[[0,0,0],[1,2],[3]]","18","0","","","","","","7","","","","","","","","",""
"","","","","","single-stim-button","353","510704","0.0-2.0-65.4-0.4","60feb622ae107ad3083ebde6","D2","batch4","","1426","tol_tohand","","","","tol_peg_3","1426","1426","0","[[1,0,0],[2,0],[0]]","5","[[0,0,0],[1,2],[3]]","18","0","","","","","","7","","","","","","","","",""
"","","","","","single-stim-button","354","511123","0.0-2.0-65.4-1.4","60feb622ae107ad3083ebde6","D2","batch4","","418","tol_toboard","","","","tol_peg_1","418","418","0","[[1,3,0],[2,0],[0]]","5","[[0,0,0],[1,2],[3]]","18","0","","","","","","7","","","","","","","","",""
"","","","","","single-stim-button","355","511566","0.0-2.0-65.5-0.5","60feb622ae107ad3083ebde6","D2","batch4","","442","tol_tohand","","","","tol_peg_2","442","442","0","[[1,3,0],[0,0],[0]]","6","[[0,0,0],[1,2],[3]]","18","0","","","","","","7","","","","","","","","",""
"","","","","","single-stim-button","356","512551","0.0-2.0-65.5-1.5","60feb622ae107ad3083ebde6","D2","batch4","","983","tol_toboard","","","","tol_peg_1","983","983","0","[[1,3,2],[0,0],[0]]","6","[[0,0,0],[1,2],[3]]","18","0","","","","","","7","","","","","","","","",""
