"success","timeout","failed_images","failed_audio","failed_video","trial_type","trial_index","time_elapsed","internal_node_id","subject_id","study_id","session_id","task","rt","stimulus","response","item","answer","correct","spm_correct","spm_rt","view_history","fiar_detect_rt","fiar_detect_correct","total_correct_fiar_detect","post_trial_gap","choices","mouse_click","stim_duration","block_duration","timing_post_trial","current_position","tol_num_moves_made","tol_target","tol_problem_id","tol_rt","key_press","possible_responses","tol_correct","preplanning","tol_rt_per_trial","tol_min_moves"
"true","false","[]","[]","[]","preload","0","3351","0.0-0.0","60ff11cfc567b54042430167","D2","batch4","","","","","","","","","","","","","","","","","","","","","","","","","","","","","",""
"true","","","","","fullscreen","1","15611","0.0-1.0-0.0","60ff11cfc567b54042430167","D2","batch4","","","","","","","","","","","","","","","","","","","","","","","","","","","","","",""
"true","","","","","fullscreen","2","19210","0.0-2.0-0.0","60ff11cfc567b54042430167","D2","batch4","spm_fullscreen","","","","","","","","","","","","","","","","","","","","","","","","","","","","",""
"","","","","","html-button-response","3","30276","0.0-2.0-1.0","60ff11cfc567b54042430167","D2","batch4","","11063.400000095367","<p class = block-text><b>Instructions</b> <br>This is a widely used intelligence test in research. <br>In this test, a figure with a missing piece will be presented.<br>Below the figure are alternative pieces to complete the figure, only one of which is correct.<br> Different figures might involve different principles for obtaining the missing piece<br>Your job is to select the most logical piece to complete the figure.</p>","0","","","","","","","","","","","","","","","","","","","","","","","","","",""
"","","","","","html-keyboard-response","4","31090","0.0-2.0-2.0-0.0","60ff11cfc567b54042430167","D2","batch4","spm_show_trial_num","null","<p class=block-text>Trial 1 out of 60</p>","null","","","","","","","","","","","","","","","","","","","","","","","","","",""
"","","","","","image-button-response","5","38051","0.0-2.0-2.0-1.0","60ff11cfc567b54042430167","D2","batch4","spm_respsonse","6956.599999904633","img/question_1_1.jpeg","3","mat_01","4","1","1","6956.599999904633","","","","","","","","","","","","","","","","","","","","",""
"","","","","","html-keyboard-response","6","39122","0.0-2.0-2.0-0.1","60ff11cfc567b54042430167","D2","batch4","spm_show_trial_num","null","<p class=block-text>Trial 2 out of 60</p>","null","","","","","","","","","","","","","","","","","","","","","","","","","",""
"","","","","","image-button-response","7","42484","0.0-2.0-2.0-1.1","60ff11cfc567b54042430167","D2","batch4","spm_respsonse","3360.300000190735","img/question_1_2.jpeg","4","mat_02","5","1","1","3360.300000190735","","","","","","","","","","","","","","","","","","","","",""
"","","","","","html-keyboard-response","8","43549","0.0-2.0-2.0-0.2","60ff11cfc567b54042430167","D2","batch4","spm_show_trial_num","null","<p class=block-text>Trial 3 out of 60</p>","null","","","","","","","","","","","","","","","","","","","","","","","","","",""
"","","","","","image-button-response","9","48833","0.0-2.0-2.0-1.2","60ff11cfc567b54042430167","D2","batch4","spm_respsonse","5281.5","img/question_1_3.jpeg","0","mat_03","1","1","1","5281.5","","","","","","","","","","","","","","","","","","","","",""
"","","","","","html-keyboard-response","10","49895","0.0-2.0-2.0-0.3","60ff11cfc567b54042430167","D2","batch4","spm_show_trial_num","null","<p class=block-text>Trial 4 out of 60</p>","null","","","","","","","","","","","","","","","","","","","","","","","","","",""
"","","","","","image-button-response","11","52861","0.0-2.0-2.0-1.3","60ff11cfc567b54042430167","D2","batch4","spm_respsonse","2964.800000190735","img/question_1_4.jpeg","1","mat_04","2","1","1","2964.800000190735","","","","","","","","","","","","","","","","","","","","",""
"","","","","","html-keyboard-response","12","53918","0.0-2.0-2.0-0.4","60ff11cfc567b54042430167","D2","batch4","spm_show_trial_num","null","<p class=block-text>Trial 5 out of 60</p>","null","","","","","","","","","","","","","","","","","","","","","","","","","",""
"","","","","","image-button-response","13","59693","0.0-2.0-2.0-1.4","60ff11cfc567b54042430167","D2","batch4","spm_respsonse","5772.299999713898","img/question_1_5.jpeg","5","mat_05","6","1","1","5772.299999713898","","","","","","","","","","","","","","","","","","","","",""
"","","","","","html-keyboard-response","14","60771","0.0-2.0-2.0-0.5","60ff11cfc567b54042430167","D2","batch4","spm_show_trial_num","null","<p class=block-text>Trial 6 out of 60</p>","null","","","","","","","","","","","","","","","","","","","","","","","","","",""
"","","","","","image-button-response","15","63949","0.0-2.0-2.0-1.5","60ff11cfc567b54042430167","D2","batch4","spm_respsonse","3175.7999997138977","img/question_1_6.jpeg","2","mat_06","3","1","1","3175.7999997138977","","","","","","","","","","","","","","","","","","","","",""
"","","","","","html-keyboard-response","16","65010","0.0-2.0-2.0-0.6","60ff11cfc567b54042430167","D2","batch4","spm_show_trial_num","null","<p class=block-text>Trial 7 out of 60</p>","null","","","","","","","","","","","","","","","","","","","","","","","","","",""
"","","","","","image-button-response","17","70600","0.0-2.0-2.0-1.6","60ff11cfc567b54042430167","D2","batch4","spm_respsonse","5588","img/question_1_7.jpeg","5","mat_07","6","1","1","5588","","","","","","","","","","","","","","","","","","","","",""
"","","","","","html-keyboard-response","18","71659","0.0-2.0-2.0-0.7","60ff11cfc567b54042430167","D2","batch4","spm_show_trial_num","null","<p class=block-text>Trial 8 out of 60</p>","null","","","","","","","","","","","","","","","","","","","","","","","","","",""
"","","","","","image-button-response","19","77152","0.0-2.0-2.0-1.7","60ff11cfc567b54042430167","D2","batch4","spm_respsonse","5491.400000095367","img/question_1_8.jpeg","0","mat_08","2","0","0","5491.400000095367","","","","","","","","","","","","","","","","","","","","",""
"","","","","","html-keyboard-response","20","78218","0.0-2.0-2.0-0.8","60ff11cfc567b54042430167","D2","batch4","spm_show_trial_num","null","<p class=block-text>Trial 9 out of 60</p>","null","","","","","","","","","","","","","","","","","","","","","","","","","",""
"","","","","","image-button-response","21","86506","0.0-2.0-2.0-1.8","60ff11cfc567b54042430167","D2","batch4","spm_respsonse","8287","img/question_1_9.jpeg","0","mat_09","1","1","1","8287","","","","","","","","","","","","","","","","","","","","",""
"","","","","","html-keyboard-response","22","87566","0.0-2.0-2.0-0.9","60ff11cfc567b54042430167","D2","batch4","spm_show_trial_num","null","<p class=block-text>Trial 10 out of 60</p>","null","","","","","","","","","","","","","","","","","","","","","","","","","",""
"","","","","","image-button-response","23","94165","0.0-2.0-2.0-1.9","60ff11cfc567b54042430167","D2","batch4","spm_respsonse","6596.099999904633","img/question_1_10.jpeg","2","mat_10","3","1","1","6596.099999904633","","","","","","","","","","","","","","","","","","","","",""
"","","","","","html-keyboard-response","24","95223","0.0-2.0-2.0-0.10","60ff11cfc567b54042430167","D2","batch4","spm_show_trial_num","null","<p class=block-text>Trial 11 out of 60</p>","null","","","","","","","","","","","","","","","","","","","","","","","","","",""
"","","","","","image-button-response","25","108562","0.0-2.0-2.0-1.10","60ff11cfc567b54042430167","D2","batch4","spm_respsonse","13336.5","img/question_1_11.jpeg","3","mat_11","4","1","1","13336.5","","","","","","","","","","","","","","","","","","","","",""
"","","","","","html-keyboard-response","26","109622","0.0-2.0-2.0-0.11","60ff11cfc567b54042430167","D2","batch4","spm_show_trial_num","null","<p class=block-text>Trial 12 out of 60</p>","null","","","","","","","","","","","","","","","","","","","","","","","","","",""
"","","","","","image-button-response","27","122710","0.0-2.0-2.0-1.11","60ff11cfc567b54042430167","D2","batch4","spm_respsonse","13086.10000038147","img/question_1_12.jpeg","5","mat_12","5","0","0","13086.10000038147","","","","","","","","","","","","","","","","","","","","",""
"","","","","","html-keyboard-response","28","123769","0.0-2.0-2.0-0.12","60ff11cfc567b54042430167","D2","batch4","spm_show_trial_num","null","<p class=block-text>Trial 13 out of 60</p>","null","","","","","","","","","","","","","","","","","","","","","","","","","",""
"","","","","","image-button-response","29","127172","0.0-2.0-2.0-1.12","60ff11cfc567b54042430167","D2","batch4","spm_respsonse","3400.9000000953674","img/question_2_1.jpeg","1","mat_13","2","1","1","3400.9000000953674","","","","","","","","","","","","","","","","","","","","",""
"","","","","","html-keyboard-response","30","128230","0.0-2.0-2.0-0.13","60ff11cfc567b54042430167","D2","batch4","spm_show_trial_num","null","<p class=block-text>Trial 14 out of 60</p>","null","","","","","","","","","","","","","","","","","","","","","","","","","",""
"","","","","","image-button-response","31","133947","0.0-2.0-2.0-1.13","60ff11cfc567b54042430167","D2","batch4","spm_respsonse","5714.400000095367","img/question_2_2.jpeg","5","mat_14","6","1","1","5714.400000095367","","","","","","","","","","","","","","","","","","","","",""
"","","","","","html-keyboard-response","32","135004","0.0-2.0-2.0-0.14","60ff11cfc567b54042430167","D2","batch4","spm_show_trial_num","null","<p class=block-text>Trial 15 out of 60</p>","null","","","","","","","","","","","","","","","","","","","","","","","","","",""
"","","","","","image-button-response","33","138754","0.0-2.0-2.0-1.14","60ff11cfc567b54042430167","D2","batch4","spm_respsonse","3748.5","img/question_2_3.jpeg","0","mat_15","1","1","1","3748.5","","","","","","","","","","","","","","","","","","","","",""
"","","","","","html-keyboard-response","34","139816","0.0-2.0-2.0-0.15","60ff11cfc567b54042430167","D2","batch4","spm_show_trial_num","null","<p class=block-text>Trial 16 out of 60</p>","null","","","","","","","","","","","","","","","","","","","","","","","","","",""
"","","","","","image-button-response","35","143738","0.0-2.0-2.0-1.15","60ff11cfc567b54042430167","D2","batch4","spm_respsonse","3919.7000002861023","img/question_2_4.jpeg","1","mat_16","2","1","1","3919.7000002861023","","","","","","","","","","","","","","","","","","","","",""
"","","","","","html-keyboard-response","36","144800","0.0-2.0-2.0-0.16","60ff11cfc567b54042430167","D2","batch4","spm_show_trial_num","null","<p class=block-text>Trial 17 out of 60</p>","null","","","","","","","","","","","","","","","","","","","","","","","","","",""
"","","","","","image-button-response","37","148763","0.0-2.0-2.0-1.16","60ff11cfc567b54042430167","D2","batch4","spm_respsonse","3961.2000002861023","img/question_2_5.jpeg","0","mat_17","1","1","1","3961.2000002861023","","","","","","","","","","","","","","","","","","","","",""
"","","","","","html-keyboard-response","38","149822","0.0-2.0-2.0-0.17","60ff11cfc567b54042430167","D2","batch4","spm_show_trial_num","null","<p class=block-text>Trial 18 out of 60</p>","null","","","","","","","","","","","","","","","","","","","","","","","","","",""
"","","","","","image-button-response","39","156862","0.0-2.0-2.0-1.17","60ff11cfc567b54042430167","D2","batch4","spm_respsonse","7037.900000095367","img/question_2_6.jpeg","2","mat_18","3","1","1","7037.900000095367","","","","","","","","","","","","","","","","","","","","",""
"","","","","","html-keyboard-response","40","157921","0.0-2.0-2.0-0.18","60ff11cfc567b54042430167","D2","batch4","spm_show_trial_num","null","<p class=block-text>Trial 19 out of 60</p>","null","","","","","","","","","","","","","","","","","","","","","","","","","",""
"","","","","","image-button-response","41","163219","0.0-2.0-2.0-1.18","60ff11cfc567b54042430167","D2","batch4","spm_respsonse","5296.299999713898","img/question_2_7.jpeg","4","mat_19","5","1","1","5296.299999713898","","","","","","","","","","","","","","","","","","","","",""
"","","","","","html-keyboard-response","42","164288","0.0-2.0-2.0-0.19","60ff11cfc567b54042430167","D2","batch4","spm_show_trial_num","null","<p class=block-text>Trial 20 out of 60</p>","null","","","","","","","","","","","","","","","","","","","","","","","","","",""
"","","","","","image-button-response","43","172379","0.0-2.0-2.0-1.19","60ff11cfc567b54042430167","D2","batch4","spm_respsonse","8089.299999713898","img/question_2_8.jpeg","5","mat_20","6","1","1","8089.299999713898","","","","","","","","","","","","","","","","","","","","",""
"","","","","","html-keyboard-response","44","173448","0.0-2.0-2.0-0.20","60ff11cfc567b54042430167","D2","batch4","spm_show_trial_num","null","<p class=block-text>Trial 21 out of 60</p>","null","","","","","","","","","","","","","","","","","","","","","","","","","",""
"","","","","","image-button-response","45","178571","0.0-2.0-2.0-1.20","60ff11cfc567b54042430167","D2","batch4","spm_respsonse","5121.5","img/question_2_9.jpeg","3","mat_21","4","1","1","5121.5","","","","","","","","","","","","","","","","","","","","",""
"","","","","","html-keyboard-response","46","179636","0.0-2.0-2.0-0.21","60ff11cfc567b54042430167","D2","batch4","spm_show_trial_num","null","<p class=block-text>Trial 22 out of 60</p>","null","","","","","","","","","","","","","","","","","","","","","","","","","",""
"","","","","","image-button-response","47","184616","0.0-2.0-2.0-1.21","60ff11cfc567b54042430167","D2","batch4","spm_respsonse","4977.699999809265","img/question_2_10.jpeg","2","mat_22","3","1","1","4977.699999809265","","","","","","","","","","","","","","","","","","","","",""
"","","","","","html-keyboard-response","48","185678","0.0-2.0-2.0-0.22","60ff11cfc567b54042430167","D2","batch4","spm_show_trial_num","null","<p class=block-text>Trial 23 out of 60</p>","null","","","","","","","","","","","","","","","","","","","","","","","","","",""
"","","","","","image-button-response","49","192797","0.0-2.0-2.0-1.22","60ff11cfc567b54042430167","D2","batch4","spm_respsonse","7118","img/question_2_11.jpeg","3","mat_23","4","1","1","7118","","","","","","","","","","","","","","","","","","","","",""
"","","","","","html-keyboard-response","50","193857","0.0-2.0-2.0-0.23","60ff11cfc567b54042430167","D2","batch4","spm_show_trial_num","null","<p class=block-text>Trial 24 out of 60</p>","null","","","","","","","","","","","","","","","","","","","","","","","","","",""
"","","","","","image-button-response","51","217406","0.0-2.0-2.0-1.23","60ff11cfc567b54042430167","D2","batch4","spm_respsonse","23547.200000286102","img/question_2_12.jpeg","4","mat_24","5","1","1","23547.200000286102","","","","","","","","","","","","","","","","","","","","",""
"","","","","","html-button-response","52","220053","0.0-2.0-3.0","60ff11cfc567b54042430167","D2","batch4","attention_check","2389.699999809265","<p class = block-text>Attention check: Please choose 1<br></p>","0","","","true","","","","","","","","","","","","","","","","","","","","","","",""
"","","","","","html-keyboard-response","53","220859","0.0-2.0-4.0-0.0","60ff11cfc567b54042430167","D2","batch4","spm_show_trial_num","null","<p class=block-text>Trial 25 out of 60</p>","null","","","","","","","","","","","","","","","","","","","","","","","","","",""
"","","","","","image-button-response","54","230355","0.0-2.0-4.0-1.0","60ff11cfc567b54042430167","D2","batch4","spm_respsonse","9495","img/question_3_1.jpeg","7","mat_25","8","1","1","9495","","","","","","","","","","","","","","","","","","","","",""
"","","","","","html-keyboard-response","55","231418","0.0-2.0-4.0-0.1","60ff11cfc567b54042430167","D2","batch4","spm_show_trial_num","null","<p class=block-text>Trial 26 out of 60</p>","null","","","","","","","","","","","","","","","","","","","","","","","","","",""
"","","","","","image-button-response","56","239640","0.0-2.0-4.0-1.1","60ff11cfc567b54042430167","D2","batch4","spm_respsonse","8220.099999904633","img/question_3_2.jpeg","1","mat_26","2","1","1","8220.099999904633","","","","","","","","","","","","","","","","","","","","",""
"","","","","","html-keyboard-response","57","240700","0.0-2.0-4.0-0.2","60ff11cfc567b54042430167","D2","batch4","spm_show_trial_num","null","<p class=block-text>Trial 27 out of 60</p>","null","","","","","","","","","","","","","","","","","","","","","","","","","",""
"","","","","","image-button-response","58","250797","0.0-2.0-4.0-1.2","60ff11cfc567b54042430167","D2","batch4","spm_respsonse","10095.400000095367","img/question_3_3.jpeg","2","mat_27","3","1","1","10095.400000095367","","","","","","","","","","","","","","","","","","","","",""
"","","","","","html-keyboard-response","59","251864","0.0-2.0-4.0-0.3","60ff11cfc567b54042430167","D2","batch4","spm_show_trial_num","null","<p class=block-text>Trial 28 out of 60</p>","null","","","","","","","","","","","","","","","","","","","","","","","","","",""
"","","","","","image-button-response","60","269633","0.0-2.0-4.0-1.3","60ff11cfc567b54042430167","D2","batch4","spm_respsonse","17766.800000190735","img/question_3_4.jpeg","7","mat_28","8","1","1","17766.800000190735","","","","","","","","","","","","","","","","","","","","",""
"","","","","","html-keyboard-response","61","270691","0.0-2.0-4.0-0.4","60ff11cfc567b54042430167","D2","batch4","spm_show_trial_num","null","<p class=block-text>Trial 29 out of 60</p>","null","","","","","","","","","","","","","","","","","","","","","","","","","",""
"","","","","","image-button-response","62","280154","0.0-2.0-4.0-1.4","60ff11cfc567b54042430167","D2","batch4","spm_respsonse","9460.799999713898","img/question_3_5.jpeg","6","mat_29","7","1","1","9460.799999713898","","","","","","","","","","","","","","","","","","","","",""
"","","","","","html-keyboard-response","63","281213","0.0-2.0-4.0-0.5","60ff11cfc567b54042430167","D2","batch4","spm_show_trial_num","null","<p class=block-text>Trial 30 out of 60</p>","null","","","","","","","","","","","","","","","","","","","","","","","","","",""
"","","","","","image-button-response","64","289993","0.0-2.0-4.0-1.5","60ff11cfc567b54042430167","D2","batch4","spm_respsonse","8778.400000095367","img/question_3_6.jpeg","3","mat_30","4","1","1","8778.400000095367","","","","","","","","","","","","","","","","","","","","",""
"","","","","","html-keyboard-response","65","291051","0.0-2.0-4.0-0.6","60ff11cfc567b54042430167","D2","batch4","spm_show_trial_num","null","<p class=block-text>Trial 31 out of 60</p>","null","","","","","","","","","","","","","","","","","","","","","","","","","",""
"","","","","","image-button-response","66","296771","0.0-2.0-4.0-1.6","60ff11cfc567b54042430167","D2","batch4","spm_respsonse","5717.099999904633","img/question_3_7.jpeg","4","mat_31","5","1","1","5717.099999904633","","","","","","","","","","","","","","","","","","","","",""
"","","","","","html-keyboard-response","67","297840","0.0-2.0-4.0-0.7","60ff11cfc567b54042430167","D2","batch4","spm_show_trial_num","null","<p class=block-text>Trial 32 out of 60</p>","null","","","","","","","","","","","","","","","","","","","","","","","","","",""
"","","","","","image-button-response","68","313737","0.0-2.0-4.0-1.7","60ff11cfc567b54042430167","D2","batch4","spm_respsonse","15895.5","img/question_3_8.jpeg","0","mat_32","1","1","1","15895.5","","","","","","","","","","","","","","","","","","","","",""
"","","","","","html-keyboard-response","69","314795","0.0-2.0-4.0-0.8","60ff11cfc567b54042430167","D2","batch4","spm_show_trial_num","null","<p class=block-text>Trial 33 out of 60</p>","null","","","","","","","","","","","","","","","","","","","","","","","","","",""
"","","","","","image-button-response","70","328811","0.0-2.0-4.0-1.8","60ff11cfc567b54042430167","D2","batch4","spm_respsonse","14013.299999713898","img/question_3_9.jpeg","6","mat_33","7","1","1","14013.299999713898","","","","","","","","","","","","","","","","","","","","",""
"","","","","","html-keyboard-response","71","329870","0.0-2.0-4.0-0.9","60ff11cfc567b54042430167","D2","batch4","spm_show_trial_num","null","<p class=block-text>Trial 34 out of 60</p>","null","","","","","","","","","","","","","","","","","","","","","","","","","",""
"","","","","","image-button-response","72","359125","0.0-2.0-4.0-1.9","60ff11cfc567b54042430167","D2","batch4","spm_respsonse","29252.599999904633","img/question_3_10.jpeg","5","mat_34","6","1","1","29252.599999904633","","","","","","","","","","","","","","","","","","","","",""
"","","","","","html-keyboard-response","73","360185","0.0-2.0-4.0-0.10","60ff11cfc567b54042430167","D2","batch4","spm_show_trial_num","null","<p class=block-text>Trial 35 out of 60</p>","null","","","","","","","","","","","","","","","","","","","","","","","","","",""
"","","","","","image-button-response","74","376958","0.0-2.0-4.0-1.10","60ff11cfc567b54042430167","D2","batch4","spm_respsonse","16771.200000286102","img/question_3_11.jpeg","4","mat_35","1","0","0","16771.200000286102","","","","","","","","","","","","","","","","","","","","",""
"","","","","","html-keyboard-response","75","378022","0.0-2.0-4.0-0.11","60ff11cfc567b54042430167","D2","batch4","spm_show_trial_num","null","<p class=block-text>Trial 36 out of 60</p>","null","","","","","","","","","","","","","","","","","","","","","","","","","",""
"","","","","","image-button-response","76","399795","0.0-2.0-4.0-1.11","60ff11cfc567b54042430167","D2","batch4","spm_respsonse","21770.300000190735","img/question_3_12.jpeg","2","mat_36","2","0","0","21770.300000190735","","","","","","","","","","","","","","","","","","","","",""
"","","","","","html-keyboard-response","77","400855","0.0-2.0-4.0-0.12","60ff11cfc567b54042430167","D2","batch4","spm_show_trial_num","null","<p class=block-text>Trial 37 out of 60</p>","null","","","","","","","","","","","","","","","","","","","","","","","","","",""
"","","","","","image-button-response","78","406520","0.0-2.0-4.0-1.12","60ff11cfc567b54042430167","D2","batch4","spm_respsonse","5663.299999713898","img/question_4_1.jpeg","2","mat_37","3","1","1","5663.299999713898","","","","","","","","","","","","","","","","","","","","",""
"","","","","","html-keyboard-response","79","407582","0.0-2.0-4.0-0.13","60ff11cfc567b54042430167","D2","batch4","spm_show_trial_num","null","<p class=block-text>Trial 38 out of 60</p>","null","","","","","","","","","","","","","","","","","","","","","","","","","",""
"","","","","","image-button-response","80","413151","0.0-2.0-4.0-1.13","60ff11cfc567b54042430167","D2","batch4","spm_respsonse","5566.900000095367","img/question_4_2.jpeg","3","mat_38","4","1","1","5566.900000095367","","","","","","","","","","","","","","","","","","","","",""
"","","","","","html-keyboard-response","81","414221","0.0-2.0-4.0-0.14","60ff11cfc567b54042430167","D2","batch4","spm_show_trial_num","null","<p class=block-text>Trial 39 out of 60</p>","null","","","","","","","","","","","","","","","","","","","","","","","","","",""
"","","","","","image-button-response","82","425541","0.0-2.0-4.0-1.14","60ff11cfc567b54042430167","D2","batch4","spm_respsonse","11318.099999904633","img/question_4_3.jpeg","2","mat_39","3","1","1","11318.099999904633","","","","","","","","","","","","","","","","","","","","",""
"","","","","","html-keyboard-response","83","426601","0.0-2.0-4.0-0.15","60ff11cfc567b54042430167","D2","batch4","spm_show_trial_num","null","<p class=block-text>Trial 40 out of 60</p>","null","","","","","","","","","","","","","","","","","","","","","","","","","",""
"","","","","","image-button-response","84","433594","0.0-2.0-4.0-1.15","60ff11cfc567b54042430167","D2","batch4","spm_respsonse","6990.099999904633","img/question_4_4.jpeg","6","mat_40","7","1","1","6990.099999904633","","","","","","","","","","","","","","","","","","","","",""
"","","","","","html-keyboard-response","85","434667","0.0-2.0-4.0-0.16","60ff11cfc567b54042430167","D2","batch4","spm_show_trial_num","null","<p class=block-text>Trial 41 out of 60</p>","null","","","","","","","","","","","","","","","","","","","","","","","","","",""
"","","","","","image-button-response","86","443418","0.0-2.0-4.0-1.16","60ff11cfc567b54042430167","D2","batch4","spm_respsonse","8748.799999713898","img/question_4_5.jpeg","7","mat_41","8","1","1","8748.799999713898","","","","","","","","","","","","","","","","","","","","",""
"","","","","","html-keyboard-response","87","444479","0.0-2.0-4.0-0.17","60ff11cfc567b54042430167","D2","batch4","spm_show_trial_num","null","<p class=block-text>Trial 42 out of 60</p>","null","","","","","","","","","","","","","","","","","","","","","","","","","",""
"","","","","","image-button-response","88","454812","0.0-2.0-4.0-1.17","60ff11cfc567b54042430167","D2","batch4","spm_respsonse","10331.300000190735","img/question_4_6.jpeg","5","mat_42","6","1","1","10331.300000190735","","","","","","","","","","","","","","","","","","","","",""
"","","","","","html-keyboard-response","89","455878","0.0-2.0-4.0-0.18","60ff11cfc567b54042430167","D2","batch4","spm_show_trial_num","null","<p class=block-text>Trial 43 out of 60</p>","null","","","","","","","","","","","","","","","","","","","","","","","","","",""
"","","","","","image-button-response","90","464961","0.0-2.0-4.0-1.18","60ff11cfc567b54042430167","D2","batch4","spm_respsonse","9080.799999713898","img/question_4_7.jpeg","4","mat_43","5","1","1","9080.799999713898","","","","","","","","","","","","","","","","","","","","",""
"","","","","","html-keyboard-response","91","466025","0.0-2.0-4.0-0.19","60ff11cfc567b54042430167","D2","batch4","spm_show_trial_num","null","<p class=block-text>Trial 44 out of 60</p>","null","","","","","","","","","","","","","","","","","","","","","","","","","",""
"","","","","","image-button-response","92","475261","0.0-2.0-4.0-1.19","60ff11cfc567b54042430167","D2","batch4","spm_respsonse","9234.400000095367","img/question_4_8.jpeg","3","mat_44","4","1","1","9234.400000095367","","","","","","","","","","","","","","","","","","","","",""
"","","","","","html-keyboard-response","93","476320","0.0-2.0-4.0-0.20","60ff11cfc567b54042430167","D2","batch4","spm_show_trial_num","null","<p class=block-text>Trial 45 out of 60</p>","null","","","","","","","","","","","","","","","","","","","","","","","","","",""
"","","","","","image-button-response","94","504808","0.0-2.0-4.0-1.20","60ff11cfc567b54042430167","D2","batch4","spm_respsonse","28486","img/question_4_9.jpeg","1","mat_45","1","0","0","28486","","","","","","","","","","","","","","","","","","","","",""
"","","","","","html-keyboard-response","95","505870","0.0-2.0-4.0-0.21","60ff11cfc567b54042430167","D2","batch4","spm_show_trial_num","null","<p class=block-text>Trial 46 out of 60</p>","null","","","","","","","","","","","","","","","","","","","","","","","","","",""
"","","","","","image-button-response","96","528634","0.0-2.0-4.0-1.21","60ff11cfc567b54042430167","D2","batch4","spm_respsonse","22762.5","img/question_4_10.jpeg","1","mat_46","2","1","1","22762.5","","","","","","","","","","","","","","","","","","","","",""
"","","","","","html-keyboard-response","97","529694","0.0-2.0-4.0-0.22","60ff11cfc567b54042430167","D2","batch4","spm_show_trial_num","null","<p class=block-text>Trial 47 out of 60</p>","null","","","","","","","","","","","","","","","","","","","","","","","","","",""
"","","","","","image-button-response","98","572965","0.0-2.0-4.0-1.22","60ff11cfc567b54042430167","D2","batch4","spm_respsonse","43268.10000038147","img/question_4_11.jpeg","4","mat_47","5","1","1","43268.10000038147","","","","","","","","","","","","","","","","","","","","",""
"","","","","","html-keyboard-response","99","574030","0.0-2.0-4.0-0.23","60ff11cfc567b54042430167","D2","batch4","spm_show_trial_num","null","<p class=block-text>Trial 48 out of 60</p>","null","","","","","","","","","","","","","","","","","","","","","","","","","",""
"","","","","","image-button-response","100","601869","0.0-2.0-4.0-1.23","60ff11cfc567b54042430167","D2","batch4","spm_respsonse","27836.5","img/question_4_12.jpeg","7","mat_48","6","0","0","27836.5","","","","","","","","","","","","","","","","","","","","",""
"","","","","","html-keyboard-response","101","602925","0.0-2.0-4.0-0.24","60ff11cfc567b54042430167","D2","batch4","spm_show_trial_num","null","<p class=block-text>Trial 49 out of 60</p>","null","","","","","","","","","","","","","","","","","","","","","","","","","",""
"","","","","","image-button-response","102","619568","0.0-2.0-4.0-1.24","60ff11cfc567b54042430167","D2","batch4","spm_respsonse","16640.799999713898","img/question_5_1.jpeg","6","mat_49","7","1","1","16640.799999713898","","","","","","","","","","","","","","","","","","","","",""
"","","","","","html-keyboard-response","103","620628","0.0-2.0-4.0-0.25","60ff11cfc567b54042430167","D2","batch4","spm_show_trial_num","null","<p class=block-text>Trial 50 out of 60</p>","null","","","","","","","","","","","","","","","","","","","","","","","","","",""
"","","","","","image-button-response","104","631171","0.0-2.0-4.0-1.25","60ff11cfc567b54042430167","D2","batch4","spm_respsonse","10540.89999961853","img/question_5_2.jpeg","5","mat_50","6","1","1","10540.89999961853","","","","","","","","","","","","","","","","","","","","",""
"","","","","","html-keyboard-response","105","632225","0.0-2.0-4.0-0.26","60ff11cfc567b54042430167","D2","batch4","spm_show_trial_num","null","<p class=block-text>Trial 51 out of 60</p>","null","","","","","","","","","","","","","","","","","","","","","","","","","",""
"","","","","","image-button-response","106","641399","0.0-2.0-4.0-1.26","60ff11cfc567b54042430167","D2","batch4","spm_respsonse","9172.099999904633","img/question_5_3.jpeg","7","mat_51","8","1","1","9172.099999904633","","","","","","","","","","","","","","","","","","","","",""
"","","","","","html-keyboard-response","107","642454","0.0-2.0-4.0-0.27","60ff11cfc567b54042430167","D2","batch4","spm_show_trial_num","null","<p class=block-text>Trial 52 out of 60</p>","null","","","","","","","","","","","","","","","","","","","","","","","","","",""
"","","","","","image-button-response","108","659385","0.0-2.0-4.0-1.27","60ff11cfc567b54042430167","D2","batch4","spm_respsonse","16928.5","img/question_5_4.jpeg","1","mat_52","2","1","1","16928.5","","","","","","","","","","","","","","","","","","","","",""
"","","","","","html-keyboard-response","109","660455","0.0-2.0-4.0-0.28","60ff11cfc567b54042430167","D2","batch4","spm_show_trial_num","null","<p class=block-text>Trial 53 out of 60</p>","null","","","","","","","","","","","","","","","","","","","","","","","","","",""
"","","","","","image-button-response","110","674713","0.0-2.0-4.0-1.28","60ff11cfc567b54042430167","D2","batch4","spm_respsonse","14256.199999809265","img/question_5_5.jpeg","0","mat_53","1","1","1","14256.199999809265","","","","","","","","","","","","","","","","","","","","",""
"","","","","","html-keyboard-response","111","675771","0.0-2.0-4.0-0.29","60ff11cfc567b54042430167","D2","batch4","spm_show_trial_num","null","<p class=block-text>Trial 54 out of 60</p>","null","","","","","","","","","","","","","","","","","","","","","","","","","",""
"","","","","","image-button-response","112","701515","0.0-2.0-4.0-1.29","60ff11cfc567b54042430167","D2","batch4","spm_respsonse","25742","img/question_5_6.jpeg","4","mat_54","5","1","1","25742","","","","","","","","","","","","","","","","","","","","",""
"","","","","","html-keyboard-response","113","702585","0.0-2.0-4.0-0.30","60ff11cfc567b54042430167","D2","batch4","spm_show_trial_num","null","<p class=block-text>Trial 55 out of 60</p>","null","","","","","","","","","","","","","","","","","","","","","","","","","",""
"","","","","","image-button-response","114","726688","0.0-2.0-4.0-1.30","60ff11cfc567b54042430167","D2","batch4","spm_respsonse","24101.199999809265","img/question_5_7.jpeg","0","mat_55","1","1","1","24101.199999809265","","","","","","","","","","","","","","","","","","","","",""
"","","","","","html-keyboard-response","115","727752","0.0-2.0-4.0-0.31","60ff11cfc567b54042430167","D2","batch4","spm_show_trial_num","null","<p class=block-text>Trial 56 out of 60</p>","null","","","","","","","","","","","","","","","","","","","","","","","","","",""
"","","","","","image-button-response","116","745919","0.0-2.0-4.0-1.31","60ff11cfc567b54042430167","D2","batch4","spm_respsonse","18164.299999713898","img/question_5_8.jpeg","5","mat_56","6","1","1","18164.299999713898","","","","","","","","","","","","","","","","","","","","",""
"","","","","","html-keyboard-response","117","746985","0.0-2.0-4.0-0.32","60ff11cfc567b54042430167","D2","batch4","spm_show_trial_num","null","<p class=block-text>Trial 57 out of 60</p>","null","","","","","","","","","","","","","","","","","","","","","","","","","",""
"","","","","","image-button-response","118","768930","0.0-2.0-4.0-1.32","60ff11cfc567b54042430167","D2","batch4","spm_respsonse","21943.199999809265","img/question_5_9.jpeg","2","mat_57","3","1","1","21943.199999809265","","","","","","","","","","","","","","","","","","","","",""
"","","","","","html-keyboard-response","119","769988","0.0-2.0-4.0-0.33","60ff11cfc567b54042430167","D2","batch4","spm_show_trial_num","null","<p class=block-text>Trial 58 out of 60</p>","null","","","","","","","","","","","","","","","","","","","","","","","","","",""
"","","","","","image-button-response","120","844525","0.0-2.0-4.0-1.33","60ff11cfc567b54042430167","D2","batch4","spm_respsonse","74534.40000009537","img/question_5_10.jpeg","5","mat_58","2","0","0","74534.40000009537","","","","","","","","","","","","","","","","","","","","",""
"","","","","","html-keyboard-response","121","845598","0.0-2.0-4.0-0.34","60ff11cfc567b54042430167","D2","batch4","spm_show_trial_num","null","<p class=block-text>Trial 59 out of 60</p>","null","","","","","","","","","","","","","","","","","","","","","","","","","",""
"","","","","","image-button-response","122","878914","0.0-2.0-4.0-1.34","60ff11cfc567b54042430167","D2","batch4","spm_respsonse","33313.5","img/question_5_11.jpeg","2","mat_59","4","0","0","33313.5","","","","","","","","","","","","","","","","","","","","",""
"","","","","","html-keyboard-response","123","879970","0.0-2.0-4.0-0.35","60ff11cfc567b54042430167","D2","batch4","spm_show_trial_num","null","<p class=block-text>Trial 60 out of 60</p>","null","","","","","","","","","","","","","","","","","","","","","","","","","",""
"","","","","","image-button-response","124","936010","0.0-2.0-4.0-1.35","60ff11cfc567b54042430167","D2","batch4","spm_respsonse","56038.699999809265","img/question_5_12.jpeg","0","mat_60","5","0","0","56038.699999809265","","","","","","","","","","","","","","","","","","","","",""
"","","","","","html-button-response","125","939170","0.0-2.0-5.0","60ff11cfc567b54042430167","D2","batch4","spm_goodbye","2901.800000190735","<p class= block-text>This concludes the Standard Progressive Matrix game. Thank you for your responses!<br> When you are ready, click the button continue</p>","0","","","","","","","","","","","","","","","","","","","","","","","","","",""
"true","","","","","fullscreen","126","964081","0.0-3.0-0.0","60ff11cfc567b54042430167","D2","batch4","","","","","","","","","","","","","","","","","","","","","","","","","","","","","",""
"","","","","","instructions","127","979453","0.0-3.0-1.0-0.0","60ff11cfc567b54042430167","D2","batch4","","15370.699999809265","","","","","","","","[{""page_index"":0,""viewing_time"":9166.699999809265},{""page_index"":1,""viewing_time"":6203.700000286102}]","","","","","","","","","","","","","","","","","","","",""
"","","","","","html-button-response","128","981356","0.0-3.0-1.0-1.0-0.0","60ff11cfc567b54042430167","D2","batch4","pattern_enter_quiz","1902.5999999046326","<p class=block-text> Let's answer a few questions <br>","0","","","","","","","","","","","","","","","","","","","","","","","","","",""
"","","","","","html-button-response","129","983662","0.0-3.0-1.0-1.0-1.0","60ff11cfc567b54042430167","D2","batch4","pattern_quiz","2305","<p class = block-text>True or False: You will have as much time as you want to make each choice. <br></p>","1","","","true","","","","","","","","","","","","","","","","","","","","","","",""
"","","","","","html-button-response","130","984908","0.0-3.0-1.0-1.0-2.0","60ff11cfc567b54042430167","D2","batch4","pattern_quiz_feedback","1245.0999999046326","<p class = block-text>Correct! You should make your choice <strong> as fast as you can</strong>.</p>","0","","","","","","","","","","","","","","","","","","","","","","","","","",""
"","","","","","html-button-response","131","988485","0.0-3.0-1.0-1.0-3.0","60ff11cfc567b54042430167","D2","batch4","pattern_quiz","3576.300000190735","<p class = block-text>True or False: You will look for 4 pieces in black or white color connected in a row either horizontally, vertically or diagonally. <br></p>","0","","","true","","","","","","","","","","","","","","","","","","","","","","",""
"","","","","","html-button-response","132","989667","0.0-3.0-1.0-1.0-4.0","60ff11cfc567b54042430167","D2","batch4","pattern_quiz_feedback","1180.4000000953674","<p class = block-text>Correct! </p>","0","","","","","","","","","","","","","","","","","","","","","","","","","",""
"","","","","","html-button-response","133","992364","0.0-3.0-2.0","60ff11cfc567b54042430167","D2","batch4","pattern_enter_practice","2695.5","<p class=block-text> Now that you've understood the game, let's do a few practice trials before we start!<br> <br>","0","","","","","","","","","","","","","","","","","","","","","","","","","",""
"","","","","","image-keyboard-response","134","995217","0.0-3.0-3.0-0.0","60ff11cfc567b54042430167","D2","batch4","pattern_practice","2851.199999809265","stim/prac_no_16_1.png","j","","j","true","","","","","","","","","","","","","","","","","","","","","","",""
"","","","","","html-keyboard-response","135","996229","0.0-3.0-3.0-1.0","60ff11cfc567b54042430167","D2","batch4","pattern_feedback","null","<p style=""font-size:30px;color:green;"">Correct!</p>","null","","","","","","","","","","","","","","","","","","","","","","","","","",""
"","","","","","image-keyboard-response","136","997226","0.0-3.0-3.0-0.1","60ff11cfc567b54042430167","D2","batch4","pattern_practice","996.5","stim/prac_yes_18_hor_w1.png","f","","f","true","","","","","","","","","","","","","","","","","","","","","","",""
"","","","","","html-keyboard-response","137","998249","0.0-3.0-3.0-1.1","60ff11cfc567b54042430167","D2","batch4","pattern_feedback","null","<p style=""font-size:30px;color:green;"">Correct!</p>","null","","","","","","","","","","","","","","","","","","","","","","","","","",""
"","","","","","image-keyboard-response","138","999046","0.0-3.0-3.0-0.2","60ff11cfc567b54042430167","D2","batch4","pattern_practice","795.2000002861023","stim/prac_yes_16_ver_w1.png","f","","f","true","","","","","","","","","","","","","","","","","","","","","","",""
"","","","","","html-keyboard-response","139","1000073","0.0-3.0-3.0-1.2","60ff11cfc567b54042430167","D2","batch4","pattern_feedback","null","<p style=""font-size:30px;color:green;"">Correct!</p>","null","","","","","","","","","","","","","","","","","","","","","","","","","",""
"","","","","","image-keyboard-response","140","1001297","0.0-3.0-3.0-0.3","60ff11cfc567b54042430167","D2","batch4","pattern_practice","1223.4000000953674","stim/prac_yes_20_dia_b1.png","f","","f","true","","","","","","","","","","","","","","","","","","","","","","",""
"","","","","","html-keyboard-response","141","1002320","0.0-3.0-3.0-1.3","60ff11cfc567b54042430167","D2","batch4","pattern_feedback","null","<p style=""font-size:30px;color:green;"">Correct!</p>","null","","","","","","","","","","","","","","","","","","","","","","","","","",""
"","","","","","image-keyboard-response","142","1003416","0.0-3.0-3.0-0.4","60ff11cfc567b54042430167","D2","batch4","pattern_practice","1094.2000002861023","stim/prac_no_18_1.png","j","","j","true","","","","","","","","","","","","","","","","","","","","","","",""
"","","","","","html-keyboard-response","143","1004428","0.0-3.0-3.0-1.4","60ff11cfc567b54042430167","D2","batch4","pattern_feedback","null","<p style=""font-size:30px;color:green;"">Correct!</p>","null","","","","","","","","","","","","","","","","","","","","","","","","","",""
"","","","","","html-button-response","144","1007365","0.0-3.0-4.0","60ff11cfc567b54042430167","D2","batch4","pattern_enter_official_trials","2934.800000190735","<p class=block-text> Good job! You are done with practice trials!<br>
        You responded correctly on 100% of the trials.<br>
        Press the button below to start official trials. Now you won't see any feedback about your response</p>","0","","","","","","","","","","","","","","","","","","","","","","","","","",""
"","","","","","html-keyboard-response","145","1008177","0.0-3.0-5.0-0.0","60ff11cfc567b54042430167","D2","batch4","pattern_show_trial_num","null","<p class=block-text>Trial 1 out of 78</p>","null","","","","","","","","","","","","","","","","","","","","","","","","","",""
"","","","","","image-keyboard-response","146","1013301","0.0-3.0-5.0-1.0","60ff11cfc567b54042430167","D2","batch4","pattern_response","5122.800000190735","stim/no_51_1.png","j","pattern_31","j","true","","","","5122.800000190735","true","1","","","","","","","","","","","","","","","","",""
"","","","","","html-keyboard-response","147","1014626","0.0-3.0-5.0-0.1","60ff11cfc567b54042430167","D2","batch4","pattern_show_trial_num","null","<p class=block-text>Trial 2 out of 78</p>","null","","","","","","","","","","","","","","","","","","","","","","","","","",""
"","","","","","image-keyboard-response","148","1017182","0.0-3.0-5.0-1.1","60ff11cfc567b54042430167","D2","batch4","pattern_response","2554.300000190735","stim/yes_46_ver_b1_b.png","f","pattern_68","f","true","","","","2554.300000190735","true","2","","","","","","","","","","","","","","","","",""
"","","","","","html-keyboard-response","149","1018498","0.0-3.0-5.0-0.2","60ff11cfc567b54042430167","D2","batch4","pattern_show_trial_num","null","<p class=block-text>Trial 3 out of 78</p>","null","","","","","","","","","","","","","","","","","","","","","","","","","",""
"","","","","","image-keyboard-response","150","1019574","0.0-3.0-5.0-1.2","60ff11cfc567b54042430167","D2","batch4","pattern_response","1074.8000001907349","stim/yes_70_ver_b1.png","f","pattern_80","f","true","","","","1074.8000001907349","true","3","","","","","","","","","","","","","","","","",""
"","","","","","html-keyboard-response","151","1020887","0.0-3.0-5.0-0.3","60ff11cfc567b54042430167","D2","batch4","pattern_show_trial_num","null","<p class=block-text>Trial 4 out of 78</p>","null","","","","","","","","","","","","","","","","","","","","","","","","","",""
"","","","","","image-keyboard-response","152","1021707","0.0-3.0-5.0-1.3","60ff11cfc567b54042430167","D2","batch4","pattern_response","818.3000001907349","stim/yes_29_hor_b1_b.png","f","pattern_52","f","true","","","","818.3000001907349","true","4","","","","","","","","","","","","","","","","",""
"","","","","","html-keyboard-response","153","1023025","0.0-3.0-5.0-0.4","60ff11cfc567b54042430167","D2","batch4","pattern_show_trial_num","null","<p class=block-text>Trial 5 out of 78</p>","null","","","","","","","","","","","","","","","","","","","","","","","","","",""
"","","","","","image-keyboard-response","154","1023957","0.0-3.0-5.0-1.4","60ff11cfc567b54042430167","D2","batch4","pattern_response","930.3000001907349","stim/yes_17_ver_b1_b.png","f","pattern_46","f","true","","","","930.3000001907349","true","5","","","","","","","","","","","","","","","","",""
"","","","","","html-keyboard-response","155","1025275","0.0-3.0-5.0-0.5","60ff11cfc567b54042430167","D2","batch4","pattern_show_trial_num","null","<p class=block-text>Trial 6 out of 78</p>","null","","","","","","","","","","","","","","","","","","","","","","","","","",""
"","","","","","image-keyboard-response","156","1029770","0.0-3.0-5.0-1.5","60ff11cfc567b54042430167","D2","batch4","pattern_response","4493","stim/no_53_1_b.png","j","pattern_33","j","true","","","","4493","true","6","","","","","","","","","","","","","","","","",""
"","","","","","html-keyboard-response","157","1031083","0.0-3.0-5.0-0.6","60ff11cfc567b54042430167","D2","batch4","pattern_show_trial_num","null","<p class=block-text>Trial 7 out of 78</p>","null","","","","","","","","","","","","","","","","","","","","","","","","","",""
"","","","","","image-keyboard-response","158","1032119","0.0-3.0-5.0-1.6","60ff11cfc567b54042430167","D2","batch4","pattern_response","1034.9000000953674","stim/yes_30_ver_b1_b.png","f","pattern_54","f","true","","","","1034.9000000953674","true","7","","","","","","","","","","","","","","","","",""
"","","","","","html-keyboard-response","159","1033442","0.0-3.0-5.0-0.7","60ff11cfc567b54042430167","D2","batch4","pattern_show_trial_num","null","<p class=block-text>Trial 8 out of 78</p>","null","","","","","","","","","","","","","","","","","","","","","","","","","",""
"","","","","","image-keyboard-response","160","1036830","0.0-3.0-5.0-1.7","60ff11cfc567b54042430167","D2","batch4","pattern_response","3386.8999996185303","stim/no_33_1_b.png","j","pattern_15","j","true","","","","3386.8999996185303","true","8","","","","","","","","","","","","","","","","",""
"","","","","","html-keyboard-response","161","1038143","0.0-3.0-5.0-0.8","60ff11cfc567b54042430167","D2","batch4","pattern_show_trial_num","null","<p class=block-text>Trial 9 out of 78</p>","null","","","","","","","","","","","","","","","","","","","","","","","","","",""
"","","","","","image-keyboard-response","162","1040033","0.0-3.0-5.0-1.8","60ff11cfc567b54042430167","D2","batch4","pattern_response","1888.1999998092651","stim/yes_23_ver_b1.png","f","pattern_48","f","true","","","","1888.1999998092651","true","9","","","","","","","","","","","","","","","","",""
"","","","","","html-keyboard-response","163","1041350","0.0-3.0-5.0-0.9","60ff11cfc567b54042430167","D2","batch4","pattern_show_trial_num","null","<p class=block-text>Trial 10 out of 78</p>","null","","","","","","","","","","","","","","","","","","","","","","","","","",""
"","","","","","image-keyboard-response","164","1045158","0.0-3.0-5.0-1.9","60ff11cfc567b54042430167","D2","batch4","pattern_response","3806.199999809265","stim/no_39_1_w.png","j","pattern_21","j","true","","","","3806.199999809265","true","10","","","","","","","","","","","","","","","","",""
"","","","","","html-keyboard-response","165","1046474","0.0-3.0-5.0-0.10","60ff11cfc567b54042430167","D2","batch4","pattern_show_trial_num","null","<p class=block-text>Trial 11 out of 78</p>","null","","","","","","","","","","","","","","","","","","","","","","","","","",""
"","","","","","image-keyboard-response","166","1050182","0.0-3.0-5.0-1.10","60ff11cfc567b54042430167","D2","batch4","pattern_response","3707.1000003814697","stim/no_67_1.png","j","pattern_39","j","true","","","","3707.1000003814697","true","11","","","","","","","","","","","","","","","","",""
"","","","","","html-keyboard-response","167","1051504","0.0-3.0-5.0-0.11","60ff11cfc567b54042430167","D2","batch4","pattern_show_trial_num","null","<p class=block-text>Trial 12 out of 78</p>","null","","","","","","","","","","","","","","","","","","","","","","","","","",""
"","","","","","image-keyboard-response","168","1052623","0.0-3.0-5.0-1.11","60ff11cfc567b54042430167","D2","batch4","pattern_response","1117.6999998092651","stim/yes_49_hor_w1_b.png","f","pattern_70","f","true","","","","1117.6999998092651","true","12","","","","","","","","","","","","","","","","",""
"","","","","","html-keyboard-response","169","1053956","0.0-3.0-5.0-0.12","60ff11cfc567b54042430167","D2","batch4","pattern_show_trial_num","null","<p class=block-text>Trial 13 out of 78</p>","null","","","","","","","","","","","","","","","","","","","","","","","","","",""
"","","","","","image-keyboard-response","170","1054697","0.0-3.0-5.0-1.12","60ff11cfc567b54042430167","D2","batch4","pattern_response","740.0999999046326","stim/yes_12_hor_w1_w.png","f","pattern_42","f","true","","","","740.0999999046326","true","13","","","","","","","","","","","","","","","","",""
"","","","","","html-keyboard-response","171","1056012","0.0-3.0-5.0-0.13","60ff11cfc567b54042430167","D2","batch4","pattern_show_trial_num","null","<p class=block-text>Trial 14 out of 78</p>","null","","","","","","","","","","","","","","","","","","","","","","","","","",""
"","","","","","image-keyboard-response","172","1057097","0.0-3.0-5.0-1.13","60ff11cfc567b54042430167","D2","batch4","pattern_response","1084","stim/yes_26_dia_w2_w.png","f","pattern_50","f","true","","","","1084","true","14","","","","","","","","","","","","","","","","",""
"","","","","","html-keyboard-response","173","1058411","0.0-3.0-5.0-0.14","60ff11cfc567b54042430167","D2","batch4","pattern_show_trial_num","null","<p class=block-text>Trial 15 out of 78</p>","null","","","","","","","","","","","","","","","","","","","","","","","","","",""
"","","","","","image-keyboard-response","174","1060056","0.0-3.0-5.0-1.14","60ff11cfc567b54042430167","D2","batch4","pattern_response","1643.5999999046326","stim/no_22_1_b.png","j","pattern_07","j","true","","","","1643.5999999046326","true","15","","","","","","","","","","","","","","","","",""
"","","","","","html-keyboard-response","175","1061371","0.0-3.0-5.0-0.15","60ff11cfc567b54042430167","D2","batch4","pattern_show_trial_num","null","<p class=block-text>Trial 16 out of 78</p>","null","","","","","","","","","","","","","","","","","","","","","","","","","",""
"","","","","","image-keyboard-response","176","1063859","0.0-3.0-5.0-1.15","60ff11cfc567b54042430167","D2","batch4","pattern_response","2486.5999999046326","stim/no_28_2.png","j","pattern_11","j","true","","","","2486.5999999046326","true","16","","","","","","","","","","","","","","","","",""
"","","","","","html-keyboard-response","177","1065180","0.0-3.0-5.0-0.16","60ff11cfc567b54042430167","D2","batch4","pattern_show_trial_num","null","<p class=block-text>Trial 17 out of 78</p>","null","","","","","","","","","","","","","","","","","","","","","","","","","",""
"","","","","","image-keyboard-response","178","1066276","0.0-3.0-5.0-1.16","60ff11cfc567b54042430167","D2","batch4","pattern_response","1094.5","stim/yes_53_ver_b1_b.png","f","pattern_74","f","true","","","","1094.5","true","17","","","","","","","","","","","","","","","","",""
"","","","","","html-keyboard-response","179","1067596","0.0-3.0-5.0-0.17","60ff11cfc567b54042430167","D2","batch4","pattern_show_trial_num","null","<p class=block-text>Trial 18 out of 78</p>","null","","","","","","","","","","","","","","","","","","","","","","","","","",""
"","","","","","image-keyboard-response","180","1070052","0.0-3.0-5.0-1.17","60ff11cfc567b54042430167","D2","batch4","pattern_response","2454.5","stim/no_45_1_w.png","j","pattern_25","j","true","","","","2454.5","true","18","","","","","","","","","","","","","","","","",""
"","","","","","html-keyboard-response","181","1071379","0.0-3.0-5.0-0.18","60ff11cfc567b54042430167","D2","batch4","pattern_show_trial_num","null","<p class=block-text>Trial 19 out of 78</p>","null","","","","","","","","","","","","","","","","","","","","","","","","","",""
"","","","","","image-keyboard-response","182","1073896","0.0-3.0-5.0-1.18","60ff11cfc567b54042430167","D2","batch4","pattern_response","2515.0999999046326","stim/yes_44_ver_w1_w.png","f","pattern_66","f","true","","","","2515.0999999046326","true","19","","","","","","","","","","","","","","","","",""
"","","","","","html-keyboard-response","183","1075214","0.0-3.0-5.0-0.19","60ff11cfc567b54042430167","D2","batch4","pattern_show_trial_num","null","<p class=block-text>Trial 20 out of 78</p>","null","","","","","","","","","","","","","","","","","","","","","","","","","",""
"","","","","","image-keyboard-response","184","1076065","0.0-3.0-5.0-1.19","60ff11cfc567b54042430167","D2","batch4","pattern_response","849.5","stim/yes_37_hor_w1_w.png","f","pattern_60","f","true","","","","849.5","true","20","","","","","","","","","","","","","","","","",""
"","","","","","html-keyboard-response","185","1077377","0.0-3.0-5.0-0.20","60ff11cfc567b54042430167","D2","batch4","pattern_show_trial_num","null","<p class=block-text>Trial 21 out of 78</p>","null","","","","","","","","","","","","","","","","","","","","","","","","","",""
"","","","","","image-keyboard-response","186","1081092","0.0-3.0-5.0-1.20","60ff11cfc567b54042430167","D2","batch4","pattern_response","3714.2999997138977","stim/no_43_2_b.png","j","pattern_23","j","true","","","","3714.2999997138977","true","21","","","","","","","","","","","","","","","","",""
"","","","","","html-keyboard-response","187","1082401","0.0-3.0-5.0-0.21","60ff11cfc567b54042430167","D2","batch4","pattern_show_trial_num","null","<p class=block-text>Trial 22 out of 78</p>","null","","","","","","","","","","","","","","","","","","","","","","","","","",""
"","","","","","image-keyboard-response","188","1083948","0.0-3.0-5.0-1.21","60ff11cfc567b54042430167","D2","batch4","pattern_response","1544.8999996185303","stim/no_12_1.png","j","pattern_01","j","true","","","","1544.8999996185303","true","22","","","","","","","","","","","","","","","","",""
"","","","","","html-keyboard-response","189","1085270","0.0-3.0-5.0-0.22","60ff11cfc567b54042430167","D2","batch4","pattern_show_trial_num","null","<p class=block-text>Trial 23 out of 78</p>","null","","","","","","","","","","","","","","","","","","","","","","","","","",""
"","","","","","image-keyboard-response","190","1088472","0.0-3.0-5.0-1.22","60ff11cfc567b54042430167","D2","batch4","pattern_response","3200.4000000953674","stim/no_47_1_b.png","j","pattern_27","j","true","","","","3200.4000000953674","true","23","","","","","","","","","","","","","","","","",""
"","","","","","html-keyboard-response","191","1089788","0.0-3.0-5.0-0.23","60ff11cfc567b54042430167","D2","batch4","pattern_show_trial_num","null","<p class=block-text>Trial 24 out of 78</p>","null","","","","","","","","","","","","","","","","","","","","","","","","","",""
"","","","","","image-keyboard-response","192","1091125","0.0-3.0-5.0-1.23","60ff11cfc567b54042430167","D2","batch4","pattern_response","1335.6000003814697","stim/no_18_1_b.png","j","pattern_05","j","true","","","","1335.6000003814697","true","24","","","","","","","","","","","","","","","","",""
"","","","","","html-keyboard-response","193","1092440","0.0-3.0-5.0-0.24","60ff11cfc567b54042430167","D2","batch4","pattern_show_trial_num","null","<p class=block-text>Trial 25 out of 78</p>","null","","","","","","","","","","","","","","","","","","","","","","","","","",""
"","","","","","image-keyboard-response","194","1093704","0.0-3.0-5.0-1.24","60ff11cfc567b54042430167","D2","batch4","pattern_response","1263","stim/no_15_1_w.png","j","pattern_03","j","true","","","","1263","true","25","","","","","","","","","","","","","","","","",""
"","","","","","html-keyboard-response","195","1095020","0.0-3.0-5.0-0.25","60ff11cfc567b54042430167","D2","batch4","pattern_show_trial_num","null","<p class=block-text>Trial 26 out of 78</p>","null","","","","","","","","","","","","","","","","","","","","","","","","","",""
"","","","","","image-keyboard-response","196","1095761","0.0-3.0-5.0-1.25","60ff11cfc567b54042430167","D2","batch4","pattern_response","739.5","stim/yes_15_dia_b1u_b.png","f","pattern_44","f","true","","","","739.5","true","26","","","","","","","","","","","","","","","","",""
"","","","","","html-keyboard-response","197","1097083","0.0-3.0-5.0-0.26","60ff11cfc567b54042430167","D2","batch4","pattern_show_trial_num","null","<p class=block-text>Trial 27 out of 78</p>","null","","","","","","","","","","","","","","","","","","","","","","","","","",""
"","","","","","image-keyboard-response","198","1098281","0.0-3.0-5.0-1.26","60ff11cfc567b54042430167","D2","batch4","pattern_response","1197.1999998092651","stim/yes_33_dia_w1_w.png","f","pattern_56","f","true","","","","1197.1999998092651","true","27","","","","","","","","","","","","","","","","",""
"","","","","","html-keyboard-response","199","1099598","0.0-3.0-5.0-0.27","60ff11cfc567b54042430167","D2","batch4","pattern_show_trial_num","null","<p class=block-text>Trial 28 out of 78</p>","null","","","","","","","","","","","","","","","","","","","","","","","","","",""
"","","","","","image-keyboard-response","200","1105197","0.0-3.0-5.0-1.27","60ff11cfc567b54042430167","D2","batch4","pattern_response","5597.599999904633","stim/yes_58_dia_w1_w.png","j","pattern_76","f","false","","","","5597.599999904633","false","27","","","","","","","","","","","","","","","","",""
"","","","","","html-keyboard-response","201","1106505","0.0-3.0-5.0-0.28","60ff11cfc567b54042430167","D2","batch4","pattern_show_trial_num","null","<p class=block-text>Trial 29 out of 78</p>","null","","","","","","","","","","","","","","","","","","","","","","","","","",""
"","","","","","image-keyboard-response","202","1109042","0.0-3.0-5.0-1.28","60ff11cfc567b54042430167","D2","batch4","pattern_response","2536.0999999046326","stim/no_49_2_b.png","j","pattern_29","j","true","","","","2536.0999999046326","true","28","","","","","","","","","","","","","","","","",""
"","","","","","html-keyboard-response","203","1110363","0.0-3.0-5.0-0.29","60ff11cfc567b54042430167","D2","batch4","pattern_show_trial_num","null","<p class=block-text>Trial 30 out of 78</p>","null","","","","","","","","","","","","","","","","","","","","","","","","","",""
"","","","","","image-keyboard-response","204","1112722","0.0-3.0-5.0-1.29","60ff11cfc567b54042430167","D2","batch4","pattern_response","2357.699999809265","stim/yes_51_dia_b1.png","f","pattern_72","f","true","","","","2357.699999809265","true","29","","","","","","","","","","","","","","","","",""
"","","","","","html-keyboard-response","205","1114033","0.0-3.0-5.0-0.30","60ff11cfc567b54042430167","D2","batch4","pattern_show_trial_num","null","<p class=block-text>Trial 31 out of 78</p>","null","","","","","","","","","","","","","","","","","","","","","","","","","",""
"","","","","","image-keyboard-response","206","1115041","0.0-3.0-5.0-1.30","60ff11cfc567b54042430167","D2","batch4","pattern_response","1006.5999999046326","stim/yes_36_ver_w1_w.png","f","pattern_58","f","true","","","","1006.5999999046326","true","30","","","","","","","","","","","","","","","","",""
"","","","","","html-keyboard-response","207","1116347","0.0-3.0-5.0-0.31","60ff11cfc567b54042430167","D2","batch4","pattern_show_trial_num","null","<p class=block-text>Trial 32 out of 78</p>","null","","","","","","","","","","","","","","","","","","","","","","","","","",""
"","","","","","image-keyboard-response","208","1117557","0.0-3.0-5.0-1.31","60ff11cfc567b54042430167","D2","batch4","pattern_response","1209.1000003814697","stim/yes_39_hor_w1_w.png","f","pattern_62","f","true","","","","1209.1000003814697","true","31","","","","","","","","","","","","","","","","",""
"","","","","","html-keyboard-response","209","1118871","0.0-3.0-5.0-0.32","60ff11cfc567b54042430167","D2","batch4","pattern_show_trial_num","null","<p class=block-text>Trial 33 out of 78</p>","null","","","","","","","","","","","","","","","","","","","","","","","","","",""
"","","","","","image-keyboard-response","210","1120915","0.0-3.0-5.0-1.32","60ff11cfc567b54042430167","D2","batch4","pattern_response","2042.5999999046326","stim/no_25_1_b.png","j","pattern_09","j","true","","","","2042.5999999046326","true","32","","","","","","","","","","","","","","","","",""
"","","","","","html-keyboard-response","211","1122232","0.0-3.0-5.0-0.33","60ff11cfc567b54042430167","D2","batch4","pattern_show_trial_num","null","<p class=block-text>Trial 34 out of 78</p>","null","","","","","","","","","","","","","","","","","","","","","","","","","",""
"","","","","","image-keyboard-response","212","1126598","0.0-3.0-5.0-1.33","60ff11cfc567b54042430167","D2","batch4","pattern_response","4364.599999904633","stim/no_37_2_w.png","j","pattern_19","j","true","","","","4364.599999904633","true","33","","","","","","","","","","","","","","","","",""
"","","","","","html-keyboard-response","213","1127924","0.0-3.0-5.0-0.34","60ff11cfc567b54042430167","D2","batch4","pattern_show_trial_num","null","<p class=block-text>Trial 35 out of 78</p>","null","","","","","","","","","","","","","","","","","","","","","","","","","",""
"","","","","","image-keyboard-response","214","1132318","0.0-3.0-5.0-1.34","60ff11cfc567b54042430167","D2","batch4","pattern_response","4392.599999904633","stim/no_30_1_b.png","j","pattern_13","j","true","","","","4392.599999904633","true","34","","","","","","","","","","","","","","","","",""
"","","","","","html-keyboard-response","215","1133633","0.0-3.0-5.0-0.35","60ff11cfc567b54042430167","D2","batch4","pattern_show_trial_num","null","<p class=block-text>Trial 36 out of 78</p>","null","","","","","","","","","","","","","","","","","","","","","","","","","",""
"","","","","","image-keyboard-response","216","1136200","0.0-3.0-5.0-1.35","60ff11cfc567b54042430167","D2","batch4","pattern_response","2565.699999809265","stim/yes_63_dia_b1.png","f","pattern_78","f","true","","","","2565.699999809265","true","35","","","","","","","","","","","","","","","","",""
"","","","","","html-keyboard-response","217","1137512","0.0-3.0-5.0-0.36","60ff11cfc567b54042430167","D2","batch4","pattern_show_trial_num","null","<p class=block-text>Trial 37 out of 78</p>","null","","","","","","","","","","","","","","","","","","","","","","","","","",""
"","","","","","image-keyboard-response","218","1140204","0.0-3.0-5.0-1.36","60ff11cfc567b54042430167","D2","batch4","pattern_response","2690","stim/yes_42_dia_w1_w.png","j","pattern_64","f","false","","","","2690","false","35","","","","","","","","","","","","","","","","",""
"","","","","","html-keyboard-response","219","1141524","0.0-3.0-5.0-0.37","60ff11cfc567b54042430167","D2","batch4","pattern_show_trial_num","null","<p class=block-text>Trial 38 out of 78</p>","null","","","","","","","","","","","","","","","","","","","","","","","","","",""
"","","","","","image-keyboard-response","220","1145203","0.0-3.0-5.0-1.37","60ff11cfc567b54042430167","D2","batch4","pattern_response","3677.2999997138977","stim/no_36_1_b.png","j","pattern_17","j","true","","","","3677.2999997138977","true","36","","","","","","","","","","","","","","","","",""
"","","","","","html-keyboard-response","221","1146519","0.0-3.0-5.0-0.38","60ff11cfc567b54042430167","D2","batch4","pattern_show_trial_num","null","<p class=block-text>Trial 39 out of 78</p>","null","","","","","","","","","","","","","","","","","","","","","","","","","",""
"","","","","","image-keyboard-response","222","1151592","0.0-3.0-5.0-1.38","60ff11cfc567b54042430167","D2","batch4","pattern_response","5071.099999904633","stim/no_58_1_w.png","j","pattern_35","j","true","","","","5071.099999904633","true","37","","","","","","","","","","","","","","","","",""
"","","","","","image-keyboard-response","223","1155251","0.0-3.0-6.0","60ff11cfc567b54042430167","D2","batch4","attention_check","3149.7999997138977","stim/empty_board.png","j","","j","true","","","","","","","500","[""f"",""j""]","","","","","","","","","","","","","","",""
"","","","","","html-keyboard-response","224","1156061","0.0-3.0-7.0-0.0","60ff11cfc567b54042430167","D2","batch4","pattern_show_trial_num","null","<p class=block-text>Trial 40 out of 78</p>","null","","","","","","","","","","","","","","","","","","","","","","","","","",""
"","","","","","image-keyboard-response","225","1159125","0.0-3.0-7.0-1.0","60ff11cfc567b54042430167","D2","batch4","pattern_response","3062.1000003814697","stim/no_20_1_w.png","j","pattern_06","j","true","","","","3062.1000003814697","true","38","","","","","","","","","","","","","","","","",""
"","","","","","html-keyboard-response","226","1160458","0.0-3.0-7.0-0.1","60ff11cfc567b54042430167","D2","batch4","pattern_show_trial_num","null","<p class=block-text>Trial 41 out of 78</p>","null","","","","","","","","","","","","","","","","","","","","","","","","","",""
"","","","","","image-keyboard-response","227","1164070","0.0-3.0-7.0-1.1","60ff11cfc567b54042430167","D2","batch4","pattern_response","3610.7000002861023","stim/no_32_1_w.png","j","pattern_14","j","true","","","","3610.7000002861023","true","39","","","","","","","","","","","","","","","","",""
"","","","","","html-keyboard-response","228","1165395","0.0-3.0-7.0-0.2","60ff11cfc567b54042430167","D2","batch4","pattern_show_trial_num","null","<p class=block-text>Trial 42 out of 78</p>","null","","","","","","","","","","","","","","","","","","","","","","","","","",""
"","","","","","image-keyboard-response","229","1173000","0.0-3.0-7.0-1.2","60ff11cfc567b54042430167","D2","batch4","pattern_response","7603.699999809265","stim/no_65_1_b.png","j","pattern_38","j","true","","","","7603.699999809265","true","40","","","","","","","","","","","","","","","","",""
"","","","","","html-keyboard-response","230","1174329","0.0-3.0-7.0-0.3","60ff11cfc567b54042430167","D2","batch4","pattern_show_trial_num","null","<p class=block-text>Trial 43 out of 78</p>","null","","","","","","","","","","","","","","","","","","","","","","","","","",""
"","","","","","image-keyboard-response","231","1175993","0.0-3.0-7.0-1.3","60ff11cfc567b54042430167","D2","batch4","pattern_response","1662.4000000953674","stim/yes_31_hor_b1.png","f","pattern_55","f","true","","","","1662.4000000953674","true","41","","","","","","","","","","","","","","","","",""
"","","","","","html-keyboard-response","232","1177315","0.0-3.0-7.0-0.4","60ff11cfc567b54042430167","D2","batch4","pattern_show_trial_num","null","<p class=block-text>Trial 44 out of 78</p>","null","","","","","","","","","","","","","","","","","","","","","","","","","",""
"","","","","","image-keyboard-response","233","1178180","0.0-3.0-7.0-1.4","60ff11cfc567b54042430167","D2","batch4","pattern_response","864.8000001907349","stim/yes_35_dia_b1.png","f","pattern_57","f","true","","","","864.8000001907349","true","42","","","","","","","","","","","","","","","","",""
"","","","","","html-keyboard-response","234","1179506","0.0-3.0-7.0-0.5","60ff11cfc567b54042430167","D2","batch4","pattern_show_trial_num","null","<p class=block-text>Trial 45 out of 78</p>","null","","","","","","","","","","","","","","","","","","","","","","","","","",""
"","","","","","image-keyboard-response","235","1181352","0.0-3.0-7.0-1.5","60ff11cfc567b54042430167","D2","batch4","pattern_response","1844.7999997138977","stim/yes_55_hor_w1_w.png","f","pattern_75","f","true","","","","1844.7999997138977","true","43","","","","","","","","","","","","","","","","",""
"","","","","","html-keyboard-response","236","1182677","0.0-3.0-7.0-0.6","60ff11cfc567b54042430167","D2","batch4","pattern_show_trial_num","null","<p class=block-text>Trial 46 out of 78</p>","null","","","","","","","","","","","","","","","","","","","","","","","","","",""
"","","","","","image-keyboard-response","237","1187096","0.0-3.0-7.0-1.6","60ff11cfc567b54042430167","D2","batch4","pattern_response","4417.599999904633","stim/no_42_1_w.png","j","pattern_22","j","true","","","","4417.599999904633","true","44","","","","","","","","","","","","","","","","",""
"","","","","","html-keyboard-response","238","1188422","0.0-3.0-7.0-0.7","60ff11cfc567b54042430167","D2","batch4","pattern_show_trial_num","null","<p class=block-text>Trial 47 out of 78</p>","null","","","","","","","","","","","","","","","","","","","","","","","","","",""
"","","","","","image-keyboard-response","239","1190065","0.0-3.0-7.0-1.7","60ff11cfc567b54042430167","D2","batch4","pattern_response","1641.3000001907349","stim/yes_29_ver_w1.png","f","pattern_53","f","true","","","","1641.3000001907349","true","45","","","","","","","","","","","","","","","","",""
"","","","","","html-keyboard-response","240","1191391","0.0-3.0-7.0-0.8","60ff11cfc567b54042430167","D2","batch4","pattern_show_trial_num","null","<p class=block-text>Trial 48 out of 78</p>","null","","","","","","","","","","","","","","","","","","","","","","","","","",""
"","","","","","image-keyboard-response","241","1193941","0.0-3.0-7.0-1.8","60ff11cfc567b54042430167","D2","batch4","pattern_response","2548.800000190735","stim/yes_60_ver_b1_b.png","f","pattern_77","f","true","","","","2548.800000190735","true","46","","","","","","","","","","","","","","","","",""
"","","","","","html-keyboard-response","242","1195267","0.0-3.0-7.0-0.9","60ff11cfc567b54042430167","D2","batch4","pattern_show_trial_num","null","<p class=block-text>Trial 49 out of 78</p>","null","","","","","","","","","","","","","","","","","","","","","","","","","",""
"","","","","","image-keyboard-response","243","1201642","0.0-3.0-7.0-1.9","60ff11cfc567b54042430167","D2","batch4","pattern_response","6374.099999904633","stim/no_52_1.png","j","pattern_32","j","true","","","","6374.099999904633","true","47","","","","","","","","","","","","","","","","",""
"","","","","","html-keyboard-response","244","1202970","0.0-3.0-7.0-0.10","60ff11cfc567b54042430167","D2","batch4","pattern_show_trial_num","null","<p class=block-text>Trial 50 out of 78</p>","null","","","","","","","","","","","","","","","","","","","","","","","","","",""
"","","","","","image-keyboard-response","245","1204915","0.0-3.0-7.0-1.10","60ff11cfc567b54042430167","D2","batch4","pattern_response","1943.9000000953674","stim/yes_67_hor_b1.png","f","pattern_79","f","true","","","","1943.9000000953674","true","48","","","","","","","","","","","","","","","","",""
"","","","","","html-keyboard-response","246","1206234","0.0-3.0-7.0-0.11","60ff11cfc567b54042430167","D2","batch4","pattern_show_trial_num","null","<p class=block-text>Trial 51 out of 78</p>","null","","","","","","","","","","","","","","","","","","","","","","","","","",""
"","","","","","image-keyboard-response","247","1209842","0.0-3.0-7.0-1.11","60ff11cfc567b54042430167","D2","batch4","pattern_response","3606.2999997138977","stim/no_38_1_b.png","j","pattern_20","j","true","","","","3606.2999997138977","true","49","","","","","","","","","","","","","","","","",""
"","","","","","html-keyboard-response","248","1211170","0.0-3.0-7.0-0.12","60ff11cfc567b54042430167","D2","batch4","pattern_show_trial_num","null","<p class=block-text>Trial 52 out of 78</p>","null","","","","","","","","","","","","","","","","","","","","","","","","","",""
"","","","","","image-keyboard-response","249","1212162","0.0-3.0-7.0-1.12","60ff11cfc567b54042430167","D2","batch4","pattern_response","990.4000000953674","stim/yes_22_ver_w1.png","f","pattern_47","f","true","","","","990.4000000953674","true","50","","","","","","","","","","","","","","","","",""
"","","","","","html-keyboard-response","250","1213488","0.0-3.0-7.0-0.13","60ff11cfc567b54042430167","D2","batch4","pattern_show_trial_num","null","<p class=block-text>Trial 53 out of 78</p>","null","","","","","","","","","","","","","","","","","","","","","","","","","",""
"","","","","","image-keyboard-response","251","1217235","0.0-3.0-7.0-1.13","60ff11cfc567b54042430167","D2","batch4","pattern_response","3745.5999999046326","stim/no_26_1_w.png","j","pattern_10","j","true","","","","3745.5999999046326","true","51","","","","","","","","","","","","","","","","",""
"","","","","","html-keyboard-response","252","1218544","0.0-3.0-7.0-0.14","60ff11cfc567b54042430167","D2","batch4","pattern_show_trial_num","null","<p class=block-text>Trial 54 out of 78</p>","null","","","","","","","","","","","","","","","","","","","","","","","","","",""
"","","","","","image-keyboard-response","253","1221830","0.0-3.0-7.0-1.14","60ff11cfc567b54042430167","D2","batch4","pattern_response","3284.3999996185303","stim/yes_40_dia_b1_b.png","f","pattern_63","f","true","","","","3284.3999996185303","true","52","","","","","","","","","","","","","","","","",""
"","","","","","html-keyboard-response","254","1223145","0.0-3.0-7.0-0.15","60ff11cfc567b54042430167","D2","batch4","pattern_show_trial_num","null","<p class=block-text>Trial 55 out of 78</p>","null","","","","","","","","","","","","","","","","","","","","","","","","","",""
"","","","","","image-keyboard-response","255","1227220","0.0-3.0-7.0-1.15","60ff11cfc567b54042430167","D2","batch4","pattern_response","4073.4000000953674","stim/no_36_2_w.png","j","pattern_18","j","true","","","","4073.4000000953674","true","53","","","","","","","","","","","","","","","","",""
"","","","","","html-keyboard-response","256","1228533","0.0-3.0-7.0-0.16","60ff11cfc567b54042430167","D2","batch4","pattern_show_trial_num","null","<p class=block-text>Trial 56 out of 78</p>","null","","","","","","","","","","","","","","","","","","","","","","","","","",""
"","","","","","image-keyboard-response","257","1234330","0.0-3.0-7.0-1.16","60ff11cfc567b54042430167","D2","batch4","pattern_response","5794.799999713898","stim/no_62_1_w.png","j","pattern_36","j","true","","","","5794.799999713898","true","54","","","","","","","","","","","","","","","","",""
"","","","","","html-keyboard-response","258","1235659","0.0-3.0-7.0-0.17","60ff11cfc567b54042430167","D2","batch4","pattern_show_trial_num","null","<p class=block-text>Trial 57 out of 78</p>","null","","","","","","","","","","","","","","","","","","","","","","","","","",""
"","","","","","image-keyboard-response","259","1239970","0.0-3.0-7.0-1.17","60ff11cfc567b54042430167","D2","batch4","pattern_response","4308.599999904633","stim/no_46_1_b.png","j","pattern_26","j","true","","","","4308.599999904633","true","55","","","","","","","","","","","","","","","","",""
"","","","","","html-keyboard-response","260","1241295","0.0-3.0-7.0-0.18","60ff11cfc567b54042430167","D2","batch4","pattern_show_trial_num","null","<p class=block-text>Trial 58 out of 78</p>","null","","","","","","","","","","","","","","","","","","","","","","","","","",""
"","","","","","image-keyboard-response","261","1243880","0.0-3.0-7.0-1.18","60ff11cfc567b54042430167","D2","batch4","pattern_response","2583.0999999046326","stim/no_23_1.png","j","pattern_08","j","true","","","","2583.0999999046326","true","56","","","","","","","","","","","","","","","","",""
"","","","","","html-keyboard-response","262","1245196","0.0-3.0-7.0-0.19","60ff11cfc567b54042430167","D2","batch4","pattern_show_trial_num","null","<p class=block-text>Trial 59 out of 78</p>","null","","","","","","","","","","","","","","","","","","","","","","","","","",""
"","","","","","image-keyboard-response","263","1246681","0.0-3.0-7.0-1.19","60ff11cfc567b54042430167","D2","batch4","pattern_response","1483.1000003814697","stim/yes_25_hor_b1_b.png","f","pattern_49","f","true","","","","1483.1000003814697","true","57","","","","","","","","","","","","","","","","",""
"","","","","","html-keyboard-response","264","1247997","0.0-3.0-7.0-0.20","60ff11cfc567b54042430167","D2","batch4","pattern_show_trial_num","null","<p class=block-text>Trial 60 out of 78</p>","null","","","","","","","","","","","","","","","","","","","","","","","","","",""
"","","","","","image-keyboard-response","265","1250050","0.0-3.0-7.0-1.20","60ff11cfc567b54042430167","D2","batch4","pattern_response","2051.2000002861023","stim/no_17_1_w.png","j","pattern_04","j","true","","","","2051.2000002861023","true","58","","","","","","","","","","","","","","","","",""
"","","","","","html-keyboard-response","266","1251376","0.0-3.0-7.0-0.21","60ff11cfc567b54042430167","D2","batch4","pattern_show_trial_num","null","<p class=block-text>Trial 61 out of 78</p>","null","","","","","","","","","","","","","","","","","","","","","","","","","",""
"","","","","","image-keyboard-response","267","1255317","0.0-3.0-7.0-1.21","60ff11cfc567b54042430167","D2","batch4","pattern_response","3939.300000190735","stim/yes_37_dia_w1.png","j","pattern_59","f","false","","","","3939.300000190735","false","58","","","","","","","","","","","","","","","","",""
"","","","","","html-keyboard-response","268","1256646","0.0-3.0-7.0-0.22","60ff11cfc567b54042430167","D2","batch4","pattern_show_trial_num","null","<p class=block-text>Trial 62 out of 78</p>","null","","","","","","","","","","","","","","","","","","","","","","","","","",""
"","","","","","image-keyboard-response","269","1261198","0.0-3.0-7.0-1.22","60ff11cfc567b54042430167","D2","batch4","pattern_response","4550.099999904633","stim/no_44_1.png","j","pattern_24","j","true","","","","4550.099999904633","true","59","","","","","","","","","","","","","","","","",""
"","","","","","html-keyboard-response","270","1262522","0.0-3.0-7.0-0.23","60ff11cfc567b54042430167","D2","batch4","pattern_show_trial_num","null","<p class=block-text>Trial 63 out of 78</p>","null","","","","","","","","","","","","","","","","","","","","","","","","","",""
"","","","","","image-keyboard-response","271","1263740","0.0-3.0-7.0-1.23","60ff11cfc567b54042430167","D2","batch4","pattern_response","1216.3999996185303","stim/no_13_2_b.png","j","pattern_02","j","true","","","","1216.3999996185303","true","60","","","","","","","","","","","","","","","","",""
"","","","","","html-keyboard-response","272","1265066","0.0-3.0-7.0-0.24","60ff11cfc567b54042430167","D2","batch4","pattern_show_trial_num","null","<p class=block-text>Trial 64 out of 78</p>","null","","","","","","","","","","","","","","","","","","","","","","","","","",""
"","","","","","image-keyboard-response","273","1266131","0.0-3.0-7.0-1.24","60ff11cfc567b54042430167","D2","batch4","pattern_response","1064.2999997138977","stim/yes_28_ver_b1.png","f","pattern_51","f","true","","","","1064.2999997138977","true","61","","","","","","","","","","","","","","","","",""
"","","","","","html-keyboard-response","274","1267451","0.0-3.0-7.0-0.25","60ff11cfc567b54042430167","D2","batch4","pattern_show_trial_num","null","<p class=block-text>Trial 65 out of 78</p>","null","","","","","","","","","","","","","","","","","","","","","","","","","",""
"","","","","","image-keyboard-response","275","1268242","0.0-3.0-7.0-1.25","60ff11cfc567b54042430167","D2","batch4","pattern_response","790.2000002861023","stim/yes_17_dia_w1.png","f","pattern_45","f","true","","","","790.2000002861023","true","62","","","","","","","","","","","","","","","","",""
"","","","","","html-keyboard-response","276","1269557","0.0-3.0-7.0-0.26","60ff11cfc567b54042430167","D2","batch4","pattern_show_trial_num","null","<p class=block-text>Trial 66 out of 78</p>","null","","","","","","","","","","","","","","","","","","","","","","","","","",""
"","","","","","image-keyboard-response","277","1273348","0.0-3.0-7.0-1.26","60ff11cfc567b54042430167","D2","batch4","pattern_response","3789.699999809265","stim/yes_43_ver_w1_w.png","f","pattern_65","f","true","","","","3789.699999809265","true","63","","","","","","","","","","","","","","","","",""
"","","","","","html-keyboard-response","278","1274670","0.0-3.0-7.0-0.27","60ff11cfc567b54042430167","D2","batch4","pattern_show_trial_num","null","<p class=block-text>Trial 67 out of 78</p>","null","","","","","","","","","","","","","","","","","","","","","","","","","",""
"","","","","","image-keyboard-response","279","1277783","0.0-3.0-7.0-1.27","60ff11cfc567b54042430167","D2","batch4","pattern_response","3111.1000003814697","stim/no_50_1.png","j","pattern_30","j","true","","","","3111.1000003814697","true","64","","","","","","","","","","","","","","","","",""
"","","","","","html-keyboard-response","280","1279110","0.0-3.0-7.0-0.28","60ff11cfc567b54042430167","D2","batch4","pattern_show_trial_num","null","<p class=block-text>Trial 68 out of 78</p>","null","","","","","","","","","","","","","","","","","","","","","","","","","",""
"","","","","","image-keyboard-response","281","1281839","0.0-3.0-7.0-1.28","60ff11cfc567b54042430167","D2","batch4","pattern_response","2727.300000190735","stim/no_34_1_b.png","j","pattern_16","j","true","","","","2727.300000190735","true","65","","","","","","","","","","","","","","","","",""
"","","","","","html-keyboard-response","282","1283153","0.0-3.0-7.0-0.29","60ff11cfc567b54042430167","D2","batch4","pattern_show_trial_num","null","<p class=block-text>Trial 69 out of 78</p>","null","","","","","","","","","","","","","","","","","","","","","","","","","",""
"","","","","","image-keyboard-response","283","1287130","0.0-3.0-7.0-1.29","60ff11cfc567b54042430167","D2","batch4","pattern_response","3975.699999809265","stim/no_55_1_w.png","j","pattern_34","j","true","","","","3975.699999809265","true","66","","","","","","","","","","","","","","","","",""
"","","","","","html-keyboard-response","284","1288454","0.0-3.0-7.0-0.30","60ff11cfc567b54042430167","D2","batch4","pattern_show_trial_num","null","<p class=block-text>Trial 70 out of 78</p>","null","","","","","","","","","","","","","","","","","","","","","","","","","",""
"","","","","","image-keyboard-response","285","1292123","0.0-3.0-7.0-1.30","60ff11cfc567b54042430167","D2","batch4","pattern_response","3667.4000000953674","stim/no_70_2.png","j","pattern_40","j","true","","","","3667.4000000953674","true","67","","","","","","","","","","","","","","","","",""
"","","","","","html-keyboard-response","286","1293453","0.0-3.0-7.0-0.31","60ff11cfc567b54042430167","D2","batch4","pattern_show_trial_num","null","<p class=block-text>Trial 71 out of 78</p>","null","","","","","","","","","","","","","","","","","","","","","","","","","",""
"","","","","","image-keyboard-response","287","1296214","0.0-3.0-7.0-1.31","60ff11cfc567b54042430167","D2","batch4","pattern_response","2759.7999997138977","stim/no_48_1_w.png","j","pattern_28","j","true","","","","2759.7999997138977","true","68","","","","","","","","","","","","","","","","",""
"","","","","","html-keyboard-response","288","1297540","0.0-3.0-7.0-0.32","60ff11cfc567b54042430167","D2","batch4","pattern_show_trial_num","null","<p class=block-text>Trial 72 out of 78</p>","null","","","","","","","","","","","","","","","","","","","","","","","","","",""
"","","","","","image-keyboard-response","289","1299624","0.0-3.0-7.0-1.32","60ff11cfc567b54042430167","D2","batch4","pattern_response","2082.9000000953674","stim/yes_14_hor_b1_w.png","f","pattern_43","f","true","","","","2082.9000000953674","true","69","","","","","","","","","","","","","","","","",""
"","","","","","html-keyboard-response","290","1300935","0.0-3.0-7.0-0.33","60ff11cfc567b54042430167","D2","batch4","pattern_show_trial_num","null","<p class=block-text>Trial 73 out of 78</p>","null","","","","","","","","","","","","","","","","","","","","","","","","","",""
"","","","","","image-keyboard-response","291","1302722","0.0-3.0-7.0-1.33","60ff11cfc567b54042430167","D2","batch4","pattern_response","1785.6000003814697","stim/yes_52_ver_w1.png","f","pattern_73","f","true","","","","1785.6000003814697","true","70","","","","","","","","","","","","","","","","",""
"","","","","","html-keyboard-response","292","1304048","0.0-3.0-7.0-0.34","60ff11cfc567b54042430167","D2","batch4","pattern_show_trial_num","null","<p class=block-text>Trial 74 out of 78</p>","null","","","","","","","","","","","","","","","","","","","","","","","","","",""
"","","","","","image-keyboard-response","293","1305036","0.0-3.0-7.0-1.34","60ff11cfc567b54042430167","D2","batch4","pattern_response","986.0999999046326","stim/yes_38_hor_b1_b.png","f","pattern_61","f","true","","","","986.0999999046326","true","71","","","","","","","","","","","","","","","","",""
"","","","","","html-keyboard-response","294","1306346","0.0-3.0-7.0-0.35","60ff11cfc567b54042430167","D2","batch4","pattern_show_trial_num","null","<p class=block-text>Trial 75 out of 78</p>","null","","","","","","","","","","","","","","","","","","","","","","","","","",""
"","","","","","image-keyboard-response","295","1307943","0.0-3.0-7.0-1.35","60ff11cfc567b54042430167","D2","batch4","pattern_response","1595.5","stim/yes_45_hor_b2_b.png","f","pattern_67","f","true","","","","1595.5","true","72","","","","","","","","","","","","","","","","",""
"","","","","","html-keyboard-response","296","1309268","0.0-3.0-7.0-0.36","60ff11cfc567b54042430167","D2","batch4","pattern_show_trial_num","null","<p class=block-text>Trial 76 out of 78</p>","null","","","","","","","","","","","","","","","","","","","","","","","","","",""
"","","","","","image-keyboard-response","297","1312393","0.0-3.0-7.0-1.36","60ff11cfc567b54042430167","D2","batch4","pattern_response","3123.800000190735","stim/yes_48_dia_w1_w.png","f","pattern_69","f","true","","","","3123.800000190735","true","73","","","","","","","","","","","","","","","","",""
"","","","","","html-keyboard-response","298","1313696","0.0-3.0-7.0-0.37","60ff11cfc567b54042430167","D2","batch4","pattern_show_trial_num","null","<p class=block-text>Trial 77 out of 78</p>","null","","","","","","","","","","","","","","","","","","","","","","","","","",""
"","","","","","image-keyboard-response","299","1317834","0.0-3.0-7.0-1.37","60ff11cfc567b54042430167","D2","batch4","pattern_response","4136.700000286102","stim/no_29_1_b.png","j","pattern_12","j","true","","","","4136.700000286102","true","74","","","","","","","","","","","","","","","","",""
"","","","","","html-keyboard-response","300","1319150","0.0-3.0-7.0-0.38","60ff11cfc567b54042430167","D2","batch4","pattern_show_trial_num","null","<p class=block-text>Trial 78 out of 78</p>","null","","","","","","","","","","","","","","","","","","","","","","","","","",""
"","","","","","image-keyboard-response","301","1325163","0.0-3.0-7.0-1.38","60ff11cfc567b54042430167","D2","batch4","pattern_response","6011.5","stim/yes_50_dia_w1.png","f","pattern_71","f","true","","","","6011.5","true","75","","","","","","","","","","","","","","","","",""
"","","","","","html-button-response","302","1333263","0.0-3.0-8.0","60ff11cfc567b54042430167","D2","batch4","","7590.199999809265","<p class = block-text>This concludes the 4-in-a-row detection game.Thank you for your responses!<br>
            You responded correctly on 96% of the trials.<br>
            When you are ready, press ""Continue"" button to continue </p>","0","","","","","","","","","","","","","","","","","","","","","","","","","",""
"true","","","","","fullscreen","303","1353460","0.0-4.0-0.0","60ff11cfc567b54042430167","D2","batch4","","","","","","","","","","","","","","","","","","","","","","","","","","","","","",""
"","","","","","instructions","304","1397447","0.0-4.0-1.0-0.0-0.0","60ff11cfc567b54042430167","D2","batch4","tol-instructions","43986.89999961853","","","","","","","","[{""page_index"":0,""viewing_time"":10007.699999809265},{""page_index"":1,""viewing_time"":5404.099999904633},{""page_index"":2,""viewing_time"":2913.0999999046326},{""page_index"":3,""viewing_time"":6724.900000095367},{""page_index"":4,""viewing_time"":3794.5},{""page_index"":5,""viewing_time"":11525.800000190735},{""page_index"":6,""viewing_time"":3616.5}]","","","","","","","","","","","","","","","","","","","",""
"","","","","","html-button-response","305","1398596","0.0-4.0-1.0-1.0-0.0","60ff11cfc567b54042430167","D2","batch4","tol_enter_quiz","1147.5","<p class=block-text> Let's answer a few questions <br>","0","","","","","","","","","","","","","","","","","","","","","","","","","",""
"","","","","","html-button-response","306","1403744","0.0-4.0-1.0-1.0-1.0","60ff11cfc567b54042430167","D2","batch4","tol_quiz","5147.200000286102","<p class = block-text>True or False: You can only move the ball on top of a peg. <br></p>","0","","","true","","","","","","","","","","","","","","","","","","","","","","",""
"","","","","","html-button-response","307","1404968","0.0-4.0-1.0-1.0-2.0","60ff11cfc567b54042430167","D2","batch4","tol_quiz_feedback","1223.5","<p class = block-text>Correct! You can only move the ball on top of a peg.</p>","0","","","","","","","","","","","","","","","","","","","","","","","","","",""
"","","","","","html-button-response","308","1407211","0.0-4.0-1.0-1.0-3.0","60ff11cfc567b54042430167","D2","batch4","tol_quiz","2241.300000190735","<p class = block-text>True or False: You should try to match your board with the target board with fewest moves possible. <br></p>","0","","","true","","","","","","","","","","","","","","","","","","","","","","",""
"","","","","","html-button-response","309","1408114","0.0-4.0-1.0-1.0-4.0","60ff11cfc567b54042430167","D2","batch4","tol_quiz_feedback","902.4000000953674","<p class = block-text>Correct! </p>","0","","","","","","","","","","","","","","","","","","","","","","","","","",""
"","","","","","html-button-response","310","1412290","0.0-4.0-2.0","60ff11cfc567b54042430167","D2","batch4","","4175","<p class=block-text> Now that you've understood the game, let's practice a few easier examples before we start!<br> <br>","0","","","","","","","","","","","","","","","","","","","","","","","","","",""
"","","","","","single-stim-button","311","1414773","0.0-4.0-3.0-0.0","60ff11cfc567b54042430167","D2","batch4","tol_practice","2481","","","","","","","","","","","","","","tol_peg_2","2481","2481","0","[[1,2,0],[0,0],[0]]","1","[[1,2,0],[0,0],[3]]","practice","2481","","","","","",""
"","","","","","single-stim-button","312","1416311","0.0-4.0-3.0-1.0","60ff11cfc567b54042430167","D2","batch4","tol_practice","1538","","","","","","","","","","","","","","tol_peg_3","1538","1538","0","[[1,2,0],[0,0],[3]]","1","[[1,2,0],[0,0],[3]]","practice","1538","","","","","",""
"","","","","","poldrack-single-stim","313","1417314","0.0-4.0-4.0","60ff11cfc567b54042430167","D2","batch4","tol_feedback","-1","","","","","true","","","","","","","","","","1000","1000","500","","","","","","-1","none","true","","0",""
"","","","","","single-stim-button","314","1420642","0.0-4.0-5.0-0.0","60ff11cfc567b54042430167","D2","batch4","tol_practice","3326","","","","","","","","","","","","","","tol_peg_1","3326","3326","0","[[1,0,0],[3,0],[0]]","2","[[0,0,0],[3,1],[2]]","practice","3326","","","","","",""
"","","","","","single-stim-button","315","1422247","0.0-4.0-5.0-1.0","60ff11cfc567b54042430167","D2","batch4","tol_practice","1604","","","","","","","","","","","","","","tol_peg_3","1604","1604","0","[[1,0,0],[3,0],[2]]","2","[[0,0,0],[3,1],[2]]","practice","1604","","","","","",""
"","","","","","single-stim-button","316","1423191","0.0-4.0-5.1-0.1","60ff11cfc567b54042430167","D2","batch4","tol_practice","943","","","","","","","","","","","","","","tol_peg_1","943","943","0","[[0,0,0],[3,0],[2]]","3","[[0,0,0],[3,1],[2]]","practice","943","","","","","",""
"","","","","","single-stim-button","317","1423937","0.0-4.0-5.1-1.1","60ff11cfc567b54042430167","D2","batch4","tol_practice","746","","","","","","","","","","","","","","tol_peg_2","746","746","0","[[0,0,0],[3,1],[2]]","3","[[0,0,0],[3,1],[2]]","practice","746","","","","","",""
"","","","","","poldrack-single-stim","318","1424953","0.0-4.0-6.0","60ff11cfc567b54042430167","D2","batch4","tol_feedback","-1","","","","","true","","","","","","","","","","1000","1000","500","","","","","","-1","none","true","","0",""
"","","","","","single-stim-button","319","1428131","0.0-4.0-7.0-0.0","60ff11cfc567b54042430167","D2","batch4","tol_practice","3178","","","","","","","","","","","","","","tol_peg_2","3178","3178","0","[[1,2,0],[0,0],[0]]","4","[[1,0,0],[2,0],[3]]","practice","3178","","","","","",""
"","","","","","single-stim-button","320","1429175","0.0-4.0-7.0-1.0","60ff11cfc567b54042430167","D2","batch4","tol_practice","1043","","","","","","","","","","","","","","tol_peg_3","1043","1043","0","[[1,2,0],[0,0],[3]]","4","[[1,0,0],[2,0],[3]]","practice","1043","","","","","",""
"","","","","","single-stim-button","321","1430266","0.0-4.0-7.1-0.1","60ff11cfc567b54042430167","D2","batch4","tol_practice","1091","","","","","","","","","","","","","","tol_peg_1","1091","1091","0","[[1,0,0],[0,0],[3]]","5","[[1,0,0],[2,0],[3]]","practice","1091","","","","","",""
"","","","","","single-stim-button","322","1430926","0.0-4.0-7.1-1.1","60ff11cfc567b54042430167","D2","batch4","tol_practice","660","","","","","","","","","","","","","","tol_peg_2","660","660","0","[[1,0,0],[2,0],[3]]","5","[[1,0,0],[2,0],[3]]","practice","660","","","","","",""
"","","","","","poldrack-single-stim","323","1431939","0.0-4.0-8.0","60ff11cfc567b54042430167","D2","batch4","tol_feedback","-1","","","","","true","","","","","","","","","","1000","1000","500","","","","","","-1","none","true","","0",""
"","","","","","html-button-response","324","1435256","0.0-4.0-9.0","60ff11cfc567b54042430167","D2","batch4","tol_instruction","3316","<div class = centerbox><p class = center-block-text>Great job! You are done with practice trials<br>You are about to start official trials.<br> <br> Problem <strong>1</strong> out of 25 problems</p></div>","0","","","","","","","","","","","","","","","","","","","","","","","","","",""
"","","","","","single-stim-button","325","1439479","0.0-4.0-10.0-0.0","60ff11cfc567b54042430167","D2","batch4","tol_tohand","3209","","","","","","","","","","","","","","tol_peg_1","3209","3209","0","[[1,0,0],[3,0],[0]]","1","[[1,3,0],[2,0],[0]]","0","0","","","","","","3"
"","","","","","single-stim-button","326","1440393","0.0-4.0-10.0-1.0","60ff11cfc567b54042430167","D2","batch4","tol_toboard","913","","","","","","","","","","","","","","tol_peg_3","913","913","0","[[1,0,0],[3,0],[2]]","1","[[1,3,0],[2,0],[0]]","0","0","","","","","","3"
"","","","","","single-stim-button","327","1440798","0.0-4.0-10.1-0.1","60ff11cfc567b54042430167","D2","batch4","tol_tohand","404","","","","","","","","","","","","","","tol_peg_3","404","404","0","[[1,0,0],[3,0],[0]]","2","[[1,3,0],[2,0],[0]]","0","0","","","","","","3"
"","","","","","single-stim-button","328","1443737","0.0-4.0-10.1-1.1","60ff11cfc567b54042430167","D2","batch4","tol_toboard","2939","","","","","","","","","","","","","","tol_peg_3","2939","2939","0","[[1,0,0],[3,0],[2]]","2","[[1,3,0],[2,0],[0]]","0","0","","","","","","3"
"","","","","","single-stim-button","329","1444407","0.0-4.0-10.2-0.2","60ff11cfc567b54042430167","D2","batch4","tol_tohand","668","","","","","","","","","","","","","","tol_peg_2","668","668","0","[[1,0,0],[0,0],[2]]","3","[[1,3,0],[2,0],[0]]","0","0","","","","","","3"
"","","","","","single-stim-button","330","1445492","0.0-4.0-10.2-1.2","60ff11cfc567b54042430167","D2","batch4","tol_toboard","1085","","","","","","","","","","","","","","tol_peg_1","1085","1085","0","[[1,3,0],[0,0],[2]]","3","[[1,3,0],[2,0],[0]]","0","0","","","","","","3"
"","","","","","single-stim-button","331","1446323","0.0-4.0-10.3-0.3","60ff11cfc567b54042430167","D2","batch4","tol_tohand","829","","","","","","","","","","","","","","tol_peg_3","829","829","0","[[1,3,0],[0,0],[0]]","4","[[1,3,0],[2,0],[0]]","0","0","","","","","","3"
"","","","","","single-stim-button","332","1446949","0.0-4.0-10.3-1.3","60ff11cfc567b54042430167","D2","batch4","tol_toboard","626","","","","","","","","","","","","","","tol_peg_2","626","626","0","[[1,3,0],[2,0],[0]]","4","[[1,3,0],[2,0],[0]]","0","0","","","","","","3"
"","","","","","poldrack-single-stim","333","1447957","0.0-4.0-11.0","60ff11cfc567b54042430167","D2","batch4","tol_feedback","-1","","","","","true","","","","","","","","","","1000","1000","500","","","","","","-1","none","true","3209","5110",""
"","","","","","html-button-response","334","1449366","0.0-4.0-12.0","60ff11cfc567b54042430167","D2","batch4","tol_trial_num","1408","<div class = centerbox><p class = center-block-text>problem <strong>2</strong> out of 25 problems</p></div>","0","","","","","","","","","","","","","","","","","","","","","","","","","",""
"","","","","","single-stim-button","335","1453099","0.0-4.0-13.0-0.0","60ff11cfc567b54042430167","D2","batch4","tol_tohand","3731","","","","","","","","","","","","","","tol_peg_1","3731","3731","0","[[1,0,0],[3,0],[0]]","1","[[2,1,3],[0,0],[0]]","1","0","","","","","","5"
"","","","","","single-stim-button","336","1455082","0.0-4.0-13.0-1.0","60ff11cfc567b54042430167","D2","batch4","tol_toboard","1983","","","","","","","","","","","","","","tol_peg_3","1983","1983","0","[[1,0,0],[3,0],[2]]","1","[[2,1,3],[0,0],[0]]","1","0","","","","","","5"
"","","","","","single-stim-button","337","1459817","0.0-4.0-13.1-0.1","60ff11cfc567b54042430167","D2","batch4","tol_tohand","4734","","","","","","","","","","","","","","tol_peg_3","4734","4734","0","[[1,0,0],[3,0],[0]]","2","[[2,1,3],[0,0],[0]]","1","0","","","","","","5"
"","","","","","single-stim-button","338","1460522","0.0-4.0-13.1-1.1","60ff11cfc567b54042430167","D2","batch4","tol_toboard","705","","","","","","","","","","","","","","tol_peg_2","705","705","0","[[1,0,0],[3,2],[0]]","2","[[2,1,3],[0,0],[0]]","1","0","","","","","","5"
"","","","","","single-stim-button","339","1461199","0.0-4.0-13.2-0.2","60ff11cfc567b54042430167","D2","batch4","tol_tohand","676","","","","","","","","","","","","","","tol_peg_1","676","676","0","[[0,0,0],[3,2],[0]]","3","[[2,1,3],[0,0],[0]]","1","0","","","","","","5"
"","","","","","single-stim-button","340","1462224","0.0-4.0-13.2-1.2","60ff11cfc567b54042430167","D2","batch4","tol_toboard","1025","","","","","","","","","","","","","","tol_peg_3","1025","1025","0","[[0,0,0],[3,2],[1]]","3","[[2,1,3],[0,0],[0]]","1","0","","","","","","5"
"","","","","","single-stim-button","341","1462932","0.0-4.0-13.3-0.3","60ff11cfc567b54042430167","D2","batch4","tol_tohand","707","","","","","","","","","","","","","","tol_peg_2","707","707","0","[[0,0,0],[3,0],[1]]","4","[[2,1,3],[0,0],[0]]","1","0","","","","","","5"
"","","","","","single-stim-button","342","1463806","0.0-4.0-13.3-1.3","60ff11cfc567b54042430167","D2","batch4","tol_toboard","874","","","","","","","","","","","","","","tol_peg_1","874","874","0","[[2,0,0],[3,0],[1]]","4","[[2,1,3],[0,0],[0]]","1","0","","","","","","5"
"","","","","","single-stim-button","343","1464694","0.0-4.0-13.4-0.4","60ff11cfc567b54042430167","D2","batch4","tol_tohand","887","","","","","","","","","","","","","","tol_peg_3","887","887","0","[[2,0,0],[3,0],[0]]","5","[[2,1,3],[0,0],[0]]","1","0","","","","","","5"
"","","","","","single-stim-button","344","1465716","0.0-4.0-13.4-1.4","60ff11cfc567b54042430167","D2","batch4","tol_toboard","1021","","","","","","","","","","","","","","tol_peg_1","1021","1021","0","[[2,1,0],[3,0],[0]]","5","[[2,1,3],[0,0],[0]]","1","0","","","","","","5"
"","","","","","single-stim-button","345","1466306","0.0-4.0-13.5-0.5","60ff11cfc567b54042430167","D2","batch4","tol_tohand","589","","","","","","","","","","","","","","tol_peg_2","589","589","0","[[2,1,0],[0,0],[0]]","6","[[2,1,3],[0,0],[0]]","1","0","","","","","","5"
"","","","","","single-stim-button","346","1467009","0.0-4.0-13.5-1.5","60ff11cfc567b54042430167","D2","batch4","tol_toboard","702","","","","","","","","","","","","","","tol_peg_1","702","702","0","[[2,1,3],[0,0],[0]]","6","[[2,1,3],[0,0],[0]]","1","0","","","","","","5"
"","","","","","poldrack-single-stim","347","1468020","0.0-4.0-14.0","60ff11cfc567b54042430167","D2","batch4","tol_feedback","-1","","","","","true","","","","","","","","","","1000","1000","500","","","","","","-1","none","true","3731","11324",""
